timestamp_ms,acc_x,acc_y,acc_z,gyro_x,gyro_y,gyro_z
1769168072464,-0.0786895751953125,-0.0605010986328125,-0.9951324462890624,-0.0072754896245896,0.0138625521212816,-0.020051471889019
1769168072473,-0.0747528076171875,-0.0641326904296875,-0.9945220947265624,-0.0080597903579473,0.0126817068085074,-0.0162111949175596
1769168072483,-0.0685882568359375,-0.0671844482421875,-0.9919586181640624,-0.0089223887771368,0.0126351015642285,-0.00998898409307
1769168072493,-0.06927490234375,-0.068359375,-0.9900360107421876,-0.0090864393860101,0.0091415662318468,-0.0081993406638503
1769168072503,-0.0726470947265625,-0.06707763671875,-0.9861297607421876,-0.0178423803299665,0.0061292652972042,-0.0082446141168475
1769168072513,-0.0727691650390625,-0.0650177001953125,-0.9844818115234376,-0.0270326826721429,0.0103756757453084,-0.0040365532040596
1769168072523,-0.0725250244140625,-0.0643463134765625,-0.9841461181640624,-0.0374653488397598,0.0146607020869851,-0.0002189118386013
1769168072533,-0.0710601806640625,-0.061859130859375,-0.99029541015625,-0.0391846857964992,0.0072110411711037,0.0032916669733822
1769168072543,-0.0762176513671875,-0.0577239990234375,-0.997406005859375,-0.0368464328348636,0.0053401705808937,0.0011707255616784
1769168072554,-0.08026123046875,-0.05804443359375,-1.0022430419921875,-0.027224963530898,0.012991165742278,-0.0022916500456631
1769168072564,-0.07904052734375,-0.0572509765625,-1.0086517333984375,-0.0142199480906128,0.0215771980583667,-0.0023656859993934
1769168072574,-0.0743865966796875,-0.05908203125,-1.0106353759765625,0.0005779059720225,0.0243285093456506,0.0007001450285315
1769168072584,-0.073455810546875,-0.0606536865234375,-1.010009765625,0.0111080445349216,0.0214624144136905,0.0021683457307517
1769168072594,-0.0779571533203125,-0.0608062744140625,-1.0027008056640625,0.0108097707852721,0.0242329016327857,-0.0007866977830417
1769168072604,-0.0765228271484375,-0.0611572265625,-0.994842529296875,0.0099860550835728,0.0213079508394002,-0.0002838929649442
1769168072614,-0.07110595703125,-0.0630645751953125,-0.9919586181640624,0.0052448292262852,0.0158106554299592,0.002773682354018
1769168072624,-0.0704193115234375,-0.0631866455078125,-0.9888153076171876,-0.0010847054654732,0.0113578494638204,0.0040749027393758
1769168072634,-0.07208251953125,-0.061004638671875,-0.987701416015625,-0.0089681949466466,0.0110001871362328,0.0045862295664846
1769168072644,-0.0751495361328125,-0.0631561279296875,-0.9826507568359376,-0.0174847170710563,0.0191356111317873,0.0081079937517642
1769168072654,-0.074615478515625,-0.06005859375,-0.9862518310546876,-0.0176287945359945,0.0222965162247419,0.0074629760347306
1769168072664,-0.07537841796875,-0.0590362548828125,-0.9957427978515624,-0.0113764917477965,0.0149890696629881,0.0072043831460177
1769168072674,-0.07574462890625,-0.0603485107421875,-1.0009002685546875,-0.0041260356083512,0.0146612338721752,0.0061921156011521
1769168072684,-0.0751953125,-0.0604400634765625,-1.00018310546875,0.0031917984597384,0.0214352514594793,0.0092486254870891
1769168072694,-0.0774993896484375,-0.0603485107421875,-0.999542236328125,0.0053002233617007,0.0219963788986206,0.0070224893279373
1769168072704,-0.079132080078125,-0.0603179931640625,-0.994964599609375,0.00407250598073,0.0245133321732282,0.0065255435183644
1769168072714,-0.0794219970703125,-0.0618438720703125,-0.9900360107421876,0.0013100089272484,0.0337949804961681,0.0062733422964811
1769168072724,-0.077667236328125,-0.061981201171875,-0.9904937744140624,0.0032008532434701,0.0261972490698099,0.0062768044881522
1769168072734,-0.07684326171875,-0.059906005859375,-0.9912109375,0.0,0.0155182396993041,0.0024833977222442
1769168072744,-0.078155517578125,-0.0573577880859375,-0.98760986328125,-0.0073729613795876,0.0110651683062314,-0.0008540757698938
1769168072755,-0.078887939453125,-0.0589447021484375,-0.985748291015625,-0.0126705216243863,0.0060645504854619,-0.0014106763992458
1769168072764,-0.0726776123046875,-0.065460205078125,-0.9844818115234376,-0.0239154528826475,-0.0012977584265172,0.0036682379432022
1769168072774,-0.067352294921875,-0.0621795654296875,-0.9846343994140624,-0.0237450096756219,0.0023134879302233,0.0019265307346358
1769168072785,-0.075042724609375,-0.0604400634765625,-0.9943695068359376,-0.0224728174507617,0.0139200761914253,0.0072256885468959
1769168072795,-0.0695037841796875,-0.060516357421875,-0.993133544921875,-0.020264258608222,0.0169251877814531,0.0070760189555585
1769168072805,-0.075439453125,-0.0560302734375,-0.9927520751953124,-0.0125205852091312,0.0269698314368724,0.0018873822409659
1769168072815,-0.0877838134765625,-0.048858642578125,-0.995330810546875,-0.0070888022892177,0.0321787074208259,-0.0074890754185616
1769168072825,-0.0875701904296875,-0.0514678955078125,-0.9939727783203124,-0.0134228644892573,0.0291962344199419,-0.0119482725858688
1769168072835,-0.0704193115234375,-0.06536865234375,-0.9855194091796876,-0.0302947890013456,0.0117261642590165,-0.0015456987312063
1769168072845,-0.0640869140625,-0.068359375,-0.9863128662109376,-0.02630883641541,0.0031872710678726,-0.0043119238689541
1769168072855,-0.0778045654296875,-0.057861328125,-1.000823974609375,-0.0141560323536396,0.0142718805000185,-0.011657721363008
1769168072865,-0.0811767578125,-0.0495452880859375,-1.002838134765625,-0.0099783316254615,0.0139014348387718,-0.0158069264143705
1769168072875,-0.074951171875,-0.0507965087890625,-0.99200439453125,-0.021174794062972,0.0077995997853577,-0.0130468262359499
1769168072885,-0.0668182373046875,-0.0562744140625,-0.986480712890625,-0.0341321378946304,0.0019001654582098,-0.0061652180738747
1769168072895,-0.064483642578125,-0.0588531494140625,-0.98828125,-0.0392557941377162,0.0081423483788967,-0.0004996090428903
1769168072905,-0.0645904541015625,-0.060211181640625,-0.994720458984375,-0.0356549322605133,0.0079167792573571,0.0045960834249854
1769168072915,-0.0634765625,-0.0608978271484375,-1.0005340576171875,-0.0268012546002864,0.0058368500322103,0.0066014435142278
1769168072925,-0.06390380859375,-0.0615692138671875,-1.0017852783203125,-0.0176801942288875,0.0071849422529339,0.0057180733419954
1769168072935,-0.06884765625,-0.060821533203125,-1.002349853515625,-0.0069175609387457,0.0102499742060899,0.0013443636707961
1769168072945,-0.073944091796875,-0.0627288818359375,-1.00506591796875,0.0046701193787157,0.0091524859890341,0.0004370247188489
1769168072955,-0.07470703125,-0.062591552734375,-1.000640869140625,0.0058072889223694,0.0133245941251516,0.0031430625822395
1769168072965,-0.075164794921875,-0.0589447021484375,-0.996185302734375,0.0078304922208189,0.0048623993061482,0.0001592570333741
1769168072975,-0.07696533203125,-0.058380126953125,-0.9958648681640624,0.0064650899730622,-0.0054674698039889,-0.0010969560826197
1769168072986,-0.073150634765625,-0.0565032958984375,-0.9916839599609376,0.0020919130183756,-0.0119147161021828,0.0003470098890829
1769168072995,-0.0725860595703125,-0.05657958984375,-0.9864349365234376,-0.0099101550877094,-0.0117453392595052,-0.001234641415067
1769168073005,-0.07159423828125,-0.0566864013671875,-0.9827728271484376,-0.0185702219605445,-0.0124340327456593,-0.0006436860421672
1769168073016,-0.0693511962890625,-0.05712890625,-0.9821929931640624,-0.0306492559611797,-0.004439755808562,0.0054706656374037
1769168073026,-0.065032958984375,-0.0583038330078125,-0.98358154296875,-0.0364546813070774,-0.0004005394293926,0.0094190677627921
1769168073036,-0.0657958984375,-0.0565643310546875,-0.991607666015625,-0.0324365012347698,0.0010841728653758,0.0109983226284384
1769168073046,-0.068084716796875,-0.0540771484375,-1.001953125,-0.019915385171771,-0.0020258666481822,0.0089799128472805
1769168073056,-0.0721282958984375,-0.053497314453125,-1.009307861328125,-0.0060246028006076,-0.0030623688362538,0.005788114387542
1769168073066,-0.0684814453125,-0.0579986572265625,-1.0068206787109375,0.0004577973741106,-0.003827495034784,0.0110867395997047
1769168073076,-0.0631256103515625,-0.066375732421875,-0.9996490478515624,-0.0019606191199272,-0.012411662377417,0.0185276120901107
1769168073086,-0.0670318603515625,-0.0603790283203125,-0.9973907470703124,0.005927397403866,-0.0109333414584398,0.0109599726274609
1769168073096,-0.0836639404296875,-0.05230712890625,-1.00244140625,0.0117200389504432,-0.0039643817581236,0.00247807148844
1769168073106,-0.0821990966796875,-0.050262451171875,-0.99615478515625,0.0083721792325377,-0.0104638263583183,0.0018346516881138
1769168073116,-0.0769195556640625,-0.0533447265625,-0.9865264892578124,-0.0040772994980216,-0.017966216430068,0.0013379721203818
1769168073126,-0.0754241943359375,-0.056793212890625,-0.97857666015625,-0.0206943601369857,-0.021605160087347,0.0020442423410713
1769168073136,-0.0757904052734375,-0.0586395263671875,-0.9749755859375,-0.0352211035788059,-0.0134276580065488,0.0026090987958014
1769168073146,-0.0721435546875,-0.0578155517578125,-0.97979736328125,-0.0410672761499881,-0.0054014232009649,0.0046096653677523
1769168073156,-0.0686798095703125,-0.0565948486328125,-0.98516845703125,-0.0448889099061489,-0.0015725966077297,0.0063985106535255
1769168073166,-0.0683441162109375,-0.056884765625,-0.9915771484375,-0.0422204248607158,0.0027640948537737,0.006107959896326
1769168073176,-0.0711212158203125,-0.0579681396484375,-1.0006561279296875,-0.0316884219646453,-0.0010572749888524,0.0033097765408456
1769168073186,-0.070587158203125,-0.0576019287109375,-1.00994873046875,-0.0150849428027868,-0.0020985708106309,0.0028567728586494
1769168073196,-0.0732421875,-0.055816650390625,-1.012115478515625,-0.0001004011719487,0.0062850601971149,0.0045239115133881
1769168073206,-0.0755157470703125,-0.0580291748046875,-1.0079498291015625,0.0079977391287684,0.0085250446572899,0.0073876087553799
1769168073217,-0.07763671875,-0.05511474609375,-1.0036773681640625,0.0117703732103109,0.0034370757639408,0.0027505126781761
1769168073227,-0.0773468017578125,-0.054962158203125,-0.9961395263671876,0.0115826204419136,0.0015795208746567,0.0027699538040906
1769168073237,-0.0765533447265625,-0.054840087890625,-0.98736572265625,0.0035502600949257,-0.0002948119363281,0.0015630092239007
1769168073247,-0.0783233642578125,-0.053192138671875,-0.984039306640625,-0.0078683095052838,-0.0028613002505153,-0.0004918858758173
1769168073257,-0.075958251953125,-0.0523834228515625,-0.98345947265625,-0.0160615239292383,-0.0052994242869317,-0.0032735576387494
1769168073267,-0.0744476318359375,-0.053436279296875,-0.9841156005859376,-0.0199340265244245,-0.0018021611031144,-0.0035148400347679
1769168073277,-0.0730133056640625,-0.0535888671875,-0.9883880615234376,-0.0244997497648,-0.0059636165387928,-0.004063983913511
1769168073287,-0.070098876953125,-0.0552978515625,-0.9897918701171876,-0.0279980786144733,-0.0048565403558313,-0.0037784930318593
1769168073297,-0.071258544921875,-0.0552978515625,-0.9910736083984376,-0.0321664586663246,0.0022280006669461,-0.0025800704024732
1769168073307,-0.0720672607421875,-0.0559539794921875,-0.9905242919921876,-0.0342256128787994,0.0144124953076243,-0.0011904330458492
1769168073317,-0.0699005126953125,-0.058135986328125,-0.9911956787109376,-0.0348874107003212,0.0181880593299865,0.0034687672741711
1769168073327,-0.066314697265625,-0.0593109130859375,-0.9980316162109376,-0.0281522758305072,0.0103756757453084,0.0056304549798369
1769168073337,-0.066986083984375,-0.0545654296875,-1.0004119873046875,-0.0264265481382608,0.0027766118291765,0.0097415773198008
1769168073347,-0.0711517333984375,-0.051605224609375,-1.00048828125,-0.0167534127831459,0.0016407734947279,0.0065899919718503
1769168073357,-0.0737152099609375,-0.052154541015625,-1.007720947265625,-0.0049699912779033,-0.0131419012323021,0.003729490796104
1769168073367,-0.0728607177734375,-0.0504302978515625,-1.0068359375,0.0009329052991233,-0.0162998773157596,0.0046312371268868
1769168073377,-0.0750274658203125,-0.05084228515625,-0.9969024658203124,-0.006245378870517,-0.0117703732103109,0.0017848504940047
1769168073387,-0.079864501953125,-0.05255126953125,-0.9833831787109376,-0.0185071043670177,0.0035270904190838,-0.0018988338997587
1769168073397,-0.07928466796875,-0.055450439453125,-0.9765167236328124,-0.0337899215519428,0.0135533595457673,-0.0024133566766977
1769168073407,-0.0723876953125,-0.0549163818359375,-0.976806640625,-0.0415346585214138,0.0173172056674957,9.29443194763735e-05
1769168073417,-0.073333740234375,-0.0526275634765625,-0.9868316650390624,-0.0462316758930683,0.0104750115424394,-0.0024578312877565
1769168073428,-0.07891845703125,-0.0498504638671875,-0.9947357177734376,-0.0375625565648078,0.0058605521917343,-0.0113871442154049
1769168073438,-0.07659912109375,-0.047149658203125,-1.0076141357421875,-0.0205382984131574,0.007497064769268,-0.0106923254206776
1769168073448,-0.06890869140625,-0.0535888671875,-1.0151519775390625,-0.0083530042320489,0.0054584150202572,-0.0015265239635482
1769168073458,-0.06304931640625,-0.0584869384765625,-1.01055908203125,-0.0022450448013842,-0.0047593349590897,0.0057702711783349
1769168073468,-0.0682220458984375,-0.0565643310546875,-1.0026702880859375,0.0025670209433883,0.0015584818320348,0.0039217709563672
1769168073478,-0.0765838623046875,-0.05487060546875,-0.9989013671875,-0.001873267465271,0.007980428636074,0.0049958238378167
1769168073488,-0.071044921875,-0.052642822265625,-0.9890594482421876,-0.0084486119449138,0.0096009615808725,0.0065836003050208
1769168073498,-0.07684326171875,-0.045379638671875,-0.98779296875,-0.0120718432590365,0.006686398293823,0.0036352148745208
1769168073508,-0.08599853515625,-0.0370941162109375,-0.99017333984375,-0.0113266902044415,0.0097218696027994,-0.00510208401829
1769168073518,-0.0830841064453125,-0.04248046875,-0.9882049560546876,-0.0255346540361642,0.0013299826532602,-0.0043974113650619
1769168073528,-0.0643310546875,-0.055999755859375,-0.9791717529296876,-0.039752472192049,-0.0085471495985984,0.0018021611031144
1769168073538,-0.0639801025390625,-0.053985595703125,-0.98590087890625,-0.0336759388446807,-0.0032386700622737,-0.0022610237356275
1769168073548,-0.07781982421875,-0.0443115234375,-0.9969024658203124,-0.0231492612510919,0.0035854137968271,-0.0130212595686316
1769168073558,-0.0839996337890625,-0.039306640625,-0.999847412109375,-0.0180503726005554,0.004447478801012,-0.0245159957557916
1769168073568,-0.0784912109375,-0.0425872802734375,-0.9945068359375,-0.0249112080782651,0.0080371536314487,-0.0254110842943191
1769168073578,-0.07012939453125,-0.0464935302734375,-0.9907073974609376,-0.0302875973284244,0.008142614737153,-0.0195806249976158
1769168073589,-0.0704193115234375,-0.0478515625,-0.9961395263671876,-0.0300742797553539,0.0107234846800565,-0.0180146861821413
1769168073598,-0.0697784423828125,-0.0514678955078125,-0.999114990234375,-0.0245887003839015,0.0154593838378787,-0.013544837012887
1769168073609,-0.0672454833984375,-0.0523834228515625,-1.0043792724609375,-0.0152260903269052,0.0098425103351473,-0.0118409469723701
1769168073618,-0.06622314453125,-0.0537567138671875,-1.0092315673828125,-0.0053561497479677,0.0020258666481822,-0.0130316456779837
1769168073628,-0.06500244140625,-0.0536041259765625,-1.010498046875,0.0044560013338923,0.0011614045361056,-0.0064320666715502
1769168073638,-0.0646209716796875,-0.051239013671875,-1.0084991455078125,0.0146199548617005,0.0017494305502623,-0.0037364149466156
1769168073648,-0.0680694580078125,-0.0475921630859375,-1.005401611328125,0.0165776442736387,0.0036703685764223,-0.0012554140994325
1769168073658,-0.0702056884765625,-0.0475616455078125,-0.99591064453125,0.0147366020828485,0.0053774546831846,0.0003653856983873
1769168073669,-0.0710906982421875,-0.047393798828125,-0.9911041259765624,0.0112031195312738,0.0062610916793346,6.01874417043291e-05
1769168073679,-0.07208251953125,-0.047332763671875,-0.98590087890625,0.0037340181879699,0.0062610916793346,-0.0004687163454946
1769168073689,-0.0694580078125,-0.048828125,-0.9832305908203124,-0.0042783683165907,0.0042027346789836,-0.0021622204221785
1769168073699,-0.0672607421875,-0.046051025390625,-0.98309326171875,-0.0116119151934981,0.0020892499014735,-0.0021920478902757
1769168073709,-0.0684661865234375,-0.0472412109375,-0.9845733642578124,-0.0165920257568359,0.0028842033352702,-0.0024354606866836
1769168073719,-0.0679779052734375,-0.0477294921875,-0.9897613525390624,-0.0178245361894369,0.0032799490727484,-0.0017624800093472
1769168073729,-0.065673828125,-0.047882080078125,-0.997344970703125,-0.0127906296402215,0.0048440238460898,0.0016796556301414
1769168073739,-0.06561279296875,-0.0473785400390625,-0.9995880126953124,-0.0093724625185132,0.0085490131750702,0.0057835867628455
1769168073749,-0.0669097900390625,-0.048797607421875,-1.0008544921875,-0.0067969197407364,0.0091279847547411,0.0113069824874401
1769168073759,-0.0620880126953125,-0.0573272705078125,-0.996856689453125,-0.0158878862857818,-0.0031483890488743,0.0222304705530405
1769168073769,-0.056304931640625,-0.0548248291015625,-0.990325927734375,-0.0168154649436473,-0.0059905145317316,0.0248986911028623
1769168073779,-0.071563720703125,-0.04510498046875,-1.0005035400390625,-0.0088715218007564,-0.0012934972764924,0.0201936848461627
1769168073789,-0.079986572265625,-0.038787841796875,-1.0025177001953125,-0.0041606565937399,-0.0051960935816168,0.0099514340981841
1769168073799,-0.0772857666015625,-0.0398712158203125,-0.9975738525390624,-0.0058182082138955,-0.0066102319397032,0.0069074407219886
1769168073809,-0.070648193359375,-0.0431671142578125,-0.99481201171875,-0.0073135728016495,-0.0022253373172134,0.0119962086901068
1769168073819,-0.0681304931640625,-0.0467376708984375,-0.995452880859375,-0.0075034564360976,0.0055763931013643,0.0124633274972438
1769168073829,-0.0699920654296875,-0.046905517578125,-0.9978485107421876,-0.000826378876809,0.0074208984151482,0.0124635938555002
1769168073839,-0.069549560546875,-0.0462646484375,-1.0008697509765625,0.0032221586443483,0.0055705341510474,0.0105080343782901
1769168073849,-0.0700836181640625,-0.0505828857421875,-0.9964447021484376,0.0030557110439985,0.0082840286195278,0.0105200186371803
1769168073859,-0.0699310302734375,-0.0520477294921875,-0.99481201171875,0.0011494202772155,0.0104475812986493,0.0116225676611065
1769168073869,-0.0724334716796875,-0.0505218505859375,-0.9970703125,0.0042509376071393,0.0094225304201245,0.010668090544641
1769168073879,-0.0749664306640625,-0.05023193359375,-0.9961090087890624,0.0018186726374551,0.0113085806369781,0.0108518488705158
1769168073890,-0.0760498046875,-0.0486907958984375,-0.9948577880859376,0.0038352182600647,0.0108345383778214,0.0092547507956624
1769168073900,-0.0755157470703125,-0.0475311279296875,-0.99725341796875,0.0034682345576584,0.0054224622435867,0.0082805668935179
1769168073910,-0.0746002197265625,-0.045654296875,-0.99700927734375,0.005371063016355,-0.0007179882377386,0.0078576570376753
1769168073920,-0.076629638671875,-0.045013427734375,-0.9945220947265624,0.0032360069453716,-0.0011725898366421,0.0029419939965009
1769168073930,-0.0755157470703125,-0.0450897216796875,-0.990936279296875,0.0014261227333918,-0.0013140037190169,0.0006178533658385
1769168073940,-0.0743408203125,-0.047607421875,-0.989990234375,-0.0032362733036279,-0.0006564692012034,-0.0009544769418425
1769168073949,-0.072418212890625,-0.0482635498046875,-0.9897308349609376,-0.0084331659600138,0.0043558664619922,-0.0003214435419067
1769168073960,-0.0691375732421875,-0.0481414794921875,-0.9913787841796876,-0.0070424629375338,0.0054376423358917,0.0013986921403557
1769168073970,-0.0691986083984375,-0.046600341796875,-0.9999847412109376,-0.0014721954939886,-0.0014152037911117,0.0003259709046687
1769168073980,-0.07080078125,-0.0479888916015625,-1.00299072265625,0.0088488850742578,-0.0029393308795988,-0.0005459480453282
1769168073990,-0.0681304931640625,-0.0495147705078125,-1.0042266845703125,0.0141885234043002,-0.0051470915786921,0.0011187939671799
1769168074001,-0.07049560546875,-0.0503692626953125,-1.00250244140625,0.0167978890240192,-0.0095506282523274,0.0022221414837986
1769168074010,-0.0728607177734375,-0.0528106689453125,-0.9950714111328124,0.0133528234437108,-0.0049609364941716,0.0023089605383574
1769168074020,-0.0731353759765625,-0.0512847900390625,-0.9866180419921876,0.0019800602458417,0.0020679445005953,0.0042623891495168
1769168074030,-0.073333740234375,-0.0526885986328125,-0.98529052734375,-0.0065907910466194,0.0012948289513587,0.0051377704367041
1769168074040,-0.0749359130859375,-0.051849365234375,-0.98944091796875,-0.0137640153989195,-0.0020945761352777,0.0032911344897001
1769168074050,-0.0756378173828125,-0.049041748046875,-0.991058349609375,-0.0178282652050256,-0.0044522727839648,0.0028594359755516
1769168074060,-0.07757568359375,-0.0477752685546875,-0.991943359375,-0.019171031191945,-0.0105309374630451,-0.0030613036360591
1769168074070,-0.0795745849609375,-0.04541015625,-0.992156982421875,-0.0250387731939554,-0.0113999275490641,-0.0097564905881881
1769168074080,-0.0800628662109375,-0.045623779296875,-0.9929046630859376,-0.0265511833131313,-0.0103059010580182,-0.0143318008631467
1769168074090,-0.07757568359375,-0.0431060791015625,-0.9988555908203124,-0.0195345524698495,-0.0109352059662342,-0.0181009732186794
1769168074101,-0.0724334716796875,-0.046173095703125,-1.006072998046875,-0.0105724828317761,-0.0126231173053383,-0.0147874681279063
1769168074110,-0.071807861328125,-0.0453643798828125,-1.009124755859375,0.0031028490047901,-0.0075681712478399,-0.0159725751727819
1769168074121,-0.0745849609375,-0.0459442138671875,-1.00897216796875,0.0193742308765649,0.0002783003437798,-0.0179102905094623
1769168074131,-0.0743408203125,-0.0501708984375,-1.00579833984375,0.0249213278293609,0.0106531772762537,-0.0131219271570444
1769168074141,-0.06640625,-0.0568084716796875,-0.993988037109375,0.0151541857048869,0.0178152155131101,-0.0055415057577192
1769168074151,-0.066131591796875,-0.059417724609375,-0.9858856201171876,0.0110973920673131,0.0229276865720748,-0.0037611823063343
1769168074161,-0.0735321044921875,-0.0568695068359375,-0.9932708740234376,0.0107317399233579,0.0177156142890453,-0.0061886538751423
1769168074171,-0.07025146484375,-0.0566558837890625,-0.9943084716796876,0.0099658146500587,0.0077735008671879,-0.0025217472575604
1769168074181,-0.071502685546875,-0.0482635498046875,-0.9976654052734376,0.0148343397304415,-0.003189668059349,-0.0054666707292199
1769168074191,-0.0843658447265625,-0.0396270751953125,-1.00421142578125,0.0275080576539039,-0.0075162393040955,-0.0149283492937684
1769168074201,-0.08843994140625,-0.04449462890625,-1.004119873046875,0.0211548190563917,-0.0091450288891792,-0.0166189242154359
1769168074211,-0.0699310302734375,-0.05975341796875,-0.9892120361328124,0.0058626825921237,-0.0150303486734628,-0.0052312472835183
1769168074221,-0.064544677734375,-0.062286376953125,-0.98541259765625,0.0006162554491311,-0.0030285466928035,-0.0026098978705704
1769168074231,-0.078399658203125,-0.0491180419921875,-0.9935302734375,0.0117964716628193,0.0137464385479688,-0.0114920726045966
1769168074241,-0.0897216796875,-0.0354156494140625,-0.997406005859375,0.0163645930588245,0.0183411911129951,-0.0239271707832813
1769168074251,-0.088134765625,-0.0358734130859375,-0.992095947265625,0.0092425001785159,0.0141523042693734,-0.0344378687441349
1769168074261,-0.07659912109375,-0.044708251953125,-0.9869232177734376,-0.0009217200567945,0.0139142172411084,-0.0324242524802684
1769168074271,-0.06378173828125,-0.053375244140625,-0.984100341796875,-0.0064147561788558,0.0122204469516873,-0.0212616119533777
1769168074281,-0.054443359375,-0.0590972900390625,-0.987518310546875,-0.0076264943927526,0.0136636141687631,-0.0066475165076553
1769168074291,-0.0542449951171875,-0.06317138671875,-0.9915313720703124,-0.0065148910507559,0.0070776166394352,0.003450924064964
1769168074301,-0.060211181640625,-0.063018798828125,-0.9913482666015624,-0.0094496943056583,0.0048781121149659,0.010498447343707
1769168074311,-0.0676116943359375,-0.0580291748046875,-0.98779296875,-0.013398895971477,0.002861033892259,0.0093415705487132
1769168074322,-0.075286865234375,-0.054046630859375,-0.9906463623046876,-0.0187377352267503,0.0009864348685368,0.0068049090914428
1769168074331,-0.0796966552734375,-0.0496978759765625,-0.9955291748046876,-0.0191209632903337,-0.0107908621430397,0.0032940639648586
1769168074341,-0.08148193359375,-0.0459747314453125,-0.99957275390625,-0.0170887056738138,-0.0105860652402043,-0.0016024239594116
1769168074352,-0.082366943359375,-0.0452423095703125,-1.00164794921875,-0.0068690911866724,-0.0118196411058306,-0.0048094023950397
1769168074362,-0.0825958251953125,-0.0451202392578125,-1.0057220458984375,-0.0008490157779306,0.0012964267516508,-0.0071537834592163
1769168074372,-0.0782012939453125,-0.0459747314453125,-0.99884033203125,0.0029630330391228,0.0130875725299119,-0.0047470848076045
1769168074382,-0.0767822265625,-0.0464935302734375,-1.0007476806640625,0.0066789416596293,0.0137520311400294,-0.0053809168748557
1769168074392,-0.072021484375,-0.0508880615234375,-0.9979248046875,0.0068131648004055,0.0125229824334383,-0.001121190842241
1769168074402,-0.06878662109375,-0.054107666015625,-0.9941253662109376,0.0051955608651041,0.0099772661924362,-0.0005099953268654
1769168074412,-0.0686798095703125,-0.054962158203125,-0.992431640625,0.0052781188860535,0.0067993164993822,0.0028993834275752
1769168074422,-0.068878173828125,-0.056549072265625,-0.9955902099609376,0.0034527883399277,0.0054970309138298,0.0057425741106271
1769168074432,-0.0628662109375,-0.0622406005859375,-0.9941558837890624,-0.0029971215408295,-0.0011108045000582,0.0177307929843664
1769168074442,-0.058746337890625,-0.06427001953125,-0.9923248291015624,-0.0030450583435595,-0.0121219102293252,0.0248707290738821
1769168074452,-0.0699920654296875,-0.0571441650390625,-1.0011138916015625,0.0125291077420115,0.0039547942578792,0.0217273999005556
1769168074462,-0.0810089111328125,-0.0487518310546875,-1.0084075927734375,0.0303222201764583,0.0127714555710554,0.0198690462857484
1769168074472,-0.0803070068359375,-0.0489501953125,-1.00518798828125,0.0404925644397735,0.0115597173571586,0.0190301500260829
1769168074482,-0.0759124755859375,-0.0490264892578125,-0.9980926513671876,0.0347838141024112,0.0100193442776799,0.021174794062972
1769168074492,-0.075531005859375,-0.048828125,-0.989654541015625,0.0244840383529663,0.0046751792542636,0.0209811814129352
1769168074502,-0.077178955078125,-0.0507659912109375,-0.9873809814453124,0.0180522371083498,0.0019680759869515,0.0172729957848787
1769168074512,-0.0767364501953125,-0.050445556640625,-0.98736572265625,0.0110332099720835,-0.0049345712177455,0.0132369762286543
1769168074522,-0.073822021484375,-0.053802490234375,-0.98895263671875,0.0035851474385708,-0.0127581395208835,0.0115898102521896
1769168074532,-0.0735015869140625,-0.05670166015625,-0.9874267578125,-0.0040184436365962,-0.0165472850203514,0.0133778573945164
1769168074542,-0.0767364501953125,-0.0584564208984375,-0.98834228515625,-0.0083463471382856,-0.0163986813277006,0.0087013458833098
1769168074553,-0.0815277099609375,-0.055694580078125,-0.9914703369140624,-0.0098619516938924,-0.016357934102416,0.0065140919759869
1769168074563,-0.0800933837890625,-0.0559844970703125,-0.992828369140625,-0.0073143718764185,-0.0078302258625626,0.0066131614148616
1769168074573,-0.0801849365234375,-0.05645751953125,-0.9970550537109376,-0.000875913654454,-0.005298891570419,0.0043630567379295
1769168074583,-0.0777130126953125,-0.0531768798828125,-1.004638671875,0.0121815651655197,-0.0079090557992458,0.0026208166964352
1769168074593,-0.0791473388671875,-0.0513153076171875,-1.0069427490234375,0.0230627078562974,-0.0055060856975615,0.0021491709630936
1769168074603,-0.07781982421875,-0.0520782470703125,-1.002838134765625,0.0329808518290519,0.0018753979820758,0.0026463831309229
1769168074613,-0.07513427734375,-0.0506439208984375,-0.9994354248046876,0.0380837358534336,0.0007611314067617,0.0024431839119642
1769168074623,-0.0745849609375,-0.049346923828125,-0.9949951171875,0.0348485261201858,0.000224238159717,0.0026711504906415
1769168074633,-0.0763702392578125,-0.0519256591796875,-0.9895172119140624,0.0303017124533653,0.0079117184504866,0.0032692966051399
1769168074643,-0.07525634765625,-0.0534820556640625,-0.985260009765625,0.024330373853445,0.0123935528099536,0.0033891387283802
1769168074653,-0.071319580078125,-0.0538787841796875,-0.987274169921875,0.0190301500260829,0.0043662525713443,0.0042155175469815
1769168074663,-0.0703277587890625,-0.0550079345703125,-0.98822021484375,0.0130505543202161,-0.0020983046852052,0.0051857070066034
1769168074673,-0.072509765625,-0.0574188232421875,-0.9868927001953124,0.0072946646250784,-0.0062762717716395,0.0067236828617751
1769168074683,-0.0743560791015625,-0.057861328125,-0.9856414794921876,0.0016120113432407,-0.0047923582606017,0.0055947685614228
1769168074693,-0.0753173828125,-0.057861328125,-0.9890289306640624,0.0030615699943155,-0.009236641228199,0.0071402010507881
1769168074703,-0.07781982421875,-0.0579681396484375,-0.9911346435546876,0.0007973504252731,-0.0065681543201208,0.0036892769858241
1769168074713,-0.076812744140625,-0.05975341796875,-0.99066162109375,0.0009515474666841,-0.0025073662400245,0.004448277875781
1769168074723,-0.0754547119140625,-0.0587310791015625,-0.996612548828125,0.0065084993839263,-0.0068520470522344,0.00618945248425
1769168074733,-0.0759429931640625,-0.056365966796875,-1.0015411376953125,0.0162040032446384,-0.0131589453667402,0.0059444420039653
1769168074743,-0.078643798828125,-0.0546417236328125,-1.0029296875,0.0205795764923095,-0.015231417492032,0.0014889733865857
1769168074753,-0.0785980224609375,-0.056182861328125,-0.996307373046875,0.0237724408507347,-0.0175377149134874,0.0012516856659203
1769168074763,-0.076934814453125,-0.0561065673828125,-0.9931488037109376,0.0263684894889593,-0.0267852749675512,-0.0011100055417045
1769168074773,-0.0782318115234375,-0.05426025390625,-0.993865966796875,0.0274763647466897,-0.0295126177370548,-0.0007395598222501
1769168074784,-0.07733154296875,-0.055633544921875,-0.9925994873046876,0.023176159709692,-0.0246952269226312,0.0015795208746567
1769168074794,-0.0684356689453125,-0.059783935546875,-0.986175537109375,0.0115157747641205,-0.0240382235497236,0.0093317162245512
1769168074804,-0.06866455078125,-0.0594940185546875,-0.9812469482421876,0.0049185920506715,-0.0130473589524626,0.0090603400021791
1769168074814,-0.07958984375,-0.057525634765625,-0.9865875244140624,-0.0025971147697418,-0.0003051982494071,0.0059431102126836
1769168074824,-0.074615478515625,-0.0611572265625,-0.9829864501953124,-0.0153885437175631,-0.0079732378944754,0.0060637514106929
1769168074834,-0.073974609375,-0.058380126953125,-0.9846343994140624,-0.0171547513455152,-0.0106814065948128,0.0039745015092194
1769168074844,-0.0790863037109375,-0.0527801513671875,-0.9912261962890624,-0.0177220050245523,-0.0139270005747675,0.0026445188559591
1769168074855,-0.0839080810546875,-0.0570068359375,-0.9902496337890624,-0.0248986911028623,-0.0160655193030834,-0.0042994073592126
1769168074864,-0.083709716796875,-0.0642242431640625,-0.989471435546875,-0.0217116866260767,-0.0093101449310779,-0.00720358453691
1769168074874,-0.0762176513671875,-0.068878173828125,-0.9990386962890624,-0.0109160309657454,-0.0046336338855326,-0.0039998018182814
1769168074884,-0.0765228271484375,-0.0602569580078125,-1.009033203125,0.0184687562286853,0.0175987016409635,-0.0067330040037631
1769168074894,-0.0877838134765625,-0.0467681884765625,-1.021392822265625,0.0500940605998039,0.0285256505012512,-0.0114625114947557
1769168074904,-0.08868408203125,-0.0420684814453125,-1.0132293701171875,0.0565442368388175,0.0205100681632757,-0.0156439412385225
1769168074914,-0.084136962890625,-0.045501708984375,-0.9922027587890624,0.0364267155528068,0.0118968728929758,-0.0178298633545637
1769168074924,-0.077972412109375,-0.0537261962890625,-0.9800262451171876,0.0134777259081602,0.0008602010202594,-0.016602411866188
1769168074934,-0.0767669677734375,-0.060028076171875,-0.97540283203125,-0.0051785167306661,-0.0015081481542438,-0.0186146963387727
1769168074944,-0.07476806640625,-0.0665740966796875,-0.9772796630859376,-0.0144071690738201,-0.0049721216782927,-0.0185656938701868
1769168074954,-0.0705718994140625,-0.069488525390625,-0.9806365966796876,-0.0192716978490352,-0.0040820934809744,-0.0153531236574053
1769168074964,-0.0720367431640625,-0.0678558349609375,-0.989959716796875,-0.0163949523121118,-0.0040464070625603,-0.0145714860409498
1769168074974,-0.07843017578125,-0.0636138916015625,-0.998138427734375,-0.0052256546914577,0.0004439489566721,-0.0170415677130222
1769168074984,-0.0815887451171875,-0.0605010986328125,-1.002685546875,0.004578772932291,0.0139664160087704,-0.0158657822757959
1769168074994,-0.0823516845703125,-0.05908203125,-1.009124755859375,0.0220802687108516,0.0162213146686553,-0.0122417528182268
1769168075004,-0.08026123046875,-0.0561981201171875,-1.016357421875,0.0424502566456794,0.0186586398631334,-0.0091389035806059
1769168075015,-0.078948974609375,-0.0576324462890625,-1.0153961181640625,0.0620215609669685,0.0208791829645633,-0.0029878003988415
1769168075025,-0.0714569091796875,-0.0595245361328125,-1.0094451904296875,0.0730342641472816,0.0070845410227775,0.005788114387542
1769168075035,-0.0692138671875,-0.060882568359375,-0.9984283447265624,0.067213125526905,0.0066778762266039,0.0115450695157051
1769168075045,-0.07098388671875,-0.066558837890625,-0.9817962646484376,0.0521763861179351,0.0118047278374433,0.0166476853191852
1769168075055,-0.067962646484375,-0.069671630859375,-0.976043701171875,0.0303832050412893,0.0110113723203539,0.0224802754819393
1769168075065,-0.068572998046875,-0.06927490234375,-0.974090576171875,0.0077466028742492,0.016577910631895,0.0272920746356248
1769168075075,-0.0730133056640625,-0.0689849853515625,-0.975982666015625,-0.0116172414273023,0.0201425515115261,0.0299041029065847
1769168075085,-0.0753936767578125,-0.0714111328125,-0.984619140625,-0.0236781649291515,0.0203705187886953,0.0316577963531017
1769168075095,-0.067047119140625,-0.0772705078125,-0.990570068359375,-0.0285549461841583,0.0123999444767832,0.037925012409687
1769168075105,-0.0690765380859375,-0.068756103515625,-1.00799560546875,0.0006239786162041,0.0147627005353569,0.0344511829316616
1769168075115,-0.0855255126953125,-0.05902099609375,-1.026123046875,0.0349614471197128,0.0281717162579298,0.0253253299742937
1769168075125,-0.0871734619140625,-0.060333251953125,-1.02276611328125,0.0613802708685398,0.0331686064600944,0.016622919589281
1769168075135,-0.083251953125,-0.0654296875,-1.017791748046875,0.0751584023237228,0.019433619454503,0.0126239163801074
1769168075145,-0.075408935546875,-0.069580078125,-1.0064544677734375,0.0817113742232322,0.0164471492171287,0.0163526087999343
1769168075155,-0.0733184814453125,-0.0697174072265625,-0.9994659423828124,0.0773451253771781,0.0089514171704649,0.0192000605165958
1769168075165,-0.0783233642578125,-0.0717315673828125,-0.9834136962890624,0.0614524409174919,0.0116241658106446,0.0162732452154159
1769168075175,-0.0816650390625,-0.072052001953125,-0.969207763671875,0.0415567643940448,0.0156399458646774,0.0172855127602815
1769168075185,-0.0804901123046875,-0.068817138671875,-0.969329833984375,0.0256076250225305,0.0064118267036974,0.0159797649830579
1769168075196,-0.08001708984375,-0.065338134765625,-0.9718170166015624,0.0101911183446645,-0.0059122177772223,0.0116768963634967
1769168075205,-0.08111572265625,-0.06402587890625,-0.9760894775390624,0.0005395564367063,-0.0173933710902929,0.0062906527891755
1769168075215,-0.078948974609375,-0.0651092529296875,-0.977996826171875,-0.0066267438232898,-0.0226890668272972,0.0039484025910496
1769168075225,-0.076019287109375,-0.0665283203125,-0.979644775390625,-0.0106624979525804,-0.0239982772618532,0.0010982876410707
1769168075236,-0.0736846923828125,-0.0682220458984375,-0.9829254150390624,-0.0142889246344566,-0.0241884272545576,0.0007515440811403
1769168075246,-0.0719451904296875,-0.06787109375,-0.9862213134765624,-0.0145168909803032,-0.0188919324427843,0.0064568337984383
1769168075256,-0.0721282958984375,-0.06787109375,-0.9869842529296876,-0.0176506321877241,-0.0146425925195217,0.0103327985852956
1769168075266,-0.0729827880859375,-0.065185546875,-0.9892120361328124,-0.0168162640184164,-0.0177989713847637,0.009974337182939
1769168075276,-0.0745086669921875,-0.065093994140625,-0.989990234375,-0.0231125093996524,-0.0139299305155873,0.0124393589794635
1769168075286,-0.0758209228515625,-0.066497802734375,-0.986724853515625,-0.0280990116298198,-0.011445733718574,0.0130926324054598
1769168075296,-0.0786285400390625,-0.066650390625,-0.9883270263671876,-0.0307192970067262,-0.013948306441307,0.0099277319386601
1769168075306,-0.079833984375,-0.0674591064453125,-0.98895263671875,-0.0341039076447486,-0.0186826083809137,0.0108249504119157
1769168075316,-0.0778961181640625,-0.067840576171875,-0.9912872314453124,-0.0334599539637565,-0.0198986064642667,0.0114792892709374
1769168075326,-0.0806121826171875,-0.0675048828125,-0.9940185546875,-0.0346248224377632,-0.0219385884702205,0.0070366039872169
1769168075336,-0.0828399658203125,-0.06585693359375,-0.997283935546875,-0.0316934809088707,-0.0170199964195489,0.0048456215299665
1769168075346,-0.0814056396484375,-0.0673980712890625,-0.997802734375,-0.0280044693499803,-0.0040107206441462,0.0057779941707849
1769168075356,-0.07647705078125,-0.06658935546875,-1.00067138671875,-0.0191183015704154,0.0026620957069098,0.0083860279992222
1769168075366,-0.076629638671875,-0.0666046142578125,-1.00299072265625,-0.0091000217944383,0.0101703461259603,0.0118002006784081
1769168075376,-0.078338623046875,-0.06658935546875,-1.0044403076171875,0.0030096382834017,0.0108129661530256,0.0131576135754585
1769168075386,-0.0776824951171875,-0.0662384033203125,-1.0049591064453125,0.0130681311711668,0.0092968288809061,0.0112704979255795
1769168075396,-0.082550048828125,-0.0643310546875,-1.004638671875,0.0228616390377283,0.0101687479764223,0.0085431542247533
1769168075406,-0.0789031982421875,-0.0639801025390625,-1.0065155029296875,0.0352597199380397,0.0027379959356039,0.0078432755544781
1769168075416,-0.076629638671875,-0.0645294189453125,-1.005157470703125,0.0386419333517551,-0.0021387846209108,0.007097590714693
1769168075426,-0.07659912109375,-0.0666046142578125,-0.9972381591796876,0.0384118370711803,-0.0016418388113379,0.0090044140815734
1769168075436,-0.0730133056640625,-0.07244873046875,-0.98516845703125,0.0251812525093555,0.0014447649009525,0.0172642078250646
1769168075447,-0.0675048828125,-0.07501220703125,-0.9752349853515624,0.0097937751561403,0.0001257012045243,0.0226230211555957
1769168075457,-0.0760955810546875,-0.069854736328125,-0.97967529296875,0.0036242958158254,0.0139488391578197,0.0194011274725198
1769168075467,-0.0755157470703125,-0.071441650390625,-0.9786224365234376,-0.0154236974194645,0.0120446784421801,0.0253477003425359
1769168075477,-0.0704193115234375,-0.0668182373046875,-0.9765777587890624,-0.0222991798073053,0.0039374837651848,0.0235601868480443
1769168075487,-0.081787109375,-0.057159423828125,-0.9876861572265624,-0.0246163960546255,-0.0027830032631754,0.0244813747704029
1769168075497,-0.084014892578125,-0.0504150390625,-0.9893798828125,-0.0309589803218841,-0.0170245226472616,0.0158367529511451
1769168075507,-0.08428955078125,-0.0606231689453125,-0.986602783203125,-0.0411594212055206,-0.0259533040225505,0.0080432789400219
1769168075517,-0.0794219970703125,-0.0685577392578125,-0.9824981689453124,-0.0470330230891704,-0.0206152629107236,0.0067218183539807
1769168075527,-0.074737548828125,-0.0683746337890625,-0.9876708984375,-0.0397980138659477,0.0015675366157665,0.0075399414636194
1769168075537,-0.083984375,-0.057586669921875,-1.0019989013671875,-0.0214331205934286,0.0336935147643089,0.000753674597945
1769168075547,-0.0890350341796875,-0.0536956787109375,-1.006500244140625,-0.0079897493124008,0.0451216734945774,-0.0068246163427829
1769168075557,-0.0814666748046875,-0.05706787109375,-1.004852294921875,-0.0066278087906539,0.0353129841387271,-0.0073375413194298
1769168075567,-0.0819549560546875,-0.062835693359375,-1.0048675537109375,-0.0037436054553836,0.0273346845060586,-0.0122670521959662
1769168075577,-0.08013916015625,-0.0683135986328125,-1.0024566650390625,0.0005238438025116,0.0206285789608955,-0.0103469137102365
1769168075587,-0.07623291015625,-0.0748138427734375,-0.9998779296875,0.0053604105487465,0.0118233701214194,-0.0072384718805551
1769168075597,-0.072509765625,-0.074066162109375,-0.9996185302734376,0.0097738010808825,-0.0006732470938004,-0.0016583503456786
1769168075607,-0.07147216796875,-0.074432373046875,-0.99462890625,0.0087716532871127,-0.0064709489233791,-2.583266177680343e-05
1769168075617,-0.0784454345703125,-0.0715789794921875,-0.98712158203125,0.0022389194928109,-0.0036381443496793,0.0002266350056743
1769168075627,-0.0794677734375,-0.06884765625,-0.985443115234375,-0.0091926995664834,0.002371278591454,0.0016690030461177
1769168075637,-0.0807342529296875,-0.0663909912109375,-0.9844207763671876,-0.011682222597301,0.0099178785458207,0.0040512005798518
1769168075647,-0.08331298828125,-0.064666748046875,-0.990447998046875,-0.0096379797905683,0.0108052436262369,0.0027869981713593
1769168075657,-0.0843048095703125,-0.0621337890625,-0.993438720703125,-0.0036133769899606,0.0099868541583418,-0.0013494236627593
1769168075667,-0.0839996337890625,-0.0630340576171875,-0.9967041015625,0.0024218787439167,0.012696087360382,-0.0048112669028341
1769168075678,-0.081939697265625,-0.0656280517578125,-0.99554443359375,0.0008135957177728,0.0153014585375785,-0.0038551918696612
1769168075688,-0.0779266357421875,-0.06768798828125,-0.9919281005859376,-0.0007592672482132,0.0127887660637497,-0.0016884441720321
1769168075698,-0.07818603515625,-0.06597900390625,-0.9913482666015624,-0.0097373155876994,0.0097024282440543,-0.0051324442028999
1769168075708,-0.0799407958984375,-0.0649871826171875,-0.9893646240234376,-0.012247079052031,0.0037555897142738,-0.0062035676091909
1769168075718,-0.0784759521484375,-0.06158447265625,-0.9916534423828124,-0.0157605875283479,-0.0022969765122979,-0.0067801419645547
1769168075728,-0.07965087890625,-0.06146240234375,-0.989593505859375,-0.0204805079847574,-0.0001227717293659,-0.005592371802777
1769168075738,-0.078125,-0.0656890869140625,-0.988616943359375,-0.028030302375555,-0.0012066783383488,-0.0035132421180605
1769168075748,-0.072540283203125,-0.0726318359375,-0.99005126953125,-0.0328458324074745,-0.0182093642652034,-0.0034597124904394
1769168075758,-0.07489013671875,-0.069854736328125,-0.992645263671875,-0.025226792320609,-0.0143222138285636,-0.0094534223899245
1769168075769,-0.082305908203125,-0.0633697509765625,-0.9964599609375,-0.01484499219805,-0.0028620990924537,-0.0129123367369174
1769168075778,-0.082672119140625,-0.0611724853515625,-0.9942474365234376,-0.0132649391889572,-0.0020996362436562,-0.0176562257111072
1769168075788,-0.0812835693359375,-0.062652587890625,-0.98907470703125,-0.0223122294992208,0.0005643238546326,-0.0160660520195961
1769168075798,-0.0760955810546875,-0.063629150390625,-0.9816131591796876,-0.0362245850265026,0.0041510690934956,-0.0132934348657727
1769168075808,-0.076995849609375,-0.0638885498046875,-0.9815216064453124,-0.0444457605481147,0.0097101517021656,-0.0083617931231856
1769168075818,-0.076568603515625,-0.0617218017578125,-0.9930572509765624,-0.0395319610834121,0.0132652055472135,-0.0059740031138062
1769168075828,-0.0767059326171875,-0.0603179931640625,-1.003570556640625,-0.0295307282358407,0.0162604618817567,-0.0072129052132368
1769168075838,-0.0768890380859375,-0.06158447265625,-1.0071563720703125,-0.017023192718625,0.0210301838815212,-0.008970059454441
1769168075848,-0.07305908203125,-0.0641937255859375,-1.010772705078125,-0.0052618738263845,0.0148977227509021,-0.0057745319791138
1769168075858,-0.0696868896484375,-0.0631561279296875,-1.0064849853515625,0.0007712514488957,0.005944175645709,-0.0058946409262716
1769168075868,-0.069854736328125,-0.062164306640625,-1.0003509521484375,-0.0003041329910047,-0.0021007014438509,-0.0051361722871661
1769168075878,-0.0703582763671875,-0.0624847412109375,-0.9949798583984376,-0.004365187138319,-0.0072419340722262,-0.0054102116264402
1769168075889,-0.0706634521484375,-0.0648193359375,-0.9892120361328124,-0.0120028667151927,-0.0036615801509469,-0.0032740901224315
1769168075899,-0.070220947265625,-0.062164306640625,-0.9880523681640624,-0.0133717320859432,-0.0020415792241692,-0.0003568635729607
1769168075909,-0.0735015869140625,-0.0613861083984375,-0.9898529052734376,-0.0137304598465561,0.0005491438205353,0.001915079075843
1769168075919,-0.072418212890625,-0.05908203125,-0.988861083984375,-0.0154551230370998,0.0060754693113267,-0.0007046724203974
1769168075929,-0.0729522705078125,-0.0582733154296875,-0.9884185791015624,-0.0149869387969374,0.0094512924551963,0.0040695765055716
1769168075939,-0.076385498046875,-0.05816650390625,-0.99359130859375,-0.0133363120257854,0.0142489774152636,0.0058200722560286
1769168075949,-0.0802001953125,-0.060211181640625,-0.992340087890625,-0.012678244151175,0.0163163896650075,0.0018738001817837
1769168075959,-0.079742431640625,-0.0628204345703125,-0.9925079345703124,-0.0148913310840725,0.0154591174796223,0.0025856629945337
1769168075969,-0.078887939453125,-0.0638275146484375,-0.991790771484375,-0.0159214418381452,0.0120875556021928,0.0036171053070575
1769168075979,-0.077606201171875,-0.0634765625,-0.9934234619140624,-0.0180977769196033,0.0086922915652394,0.0047374973073601
1769168075989,-0.07635498046875,-0.0634307861328125,-0.9905853271484376,-0.0253178738057613,0.0081649851053953,0.0071252873167395
1769168075999,-0.0782470703125,-0.0636138916015625,-0.989044189453125,-0.0312460698187351,0.0061995727010071,0.0046749128960072
1769168076009,-0.07867431640625,-0.06207275390625,-0.99267578125,-0.0348293520510196,0.0021526331547647,0.0075868130661547
1769168076019,-0.0794525146484375,-0.0588836669921875,-0.9973297119140624,-0.0283067394047975,-0.0037729002069681,0.0065359300933778
1769168076029,-0.08123779296875,-0.059600830078125,-0.9975433349609376,-0.0242091994732618,-0.0094382427632808,0.0029095034115016
1769168076039,-0.0826416015625,-0.0584869384765625,-0.9979705810546876,-0.0196807608008384,-0.0111392037943005,-0.0001781654718797
1769168076049,-0.0818023681640625,-0.05499267578125,-0.9984130859375,-0.0173084158450365,-0.0151813495904207,-0.0042440136894583
1769168076059,-0.08209228515625,-0.057098388671875,-0.998077392578125,-0.0151901384815573,-0.0170972272753715,-0.0052986252121627
1769168076071,-0.081573486328125,-0.058319091796875,-0.997650146484375,-0.0113386744633317,-0.0148785486817359,-0.0077021280303597
1769168076079,-0.0829315185546875,-0.058013916015625,-0.997283935546875,-0.0101189464330673,-0.0106984507292509,-0.0089942943304777
1769168076089,-0.0804595947265625,-0.0623321533203125,-0.9931793212890624,-0.0131381722167134,0.0043063312768936,-0.0018154769204556
1769168076099,-0.0703277587890625,-0.069244384765625,-0.986175537109375,-0.0207955595105886,0.010267018340528,0.0089173289015889
1769168076109,-0.068206787109375,-0.064422607421875,-0.9915771484375,-0.0121384216472506,0.0197630524635314,0.0109985889866948
1769168076120,-0.0791168212890625,-0.0605316162109375,-1.007843017578125,0.0008231831016018,0.0222858637571334,0.0088978875428438
1769168076129,-0.0743408203125,-0.0590057373046875,-1.0136566162109375,0.0207510851323604,0.0142622925341129,0.003907922655344
1769168076140,-0.074798583984375,-0.05242919921875,-1.017181396484375,0.0417897924780845,0.0108132325112819,0.0022397185675799
1769168076150,-0.08319091796875,-0.0444488525390625,-1.0154876708984375,0.0570824593305587,0.0058685415424406,-0.0053036850877106
1769168076160,-0.084930419921875,-0.052093505859375,-0.999481201171875,0.0453419163823127,-0.0050837080925703,-0.0039838226512074
1769168076170,-0.0738983154296875,-0.068115234375,-0.9700927734375,0.0098539618775248,-0.0149152996018528,-0.0013129384024068
1769168076180,-0.0716094970703125,-0.06927490234375,-0.9566802978515624,-0.0130910342559218,-0.0095098819583654,-0.0021992383990436
1769168076190,-0.0848846435546875,-0.059783935546875,-0.9641571044921876,-0.0257303975522518,0.0057100835256278,-0.0116798253729939
1769168076200,-0.086456298828125,-0.0547027587890625,-0.967559814453125,-0.0403407663106918,0.0108100371435284,-0.0137645481154322
1769168076210,-0.0794677734375,-0.0546722412109375,-0.9696807861328124,-0.0572848618030548,0.0095580853521823,-0.0125637287274003
1769168076220,-0.069366455078125,-0.057159423828125,-0.9778900146484376,-0.068559356033802,0.0106830047443509,-0.0079394159838557
1769168076230,-0.0634918212890625,-0.05853271484375,-0.9929046630859376,-0.0644157379865646,-0.0013355752453207,-0.0002058623504126
1769168076240,-0.06158447265625,-0.0623321533203125,-1.0069580078125,-0.0495627596974372,0.0077165090478956,0.0049769151955842
1769168076250,-0.0673828125,-0.059967041015625,-1.0211944580078125,-0.021100491285324,-0.0021233384031802,0.0077423420734703
1769168076260,-0.0709228515625,-0.0613250732421875,-1.0218658447265625,0.0030570426024496,-0.0062725432217121,0.0062704128213226
1769168076270,-0.074737548828125,-0.06427001953125,-1.01495361328125,0.015908658504486,-0.0072001223452389,0.0079335570335388
1769168076280,-0.07861328125,-0.0616912841796875,-1.005767822265625,0.0162644572556018,-0.0028605014085769,0.0059460396878421
1769168076290,-0.08453369140625,-0.0594940185546875,-0.99359130859375,0.007300257217139,-0.0035143073182553,0.0034381409641355
1769168076300,-0.0863494873046875,-0.058807373046875,-0.9842529296875,-0.0038456046022474,-0.0002277002786286,-0.0002442118711769
1769168076310,-0.0837249755859375,-0.05889892578125,-0.9789886474609376,-0.0172168035060167,0.0044996771030128,0.0013699301052838
1769168076321,-0.0825042724609375,-0.058990478515625,-0.9777679443359376,-0.0292979683727026,0.0074659055098891,0.0022303974255919
1769168076330,-0.081085205078125,-0.05712890625,-0.9813690185546876,-0.0327195972204208,0.0032565132714807,-0.0001563275582157
1769168076341,-0.079559326171875,-0.05584716796875,-0.9906005859375,-0.0303373988717794,-0.0080984067171812,-0.0009347695158794
1769168076350,-0.0756072998046875,-0.0572052001953125,-0.9951629638671876,-0.0266241542994976,-0.0148039795458316,-0.0014783206861466
1769168076361,-0.0738983154296875,-0.0596771240234375,-0.9964752197265624,-0.0262225493788719,-0.0123245771974325,0.0034304177388548
1769168076371,-0.0711822509765625,-0.0604705810546875,-0.9970855712890624,-0.0235138479620218,-0.0123663879930973,0.0095069520175457
1769168076381,-0.072265625,-0.0604705810546875,-0.997528076171875,-0.0227894689887762,-0.0038112497422844,0.0140998400747776
1769168076391,-0.07720947265625,-0.059478759765625,-0.9979095458984376,-0.0202107299119234,-0.0010860371403396,0.0156916119158267
1769168076401,-0.0788726806640625,-0.0611114501953125,-0.99932861328125,-0.017830928787589,-0.0015270565636456,0.0195968709886074
1769168076411,-0.07366943359375,-0.063873291015625,-1.001708984375,-0.0172719303518533,-0.0103234779089689,0.0238102581351995
1769168076421,-0.07275390625,-0.05975341796875,-1.0019378662109375,-0.0038922098465263,-0.0144332675263285,0.0254518296569585
1769168076432,-0.08441162109375,-0.0530548095703125,-1.0093231201171875,0.0125552061945199,-0.0148945273831486,0.0181883256882429
1769168076441,-0.0877685546875,-0.0484161376953125,-1.002899169921875,0.0178655497729778,-0.0213460344821214,0.0109237544238567
1769168076451,-0.0850677490234375,-0.0485076904296875,-0.9918670654296876,0.0113794207572937,-0.0205545425415039,0.0052421661093831
1769168076461,-0.0810546875,-0.0533294677734375,-0.9802398681640624,-0.0040757018141448,-0.0146870668977499,0.0044051348231732
1769168076471,-0.077545166015625,-0.0552215576171875,-0.9778594970703124,-0.0178415812551975,-0.0110127041116356,0.0064656222239136
1769168076481,-0.074737548828125,-0.0563201904296875,-0.9810791015625,-0.0246757846325635,-0.0089303776621818,0.0086238477379083
1769168076491,-0.0756378173828125,-0.05841064453125,-0.98101806640625,-0.0320743136107921,-0.0034823494497686,0.0061540324240922
1769168076501,-0.074462890625,-0.0604095458984375,-0.9793243408203124,-0.0424651689827442,0.0027648939285427,0.0078797610476613
1769168076511,-0.0738983154296875,-0.060455322265625,-0.9821319580078124,-0.0487885773181915,0.0073559172451496,0.0074928035028278
1769168076521,-0.07366943359375,-0.058746337890625,-0.9889678955078124,-0.0468572527170181,0.0077665764838457,0.0116697056218981
1769168076531,-0.0745849609375,-0.056793212890625,-0.9974365234375,-0.0410329215228557,0.0013733921805396,0.0114241624251008
1769168076541,-0.0771484375,-0.053619384765625,-1.0037994384765625,-0.0331808552145957,-0.0037076529115438,0.0094203995540738
1769168076551,-0.0792999267578125,-0.054412841796875,-1.006103515625,-0.0230182334780693,0.000397077325033,0.0091871069744229
1769168076561,-0.078155517578125,-0.054962158203125,-1.005828857421875,-0.0103495763614773,0.0043944818899035,0.0097956387326121
1769168076572,-0.07763671875,-0.0538482666015625,-1.0088653564453125,0.0007110640290193,0.0044011399149894,0.0122073972597718
1769168076582,-0.07879638671875,-0.0524139404296875,-1.007415771484375,0.0089341066777706,0.0056118131615221,0.0140987746417522
1769168076592,-0.082763671875,-0.0496673583984375,-1.00250244140625,0.0129445604979991,0.0091064125299453,0.0154471332207322
1769168076602,-0.084716796875,-0.052001953125,-0.9942626953125,0.0091860415413975,0.0146817406639456,0.0114606469869613
1769168076612,-0.0850372314453125,-0.054168701171875,-0.984039306640625,-0.0023912524338811,0.0169677976518869,0.0107458550482988
1769168076622,-0.0830230712890625,-0.05419921875,-0.98065185546875,-0.0135624138638377,0.0140985082834959,0.0109466575086116
1769168076632,-0.07891845703125,-0.0575103759765625,-0.98187255859375,-0.0239226426929235,0.010939466767013,0.0082131884992122
1769168076642,-0.0779571533203125,-0.0590057373046875,-0.9860076904296876,-0.027973311021924,0.0042935484088957,0.0070049124769866
1769168076652,-0.075469970703125,-0.0589141845703125,-0.99261474609375,-0.0264960564672946,-0.0027395938523113,0.0071215592324733
1769168076662,-0.0790252685546875,-0.0591278076171875,-0.996429443359375,-0.0216946434229612,-0.0013960290234535,0.0032700954470783
1769168076672,-0.0793914794921875,-0.0583953857421875,-0.99945068359375,-0.0141709465533494,0.0061263358220458,0.00645816558972
1769168076682,-0.082550048828125,-0.057373046875,-1.0035552978515625,-0.0073125078342854,0.0070520504377782,0.0078272968530654
1769168076692,-0.08392333984375,-0.0542144775390625,-1.0054779052734375,-0.0014053500490263,0.0067420587874948,0.0054975631646811
1769168076702,-0.0857086181640625,-0.053619384765625,-1.0060577392578125,0.0025249430909752,0.0047295079566538,0.0046805054880678
1769168076712,-0.083984375,-0.053192138671875,-1.0020751953125,0.0032202943693846,0.0029648973140865,0.0016540893120691
1769168076722,-0.0828704833984375,-0.0554656982421875,-0.9947052001953124,-0.0005874933558516,0.0035601137205958,-0.0005107942852191
1769168076732,-0.08282470703125,-0.057525634765625,-0.9895477294921876,-0.0049963565543293,0.0070677632465958,-0.0023446469567716
1769168076742,-0.0852203369140625,-0.05804443359375,-0.9882354736328124,-0.0067098340950906,0.0108862034976482,-0.0086965523660182
1769168076752,-0.0866546630859375,-0.06005859375,-0.9879913330078124,-0.0146010471507906,0.0211151391267776,-0.0073644393123686
1769168076762,-0.0794677734375,-0.0642547607421875,-0.9852447509765624,-0.0211220625787973,0.019252523779869,-0.0028322718571871
1769168076772,-0.0790252685546875,-0.06256103515625,-0.9932708740234376,-0.0163779072463512,0.0186937935650348,-0.0102257393300533
1769168076782,-0.0836944580078125,-0.0592498779296875,-1.0050048828125,-0.0078717712312936,0.0236051939427852,-0.0100734066218137
1769168076792,-0.0730133056640625,-0.057098388671875,-1.0140380859375,0.0150657687336206,0.019675699993968,-0.0051204599440097
1769168076803,-0.0731201171875,-0.0497283935546875,-1.0212554931640625,0.0337017700076103,0.0041750376112759,-0.0045614624395966
1769168076813,-0.084686279296875,-0.04217529296875,-1.015716552734375,0.0466127768158912,0.007561513222754,-0.0135024925693869
1769168076823,-0.091156005859375,-0.0498199462890625,-1.002197265625,0.0411152131855487,0.0147749511525034,-0.0143576338887214
1769168076833,-0.07366943359375,-0.062774658203125,-0.9828338623046876,0.0222288724035024,0.0112902047112584,-0.0046996804885566
1769168076843,-0.0660247802734375,-0.06500244140625,-0.977569580078125,0.0092046838253736,0.0145661598071455,-0.003108707955107
1769168076853,-0.0763397216796875,-0.056365966796875,-0.9860076904296876,0.0142891909927129,0.0274390820413827,-0.006417419295758
1769168076863,-0.0831146240234375,-0.0478515625,-0.9951171875,0.0186194907873868,0.0278457459062337,-0.0140063632279634
1769168076873,-0.082427978515625,-0.045989990234375,-0.9954071044921876,0.0163206495344638,0.0171289201825857,-0.0191119089722633
1769168076883,-0.0774688720703125,-0.05010986328125,-0.991424560546875,0.0081727085635066,0.0104531738907098,-0.0198109894990921
1769168076893,-0.0736846923828125,-0.0539703369140625,-0.9899139404296876,0.0048341699875891,0.0061606904491782,-0.0172703340649604
1769168076903,-0.0717620849609375,-0.0570068359375,-0.9928741455078124,0.006548180244863,0.0027608990203589,-0.0169867072254419
1769168076913,-0.070220947265625,-0.0597991943359375,-0.9911346435546876,0.005568669643253,-0.0001094559193006,-0.0122065991163253
1769168076923,-0.068511962890625,-0.0619354248046875,-0.98590087890625,0.0029212213121354,0.0001275654212804,-0.0074904067441821
1769168076933,-0.0734100341796875,-0.06231689453125,-0.9808502197265624,-0.00412257341668,0.0052126049995422,-0.0069636334665119
1769168076944,-0.07623291015625,-0.05987548828125,-0.9797515869140624,-0.0126172583550214,0.0057524279691278,-0.0057929079048335
1769168076953,-0.0751800537109375,-0.056549072265625,-0.9837188720703124,-0.0171598121523857,0.0060650832019746,-0.0035997948143631
1769168076963,-0.0761260986328125,-0.0543365478515625,-0.989501953125,-0.0186458565294742,0.0037316211964935,-0.0014389059506356
1769168076973,-0.076263427734375,-0.0521392822265625,-0.9961090087890624,-0.0168801806867122,-0.003811782458797,-0.0024000408593565
1769168076983,-0.0768280029296875,-0.052215576171875,-0.9988555908203124,-0.0098720714449882,-0.0083868270739912,-0.0052086105570197
1769168076993,-0.07586669921875,-0.0547332763671875,-1.003875732421875,-0.0013883059145882,-0.0108007164672017,-0.0056190034374594
1769168077003,-0.0719757080078125,-0.054962158203125,-1.0052337646484375,0.0077862842008471,-0.0103700831532478,-0.0020751350093632
1769168077013,-0.0700836181640625,-0.0555572509765625,-1.005950927734375,0.0198674481362104,-0.0091293165460228,-0.000614391232375
1769168077024,-0.073974609375,-0.056732177734375,-1.003448486328125,0.0247564781457185,-0.0017297230660915,0.0013888385146856
1769168077034,-0.07208251953125,-0.060089111328125,-0.99517822265625,0.0241005420684814,0.0093327816575765,0.005192897748202
1769168077044,-0.072509765625,-0.0618438720703125,-0.9936370849609376,0.0252904426306486,0.0111818145960569,0.0083226449787616
1769168077054,-0.0727081298828125,-0.0616607666015625,-0.9912261962890624,0.0233439374715089,0.0086592677980661,0.0108126997947692
1769168077064,-0.06890869140625,-0.067626953125,-0.9860076904296876,0.0090041477233171,-0.001365668955259,0.0192844811826944
1769168077074,-0.06304931640625,-0.0692138671875,-0.9770355224609376,-0.0067646955139935,-0.0116718355566263,0.0259080305695533
1769168077084,-0.0709075927734375,-0.0601654052734375,-0.9848785400390624,-0.0055718654766678,-0.0145142273977398,0.0236179772764444
1769168077094,-0.0812835693359375,-0.0491943359375,-0.9967041015625,0.0013552826130762,-0.0179015025496482,0.0185222849249839
1769168077104,-0.082794189453125,-0.046417236328125,-0.9963836669921876,0.0035366779193282,-0.0219689477235078,0.0172045528888702
1769168077114,-0.08172607421875,-0.051177978515625,-0.9928131103515624,0.0053369747474789,-0.0125333685427904,0.013432185165584
1769168077124,-0.0803070068359375,-0.0547332763671875,-0.99212646484375,0.0088267810642719,-0.0035236284602433,0.0138779990375041
1769168077134,-0.0760650634765625,-0.0570220947265625,-0.994537353515625,0.0178338587284088,0.0030309436842799,0.0130217922851443
1769168077144,-0.0748443603515625,-0.05828857421875,-0.994720458984375,0.0171587467193603,0.0045481463894248,0.0127128660678863
1769168077154,-0.0725555419921875,-0.0596160888671875,-0.9857330322265624,0.0095120128244161,0.0016562198288738,0.0167803112417459
1769168077164,-0.0705413818359375,-0.061981201171875,-0.98046875,-0.0011371697764843,-0.0030490530189126,0.0170114748179912
1769168077174,-0.0710601806640625,-0.0626068115234375,-0.974090576171875,-0.0207249857485294,-0.0054419031366705,0.0206613354384899
1769168077184,-0.0719146728515625,-0.0643463134765625,-0.9668426513671876,-0.044320061802864,-0.003836017102003,0.0244864337146282
1769168077194,-0.07244873046875,-0.0633392333984375,-0.966827392578125,-0.0635344982147216,-0.004545749630779,0.0287885051220655
1769168077204,-0.075927734375,-0.0632781982421875,-0.978271484375,-0.0723399743437767,-0.0100536989048123,0.0311893448233604
1769168077214,-0.0753936767578125,-0.0601654052734375,-0.9879913330078124,-0.0729498416185379,-0.0144830690696835,0.0337057672441005
1769168077224,-0.07830810546875,-0.056365966796875,-1.0005950927734375,-0.0623515248298645,-0.0198211092501878,0.0308500584214925
1769168077234,-0.084716796875,-0.0540924072265625,-1.0110015869140625,-0.0498450547456741,-0.0159278344362974,0.0305509846657514
1769168077244,-0.0850372314453125,-0.0535888671875,-1.01641845703125,-0.0312268957495689,-0.0146716209128499,0.0242930892854928
1769168077255,-0.0875701904296875,-0.053497314453125,-1.020233154296875,-0.0099564939737319,-0.0065399245359003,0.0215074233710765
1769168077265,-0.0882568359375,-0.0551300048828125,-1.019012451171875,0.0056666741147637,0.0018128136871382,0.0211300533264875
1769168077275,-0.085052490234375,-0.056854248046875,-1.0133056640625,0.0160721763968467,0.0065042381174862,0.0206624008715152
1769168077285,-0.0807342529296875,-0.05853271484375,-1.0064239501953125,0.0199681147933006,0.0066824038513004,0.021844046190381
1769168077295,-0.080352783203125,-0.05877685546875,-0.9990386962890624,0.0166404955089092,0.0039039277471601,0.0244094692170619
1769168077305,-0.0809326171875,-0.0587158203125,-0.987640380859375,0.003475957782939,-0.0026517093647271,0.0222664233297109
1769168077315,-0.0818634033203125,-0.060394287109375,-0.979278564453125,-0.0122108599171042,-0.0011680624447762,0.0191265568137168
1769168077325,-0.0806732177734375,-0.05902099609375,-0.980194091796875,-0.0206983536481857,0.0022676817607134,0.0168279819190502
1769168077335,-0.0775146484375,-0.05950927734375,-0.9886932373046876,-0.0179510377347469,0.001578988158144,0.0140819968655705
1769168077345,-0.0790557861328125,-0.05743408203125,-0.99920654296875,-0.0108356038108468,-0.0007779093575663,0.0071284831501543
1769168077355,-0.0855712890625,-0.0572052001953125,-1.00616455078125,0.0038437403272837,0.0019441075855866,-0.0017227989155799
1769168077365,-0.08636474609375,-0.0577850341796875,-1.0084381103515625,0.016784306615591,0.0084659224376082,-0.0072547169402241
1769168077375,-0.08245849609375,-0.062042236328125,-1.0057220458984375,0.0229761563241481,0.0125719849020242,-0.0065918564796447
1769168077385,-0.083038330078125,-0.063385009765625,-1.0019989013671875,0.0255045611411333,0.0099274655804038,-0.0108393318951129
1769168077395,-0.0867156982421875,-0.0648345947265625,-0.9972381591796876,0.0224640294909477,0.0127794444561004,-0.0124990139156579
1769168077405,-0.0880584716796875,-0.0642242431640625,-0.99029541015625,0.0173702016472816,0.0129086077213287,-0.0165073368698358
1769168077415,-0.0864410400390625,-0.0615081787109375,-0.9832611083984376,0.0095564872026443,0.0123826339840888,-0.01590146869421
1769168077425,-0.0834197998046875,-0.0609130859375,-0.9764556884765624,-0.0055034225806593,0.00810266751796,-0.010122675448656
1769168077436,-0.07891845703125,-0.062042236328125,-0.9654541015625,-0.0329779237508773,-0.0017038905061781,-0.0072145033627748
1769168077445,-0.079833984375,-0.0597076416015625,-0.9598388671875,-0.0586971342563629,-0.0135946385562419,-0.0163496788591146
1769168077456,-0.088531494140625,-0.052276611328125,-0.97076416015625,-0.0649654194712638,-0.0067657604813575,-0.0246259849518537
1769168077465,-0.087982177734375,-0.048309326171875,-0.983367919921875,-0.0675955563783645,-0.0030714236199855,-0.0299933180212974
1769168077476,-0.0847930908203125,-0.0453948974609375,-0.9934234619140624,-0.0597078055143356,0.0050831753760576,-0.0369992963969707
1769168077486,-0.090972900390625,-0.03924560546875,-1.010772705078125,-0.0427264235913753,0.0047939564101397,-0.0474340952932834
1769168077496,-0.0905609130859375,-0.044525146484375,-1.0206298828125,-0.0267586428672075,0.016221048310399,-0.0538081042468547
1769168077506,-0.0767059326171875,-0.0608367919921875,-1.01849365234375,-0.0202181860804557,0.0205068737268447,-0.0414947122335433
1769168077516,-0.0614776611328125,-0.072174072265625,-1.015838623046875,-0.0041734399273991,0.0219945143908262,-0.028645759448409
1769168077526,-0.0701751708984375,-0.0658721923828125,-1.0242462158203125,0.0241969488561153,0.0410712696611881,-0.027655329555273
1769168077536,-0.0889129638671875,-0.0524139404296875,-1.02978515625,0.0571154840290546,0.05616420134902,-0.032729186117649
1769168077546,-0.09619140625,-0.0455169677734375,-1.0269927978515625,0.0742089822888374,0.0557823069393634,-0.0386323481798172
1769168077556,-0.0928497314453125,-0.0457916259765625,-1.016845703125,0.0764252692461013,0.0484237261116504,-0.0412148125469684
1769168077566,-0.0867462158203125,-0.0478057861328125,-1.0097808837890625,0.0865090563893318,0.0220467131584882,-0.0455320663750171
1769168077576,-0.07720947265625,-0.0498504638671875,-1.01007080078125,0.0838357806205749,0.029558690264821,-0.0347545184195041
1769168077586,-0.0704498291015625,-0.0542449951171875,-0.9944915771484376,0.0841212719678878,0.0224014464765787,-0.0321526117622852
1769168077596,-0.072174072265625,-0.05859375,-0.982147216796875,0.0748220458626747,0.0182317346334457,-0.0359255112707614
1769168077606,-0.0717620849609375,-0.0625457763671875,-0.9664306640625,0.0527220666408538,0.0202770419418811,-0.0377364605665206
1769168077616,-0.06768798828125,-0.06524658203125,-0.9613800048828124,0.0349848829209804,0.0208429638296365,-0.0367154031991958
1769168077626,-0.0641021728515625,-0.0679168701171875,-0.964996337890625,0.0202631931751966,0.0175502318888902,-0.0354892835021019
1769168077636,-0.066741943359375,-0.067138671875,-0.96942138671875,0.0066834688186645,0.0236866865307092,-0.0302897281944751
1769168077646,-0.069915771484375,-0.0652313232421875,-0.9725341796875,-0.0035047200508415,0.0250347796827554,-0.0292108822613954
1769168077657,-0.0690765380859375,-0.0634918212890625,-0.9812469482421876,-0.0070424629375338,0.0196607857942581,-0.0248393025249242
1769168077666,-0.0659637451171875,-0.06298828125,-0.98797607421875,-0.0091234575957059,0.0121344272047281,-0.0185004472732543
1769168077676,-0.0676116943359375,-0.063751220703125,-0.9894256591796876,-0.0126321716234087,0.0052645369432866,-0.0123482793569564
1769168077687,-0.072662353515625,-0.0616302490234375,-0.9877166748046876,-0.0252856481820344,-0.0016908409306779,-0.0080736391246318
1769168077697,-0.074737548828125,-0.059173583984375,-0.9871826171875,-0.0370861142873764,-0.0046016760170459,-0.0076707028783857
1769168077707,-0.0776824951171875,-0.0555267333984375,-0.991607666015625,-0.0425732918083667,-0.0086571378633379,-0.0121259046718478
1769168077717,-0.0804443359375,-0.05072021484375,-0.9998626708984376,-0.0366709306836128,-0.0110840760171413,-0.0151235591620206
1769168077727,-0.075531005859375,-0.053619384765625,-1.00665283203125,-0.0323406308889389,-0.0030876689124852,-0.0124433534219861
1769168077737,-0.0654754638671875,-0.06317138671875,-1.004669189453125,-0.0313954725861549,0.002273274352774,-0.0060150157660245
1769168077747,-0.05743408203125,-0.0694122314453125,-1.00634765625,-0.0099722063168883,0.011584217660129,-0.00054035539506
1769168077757,-0.066009521484375,-0.063262939453125,-1.01849365234375,0.0226557776331901,0.0301334019750356,0.0007896272582001
1769168077767,-0.0774688720703125,-0.0560150146484375,-1.0202178955078125,0.0499779470264911,0.0389455333352088,-0.0076017268002033
1769168077777,-0.0841827392578125,-0.0568389892578125,-1.0095977783203125,0.0567809902131557,0.0366861075162887,-0.0108369346708059
1769168077787,-0.0811004638671875,-0.0587310791015625,-0.998626708984375,0.051030158996582,0.0248267855495214,-0.0133991623297333
1769168077797,-0.075714111328125,-0.0581207275390625,-0.993377685546875,0.0490240007638931,0.0126976855099201,-0.0126734506338834
1769168077807,-0.0799102783203125,-0.0597991943359375,-0.9931640625,0.0448732003569603,0.0042208437807857,-0.0121128559112548
1769168077817,-0.0836639404296875,-0.059539794921875,-0.9858245849609376,0.0337015055119991,0.0037422738969326,-0.016115054488182
1769168077827,-0.082977294921875,-0.05975341796875,-0.9770660400390624,0.0174261275678873,0.0075436700135469,-0.0179209429770708
1769168077837,-0.0791168212890625,-0.0636444091796875,-0.9724273681640624,-0.0010335728293284,0.0072712288238108,-0.0154990646988153
1769168077847,-0.072296142578125,-0.0655517578125,-0.973052978515625,-0.0110534504055976,0.0028067054226994,-0.0097178751602768
1769168077857,-0.068511962890625,-0.065093994140625,-0.9798583984375,-0.0189904682338237,0.0018250643042847,-0.0039800941012799
1769168077867,-0.0704803466796875,-0.06243896484375,-0.983734130859375,-0.0220496412366628,-0.0065732141956686,-0.0026202842127531
1769168077877,-0.0709991455078125,-0.058807373046875,-0.9891357421875,-0.0211106110364198,-0.0172924380749464,-0.0045145908370614
1769168077888,-0.07598876953125,-0.0562286376953125,-0.9935302734375,-0.0208629369735717,-0.0198514685034751,-0.0064315339550375
1769168077897,-0.0795440673828125,-0.052947998046875,-1.0001373291015625,-0.0126263126730918,-0.0179789997637271,-0.0093735279515385
1769168077908,-0.0810546875,-0.053924560546875,-1.0038604736328125,-0.0022114890161901,-0.0142574990168213,-0.0146199548617005
1769168077918,-0.077606201171875,-0.0574798583984375,-1.00372314453125,0.0087223853915929,-0.0065652248449623,-0.0148836085572838
1769168077928,-0.0717620849609375,-0.0626220703125,-1.00042724609375,0.0123687852174043,0.0051694619469344,-0.0083809681236743
1769168077938,-0.06573486328125,-0.063995361328125,-0.9940948486328124,0.0134561536833643,0.0115818213671445,-0.0034005902707576
1769168077948,-0.0641021728515625,-0.0655517578125,-0.988372802734375,0.0036397422663867,0.0130987577140331,0.0040522660128772
1769168077958,-0.0611114501953125,-0.069305419921875,-0.982696533203125,-0.0073220948688685,0.0131863756105303,0.0096305226907134
1769168077968,-0.064422607421875,-0.067657470703125,-0.9799957275390624,-0.019187543541193,0.0072145033627748,0.0157051943242549
1769168077978,-0.063629150390625,-0.0646209716796875,-0.9799957275390624,-0.030548321083188,0.0008511462947353,0.018655177205801
1769168077988,-0.0667266845703125,-0.058349609375,-0.9874114990234376,-0.0348416045308113,-0.0130857080221176,0.0203292407095432
1769168077998,-0.0734405517578125,-0.0562286376953125,-0.99444580078125,-0.033855702728033,-0.0153613789007067,0.013963752426207
1769168078008,-0.076751708984375,-0.0563812255859375,-1.002197265625,-0.0257423818111419,-0.0094968322664499,0.0121514713391661
1769168078018,-0.0756072998046875,-0.05694580078125,-1.0131378173828125,-0.0092518217861652,0.0006809702608734,0.0127698574215173
1769168078028,-0.076263427734375,-0.058319091796875,-1.018310546875,0.0098489020019769,0.012557603418827,0.0145389949902892
1769168078038,-0.0760498046875,-0.059967041015625,-1.017822265625,0.0248052142560482,0.0130026172846555,0.0099919140338897
1769168078048,-0.078155517578125,-0.06085205078125,-1.010589599609375,0.0384243540465831,0.0136391129344701,0.0061923819594085
1769168078058,-0.0834197998046875,-0.0621337890625,-0.9997100830078124,0.0411775298416614,0.011272095143795,0.0031987228430807
1769168078068,-0.0791473388671875,-0.066986083984375,-0.986572265625,0.0300721488893032,0.0012956279097124,0.0069196913391351
1769168078078,-0.072540283203125,-0.0695648193359375,-0.974334716796875,0.0153118446469306,-0.011502725072205,0.0067561734467744
1769168078088,-0.08074951171875,-0.0638580322265625,-0.9736480712890624,0.0083165196701884,-0.0088773807510733,-0.0015398397808894
1769168078098,-0.083709716796875,-0.061920166015625,-0.9729766845703124,-0.0134878456592559,-0.0080462088808417,-0.0052690641023218
1769168078108,-0.0733184814453125,-0.0619049072265625,-0.965301513671875,-0.0312489997595548,-0.0004929511342197,-0.0024248082190752
1769168078119,-0.072479248046875,-0.055328369140625,-0.973419189453125,-0.0378805361688137,0.0110385362058877,0.0023734092246741
1769168078128,-0.075347900390625,-0.0546417236328125,-0.9808807373046876,-0.0483843088150024,0.013334447517991,0.0033281524665653
1769168078139,-0.0692901611328125,-0.0602264404296875,-0.9790191650390624,-0.0632745772600174,0.0111730257049202,0.0087082702666521
1769168078149,-0.0659332275390625,-0.0666046142578125,-0.9889068603515624,-0.0650170817971229,0.0056307213380932,0.010456102900207
1769168078159,-0.0660247802734375,-0.0662689208984375,-1.00830078125,-0.0451040938496589,0.0072608422487974,0.0128343058750033
1769168078169,-0.072784423828125,-0.05621337890625,-1.024688720703125,-0.0031742216087877,0.0162689853459596,0.0059865196235477
1769168078179,-0.086700439453125,-0.0461273193359375,-1.03314208984375,0.0276140514761209,0.0247327759861946,-0.0034418692812323
1769168078189,-0.0889434814453125,-0.0485076904296875,-1.020538330078125,0.0346003212034702,0.024950623512268,-0.0109708923846483
1769168078199,-0.0865020751953125,-0.0554351806640625,-1.0059051513671875,0.0260132253170013,0.0254446398466825,-0.0120627880096435
1769168078209,-0.080718994140625,-0.0600128173828125,-0.996734619140625,0.0161400884389877,0.0223662927746772,-0.0106462528929114
1769168078219,-0.07843017578125,-0.0674896240234375,-0.9936676025390624,0.0082363579422235,0.0202735792845487,-0.0127807762473821
1769168078229,-0.0761871337890625,-0.073455810546875,-0.99041748046875,0.0065361959859728,0.0169030837714672,-0.010628942400217
1769168078239,-0.0712738037109375,-0.0726776123046875,-0.994598388671875,0.0164753794670104,0.0172000266611576,-0.0055106128565967
1769168078249,-0.0709075927734375,-0.067718505859375,-0.9996185302734376,0.0299363266676664,0.0138795962557196,-0.0027009779587388
1769168078259,-0.0729522705078125,-0.062744140625,-1.0037689208984375,0.0420044399797916,0.0079615199938416,-0.0039856866933405
1769168078269,-0.076568603515625,-0.05828857421875,-1.003326416015625,0.0520450919866561,0.0069449916481971,-0.0056973006576299
1769168078279,-0.0813751220703125,-0.0589447021484375,-0.999725341796875,0.0529740005731582,0.0092667350545525,-0.0076075857505202
1769168078289,-0.07891845703125,-0.05975341796875,-0.99200439453125,0.0493662171065807,0.0092126727104187,-0.0064496435225009
1769168078299,-0.0771484375,-0.0625152587890625,-0.985565185546875,0.0368107445538044,0.0078504662960767,-0.0063875918276607
1769168078309,-0.0771484375,-0.0658721923828125,-0.9754791259765624,0.0155723020434379,0.0076920082792639,-0.0106579707935452
1769168078319,-0.07427978515625,-0.0693817138671875,-0.9663848876953124,-0.0059172776527702,0.0077282269485294,-0.0091644702479243
1769168078329,-0.07122802734375,-0.0693511962890625,-0.9686279296875,-0.0214677415788173,-0.0038171086926013,-0.0097426418215036
1769168078339,-0.0690460205078125,-0.0693359375,-0.9752655029296876,-0.0347550511360168,-0.0171385072171688,-0.0090872384607791
1769168078349,-0.06842041015625,-0.0673065185546875,-0.980316162109375,-0.0468703024089336,-0.0186309423297643,-0.0066443206742405
1769168078359,-0.0700836181640625,-0.06768798828125,-0.9875946044921876,-0.0524767898023128,-0.0181174855679273,-0.0036285568494349
1769168078370,-0.0648651123046875,-0.0752716064453125,-0.9942474365234376,-0.0601264536380767,-0.0254614185541868,0.0025630262680351
1769168078380,-0.0607757568359375,-0.076263427734375,-1.00103759765625,-0.0456790700554847,-0.0190751571208238,0.0070046461187303
1769168078390,-0.074005126953125,-0.064666748046875,-1.0187530517578125,-0.0156841538846492,0.0047880974598228,0.0082025360316038
1769168078400,-0.08404541015625,-0.0585479736328125,-1.022918701171875,0.0118095213547348,0.0188562460243701,0.001202150946483
1769168078410,-0.0867919921875,-0.06109619140625,-1.0167999267578125,0.0267306808382272,0.0186474546790123,-0.004980111028999
1769168078420,-0.085540771484375,-0.0609283447265625,-1.00689697265625,0.0324082747101783,0.0141874579712748,-0.0088816424831748
1769168078430,-0.082000732421875,-0.061309814453125,-0.999053955078125,0.0327321141958236,0.0099194757640361,-0.0124870296567678
1769168078440,-0.078369140625,-0.063018798828125,-0.994720458984375,0.0297278016805648,0.0022714100778102,-0.0134918401017785
1769168078450,-0.074920654296875,-0.065277099609375,-0.9873504638671876,0.0222887936979532,-0.0027198863681405,-0.0173480976372957
1769168078460,-0.0682220458984375,-0.069732666015625,-0.982666015625,0.0130172651261091,-0.0004042678629048,-0.0085455514490604
1769168078470,-0.060821533203125,-0.072540283203125,-0.9821929931640624,-0.0003430151555221,-0.0034461303148418,0.0007960188668221
1769168078480,-0.061187744140625,-0.07080078125,-0.976531982421875,-0.0106169581413269,-0.0020554277580231,0.0084486119449138
1769168078490,-0.0670013427734375,-0.0678253173828125,-0.9772796630859376,-0.0217998381704092,-0.000507598510012,0.0115722334012389
1769168078500,-0.0717620849609375,-0.0637969970703125,-0.9836578369140624,-0.0254512969404459,-0.0042165829800069,0.0115807559341192
1769168078510,-0.075927734375,-0.059844970703125,-0.9900054931640624,-0.0247511528432369,-0.0066022425889968,0.0095247952267527
1769168078520,-0.075103759765625,-0.05853271484375,-0.993499755859375,-0.0236765667796134,-0.0054038199596107,0.0109687615185976
1769168078531,-0.073455810546875,-0.057098388671875,-0.9976043701171876,-0.0182546377182006,-0.0091620730236172,0.0127227194607257
1769168078540,-0.0722198486328125,-0.0557098388671875,-1.0047607421875,-0.0115344170480966,-0.0084262415766716,0.0112547846511006
1769168078550,-0.0721893310546875,-0.0592041015625,-1.0080108642578125,-0.0023012375459074,-0.0066855996847152,0.0109399994835257
1769168078560,-0.070343017578125,-0.0629119873046875,-1.006744384765625,0.0073455306701362,0.0009893643436953,0.0124201839789748
1769168078571,-0.0697784423828125,-0.06640625,-1.00140380859375,0.0111650368198752,0.0054791877046227,0.0139696113765239
1769168078580,-0.0742645263671875,-0.066558837890625,-0.9979705810546876,0.0184125620871782,0.0073061161674559,0.0122068654745817
1769168078591,-0.0776519775390625,-0.0662078857421875,-0.9961395263671876,0.0212754607200622,0.0043225768022239,0.0111495899036526
1769168078601,-0.0792236328125,-0.067413330078125,-0.989990234375,0.0172748602926731,0.0030844730790704,0.0056506949476897
1769168078611,-0.0799407958984375,-0.0665130615234375,-0.9858551025390624,0.0112547846511006,0.004430434666574,0.0061122211627662
1769168078621,-0.0786285400390625,-0.065093994140625,-0.986724853515625,0.0104121612384915,-0.0006777744856663,0.0052805156446993
1769168078631,-0.0792694091796875,-0.0635528564453125,-0.986907958984375,0.0047244476154446,-0.0033044503070414,0.0026751453988254
1769168078641,-0.079345703125,-0.0632476806640625,-0.98797607421875,0.0002567287301644,-0.0023646207991987,0.0007544735562987
1769168078651,-0.0772705078125,-0.0639495849609375,-0.9888763427734376,-0.0038623826112598,0.0070603061467409,0.0020093549974262
1769168078661,-0.0719146728515625,-0.066497802734375,-0.990203857421875,-0.004955343902111,0.0109807457774877,0.0047313719987869
1769168078671,-0.069976806640625,-0.06622314453125,-0.9953765869140624,-0.0024327975697815,0.0074368771165609,0.0077652451582252
1769168078681,-0.0726776123046875,-0.06512451171875,-0.999237060546875,-0.0007534082396887,0.0036511938087642,0.003516704076901
1769168078691,-0.0771942138671875,-0.0654144287109375,-0.9955291748046876,-0.0012658004416152,0.0097479680553078,0.0018013621447607
1769168078701,-0.0724639892578125,-0.069000244140625,-0.9924163818359376,-0.0062296665273606,0.0080363545566797,0.0044621261768043
1769168078711,-0.066619873046875,-0.06854248046875,-0.99493408203125,0.0023150858469307,0.0032914008479565,0.0053452304564416
1769168078721,-0.077423095703125,-0.063140869140625,-1.0025634765625,0.0131757231429219,0.010978614911437,-0.0016919062472879
1769168078731,-0.076690673828125,-0.06805419921875,-0.9962005615234376,0.0095791239291429,0.0076808226294815,0.0019086875254288
1769168078741,-0.0712432861328125,-0.0654296875,-0.9892120361328124,0.0164359640330076,0.015473498031497,0.0022234732750803
1769168078751,-0.0812225341796875,-0.0599365234375,-0.9982452392578124,0.0273368153721094,0.0197345558553934,-0.0003965446958318
1769168078761,-0.0809173583984375,-0.064605712890625,-0.9917449951171876,0.0212155394256114,0.007911984808743,0.0001081243390217
1769168078771,-0.0739593505859375,-0.0731658935546875,-0.977783203125,0.0021252024453133,-0.0007254450465552,0.0027169568929821
1769168078781,-0.0707855224609375,-0.0766448974609375,-0.968414306640625,-0.0190509222447872,0.0022082931827753,0.0099421124905347
1769168078791,-0.0712127685546875,-0.06842041015625,-0.971771240234375,-0.020929517224431,3.834952076431364e-05,0.0075798891484737
1769168078802,-0.084869384765625,-0.0513458251953125,-0.9874420166015624,-0.0196735691279172,0.0029798108153045,-0.0017065536230802
1769168078812,-0.0884552001953125,-0.0463409423828125,-0.9848480224609376,-0.033904705196619,0.0010170611785724,-0.0107924602925777
1769168078822,-0.0810089111328125,-0.052703857421875,-0.9769744873046876,-0.0560464896261692,-0.0122313657775521,-0.0165062714368104
1769168078832,-0.0732269287109375,-0.05914306640625,-0.9802093505859376,-0.0734901949763298,-0.013725665397942,-0.0160910859704017
1769168078842,-0.0679931640625,-0.06494140625,-0.9940032958984376,-0.0730893909931182,-0.0064461813308298,-0.0135349836200475
1769168078852,-0.066619873046875,-0.07080078125,-1.0062103271484375,-0.0594875626266002,0.0023582291323691,-0.0105005782097578
1769168078862,-0.0638885498046875,-0.073944091796875,-1.0128021240234375,-0.0366275198757648,0.0091088097542524,-0.007375091779977
1769168078872,-0.0651702880859375,-0.0708160400390625,-1.0198516845703125,-0.0082528702914714,0.0138518996536731,-0.0025529062841087
1769168078882,-0.0705413818359375,-0.0670013427734375,-1.0218048095703125,0.0157227702438831,0.0176897812634706,-0.0023046995047479
1769168078892,-0.0764312744140625,-0.063079833984375,-1.0147552490234375,0.033113744109869,0.0189808811992406,-0.0047129960730671
1769168078902,-0.0797576904296875,-0.061004638671875,-1.0088958740234375,0.0428129769861698,0.0156825557351112,-0.0064491108059883
1769168078912,-0.078338623046875,-0.060211181640625,-1.0009613037109375,0.0458511114120483,0.0042626555077731,-0.0066155586391687
1769168078922,-0.0797882080078125,-0.063232421875,-0.9896240234375,0.0391428768634796,-0.0004013383586425,-0.0095543563365936
1769168078932,-0.0777587890625,-0.065826416015625,-0.97705078125,0.019678097218275,0.0030168287921696,-0.0071990569122135
1769168078942,-0.0745391845703125,-0.066131591796875,-0.970306396484375,-0.0023598270490765,0.0026687537319958,-0.0046264436095952
1769168078952,-0.072113037109375,-0.0688323974609375,-0.970458984375,-0.0237543322145938,-0.0015843145083636,-0.0034370757639408
1769168078962,-0.069732666015625,-0.0673065185546875,-0.9713592529296876,-0.0398933552205562,-0.0088635329157114,-0.0019928433466702
1769168078972,-0.0694580078125,-0.064788818359375,-0.9768829345703124,-0.0499537102878093,-0.0115701034665107,-0.0008785768295638
1769168078982,-0.0676422119140625,-0.064849853515625,-0.985076904296875,-0.0530973076820373,-0.0138942440971732,0.0034336135722696
1769168078992,-0.064483642578125,-0.0636749267578125,-0.9928131103515624,-0.0506977997720241,-0.0177153479307889,0.0101237408816814
1769168079002,-0.06378173828125,-0.0694580078125,-0.9978179931640624,-0.0506040565669536,-0.0266140345484018,0.0172887090593576
1769168079013,-0.0606231689453125,-0.07073974609375,-1.0051116943359375,-0.0295922476798295,-0.0273780953139066,0.0208261851221323
1769168079022,-0.073394775390625,-0.06170654296875,-1.0213775634765625,0.0056283245794475,-0.006328469607979,0.0213393773883581
1769168079033,-0.080596923828125,-0.0584716796875,-1.02252197265625,0.0351404100656509,0.0037348170299082,0.0204368308186531
1769168079042,-0.0806121826171875,-0.0615997314453125,-1.01336669921875,0.043491818010807,0.0085548721253871,0.0190477278083562
1769168079053,-0.0819244384765625,-0.0618438720703125,-0.998626708984375,0.0401916280388832,0.010244115255773,0.0158189106732606
1769168079063,-0.082275390625,-0.062042236328125,-0.9886322021484376,0.0291291233152151,0.0023409186396747,0.0147957243025302
1769168079073,-0.0815277099609375,-0.060089111328125,-0.98016357421875,0.0119615877047181,-0.0121014034375548,0.0088033452630043
1769168079083,-0.0835418701171875,-0.0608062744140625,-0.97296142578125,-0.0095871137455105,-0.0177654139697551,0.0028370653744786
1769168079093,-0.080352783203125,-0.0627899169921875,-0.9658203125,-0.0300388596951961,-0.0155528606846928,-0.0009001484140753
1769168079103,-0.07476806640625,-0.065155029296875,-0.9676513671875,-0.0455565676093101,-0.020403541624546,-0.001227450906299
1769168079113,-0.07305908203125,-0.0653228759765625,-0.9781494140625,-0.0519161932170391,-0.027171965688467,-0.0002844255941454
1769168079123,-0.0729522705078125,-0.06475830078125,-0.98529052734375,-0.0510541275143623,-0.022859776392579,3.27568814100232e-05
1769168079133,-0.0711669921875,-0.0638885498046875,-0.9912109375,-0.0455443151295185,-0.0121101923286914,0.003009904641658
1769168079143,-0.070648193359375,-0.0648345947265625,-0.9984588623046876,-0.0354144498705863,-6.79106087773107e-05,0.0063644223846495
1769168079153,-0.072509765625,-0.06243896484375,-1.0029449462890625,-0.0222536399960517,0.004994492046535,0.0091383708640933
1769168079163,-0.0725250244140625,-0.0594329833984375,-1.01031494140625,-0.006264021154493,0.0033004553988575,0.0096025597304105
1769168079173,-0.0739593505859375,-0.059326171875,-1.0075836181640625,0.0025499768089503,-5.885586142539978e-05,0.005952697712928
1769168079183,-0.0740203857421875,-0.0581207275390625,-1.0018463134765625,0.0039601204916834,-0.0092997588217258,0.0077191721647977
1769168079193,-0.077301025390625,-0.0568084716796875,-0.99420166015625,-0.0061598913744091,-0.0156250316649675,0.0045587993226945
1769168079204,-0.078338623046875,-0.0575714111328125,-0.986358642578125,-0.0200794357806444,-0.0252294559031724,0.0020141487475484
1769168079213,-0.077606201171875,-0.0612030029296875,-0.9803314208984376,-0.0367825143039226,-0.0292071532458066,-0.0004801679460797
1769168079223,-0.0762481689453125,-0.063690185546875,-0.9777069091796876,-0.0489302575588226,-0.0243186559528112,0.0023286680225282
1769168079233,-0.07440185546875,-0.0641632080078125,-0.978485107421875,-0.0587551929056644,-0.0110156331211328,0.0072584454901516
1769168079244,-0.076171875,-0.0619659423828125,-0.9823455810546876,-0.0659672990441322,-0.0023366576060652,0.0071958610787987
1769168079254,-0.0750885009765625,-0.060821533203125,-0.9913482666015624,-0.0652892589569091,-0.0009795106016099,0.0083585977554321
1769168079265,-0.0747833251953125,-0.059234619140625,-1.004547119140625,-0.0525058172643184,-0.0099548958241939,0.0047289752401411
1769168079274,-0.0781707763671875,-0.0566558837890625,-1.01806640625,-0.0317416824400424,-0.0156985353678464,-0.000414387875935
1769168079284,-0.0793914794921875,-0.057403564453125,-1.0207977294921875,-0.0113043198361992,-0.0091594094410538,-0.0042131207883358
1769168079294,-0.0796051025390625,-0.0586090087890625,-1.0180206298828125,0.008019576780498,0.0019478360190987,-0.0029553098138421
1769168079304,-0.0786895751953125,-0.0592498779296875,-1.013092041015625,0.0190796852111816,0.0084994789212942,-0.0004655205411836
1769168079314,-0.0807037353515625,-0.061126708984375,-1.0054473876953125,0.0234858840703964,0.012972523458302,-0.0001786981010809
1769168079324,-0.0859222412109375,-0.05926513671875,-0.9964447021484376,0.0242014769464731,0.0206104703247547,-0.0022383867762982
1769168079334,-0.085418701171875,-0.061492919921875,-0.987518310546875,0.0141850607469677,0.0253724679350852,-0.0011925635626539
1769168079344,-0.0733795166015625,-0.0685577392578125,-0.97515869140625,-0.0076083848252892,0.0209926329553127,0.0100190779194235
1769168079354,-0.073394775390625,-0.0659332275390625,-0.9777374267578124,-0.0106798084452748,0.0168061442673206,0.0094888424500823
1769168079364,-0.080780029296875,-0.063934326171875,-0.988037109375,-0.0190461296588182,0.0106025766581296,0.0113061843439936
1769168079374,-0.07171630859375,-0.062835693359375,-0.985504150390625,-0.021836057305336,-0.0097410446032881,0.0094797881320118
1769168079384,-0.0819854736328125,-0.052032470703125,-0.996124267578125,-0.0121887559071183,-0.0025489113759249,0.0001621865085326
1769168079394,-0.0892486572265625,-0.045867919921875,-1.00177001953125,-0.0016490293201059,-0.0020881847012788,-0.0026623620651662
1769168079404,-0.0835418701171875,-0.051666259765625,-0.9986114501953124,-0.0061897188425064,-0.0107858022674918,-0.0001781654718797
1769168079414,-0.074127197265625,-0.0621795654296875,-0.9906768798828124,-0.0182509087026119,-0.0163624621927738,0.0093247918412089
1769168079424,-0.0719451904296875,-0.0637054443359375,-0.990081787109375,-0.0152596468105912,-0.0091114733368158,0.0087386304512619
1769168079435,-0.0848846435546875,-0.0523529052734375,-1.002105712890625,0.0034991272259503,0.0112222945317626,-0.0018381137633696
1769168079444,-0.0924835205078125,-0.048858642578125,-1.003631591796875,0.0075276908464729,0.0171994939446449,-0.0094148069620132
1769168079455,-0.0829620361328125,-0.051544189453125,-0.9911041259765624,-0.0020266654901206,0.014748053625226,-0.006900783162564
1769168079465,-0.074310302734375,-0.056884765625,-0.9816741943359376,-0.0187451913952827,0.0037582528311759,-0.004332962911576
1769168079475,-0.07391357421875,-0.058624267578125,-0.9808349609375,-0.0311153084039688,-0.0057710702531039,-0.0051058125682175
1769168079485,-0.07611083984375,-0.05987548828125,-0.9852447509765624,-0.0365747883915901,-0.0131642716005444,-0.0093314498662948
1769168079495,-0.0764007568359375,-0.0615386962890625,-0.9890899658203124,-0.0396219789981842,-0.0143839996308088,-0.0071963937953114
1769168079505,-0.0764312744140625,-0.06243896484375,-0.989776611328125,-0.0402214564383029,-0.0103208143264055,-0.0104281399399042
1769168079515,-0.081634521484375,-0.0612640380859375,-0.996124267578125,-0.0343297459185123,-0.0004607268783729,-0.0142132909968495
1769168079525,-0.084991455078125,-0.059051513671875,-1.0052490234375,-0.0211007576435804,0.0092664686962962,-0.0167387668043375
1769168079535,-0.0837860107421875,-0.058685302734375,-1.01177978515625,-0.0037744981236755,0.0169867072254419,-0.0183188188821077
1769168079545,-0.077728271484375,-0.057769775390625,-1.015716552734375,0.0106750149279832,0.0205164607614278,-0.0117067238315939
1769168079555,-0.0724945068359375,-0.0565338134765625,-1.0135498046875,0.0286553464829921,0.0182588994503021,-0.0045089977793395
1769168079565,-0.0754547119140625,-0.0574798583984375,-1.01092529296875,0.0385114401578903,0.0121109914034605,-0.000479368987726
1769168079575,-0.0775146484375,-0.058837890625,-1.000457763671875,0.0396289005875587,0.0066906595602631,0.0004237089306116
1769168079585,-0.075103759765625,-0.0569915771484375,-0.9897003173828124,0.0297360569238662,0.0004255731473676,0.0037662424147129
1769168079595,-0.0755157470703125,-0.058319091796875,-0.9802703857421876,0.0163486134260892,-0.003213370218873,0.0047023436054587
1769168079605,-0.0772247314453125,-0.059051513671875,-0.97265625,-0.0035156388767063,-0.0055191349238157,0.0054019559174776
1769168079615,-0.0771942138671875,-0.0581207275390625,-0.969818115234375,-0.0248659346252679,-0.0067785438150167,0.0066461847163736
1769168079625,-0.0758819580078125,-0.0588531494140625,-0.974365234375,-0.0352522619068622,-0.003065831027925,0.0063287359662353
1769168079635,-0.07427978515625,-0.058441162109375,-0.980377197265625,-0.0421109683811664,-0.0019142802339047,0.0121504059061408
1769168079645,-0.0715789794921875,-0.062408447265625,-0.9820098876953124,-0.0504783540964126,-0.0052621401846408,0.0211516246199607
1769168079655,-0.0636444091796875,-0.0642242431640625,-0.9878997802734376,-0.0487656742334365,-0.013790912926197,0.0272681061178445
1769168079665,-0.0735931396484375,-0.056549072265625,-1.00323486328125,-0.0286944955587387,-0.0112571818754076,0.0197737049311399
1769168079675,-0.087799072265625,-0.048065185546875,-1.01409912109375,-0.0026178872212767,-0.0066216834820806,0.0090158656239509
1769168079686,-0.0901641845703125,-0.047943115234375,-1.0117645263671875,0.0077250311151146,-0.0038203045260161,0.0063601611182093
1769168079696,-0.0799560546875,-0.052886962890625,-1.00018310546875,0.000446612102678,-0.0084653897210955,0.0117514645680785
1769168079706,-0.07647705078125,-0.0562744140625,-0.9896697998046876,-0.0121131222695112,-0.0078067905269563,0.0117589216679334
1769168079716,-0.081817626953125,-0.05755615234375,-0.985260009765625,-0.0242576692253351,-0.0051502874121069,0.0106968525797128
1769168079726,-0.082672119140625,-0.05804443359375,-0.9835968017578124,-0.0353089869022369,-0.0023808660916984,0.0097021618857979
1769168079736,-0.07830810546875,-0.0586090087890625,-0.9824981689453124,-0.0436161868274211,-0.0044195158407092,0.0110411997884511
1769168079746,-0.07733154296875,-0.0602569580078125,-0.980682373046875,-0.0509563907980918,-0.0028684907592833,0.0109455920755863
1769168079756,-0.0774688720703125,-0.0598297119140625,-0.9850921630859376,-0.055738627910614,-0.0013859090395271,0.0121669173240661
1769168079766,-0.07806396484375,-0.057159423828125,-0.9951934814453124,-0.0493433140218257,0.0050355051644146,0.012124840170145
1769168079776,-0.076568603515625,-0.0522003173828125,-1.01226806640625,-0.0259572975337505,0.0006428870838135,0.0119442772120237
1769168079786,-0.0758819580078125,-0.053192138671875,-1.0242462158203125,-0.0007068029372021,0.0037015276029706,0.0116707710549235
1769168079796,-0.077789306640625,-0.054107666015625,-1.025543212890625,0.0255104191601276,0.0104254763573408,0.011234545148909
1769168079806,-0.0790557861328125,-0.055450439453125,-1.024200439453125,0.0448295213282108,0.0136303249746561,0.0090715251863002
1769168079816,-0.0800018310546875,-0.0555419921875,-1.0143585205078125,0.0533561669290065,0.0192631762474775,0.0099032307043671
1769168079826,-0.080841064453125,-0.05511474609375,-1.0006561279296875,0.049148105084896,0.0203529428690671,0.0113503923639655
1769168079836,-0.084381103515625,-0.053924560546875,-0.987091064453125,0.0378096960484981,0.0097253313288092,0.00766830611974
1769168079846,-0.0858917236328125,-0.053436279296875,-0.976806640625,0.0157725717872381,-0.0010942928493022,0.0019800602458417
1769168079856,-0.082763671875,-0.054901123046875,-0.9674224853515624,-0.0114422719925642,-0.0024160197935998,0.0038868836127221
1769168079867,-0.0797576904296875,-0.0540008544921875,-0.9600982666015624,-0.0365420319139957,-0.0031947279348969,0.0034533210564404
1769168079876,-0.077728271484375,-0.05853271484375,-0.9654693603515624,-0.0568020306527614,0.0002580603177193,0.0033555829431861
1769168079887,-0.0761260986328125,-0.054962158203125,-0.980712890625,-0.0582928657531738,0.0061260694637894,0.001269262516871
1769168079896,-0.0735015869140625,-0.05303955078125,-1.0015106201171875,-0.0385316796600818,0.0017523600254207,0.0053753242827951
1769168079906,-0.074066162109375,-0.053955078125,-1.0145416259765625,-0.0159291662275791,0.0055598812177777,0.0037175065372139
1769168079917,-0.078338623046875,-0.0543060302734375,-1.0182037353515625,0.0073468624614179,0.0120430802926421,0.0028927256353199
1769168079927,-0.081085205078125,-0.055145263671875,-1.018890380859375,0.027228957042098,0.0185960549861192,0.0049007488414645
1769168079937,-0.083465576171875,-0.0563812255859375,-1.0124053955078125,0.0380805395543575,0.0232230313122272,0.005258944351226
1769168079947,-0.083038330078125,-0.0581207275390625,-1.004058837890625,0.0418047048151493,0.0227130353450775,0.0031838091090321
1769168079957,-0.0845794677734375,-0.0579071044921875,-0.9950714111328124,0.0326274521648883,0.0160450134426355,0.0041936798952519
1769168079967,-0.084991455078125,-0.0560150146484375,-0.9858856201171876,0.0204054061323404,0.0141070308163762,0.0015094797126948
1769168079977,-0.082794189453125,-0.05584716796875,-0.9835357666015624,0.0073308832943439,0.0020738034509122,-0.0003427488263696
1769168079987,-0.0796966552734375,-0.05609130859375,-0.984405517578125,-0.0028591696172952,-0.0018477011471986,-0.0004668521287385
1769168079997,-0.0738067626953125,-0.061614990234375,-0.9833526611328124,-0.0165531430393457,-0.0086621977388858,0.0074587152339518
1769168080007,-0.0652313232421875,-0.064727783203125,-0.98028564453125,-0.0274228360503911,-0.0175984352827072,0.0114625114947557
1769168080017,-0.0750885009765625,-0.05889892578125,-0.9891510009765624,-0.0170913692563772,-0.0100015010684728,0.0072821476496756
1769168080027,-0.076629638671875,-0.061614990234375,-0.9970245361328124,-0.018099108710885,-0.0105511778965592,0.0099477050825953
1769168080037,-0.0712432861328125,-0.05682373046875,-0.9946441650390624,-0.0080102561041712,-0.0025465146172791,0.0067172911949455
1769168080047,-0.0851898193359375,-0.0459136962890625,-1.00103759765625,0.0072360751219093,0.0045095304958522,-0.0008048072922974
1769168080057,-0.092987060546875,-0.0417022705078125,-1.00286865234375,0.0124356308951973,0.0098840557038784,-0.007653925102204
1769168080067,-0.0853271484375,-0.0506439208984375,-0.990997314453125,-0.0016903083305805,0.0022610237356275,-0.0014801849611103
1769168080077,-0.071197509765625,-0.0650634765625,-0.9814300537109376,-0.0172548871487379,-0.0127805098891258,0.0053524211980402
1769168080087,-0.0737762451171875,-0.0609130859375,-0.987945556640625,-0.0110294818878173,-0.0040868869982659,-0.0025747441686689
1769168080097,-0.0885162353515625,-0.049652099609375,-1.003082275390625,0.0035790221299976,0.0057809236459434,-0.012124840170145
1769168080107,-0.09075927734375,-0.0475006103515625,-1.003997802734375,0.008020375855267,0.0071316789835691,-0.0177923124283552
1769168080118,-0.08245849609375,-0.051055908203125,-0.9988555908203124,0.0016061523929238,0.0013254552613943,-0.0170160010457038
1769168080127,-0.0733795166015625,-0.0529632568359375,-0.992706298828125,-0.0091620730236172,-0.0024469124618917,-0.0125845009461045
1769168080137,-0.0738677978515625,-0.0549163818359375,-0.9905548095703124,-0.0157286301255226,-0.0036519928835332,-0.0113533223047852
1769168080148,-0.0751800537109375,-0.0580902099609375,-0.9900054931640624,-0.0190882068127393,-0.0050821104086935,-0.0120532009750604
1769168080158,-0.071319580078125,-0.061248779296875,-0.99359130859375,-0.0155637795105576,-0.0088070733472704,-0.0098425103351473
1769168080168,-0.0698089599609375,-0.06201171875,-0.999481201171875,-0.0061052967794239,-0.0051441621035337,-0.0047928909771144
1769168080178,-0.0744476318359375,-0.061004638671875,-1.0037841796875,0.0076696374453604,0.0030844730790704,-0.002844522241503
1769168080188,-0.0799102783203125,-0.0582427978515625,-1.0106201171875,0.0216078236699104,0.0054666707292199,-0.0032397354952991
1769168080198,-0.080322265625,-0.056396484375,-1.0144195556640625,0.0371401794254779,0.0033683660440146,-0.0027302727103233
1769168080208,-0.0812835693359375,-0.0545654296875,-1.0160980224609375,0.0529606863856315,0.0033380060922354,-0.0049031460657715
1769168080218,-0.0810699462890625,-0.055328369140625,-1.014739990234375,0.0647334530949592,-0.0028501150663942,-0.0013512879377231
1769168080228,-0.0821685791015625,-0.0558013916015625,-1.007110595703125,0.0731314718723297,-0.0009206547983922,0.0009723200928419
1769168080238,-0.0808868408203125,-0.0579681396484375,-0.9982147216796876,0.0689942464232444,0.0039523974992334,0.006279201246798
1769168080248,-0.07745361328125,-0.0603485107421875,-0.9869384765625,0.0607086196541786,1.890844396257307e-05,0.008960205130279
1769168080258,-0.0780181884765625,-0.059417724609375,-0.9767913818359376,0.044091559946537,-0.0052917008288204,0.0075383437797427
1769168080268,-0.0795440673828125,-0.0583343505859375,-0.9678192138671876,0.0234323553740978,-0.0087250480428338,0.0041172471828758
1769168080278,-0.0809478759765625,-0.0556488037109375,-0.967559814453125,0.0007305050967261,-0.0157920122146606,0.0002418150252196
1769168080288,-0.08392333984375,-0.057525634765625,-0.967926025390625,-0.0164905600249767,-0.0127133978530764,-0.002241050126031
1769168080298,-0.0806884765625,-0.057373046875,-0.9722747802734376,-0.0293392464518547,-0.0100901843979954,-0.0033651704434305
1769168080308,-0.07562255859375,-0.0632171630859375,-0.982666015625,-0.0374275334179401,-0.0112947328016161,-0.0003976099542342
1769168080318,-0.06878662109375,-0.06793212890625,-0.9919281005859376,-0.0313565917313098,-0.0104438522830605,-5.5393749789800495e-05
1769168080328,-0.0758819580078125,-0.0588226318359375,-1.0131683349609375,0.0010354369878768,0.0003677825443446,-0.0037055222783237
1769168080338,-0.0852203369140625,-0.051544189453125,-1.0273590087890625,0.0313893482089042,0.0050477553158998,-0.0102744754403829
1769168080348,-0.08294677734375,-0.052215576171875,-1.02001953125,0.0474300980567932,0.0073098447173833,-0.0099282646551728
1769168080358,-0.07781982421875,-0.0577850341796875,-1.0045623779296875,0.0461557768285274,0.0095620797947049,-0.0032386700622737
1769168080369,-0.0732574462890625,-0.0610809326171875,-0.9929351806640624,0.0398760437965393,0.0094286557286977,0.0011499529937282
1769168080379,-0.072540283203125,-0.0614166259765625,-0.9833984375,0.0270129758864641,0.0060222060419619,0.0027848675381392
1769168080389,-0.0743408203125,-0.06207275390625,-0.9753265380859376,0.0117647806182503,0.0010634001810103,0.00413029640913
1769168080399,-0.07470703125,-0.0622711181640625,-0.968292236328125,-0.0098696751520037,-0.005886651109904,0.0027132285758852
1769168080409,-0.073150634765625,-0.0628204345703125,-0.9655914306640624,-0.0314215719699859,-0.0111834118142724,0.0041015343740582
1769168080419,-0.0749969482421875,-0.0630340576171875,-0.9677734375,-0.0480498187243938,-0.0143179530277848,0.0048967543989419
1769168080429,-0.0741119384765625,-0.0601959228515625,-0.9785308837890624,-0.0526791885495185,-0.0133773246780037,0.0061606904491782
1769168080439,-0.0750732421875,-0.0603179931640625,-0.9925384521484376,-0.0433567948639392,-0.0063170180656015,0.0112465294077992
1769168080449,-0.0748138427734375,-0.060760498046875,-1.009063720703125,-0.0233657769858837,-0.003908987622708,0.0113344136625528
1769168080459,-0.0754852294921875,-0.0591278076171875,-1.020721435546875,0.0020165455061942,-0.0008572715451009,0.0128313759341835
1769168080469,-0.0779266357421875,-0.0593414306640625,-1.0283355712890625,0.0326160006225109,0.0061263358220458,0.014028200879693
1769168080479,-0.0825042724609375,-0.0599365234375,-1.03289794921875,0.0615589693188667,0.0092510227113962,0.011453989893198
1769168080489,-0.08209228515625,-0.059814453125,-1.024078369140625,0.0781885460019111,0.008182561956346,0.011600730009377
1769168080499,-0.081512451171875,-0.0630950927734375,-1.00946044921875,0.0813134983181953,0.0072776200249791,0.0126183237880468
1769168080509,-0.082672119140625,-0.0637969970703125,-0.9911651611328124,0.0699002519249916,0.0107107013463974,0.0157802943140268
1769168080519,-0.081695556640625,-0.0656585693359375,-0.9768218994140624,0.0478511452674865,0.0016476977616548,0.0160506051033735
1769168080529,-0.082275390625,-0.0656585693359375,-0.9694976806640624,0.0225668288767337,-0.0042072618380188,0.016276441514492
1769168080539,-0.0830841064453125,-0.0665283203125,-0.968963623046875,0.0018343853298574,-0.0078944079577922,0.0146295428276062
1769168080549,-0.082763671875,-0.0643157958984375,-0.9781494140625,-0.0071465927176177,-0.0128636006265878,0.0150889381766319
1769168080559,-0.0767974853515625,-0.0646820068359375,-0.9893035888671876,-0.0080757699906826,-0.0222107637673616,0.0178069602698087
1769168080569,-0.0782318115234375,-0.0633087158203125,-0.995941162109375,-0.0034221620298922,-0.0262947212904691,0.0180876571685075
1769168080580,-0.0863037109375,-0.060150146484375,-0.998443603515625,0.0053636063821613,-0.0271322857588529,0.0121645210310816
1769168080590,-0.08740234375,-0.05999755859375,-1.0007476806640625,0.0145941227674484,-0.0223383288830518,0.0058142133057117
1769168080601,-0.0861968994140625,-0.062347412109375,-0.9973602294921876,0.0191859453916549,-0.0121341608464717,0.0050834417343139
1769168080610,-0.08538818359375,-0.0667266845703125,-0.9934844970703124,0.0209947638213634,-0.0013816480059176,0.0046131275594234
1769168080620,-0.082916259765625,-0.07000732421875,-0.990325927734375,0.0207204576581716,0.0049441587179899,0.006811833474785
1769168080630,-0.0803680419921875,-0.0693511962890625,-0.99322509765625,0.020322848111391,0.0049260491505265,0.0124002108350396
1769168080640,-0.0811614990234375,-0.0660858154296875,-0.999725341796875,0.0262534413486719,-0.0055199339985847,0.016995495185256
1769168080650,-0.0822601318359375,-0.06488037109375,-1.0037994384765625,0.0274249669164419,-0.0116167087107896,0.0154242301359772
1769168080660,-0.08380126953125,-0.0642852783203125,-1.004364013671875,0.034104973077774,-0.0144359311088919,0.0158234369009733
1769168080670,-0.0877227783203125,-0.06500244140625,-1.001220703125,0.0341385304927825,-0.0149227567017078,0.0136713376268744
1769168080680,-0.08551025390625,-0.068084716796875,-0.9884490966796876,0.016595222055912,-0.0218429807573556,0.0205556079745292
1769168080690,-0.075469970703125,-0.072723388671875,-0.9759521484375,-0.0053295181132853,-0.0445578806102275,0.028745362535119
1769168080700,-0.076263427734375,-0.0666351318359375,-0.9768218994140624,-0.0195196382701396,-0.0493560992181301,0.0309728290885686
1769168080710,-0.0759429931640625,-0.070404052734375,-0.9827117919921876,-0.0262768771499395,-0.0295573603361845,0.0227615050971508
1769168080720,-0.0840301513671875,-0.06396484375,-0.9790496826171876,-0.0322367660701274,-0.0024836640805006,0.0242661908268928
1769168080730,-0.083404541015625,-0.0589447021484375,-0.9870147705078124,-0.0257572941482067,0.001637311419472,0.0188533160835504
1769168080740,-0.0889739990234375,-0.0548095703125,-0.9969024658203124,-0.0151999918743968,0.0124247120693326,0.0176852531731128
1769168080750,-0.086456298828125,-0.0651397705078125,-0.9985809326171876,-0.0204062052071094,0.0338325314223766,0.0208051465451717
1769168080760,-0.0793609619140625,-0.0788116455078125,-0.9861602783203124,-0.0385497882962226,0.0036160401068627,0.0232541896402835
1769168080770,-0.0758819580078125,-0.06976318359375,-0.9903717041015624,-0.0250283870846033,-0.0092417011037468,0.0162575338035821
1769168080780,-0.0968475341796875,-0.0587921142578125,-1.005645751953125,-0.0159387532621622,-0.0092321140691638,-0.0016903083305805
1769168080790,-0.0994873046875,-0.053558349609375,-0.9966583251953124,-0.0114707676693797,0.0005595301627181,-0.0074270237237215
1769168080801,-0.0969696044921875,-0.0570831298828125,-0.9885406494140624,-0.019546803086996,0.0225473865866661,-0.0022218753583729
1769168080810,-0.0859222412109375,-0.05767822265625,-0.9878997802734376,-0.0330940373241901,0.0297070294618606,0.0070733558386564
1769168080821,-0.079864501953125,-0.059722900390625,-0.990814208984375,-0.0393687114119529,0.0358799695968627,0.0156348869204521
1769168080831,-0.07708740234375,-0.064483642578125,-1.0078125,-0.0231103785336017,0.0195164438337087,0.0154236974194645
1769168080841,-0.0739593505859375,-0.0685882568359375,-1.01953125,0.0032338765449821,0.0140857249498367,0.0184272099286317
1769168080851,-0.06982421875,-0.0729217529296875,-1.0210723876953125,0.0322335697710514,0.0130633376538753,0.0211433675140142
1769168080861,-0.0781707763671875,-0.0752105712890625,-1.0140838623046875,0.0520269833505153,0.0126476185396313,0.0210797190666198
1769168080871,-0.0820465087890625,-0.0754852294921875,-1.0024261474609375,0.0578204244375228,0.0190975274890661,0.0234696399420499
1769168080881,-0.09039306640625,-0.078155517578125,-0.9877166748046876,0.0494905859231948,0.0270015243440866,0.0194940734654665
1769168080891,-0.0897674560546875,-0.0751495361328125,-0.9774169921875,0.0328652709722518,0.0375127531588077,0.0209130048751831
1769168080901,-0.0950927734375,-0.072021484375,-0.974578857421875,0.0183076336979866,0.0358008742332458,0.0180841945111751
1769168080911,-0.0902099609375,-0.066802978515625,-0.9835357666015624,0.0146942576393485,0.0159608572721481,0.0188780836760997
1769168080921,-0.08740234375,-0.0640716552734375,-0.9865264892578124,0.0121919512748718,0.0023904533591121,0.0170551501214504
1769168080931,-0.0928192138671875,-0.0640716552734375,-0.9850006103515624,0.0057449708692729,-0.0052094091661274,0.0115557219833135
1769168080941,-0.0953216552734375,-0.0671234130859375,-0.9774932861328124,-0.003547596745193,-0.0212490949779748,0.0066315373405814
1769168080951,-0.08795166015625,-0.0677490234375,-0.9686737060546876,-0.0250182673335075,-0.0160426162183284,0.0063119581900537
1769168080961,-0.0876312255859375,-0.0680084228515625,-0.9667205810546876,-0.0433285646140575,-0.0104691525921225,0.0066043729893863
1769168080971,-0.0827178955078125,-0.0708465576171875,-0.97467041015625,-0.0519215203821659,0.0011638014111667,0.0063433833420276
1769168080981,-0.0795745849609375,-0.0759735107421875,-0.98419189453125,-0.0699798837304115,0.0192069839686155,0.0216355212032794
1769168080992,-0.0686798095703125,-0.0829620361328125,-0.9857635498046876,-0.0809806063771247,0.0169960279017686,0.026552515104413
1769168081001,-0.072418212890625,-0.0721435546875,-1.0069580078125,-0.0646477043628692,0.0376033000648021,0.0264920610934495
1769168081011,-0.080169677734375,-0.061431884765625,-1.04058837890625,-0.027387149631977,0.0506341494619846,0.0261908583343029
1769168081022,-0.0852813720703125,-0.05462646484375,-1.061309814453125,0.0237383525818586,0.0635313019156456,0.0261304043233394
1769168081032,-0.083709716796875,-0.0535125732421875,-1.0755462646484375,0.0800447687506675,0.0490873865783214,0.0218725409358739
1769168081042,-0.0832061767578125,-0.05975341796875,-1.0698699951171875,0.1294756978750229,0.0390161089599132,0.0215215366333723
1769168081052,-0.083648681640625,-0.0714569091796875,-1.0415191650390625,0.1676923334598541,0.0378246121108531,0.0131565481424331
1769168081062,-0.088897705078125,-0.076690673828125,-1.011444091796875,0.1810201108455658,0.0642990916967392,0.011404987424612
1769168081072,-0.0890655517578125,-0.076751708984375,-0.984710693359375,0.1772754490375518,0.0755229890346527,0.0116428071632981
1769168081082,-0.0889434814453125,-0.0759124755859375,-0.9691925048828124,0.1582615375518798,0.0718891024589538,0.0140090258792042
1769168081092,-0.08001708984375,-0.077484130859375,-0.956512451171875,0.1197450459003448,0.0635014772415161,0.0165797751396894
1769168081102,-0.079498291015625,-0.076812744140625,-0.947357177734375,0.0812644958496093,0.0438894256949424,0.0129656000062823
1769168081112,-0.0850830078125,-0.0756988525390625,-0.94549560546875,0.0353012643754482,0.0341574363410472,0.00739187002182
1769168081122,-0.0809326171875,-0.0765228271484375,-0.9412994384765624,-0.007913582958281,0.0317952148616313,0.0063596284016966
1769168081132,-0.08062744140625,-0.074859619140625,-0.944915771484375,-0.0393151827156543,0.010620686225593,0.0068001155741512
1769168081142,-0.07855224609375,-0.0707244873046875,-0.9502105712890624,-0.0547580532729625,-0.0088680600747466,-0.0048781121149659
1769168081153,-0.0809173583984375,-0.072357177734375,-0.9575042724609376,-0.0674844980239868,-0.0266979224979877,-0.0116388127207756
1769168081162,-0.075347900390625,-0.0716705322265625,-0.9622802734375,-0.0784998685121536,-0.0241748448461294,-0.0111495899036526
1769168081172,-0.0692291259765625,-0.074371337890625,-0.969818115234375,-0.0797267854213714,-0.0214749313890934,-0.0056248623877763
1769168081182,-0.0690460205078125,-0.0735931396484375,-0.980621337890625,-0.075362928211689,-0.0073979953303933,-0.0004181162803433
1769168081192,-0.075469970703125,-0.072113037109375,-0.9919281005859376,-0.0717136040329933,0.0103836646303534,-0.0008807073463685
1769168081202,-0.0777435302734375,-0.072021484375,-0.9957427978515624,-0.0728310644626617,0.0369580164551734,0.0017379788914695
1769168081212,-0.070831298828125,-0.0720367431640625,-1.003173828125,-0.0673436224460601,0.0369822531938552,0.0094049535691738
1769168081222,-0.0639801025390625,-0.070526123046875,-1.0153350830078125,-0.0584670379757881,0.0344405323266983,0.0215084869414567
1769168081232,-0.0631866455078125,-0.0671234130859375,-1.02850341796875,-0.0383420623838901,0.0261652916669845,0.0249492917209863
1769168081243,-0.0702972412109375,-0.0629730224609375,-1.0406951904296875,-0.0114531908184289,-0.0085964174941182,0.0212339162826538
1769168081253,-0.0701904296875,-0.063507080078125,-1.0418548583984375,0.0152449989691376,-0.0186301432549953,0.0206869021058082
1769168081263,-0.0749053955078125,-0.065338134765625,-1.0330047607421875,0.044293962419033,-0.0150652360171079,0.0144330011680722
1769168081273,-0.07879638671875,-0.072235107421875,-1.020416259765625,0.0628008022904396,-0.0045215147547423,0.0123054021969437
1769168081283,-0.079345703125,-0.077423095703125,-1.0023345947265625,0.068525530397892,0.0207375027239322,0.0103977797552943
1769168081293,-0.0810089111328125,-0.082366943359375,-0.9831085205078124,0.0619557797908782,0.0386451296508312,0.0127094034105539
1769168081303,-0.081512451171875,-0.081573486328125,-0.9752044677734376,0.0517063364386558,0.0536682866513729,0.0142356613650918
1769168081313,-0.0799560546875,-0.0778961181640625,-0.97705078125,0.0472916141152381,0.0540270172059536,0.018205901607871
1769168081323,-0.077911376953125,-0.070465087890625,-0.987701416015625,0.055300273001194,0.0341017767786979,0.0173057541251182
1769168081338,-0.080718994140625,-0.068695068359375,-0.9908294677734376,0.0562885738909244,0.0122175179421901,0.0061689461581408
1769168081344,-0.0847625732421875,-0.0712890625,-0.9868316650390624,0.0531268678605556,0.0118776988238096,0.0005685848882421
1769168081353,-0.074432373046875,-0.0781097412109375,-0.9795684814453124,0.0349206998944282,0.009024653583765,0.0066136941313743
1769168081363,-0.0623931884765625,-0.0844879150390625,-0.967620849609375,0.0073846792802214,0.00252600829117,0.0142015730962157
1769168081373,-0.07080078125,-0.075775146484375,-0.9740447998046876,-0.0057207364588975,0.0076448703184723,0.0115061877295374
1769168081386,-0.0735015869140625,-0.071319580078125,-0.984283447265625,-0.016332633793354,0.0055340486578643,0.0114681040868163
1769168081393,-0.070404052734375,-0.0703277587890625,-0.987548828125,-0.0184224173426628,0.0058701396919786,0.0107181584462523
1769168081403,-0.0785064697265625,-0.065673828125,-0.993255615234375,-0.0152055844664573,0.0120526682585477,0.0041822283528745
1769168081413,-0.08013916015625,-0.0645751953125,-1.00201416015625,0.0023166837636381,0.0234738998115062,0.0008301073103211
1769168081423,-0.0713653564453125,-0.0775299072265625,-1.0031890869140625,0.0104313353076577,0.0191153716295957,0.0068035777658224
1769168081434,-0.05804443359375,-0.0916290283203125,-0.9895172119140624,0.0085671227425336,0.0203031413257122,0.0152034536004066
1769168081443,-0.0635223388671875,-0.088043212890625,-0.9877471923828124,0.0130923660472035,0.0284721218049526,0.012599148787558
1769168081453,-0.0785369873046875,-0.0739288330078125,-1.000396728515625,0.023151658475399,0.0221199486404657,0.0031467911321669
1769168081463,-0.083892822265625,-0.0660400390625,-1.00018310546875,0.0259772725403308,0.0224424581974744,-0.0001318264694418
1769168081474,-0.08392333984375,-0.0683746337890625,-0.990386962890625,0.0136819900944828,0.0244446229189634,-0.0044679851271212
1769168081484,-0.080291748046875,-0.07275390625,-0.9854736328125,0.0036802222020924,0.025275794789195,-0.0033875408116728
1769168081494,-0.07598876953125,-0.0748291015625,-0.9884033203125,0.0007430219557136,0.0237338244915008,-0.0017124125733971
1769168081504,-0.07061767578125,-0.078216552734375,-0.9922637939453124,-0.0006916229031048,0.0222017094492912,0.0007866977830417
1769168081514,-0.0687408447265625,-0.080780029296875,-0.9951019287109376,-0.0006828344776295,0.0206256490200757,-0.0012293151812627
1769168081524,-0.069854736328125,-0.07989501953125,-0.9953155517578124,0.0007960188668221,0.0181936509907245,-0.0011235876008868
1769168081534,-0.0764923095703125,-0.0782470703125,-0.9979248046875,0.0001012001230265,0.0220855940133333,-0.0059124836698174
1769168081544,-0.0784912109375,-0.07794189453125,-0.9968414306640624,0.0036128442734479,0.021443773061037,-0.0124880950897932
1769168081554,-0.07745361328125,-0.0781097412109375,-0.99786376953125,0.0113993948325514,0.0183009766042232,-0.0164620634168386
1769168081564,-0.0716400146484375,-0.0771331787109375,-1.0,0.0272393431514501,0.0101085603237152,-0.0182213485240936
1769168081574,-0.0677642822265625,-0.0782012939453125,-1.00689697265625,0.0431147143244743,0.0016828514635562,-0.0191270895302295
1769168081584,-0.0660400390625,-0.081390380859375,-1.0072021484375,0.0560369044542312,-0.0011531487107276,-0.0163717828691005
1769168081594,-0.066375732421875,-0.0813751220703125,-1.0002593994140625,0.0617070384323596,0.0076355491764843,-0.0115413414314389
1769168081604,-0.0724029541015625,-0.081939697265625,-0.988616943359375,0.0528096854686737,0.0244539435952901,-0.0079926792532205
1769168081614,-0.0754852294921875,-0.0798797607421875,-0.976654052734375,0.0336780697107315,0.0360291078686714,-0.0079764332622289
1769168081624,-0.0789947509765625,-0.07501220703125,-0.9715728759765624,0.0142953163012862,0.0287115387618541,-0.0111969942227005
1769168081635,-0.0776824951171875,-0.0750885009765625,-0.9743804931640624,-0.0036381443496793,0.0190575812011957,-0.0165062714368104
1769168081644,-0.0734710693359375,-0.0798187255859375,-0.976654052734375,-0.0163241121917963,0.0113224294036626,-0.0139768021181225
1769168081654,-0.05926513671875,-0.0888671875,-0.9840087890625,-0.0249793864786624,-0.0048650624230504,-0.0079617863520979
1769168081665,-0.0574188232421875,-0.0843963623046875,-0.996551513671875,-0.0143190184608101,-0.0086102662608027,-0.0103964479640126
1769168081674,-0.0692596435546875,-0.074462890625,-1.0154266357421875,0.0088062742725014,-0.0028437233995646,-0.0176301263272762
1769168081685,-0.073822021484375,-0.0724639892578125,-1.0211029052734375,0.034129474312067,0.0036836843937635,-0.0227114371955394
1769168081694,-0.0711822509765625,-0.077056884765625,-1.01641845703125,0.0496628955006599,0.0195430740714073,-0.0229276865720748
1769168081705,-0.064056396484375,-0.08367919921875,-1.0072784423828125,0.057717889547348,0.0275525320321321,-0.0159432794898748
1769168081714,-0.0627899169921875,-0.085784912109375,-0.9945526123046876,0.0528983697295188,0.0312154442071914,-0.0121330954134464
1769168081725,-0.0622406005859375,-0.084503173828125,-0.9847259521484376,0.0421048440039157,0.0324905663728714,-0.0112001905217766
1769168081735,-0.0665740966796875,-0.0825347900390625,-0.9795684814453124,0.02668940089643,0.0309581812471151,-0.0118004670366644
1769168081745,-0.0666351318359375,-0.0795745849609375,-0.9769439697265624,0.0107405288144946,0.0283392295241355,-0.0108507834374904
1769168081755,-0.067108154296875,-0.0775604248046875,-0.978912353515625,0.0011779161868616,0.0192615780979394,-0.0107900630682706
1769168081765,-0.07080078125,-0.0773773193359375,-0.981964111328125,0.0001704423048067,0.0089247850701212,-0.018449580296874
1769168081775,-0.073822021484375,-0.078033447265625,-0.98431396484375,0.0005704491049982,0.0088651301339268,-0.0235884170979261
1769168081785,-0.070281982421875,-0.0804595947265625,-0.981842041015625,0.0022522353101521,0.0148335406556725,-0.0235926769673824
