timestamp_ms,acc_x,acc_y,acc_z,gyro_x,gyro_y,gyro_z
1770452525833,-0.104827880859375,-0.223297119140625,-0.9492950439453124,0.0210858434438705,0.0734502449631691,-0.0439355000853538
1770452525843,-0.1051025390625,-0.220306396484375,-0.9592437744140624,0.0212349817156791,0.0929251462221145,-0.0428728982806205
1770452525853,-0.1063232421875,-0.2281341552734375,-0.96368408203125,0.0219535026699304,0.0896563827991485,-0.0394278317689895
1770452525863,-0.0972900390625,-0.230224609375,-0.960235595703125,0.0281413570046424,0.0538600347936153,-0.026095250621438
1770452525873,-0.105316162109375,-0.225433349609375,-0.95111083984375,0.0215433742851018,0.0483600758016109,-0.0249061491340398
1770452525883,-0.104949951171875,-0.229095458984375,-0.94818115234375,0.00318886898458,0.0606894455850124,-0.0230611115694046
1770452525893,-0.0886077880859375,-0.238739013671875,-0.9534454345703124,-0.0072555160149931,0.0509705059230327,-0.001186970854178
1770452525903,-0.0897674560546875,-0.2477874755859375,-0.95684814453125,-0.0153584498912096,0.0263173580169677,0.0150066465139389
1770452525913,-0.0982513427734375,-0.2355499267578125,-0.948211669921875,-0.0302330031991004,0.01878647133708,0.0273213703185319
1770452525923,-0.102569580078125,-0.2147064208984375,-0.9423370361328124,-0.0426859445869922,0.0347454622387886,0.0238416828215122
1770452525933,-0.1058197021484375,-0.211517333984375,-0.9464569091796876,-0.0488636791706085,0.054182544350624,0.0133072836324572
1770452525943,-0.10589599609375,-0.2191162109375,-0.9497528076171876,-0.0518083348870277,0.0487188026309013,0.0088845714926719
1770452525954,-0.1053619384765625,-0.22314453125,-0.9513397216796876,-0.0565045550465583,0.0343539789319038,0.0085612637922167
1770452525963,-0.112518310546875,-0.2239227294921875,-0.954925537109375,-0.0712856277823448,0.0307635050266981,0.0068611018359661
1770452525974,-0.1128082275390625,-0.2247314453125,-0.952484130859375,-0.0926364585757255,0.0412981696426868,0.0109517173841595
1770452525984,-0.102142333984375,-0.2274322509765625,-0.95758056640625,-0.1104559376835823,0.0601674653589725,0.0173595491796731
1770452525994,-0.1005706787109375,-0.2306671142578125,-0.9674530029296876,-0.1155769303441047,0.0561125390231609,0.0187995210289955
1770452526004,-0.099609375,-0.22711181640625,-0.9733123779296876,-0.110026903450489,0.0400046743452549,0.0263850018382072
1770452526014,-0.10107421875,-0.2210845947265625,-0.98651123046875,-0.0935683026909828,0.0312117151916027,0.0293317902833223
1770452526024,-0.10650634765625,-0.220855712890625,-0.99664306640625,-0.0713522136211395,0.0169046819210052,0.0287365727126598
1770452526034,-0.112213134765625,-0.2220916748046875,-0.9915771484375,-0.0520360358059406,-0.0043516051955521,0.0242084003984928
1770452526044,-0.1114044189453125,-0.2250823974609375,-0.983489990234375,-0.0361345671117305,-0.0039521311409771,0.0269964635372161
1770452526054,-0.1023406982421875,-0.2239532470703125,-0.9845123291015624,-0.0175228007137775,0.005388640332967,0.0272292234003543
1770452526064,-0.1016693115234375,-0.2255401611328125,-0.991668701171875,0.0031606396660208,-0.0034554514568299,0.0232701692730188
1770452526074,-0.100311279296875,-0.227783203125,-0.985992431640625,0.0220784042030572,-0.0172410383820533,0.0274025965481996
1770452526084,-0.104888916015625,-0.2241973876953125,-0.9724273681640624,0.025032116100192,-0.013431386090815,0.0252976324409246
1770452526094,-0.1053619384765625,-0.2271881103515625,-0.9643096923828124,0.0218104906380176,0.0097575560212135,0.0266904663294553
1770452526104,-0.1026611328125,-0.2288818359375,-0.9659423828125,0.0225172936916351,-0.0020106865558773,0.0291299223899841
1770452526114,-0.1143951416015625,-0.214935302734375,-0.9674072265625,0.0325515531003475,-0.0138433771207928,0.0199955459684133
1770452526124,-0.11566162109375,-0.2171478271484375,-0.970489501953125,0.0379995815455913,-0.0301049053668975,0.0143475141376256
1770452526135,-0.1079864501953125,-0.21893310546875,-0.968017578125,0.0366376377642154,-0.0404440946877002,0.0239178501069545
1770452526144,-0.1037445068359375,-0.2206878662109375,-0.9697265625,0.0397463478147983,-0.0407945662736892,0.0299009066075086
1770452526155,-0.1049652099609375,-0.223876953125,-0.9737091064453124,0.0439810380339622,-0.0350147075951099,0.0301834680140018
1770452526164,-0.111602783203125,-0.224578857421875,-0.9633331298828124,0.0418646261096,-0.0180423837155103,0.027974909171462
1770452526174,-0.10382080078125,-0.226806640625,-0.957794189453125,0.0350860804319381,0.007734618615359,0.0270734298974275
1770452526185,-0.103424072265625,-0.2286376953125,-0.963287353515625,0.0365628041326999,0.0208839755505323,0.0257130861282348
1770452526195,-0.1092987060546875,-0.2268829345703125,-0.9711456298828124,0.0464180968701839,0.014936339110136,0.0247141346335411
1770452526205,-0.1145477294921875,-0.224212646484375,-0.975128173828125,0.0550014674663543,-0.0081386202946305,0.0231673698872327
1770452526215,-0.11676025390625,-0.2271728515625,-0.9678192138671876,0.0561703294515609,-0.0249647386372089,0.0186445247381925
1770452526225,-0.112548828125,-0.2303009033203125,-0.9614715576171876,0.0475685857236385,-0.0182884596288204,0.0216807946562767
1770452526235,-0.1141204833984375,-0.230316162109375,-0.9583892822265624,0.0351004637777805,-0.0145339351147413,0.0165547411888837
1770452526245,-0.115020751953125,-0.2220916748046875,-0.9546051025390624,0.0180101599544286,-0.0126508139073848,0.0109860720112919
1770452526255,-0.1174774169921875,-0.2198486328125,-0.9556121826171876,0.0056720003485679,-0.0111796837300062,0.0008916263468563
1770452526265,-0.1123809814453125,-0.2215423583984375,-0.9605865478515624,-4.76705827168189e-05,-0.0163046717643737,-0.0012144014472141
1770452526275,-0.111297607421875,-0.2236480712890625,-0.9625091552734376,-0.0057540256530046,-0.0108880680054426,-0.0007270429632626
1770452526285,-0.111114501953125,-0.2309417724609375,-0.973114013671875,0.0005550027708522,-0.0275876857340335,0.0015744607662782
1770452526295,-0.1056671142578125,-0.2357330322265625,-0.964752197265625,0.0005858954391442,-0.0304266158491373,0.006662696134299
1770452526305,-0.1057586669921875,-0.23284912109375,-0.9571990966796876,-0.0068680262193083,-0.0024594292044639,0.0092936335131526
1770452526315,-0.10687255859375,-0.233123779296875,-0.9644317626953124,-0.0060413810424506,0.0029497172217816,0.0095445029437541
1770452526325,-0.1122894287109375,-0.2314300537109375,-0.967041015625,-0.0016271914355456,-0.0072597772814333,0.0071985241957008
1770452526335,-0.1189727783203125,-0.2255401611328125,-0.9690399169921876,0.0032394691370427,0.0032144354190677,8.442220860160887e-05
1770452526345,-0.1160736083984375,-0.22705078125,-0.983062744140625,0.0173651408404111,-0.0016508935950696,-0.004349741153419
1770452526355,-0.1131744384765625,-0.230438232421875,-0.987152099609375,0.0442273840308189,-0.0255325250327587,-0.0070395334623754
1770452526365,-0.1151580810546875,-0.22772216796875,-0.9801177978515624,0.0626689717173576,-0.0387244932353496,-0.0180660858750343
1770452526375,-0.118865966796875,-0.227203369140625,-0.97772216796875,0.0760012939572334,-0.0357747748494148,-0.0288446974009275
1770452526386,-0.116668701171875,-0.230194091796875,-0.9701385498046876,0.0795632675290107,-0.0331235975027084,-0.0400749817490577
1770452526396,-0.1106719970703125,-0.2335968017578125,-0.9656524658203124,0.0772220864892005,-0.0420675575733184,-0.0421535782516002
1770452526406,-0.115020751953125,-0.2334747314453125,-0.9578704833984376,0.0633728504180908,-0.0405088104307651,-0.0474870912730693
1770452526416,-0.1143341064453125,-0.229278564453125,-0.9537506103515624,0.0479078702628612,-0.025777269154787,-0.045909434556961
1770452526426,-0.113067626953125,-0.2307281494140625,-0.9519500732421876,0.029144037514925,-0.0253940392285585,-0.0455317981541156
1770452526437,-0.11712646484375,-0.2295989990234375,-0.94207763671875,0.0051960935816168,-0.0202879607677459,-0.0430350862443447
1770452526446,-0.1049652099609375,-0.2274017333984375,-0.9404754638671876,-0.0137661462649703,-0.0004426173691172,-0.0394241064786911
1770452526456,-0.1010589599609375,-0.2302703857421875,-0.9497222900390624,-0.0249756574630737,0.0021196098532527,-0.0387402065098285
1770452526466,-0.1042022705078125,-0.22845458984375,-0.9543609619140624,-0.0231282226741313,-0.0037241643294692,-0.0310442019253969
1770452526476,-0.1014251708984375,-0.2271575927734375,-0.9653778076171876,-0.0152780227363109,-0.0054309843108057,-0.0156378149986267
1770452526486,-0.0968780517578125,-0.230438232421875,-0.9744415283203124,-0.0049651972949504,-0.0118446750566363,0.0038464034441858
1770452526496,-0.103759765625,-0.232574462890625,-0.968902587890625,-0.0002748382103163,-0.0142436502501368,0.0111378720030188
1770452526506,-0.104827880859375,-0.2280731201171875,-0.9692230224609376,0.018025605008006,-0.0177574250847101,0.0121253719553351
1770452526516,-0.1075286865234375,-0.2310028076171875,-0.9730377197265624,0.0318295694887638,-0.0182109624147415,0.0054190000519156
1770452526526,-0.104278564453125,-0.2342681884765625,-0.963348388671875,0.0309917386621236,-0.0355718433856964,0.0122742429375648
1770452526536,-0.118865966796875,-0.2255401611328125,-0.9482879638671876,0.0271573178470134,-0.0393207743763923,0.0001723065215628
1770452526546,-0.125030517578125,-0.2239227294921875,-0.9455108642578124,0.008207063190639,-0.0026421220973134,-0.0133251268416643
1770452526556,-0.10888671875,-0.233551025390625,-0.952392578125,-0.0120345586910843,0.0212421715259552,-0.0100369211286306
1770452526566,-0.1110992431640625,-0.2469482421875,-0.959136962890625,-0.0218040980398654,0.0164146590977907,0.0038424087688326
1770452526576,-0.1121978759765625,-0.24200439453125,-0.96685791015625,-0.0259245410561561,0.0090789822861552,0.0223159585148096
1770452526586,-0.1126251220703125,-0.2223052978515625,-0.96893310546875,-0.0186423938721418,0.0092843119055032,0.0238336939364671
1770452526597,-0.1121826171875,-0.2160491943359375,-0.9718780517578124,0.0003078614245168,0.0120366886258125,0.0123450830578804
1770452526607,-0.113861083984375,-0.2263946533203125,-0.96533203125,0.0147951915860176,0.0035265579354017,0.0013126720441505
1770452526616,-0.1147613525390625,-0.2340087890625,-0.94891357421875,0.0101860584691166,0.0029731530230492,-0.0015899071004241
1770452526627,-0.11285400390625,-0.2373199462890625,-0.9505462646484376,0.0003858920244965,0.0143927875906229,5.1132694352418184e-05
1770452526637,-0.1150054931640625,-0.238861083984375,-0.9558563232421876,-0.0160143859684467,0.0219913180917501,0.0030407973099499
1770452526647,-0.1164703369140625,-0.2341766357421875,-0.95013427734375,-0.0350043214857578,0.0300532393157482,0.00811811350286
1770452526657,-0.116119384765625,-0.229827880859375,-0.9522552490234376,-0.0473701767623424,0.0448502972722053,0.0109815448522567
1770452526667,-0.11920166015625,-0.2276458740234375,-0.9578857421875,-0.0531095564365386,0.0487614125013351,0.0067258132621645
1770452526677,-0.1250457763671875,-0.2260284423828125,-0.962646484375,-0.051633633673191,0.0366168655455112,0.0015478292480111
1770452526687,-0.118011474609375,-0.2242431640625,-0.9677581787109376,-0.0431322902441024,0.0065393918193876,0.0027185548096895
1770452526697,-0.1214447021484375,-0.2268829345703125,-0.965789794921875,-0.0409210659563541,0.0025281386915594,-0.0003331614425405
1770452526707,-0.121002197265625,-0.226715087890625,-0.966766357421875,-0.0392131842672824,0.0045785065740346,-0.0049092709086835
1770452526717,-0.114013671875,-0.2334136962890625,-0.9626312255859376,-0.041639320552349,-0.0014125406742095,-0.0056789247319102
1770452526727,-0.1156158447265625,-0.234893798828125,-0.957000732421875,-0.046164833009243,0.0008956210804171,-0.0076049226336181
1770452526737,-0.1174163818359375,-0.22857666015625,-0.9579010009765624,-0.0523066148161888,0.0119884861633181,-0.011967446655035
1770452526747,-0.1173553466796875,-0.226806640625,-0.9607696533203124,-0.0582350753247737,0.0194045901298522,-0.0175539590418338
1770452526757,-0.114593505859375,-0.2220001220703125,-0.959136962890625,-0.0611070282757282,0.0289501585066318,-0.0188698284327983
1770452526767,-0.113494873046875,-0.227142333984375,-0.9712677001953124,-0.0600151345133781,0.0219071637839078,-0.0181872602552175
1770452526777,-0.1109466552734375,-0.221099853515625,-0.977569580078125,-0.046960849314928,-0.0027771443128585,-0.0125147262588143
1770452526788,-0.1164703369140625,-0.2200164794921875,-0.97589111328125,-0.0356498733162879,-0.0049012815579771,-0.0141951814293861
1770452526797,-0.11102294921875,-0.22637939453125,-0.972015380859375,-0.0340013764798641,-0.0002796319022309,-0.0138857215642929
1770452526807,-0.1071014404296875,-0.2233123779296875,-0.9691162109375,-0.0257897861301898,0.0006468818173743,-0.013383449986577
1770452526818,-0.1054229736328125,-0.22344970703125,-0.976409912109375,-0.0091977594420313,-0.0049691922031342,-0.0176493003964424
1770452526828,-0.1062469482421875,-0.227203369140625,-0.971893310546875,-0.0060925134457647,-0.0076267607510089,-0.0221678856760263
1770452526838,-0.1054229736328125,-0.2346649169921875,-0.9588775634765624,-0.0210464298725128,-0.0040994039736688,-0.0150407347828149
1770452526848,-0.1044769287109375,-0.228179931640625,-0.9566192626953124,-0.0401990860700607,0.0200599953532218,-0.0022074941080063
1770452526858,-0.1097869873046875,-0.218109130859375,-0.970672607421875,-0.0457586981356143,0.037576138973236,-0.0011499529937282
1770452526868,-0.1070556640625,-0.218292236328125,-0.9850616455078124,-0.0371708050370216,0.0377742759883403,0.003623496973887
1770452526878,-0.1042022705078125,-0.223846435546875,-0.9845733642578124,-0.0237522013485431,0.0182533059269189,0.010833472944796
1770452526888,-0.10516357421875,-0.2244110107421875,-0.978973388671875,-0.0064555024728178,-0.002225870033726,0.011632421053946
1770452526898,-0.110137939453125,-0.22515869140625,-0.971771240234375,0.0068680262193083,-0.0149137023836374,4.28768944402691e-05
1770452526908,-0.1078643798828125,-0.2239837646484375,-0.9629669189453124,0.0069425944238901,-0.0019406455103307,-0.0060954429209232
1770452526918,-0.102386474609375,-0.221923828125,-0.9542388916015624,-0.0070627033710479,0.0265061762183904,-0.0104201501235365
1770452526928,-0.1103363037109375,-0.2165985107421875,-0.9560699462890624,-0.0172277223318815,0.0437927544116973,-0.0199574623256921
1770452526938,-0.108001708984375,-0.2234039306640625,-0.96246337890625,-0.025676866993308,0.0287197958678007,-0.0185113660991191
1770452526948,-0.102935791015625,-0.22406005859375,-0.9588470458984376,-0.0365574769675731,0.0183670222759246,-0.0049087386578321
1770452526958,-0.10687255859375,-0.2193756103515625,-0.967803955078125,-0.0408382415771484,0.0195579882711172,0.0031124362722039
1770452526969,-0.1093902587890625,-0.222015380859375,-0.9788360595703124,-0.0330413058400154,0.0066262111067771,0.0083285039290785
1770452526978,-0.106842041015625,-0.226531982421875,-0.976715087890625,-0.02674719132483,-0.0172226633876562,0.0108553105965256
1770452526988,-0.1066131591796875,-0.223876953125,-0.9717864990234376,-0.0224760137498378,-0.0142686842009425,0.0130058135837316
1770452526998,-0.1062469482421875,-0.218963623046875,-0.9728851318359376,-0.0204956866800785,-0.0001675128296483,0.0123663879930973
1770452527008,-0.1061859130859375,-0.2214813232421875,-0.9683380126953124,-0.0187782142311334,-0.004879976157099,0.0070469905622303
1770452527018,-0.10028076171875,-0.2209014892578125,-0.964935302734375,-0.0172511581331491,-0.0016636766958981,0.008648082613945
1770452527028,-0.1024932861328125,-0.218231201171875,-0.9665374755859376,-0.0169116053730249,0.0015315839555114,0.0091082770377397
1770452527038,-0.1057891845703125,-0.2169952392578125,-0.961669921875,-0.0158652495592832,-0.0037449370138347,0.0137781305238604
1770452527049,-0.105926513671875,-0.2138214111328125,-0.9594268798828124,-0.0222541727125644,0.0040314933285117,0.0137475039809942
1770452527059,-0.112762451171875,-0.214691162109375,-0.9623870849609376,-0.0280830338597297,0.0202336329966783,0.0081250378862023
1770452527069,-0.1139068603515625,-0.2139892578125,-0.96246337890625,-0.0368735939264297,0.0247759204357862,-0.0012572783743962
1770452527079,-0.1130523681640625,-0.2151336669921875,-0.9715423583984376,-0.0349880792200565,0.0145917255431413,0.0006378270918503
1770452527089,-0.1067962646484375,-0.223388671875,-0.979888916015625,-0.0299733448773622,-0.0077910777181386,0.0066168899647891
1770452527099,-0.109588623046875,-0.223297119140625,-0.974945068359375,-0.0283312406390905,-0.0156593862920999,0.0127964885905385
1770452527109,-0.1131439208984375,-0.214599609375,-0.9768218994140624,-0.0203121956437826,-0.0070919981226325,0.012394618242979
1770452527119,-0.115509033203125,-0.213165283203125,-0.9805755615234376,-0.0121650537475943,-0.0016799219883978,0.0069303442724049
1770452527129,-0.1178741455078125,-0.2162322998046875,-0.980010986328125,-0.0087932255119085,0.0052767875604331,0.0031963258516043
1770452527139,-0.1175994873046875,-0.2130584716796875,-0.983367919921875,-0.008847021497786,0.0063979779370129,0.0004197141970507
1770452527149,-0.119964599609375,-0.2069244384765625,-0.980438232421875,0.0041326931677758,-0.0109208244830369,-0.0110739562660455
1770452527159,-0.1259002685546875,-0.2048797607421875,-0.9796295166015624,0.0197148490697145,-0.0303150285035371,-0.0315659157931804
1770452527169,-0.119720458984375,-0.2142333984375,-0.9811248779296876,0.0226198248565197,-0.0258624888956546,-0.0371114164590835
1770452527179,-0.1183624267578125,-0.217498779296875,-0.9785308837890624,0.030122747644782,-0.0416643545031547,-0.0387764237821102
1770452527189,-0.12017822265625,-0.2092742919921875,-0.9762420654296876,0.0340780764818191,-0.0291986316442489,-0.0408411733806133
1770452527199,-0.1120452880859375,-0.2247772216796875,-0.976898193359375,0.0298433825373649,-0.0124856978654861,-0.0355699770152568
1770452527209,-0.1020965576171875,-0.2392120361328125,-0.9714813232421876,0.0249215941876173,-0.0061436463147401,-0.0211849138140678
1770452527219,-0.09820556640625,-0.24200439453125,-0.976959228515625,0.0286236554384231,-0.0063196811825037,0.0004415521107148
1770452527229,-0.1002655029296875,-0.23260498046875,-0.983062744140625,0.0415802001953125,-0.0182013735175132,0.0163558032363653
1770452527240,-0.1030426025390625,-0.2255401611328125,-0.9853668212890624,0.0674213841557502,-0.0371777303516864,0.0183883290737867
1770452527250,-0.103179931640625,-0.223846435546875,-0.9871978759765624,0.0926084965467453,-0.0447972975671291,0.0137227363884449
1770452527260,-0.1119842529296875,-0.2259063720703125,-0.977935791015625,0.0999566912651062,-0.0368277877569198,0.0075790900737047
1770452527270,-0.108612060546875,-0.233856201171875,-0.9647216796875,0.0922255367040634,-0.0193843506276607,0.0118952756747603
1770452527280,-0.10614013671875,-0.2346649169921875,-0.9631195068359376,0.0797931030392646,-0.0082763060927391,0.0195028614252805
1770452527290,-0.1071319580078125,-0.230926513671875,-0.960113525390625,0.0617877319455146,-0.0001757686259225,0.0246060099452734
1770452527300,-0.1102752685546875,-0.226837158203125,-0.947021484375,0.0430926084518432,0.008192416280508,0.0240805689245462
1770452527310,-0.11083984375,-0.2208251953125,-0.9444427490234376,0.0303003806620836,0.0213580187410116,0.0184639617800712
1770452527320,-0.1135406494140625,-0.2190399169921875,-0.9464874267578124,0.0234081204980611,0.0194016601890325,0.0085442196577787
1770452527330,-0.1163787841796875,-0.2125396728515625,-0.946807861328125,0.0149078434333205,0.0120864901691675,0.0029132319614291
1770452527340,-0.119354248046875,-0.218231201171875,-0.9579925537109376,0.0101660843938589,0.0024953819811344,0.0010130665032193
1770452527350,-0.115325927734375,-0.223175048828125,-0.9570159912109376,0.0010452907299622,-0.0034181671217083,0.0005797701887786
1770452527360,-0.1114349365234375,-0.2240447998046875,-0.956878662109375,-0.0080794980749487,0.0140196792781353,0.0044450820423662
1770452527370,-0.107452392578125,-0.2285308837890625,-0.963287353515625,-0.0125461518764495,0.0275272317230701,0.0043603936210274
1770452527380,-0.105194091796875,-0.23040771484375,-0.967010498046875,-0.0111730257049202,0.0205920934677124,0.0115919411182403
1770452527390,-0.10601806640625,-0.228057861328125,-0.9713287353515624,-0.0075346152298152,0.0156436748802661,0.0135629465803503
1770452527400,-0.1102294921875,-0.2244110107421875,-0.96875,-0.0054453653283417,0.0210344456136226,0.0170032177120447
1770452527410,-0.111785888671875,-0.227386474609375,-0.9643096923828124,-0.0054086139425635,0.0247828438878059,0.0121477432548999
1770452527421,-0.1086883544921875,-0.2276763916015625,-0.96209716796875,-0.0123405558988451,0.0382134318351745,0.0161805674433708
1770452527430,-0.1090240478515625,-0.221710205078125,-0.9618377685546876,-0.0054935687221586,0.0427852794528007,0.0114020574837923
1770452527440,-0.11029052734375,-0.22576904296875,-0.961029052734375,-0.0003174488083459,0.0250414367765188,0.0108683602884411
1770452527450,-0.11297607421875,-0.2235107421875,-0.9541015625,-0.0039180424064397,0.0224728174507617,0.0133059518411755
1770452527460,-0.1123809814453125,-0.218963623046875,-0.9599761962890624,-0.0068083712831139,0.0367540195584297,0.0075540565885603
1770452527471,-0.11175537109375,-0.2244873046875,-0.966156005859375,-0.0053036850877106,0.0356757044792175,0.0060480386018753
1770452527481,-0.1153106689453125,-0.22637939453125,-0.965362548828125,-0.0052778525277972,0.0322476848959922,0.0030637003947049
1770452527491,-0.1081390380859375,-0.22735595703125,-0.965057373046875,-0.0060858558863401,0.0281458832323551,0.0076483320444822
1770452527501,-0.1077728271484375,-0.236175537109375,-0.95989990234375,-0.010122675448656,0.0183475818485021,0.0098212053999304
1770452527511,-0.1079864501953125,-0.235107421875,-0.952545166015625,-0.0220416523516178,0.0261157564818859,0.0138463070616126
1770452527521,-0.112945556640625,-0.2300567626953125,-0.956268310546875,-0.0323217213153839,0.0293765310198068,0.0094691356644034
1770452527531,-0.11676025390625,-0.2287139892578125,-0.9568634033203124,-0.0407964326441288,0.0288279205560684,0.0090076094493269
1770452527541,-0.1101226806640625,-0.2259063720703125,-0.9571533203125,-0.0509854182600975,0.0396137237548828,0.0104041714221239
1770452527551,-0.1115875244140625,-0.2284393310546875,-0.9573822021484376,-0.0572015047073364,0.0507127121090889,0.0055934372358024
1770452527561,-0.1106414794921875,-0.226837158203125,-0.9639739990234376,-0.0546709671616554,0.0336841940879821,0.0043718451634049
1770452527571,-0.1103668212890625,-0.2269744873046875,-0.9723052978515624,-0.0431922115385532,0.01481410022825,0.0052967611700296
1770452527581,-0.1131439208984375,-0.22802734375,-0.9723663330078124,-0.0379484482109546,0.0038045919500291,0.0013134710025042
1770452527591,-0.1087493896484375,-0.2235107421875,-0.968597412109375,-0.034206174314022,0.0169142689555883,-0.0004876247840002
1770452527601,-0.1090545654296875,-0.21929931640625,-0.97052001953125,-0.0301874633878469,0.0250478293746709,-0.0062432484701275
1770452527611,-0.112152099609375,-0.222442626953125,-0.9754180908203124,-0.0219079609960317,0.0247780513018369,-0.0078163780272006
1770452527621,-0.1044921875,-0.230560302734375,-0.9767303466796876,-0.0136308576911687,0.0105820707976818,-0.0045095304958522
1770452527631,-0.1004486083984375,-0.2339935302734375,-0.9680023193359376,-0.0066573699004948,0.0060842577368021,-0.0020692760590463
1770452527641,-0.1002349853515625,-0.2295379638671875,-0.9630279541015624,-0.0065407236106693,0.0157632511109113,-0.0016160061350092
1770452527651,-0.0986175537109375,-0.2240753173828125,-0.9647674560546876,-0.0075969332829117,0.0353361517190933,-0.0049763829447329
1770452527661,-0.105255126953125,-0.2240447998046875,-0.970001220703125,0.0004173173510935,0.026553314179182,-0.0098377168178558
1770452527672,-0.1049041748046875,-0.224700927734375,-0.972320556640625,0.0136327212676405,-0.0018695390317589,-0.0039734365418553
1770452527682,-0.108612060546875,-0.220123291015625,-0.9675445556640624,0.0240105278789997,-0.0180048327893018,-0.0009877664269879
1770452527692,-0.113494873046875,-0.2159576416015625,-0.9661102294921876,0.0250294525176286,-0.0069071743637323,-0.0060906494036316
1770452527702,-0.1082611083984375,-0.21563720703125,-0.9677886962890624,0.0280148573219776,0.0034932682756334,-0.0121514713391661
1770452527712,-0.1074066162109375,-0.2220306396484375,-0.9647369384765624,0.0261442530900239,0.0011954930378124,-0.0172820519655942
1770452527722,-0.1033172607421875,-0.226837158203125,-0.9607696533203124,0.0268526524305343,-0.0035478631034493,-0.0192024558782577
1770452527732,-0.1060028076171875,-0.2299041748046875,-0.9537200927734376,0.020028568804264,-0.0072480593807995,-0.0224986504763364
1770452527742,-0.1063385009765625,-0.2260589599609375,-0.9513092041015624,0.0126715870574116,-0.0026210830546915,-0.0248752553015947
1770452527752,-0.106170654296875,-0.22210693359375,-0.9537200927734376,0.0032618397381156,-0.00314093218185,-0.0255479700863361
1770452527762,-0.1008758544921875,-0.226409912109375,-0.96258544921875,-0.0069188922643661,-0.0057668089866638,-0.0152993276715278
1770452527772,-0.102447509765625,-0.2315521240234375,-0.9632415771484376,-0.020258666947484,-0.0026288062799721,-0.0047273770906031
1770452527782,-0.1008453369140625,-0.22735595703125,-0.95770263671875,-0.0205532126128673,-0.0156553927809,0.0049614692106842
1770452527792,-0.100860595703125,-0.21783447265625,-0.9629974365234376,-0.0172048192471265,-0.0067870658822357,-0.0001134506601374
1770452527802,-0.1134490966796875,-0.230377197265625,-0.964569091796875,-0.0252651423215866,0.0227441936731338,-0.0016250609187409
1770452527812,-0.0940093994140625,-0.2290496826171875,-0.9618377685546876,-0.0244129318743944,-0.0018098842119798,0.0102089615538716
1770452527822,-0.1018829345703125,-0.217681884765625,-0.9608001708984376,-0.0190677009522914,0.0010876349406316,0.0033332123421132
1770452527832,-0.1134033203125,-0.2252349853515625,-0.965362548828125,-0.0213156752288341,0.0084153227508068,-0.0101125547662377
1770452527842,-0.0988311767578125,-0.2394561767578125,-0.9697265625,-0.0239639226347208,-0.0004775047709699,0.0090619381517171
1770452527853,-0.09814453125,-0.236724853515625,-0.9735107421875,-0.0252193361520767,-0.0164644606411457,0.0256816614419221
1770452527862,-0.1057586669921875,-0.2194976806640625,-0.9700775146484376,-0.020048277452588,-0.0115115139633417,0.0282196532934904
1770452527872,-0.1060638427734375,-0.213897705078125,-0.971435546875,-0.0114806210622191,-9.214537567459048e-05,0.0156671106815338
1770452527882,-0.1068115234375,-0.2221221923828125,-0.96728515625,-0.0040445425547659,-8.28243064461276e-05,-4.234426160110161e-05
1770452527892,-0.110595703125,-0.2269134521484375,-0.9633331298828124,-0.0002860235108528,-0.0124971494078636,-0.0087538100779056
1770452527903,-0.1075286865234375,-0.2295074462890625,-0.9689178466796876,-0.0002767024270724,-0.0209859758615493,-0.0013648699969053
1770452527913,-0.10516357421875,-0.230072021484375,-0.9694671630859376,-0.0055191349238157,-0.01973189227283,0.0070480559952557
1770452527923,-0.1024169921875,-0.2231292724609375,-0.9687957763671876,-0.0117120500653982,-0.0046312371268868,0.0147794783115386
1770452527933,-0.1017913818359375,-0.219696044921875,-0.9697113037109376,-0.0126161929219961,0.0108683602884411,0.0151877412572503
1770452527943,-0.1105499267578125,-0.2167510986328125,-0.9713287353515624,-0.0064469804055988,0.0170748569071292,0.0149240884929895
1770452527954,-0.1073150634765625,-0.2232666015625,-0.9775848388671876,0.0014604774769395,-0.0005917543894611,0.0165669918060302
1770452527963,-0.1058807373046875,-0.2276458740234375,-0.971282958984375,0.0046642604283988,-0.0103698167949914,0.0188322775065898
1770452527973,-0.1002044677734375,-0.226593017578125,-0.972564697265625,0.0113298865035176,0.0033571808598935,0.0242376960813999
1770452527983,-0.101776123046875,-0.230255126953125,-0.9784088134765624,0.0189555808901786,-8.76179983606562e-05,0.0247170645743608
1770452527993,-0.1006317138671875,-0.2295074462890625,-0.9784088134765624,0.026910176500678,-0.0177726056426763,0.0332386456429958
1770452528003,-0.098052978515625,-0.233856201171875,-0.982086181640625,0.0386728271842002,-0.0327427648007869,0.0457685552537441
1770452528013,-0.102630615234375,-0.2328338623046875,-0.9789276123046876,0.0521177947521209,-0.0408198684453964,0.0505683682858943
1770452528023,-0.1060028076171875,-0.2259979248046875,-0.9735565185546876,0.0605586841702461,-0.0455842614173889,0.0498794093728065
1770452528033,-0.1090087890625,-0.22283935546875,-0.967498779296875,0.0690605565905571,-0.0398089326918125,0.0475464798510074
1770452528043,-0.111297607421875,-0.2262420654296875,-0.9658050537109376,0.0647867172956466,-0.0382989197969436,0.036830186843872
1770452528053,-0.1180419921875,-0.2271728515625,-0.9627227783203124,0.0582851432263851,-0.0312332864850759,0.0374155491590499
1770452528063,-0.1202392578125,-0.2146148681640625,-0.958740234375,0.0555362291634082,-0.0336000397801399,0.0323520824313163
1770452528073,-0.125152587890625,-0.1864776611328125,-0.9538421630859376,0.068675197660923,-0.0168109387159347,0.0124489460140466
1770452528083,-0.12579345703125,-0.208038330078125,-0.9551849365234376,0.0788404867053031,-0.0141126234084367,-0.0190565157681703
1770452528093,-0.102783203125,-0.2269287109375,-0.95941162109375,0.0837944969534874,-0.0311922747641801,-0.0267165657132864
1770452528103,-0.1120147705078125,-0.234039306640625,-0.95318603515625,0.0846927836537361,-0.0463427305221557,-0.0268872734159231
1770452528114,-0.11383056640625,-0.234466552734375,-0.949462890625,0.0751932859420776,-0.047939296811819,-0.0229742918163537
1770452528124,-0.109466552734375,-0.2326507568359375,-0.9433441162109376,0.0518826395273208,-0.0214304570108652,-0.0186874009668827
1770452528134,-0.103546142578125,-0.23583984375,-0.9454498291015624,0.0344471894204616,0.0017134778900071,-0.0095061538740992
1770452528144,-0.0968475341796875,-0.236083984375,-0.9502716064453124,0.0223692208528518,-0.0032890038564801,-0.0029116340447217
1770452528154,-0.1051025390625,-0.235748291015625,-0.945892333984375,0.0081234406679868,-0.0113711655139923,0.002437058603391
1770452528164,-0.1149444580078125,-0.2306976318359375,-0.9461517333984376,-0.0086454199627041,0.0015709986910223,0.0014697986189275
1770452528174,-0.1125030517578125,-0.23052978515625,-0.9532623291015624,-0.0264907293021678,0.0139400502666831,0.0069676283746957
1770452528184,-0.10845947265625,-0.2349395751953125,-0.9539031982421876,-0.0469153113663196,0.0228712279349565,0.013210610486567
1770452528194,-0.10980224609375,-0.234405517578125,-0.960693359375,-0.057487528771162,0.0251202676445245,0.0211223289370536
1770452528204,-0.1135101318359375,-0.233184814453125,-0.9687347412109376,-0.0631760358810424,0.0168005507439374,0.0238896198570728
1770452528214,-0.1129608154296875,-0.2364349365234375,-0.9693145751953124,-0.0648714080452919,0.0163131933659315,0.0327243916690349
1770452528224,-0.106201171875,-0.2349853515625,-0.9723052978515624,-0.0644263923168182,0.0157027970999479,0.0392547287046909
1770452528234,-0.1120452880859375,-0.2317657470703125,-0.96868896484375,-0.0623406060039997,0.029389314353466,0.0402265153825283
1770452528244,-0.1146392822265625,-0.23028564453125,-0.97308349609375,-0.0547236986458301,0.0249524880200624,0.0406723283231258
1770452528254,-0.114013671875,-0.229522705078125,-0.976226806640625,-0.0378557704389095,0.0169579442590475,0.0404427647590637
1770452528264,-0.1129913330078125,-0.2311248779296875,-0.98077392578125,-0.018818162381649,0.0079937446862459,0.0413415804505348
1770452528274,-0.1170501708984375,-0.228790283203125,-0.9814605712890624,0.0019981698133051,-0.0032085764687508,0.040609210729599
1770452528284,-0.115997314453125,-0.2289886474609375,-0.9828033447265624,0.0202783737331628,-0.0095911081880331,0.0403562113642692
1770452528294,-0.113372802734375,-0.2319793701171875,-0.9795074462890624,0.0343872681260108,-0.0051260525360703,0.0396185144782066
1770452528304,-0.1158599853515625,-0.2327728271484375,-0.973724365234375,0.0425764881074428,-0.0034804851748049,0.0366211272776126
1770452528314,-0.1197357177734375,-0.231842041015625,-0.9645843505859376,0.0425818152725696,0.0009622001089155,0.0309427361935377
1770452528325,-0.1177978515625,-0.2315521240234375,-0.9643096923828124,0.0392488688230514,-0.0055905077606439,0.024172181263566
1770452528335,-0.1208038330078125,-0.235626220703125,-0.9595184326171876,0.0347063168883323,-0.0109589081257581,0.0207521505653858
1770452528345,-0.11932373046875,-0.23211669921875,-0.9571990966796876,0.025463281199336,-0.0021917815320193,0.0183470491319894
1770452528355,-0.1168060302734375,-0.2275543212890625,-0.953216552734375,0.0107881994917988,0.0174556896090507,0.0170053485780954
1770452528365,-0.119598388671875,-0.2253265380859375,-0.9516448974609376,-0.0056632119230926,0.0286300461739301,0.0097935087978839
1770452528375,-0.119232177734375,-0.232513427734375,-0.9510650634765624,-0.0162740442901849,0.0125522771850228,0.0077873491682112
1770452528385,-0.1151275634765625,-0.2346954345703125,-0.956085205078125,-0.0189643707126379,0.0051079429686069,0.0094638094305992
1770452528395,-0.11181640625,-0.2363739013671875,-0.9565582275390624,-0.0271080508828163,0.0181188154965639,0.0116673083975911
1770452528405,-0.10748291015625,-0.2339324951171875,-0.960723876953125,-0.0375753380358219,0.0401426255702972,0.0210919696837663
1770452528415,-0.117523193359375,-0.2335205078125,-0.9643096923828124,-0.0361169911921024,0.0346852764487266,0.0204003471881151
1770452528425,-0.11334228515625,-0.2289581298828125,-0.964447021484375,-0.0239908210933208,0.0261280070990324,0.0235340874642133
1770452528435,-0.1071319580078125,-0.2321014404296875,-0.9745941162109376,-0.0200498737394809,0.0485688671469688,0.0247647352516651
1770452528445,-0.106201171875,-0.2377777099609375,-0.97833251953125,-0.0009427590412087,0.024894431233406,0.0376203469932079
1770452528455,-0.1101531982421875,-0.22088623046875,-0.975494384765625,0.0206767823547124,0.0005736448802053,0.0328948311507701
1770452528465,-0.1225433349609375,-0.2185821533203125,-0.96099853515625,0.0229255557060241,-0.0003395530220586,0.0210525542497634
1770452528475,-0.1183624267578125,-0.2334442138671875,-0.956512451171875,0.015272962860763,0.0149382026866078,0.0148670962080359
1770452528485,-0.1059112548828125,-0.2522125244140625,-0.9629058837890624,0.0049510826356709,-0.0030314761679619,0.031456459313631
1770452528495,-0.1128692626953125,-0.239349365234375,-0.9647979736328124,-0.0008088020258583,-0.0073029203340411,0.0407836474478244
1770452528506,-0.119354248046875,-0.221282958984375,-0.9610137939453124,-0.0070366039872169,0.0052584116347134,0.0340096317231655
1770452528515,-0.1163482666015625,-0.221649169921875,-0.9531097412109376,-0.010022540576756,0.0033907366450875,0.0188154987990856
1770452528525,-0.1147308349609375,-0.2236480712890625,-0.952850341796875,-0.0071423314511775,0.0040738373063504,0.00959696713835
1770452528536,-0.1140594482421875,-0.224273681640625,-0.9637451171875,-0.00716124009341,-0.0057654771953821,0.0035851474385708
1770452528545,-0.12176513671875,-0.226806640625,-0.9641265869140624,-0.0114047210663557,-0.0031425300985574,0.0055084824562072
1770452528556,-0.114532470703125,-0.228790283203125,-0.9679107666015624,-0.0141656203195452,-0.0019667444285005,0.0117109846323728
1770452528566,-0.1154022216796875,-0.2303314208984375,-0.967681884765625,-0.013604225590825,0.0029185581952333,0.0167848393321037
1770452528576,-0.1124725341796875,-0.228729248046875,-0.9679107666015624,-0.011577027849853,0.010186324827373,0.0194024592638015
1770452528586,-0.1113433837890625,-0.23333740234375,-0.9647369384765624,-0.0081261033192276,0.0181614272296428,0.018156899139285
1770452528596,-0.10980224609375,-0.23468017578125,-0.9627838134765624,-0.006475209724158,0.0187190920114517,0.0183060374110937
1770452528606,-0.1092529296875,-0.2327117919921875,-0.96484375,-0.0026501116808503,0.014642858877778,0.018639463931322
1770452528616,-0.114837646484375,-0.2306671142578125,-0.97625732421875,0.0099269328638911,0.0106363985687494,0.0208885036408901
1770452528626,-0.115997314453125,-0.2327728271484375,-0.9881744384765624,0.0304404627531766,-0.0101644871756434,0.024581242352724
1770452528636,-0.1202545166015625,-0.2321319580078125,-0.982574462890625,0.0428643748164176,-0.0203196518123149,0.0323811098933219
1770452528646,-0.1168060302734375,-0.23529052734375,-0.9771728515625,0.0513063296675682,-0.0319757759571075,0.0365375056862831
1770452528656,-0.123870849609375,-0.2378082275390625,-0.9698944091796876,0.0534613616764545,-0.0483571477234363,0.0318934842944145
1770452528666,-0.1171875,-0.2336883544921875,-0.9555511474609376,0.0431117825210094,-0.0301496461033821,0.0298503078520298
1770452528676,-0.1158447265625,-0.2360992431640625,-0.950927734375,0.0293530952185392,-0.00892851408571,0.0183579679578542
1770452528686,-0.1146087646484375,-0.2396087646484375,-0.9506683349609376,0.0174074862152338,0.009530920535326,0.0104425204917788
1770452528696,-0.1134490966796875,-0.232635498046875,-0.9576873779296876,0.0147619014605879,0.0002820287481881,0.0100366547703742
1770452528706,-0.1185760498046875,-0.227996826171875,-0.963134765625,0.026260633021593,-0.0051478901877999,0.0056922403164207
1770452528716,-0.122100830078125,-0.22882080078125,-0.963592529296875,0.0269024539738893,-0.0009483516332693,0.0038741005118936
1770452528726,-0.1167449951171875,-0.2304534912109375,-0.962615966796875,0.0224829390645027,0.0001070590733434,0.0024357270449399
1770452528736,-0.117706298828125,-0.236724853515625,-0.9571685791015624,0.01716167666018,-0.0030607709195464,-0.0027049726340919
1770452528747,-0.1161041259765625,-0.2393798828125,-0.9537200927734376,0.0127336382865905,-0.0016184030100703,-0.0056866477243602
1770452528757,-0.1137542724609375,-0.2412109375,-0.9503173828125,0.0048490837216377,-0.0048948898911476,-0.0068030450493097
1770452528766,-0.110107421875,-0.2404022216796875,-0.9564056396484376,0.0045603970065712,-0.0160426162183284,-0.0041305627673864
1770452528777,-0.112213134765625,-0.2388153076171875,-0.9598846435546876,0.0041028661653399,-0.0238784346729517,0.0005203816690482
1770452528787,-0.1159515380859375,-0.237060546875,-0.9618682861328124,0.0038021949585527,-0.0330311879515647,0.0057319216430187
1770452528797,-0.119384765625,-0.2329864501953125,-0.9659576416015624,0.0028461201582103,-0.0379910580813884,0.0106803411617875
1770452528807,-0.118072509765625,-0.2311553955078125,-0.9644775390625,0.0038477350026369,-0.0354802310466766,0.0154356816783547
1770452528817,-0.1179351806640625,-0.232879638671875,-0.960693359375,0.0006689860601909,-0.0148654989898204,0.0195079203695058
1770452528827,-0.1160888671875,-0.233612060546875,-0.9645538330078124,0.0018317222129553,0.0085215829312801,0.0110321445390582
1770452528837,-0.1189727783203125,-0.2387237548828125,-0.9686737060546876,0.0094326501712203,0.001415736391209,0.006624347064644
1770452528847,-0.1126861572265625,-0.2390594482421875,-0.965545654296875,0.0130819799378514,-0.0087708542123436,0.0111479926854372
1770452528857,-0.1161956787109375,-0.24114990234375,-0.957000732421875,0.0048464206047356,-0.0057878480292856,0.0088685927912592
1770452528867,-0.1180877685546875,-0.240020751953125,-0.9530029296875,-0.008046475239098,0.0221034381538629,0.0106577044352889
1770452528877,-0.110931396484375,-0.2409820556640625,-0.9549713134765624,-0.0182351972907781,0.0310258269309997,0.0127245839685201
1770452528887,-0.11712646484375,-0.2379608154296875,-0.958953857421875,-0.0242145266383886,0.0310918726027011,0.0096821887418627
1770452528897,-0.121978759765625,-0.231048583984375,-0.960479736328125,-0.0288926344364881,0.0238382201641798,0.0125482827425003
1770452528907,-0.1261749267578125,-0.229400634765625,-0.9615020751953124,-0.0302742831408977,0.0252052210271358,0.0091303810477256
1770452528917,-0.1226348876953125,-0.231842041015625,-0.966827392578125,-0.025865152478218,0.0271328184753656,0.0086384955793619
1770452528927,-0.1197662353515625,-0.2338409423828125,-0.96746826171875,-0.0200224444270133,0.0218102242797613,0.0024439829867333
1770452528937,-0.1205902099609375,-0.2362213134765625,-0.96588134765625,-0.0124167222529649,0.0086225168779492,-0.0007310376968234
1770452528947,-0.1161346435546875,-0.2369842529296875,-0.9623565673828124,-0.0083809681236743,0.0016053534345701,-0.0015451660146936
1770452528957,-0.1148223876953125,-0.236572265625,-0.96075439453125,-0.0035249600186944,0.0027768779546022,-0.0042211101390421
1770452528967,-0.1140899658203125,-0.2388763427734375,-0.9613800048828124,-0.0074350130744278,0.0048602689057588,-0.0043233758769929
1770452528978,-0.11553955078125,-0.2384033203125,-0.9500274658203124,-0.0193670392036438,0.0141443144530057,-0.0029079054947942
1770452528989,-0.1110687255859375,-0.23583984375,-0.950653076171875,-0.0302780102938413,0.0339185521006584,0.0013137373607605
1770452528998,-0.1079254150390625,-0.235260009765625,-0.954071044921875,-0.0439216494560241,0.0395713783800601,0.0066491141915321
1770452529008,-0.1121978759765625,-0.2351531982421875,-0.9501953125,-0.0568771325051784,0.0422750189900398,0.0115970009937882
1770452529018,-0.115081787109375,-0.235809326171875,-0.949676513671875,-0.0681047514081001,0.0433125868439674,0.0136886481195688
1770452529028,-0.1118927001953125,-0.23614501953125,-0.9537811279296876,-0.0712121278047561,0.040215328335762,0.0124231139197945
1770452529038,-0.1168365478515625,-0.230682373046875,-0.9653472900390624,-0.0652205497026443,0.0347995273768901,0.0101189464330673
1770452529048,-0.1142425537109375,-0.22760009765625,-0.9714202880859376,-0.0610452443361282,0.0223015770316123,0.0104209491983056
1770452529058,-0.1169281005859375,-0.2286529541015625,-0.967559814453125,-0.0599749200046062,0.0254558250308036,0.0112571818754076
1770452529068,-0.1181640625,-0.235443115234375,-0.961456298828125,-0.0648037642240524,0.0377652235329151,0.0116790262982249
1770452529078,-0.1090545654296875,-0.2397003173828125,-0.966094970703125,-0.0683103501796722,0.0556321032345294,0.0181515738368034
1770452529088,-0.10809326171875,-0.2401123046875,-0.9700927734375,-0.0612455122172832,0.0415714122354984,0.024248881265521
1770452529098,-0.11407470703125,-0.23150634765625,-0.972442626953125,-0.0418015085160732,0.0080472733825445,0.0173694025725126
1770452529108,-0.1220550537109375,-0.2204742431640625,-0.9683380126953124,-0.0442934297025203,0.0198807641863822,0.0081814974546432
1770452529118,-0.1252899169921875,-0.22760009765625,-0.9643707275390624,-0.0526717342436313,0.0249753911048173,0.0060437778010964
1770452529128,-0.1145172119140625,-0.2192535400390625,-0.961639404296875,-0.0516975484788417,0.0192876774817705,0.0051630702801048
1770452529139,-0.1280670166015625,-0.2127532958984375,-0.96368408203125,-0.0520600043237209,0.0324040129780769,-0.0163731146603822
1770452529148,-0.1260986328125,-0.2296905517578125,-0.9619293212890624,-0.0601405687630176,0.042164497077465,-0.032375518232584
1770452529158,-0.1041259765625,-0.2482452392578125,-0.9640350341796876,-0.0724662095308303,0.0328026860952377,-0.0155768292024731
1770452529168,-0.1024169921875,-0.235382080078125,-0.9671478271484376,-0.080255426466465,0.033377930521965,0.004652542527765
1770452529178,-0.112640380859375,-0.215240478515625,-0.97662353515625,-0.0689769387245178,0.0464937314391136,0.0023015039041638
1770452529189,-0.1103515625,-0.21124267578125,-0.9855499267578124,-0.0411825887858867,0.0432380177080631,-0.0103466473519802
1770452529199,-0.10589599609375,-0.2200164794921875,-0.9818572998046876,-0.011485680937767,0.0270907394587993,-0.0185603685677051
1770452529209,-0.101043701171875,-0.228851318359375,-0.9755859375,0.0056554889306426,0.0147656304761767,-0.016056464985013
1770452529219,-0.1019744873046875,-0.233154296875,-0.9710693359375,0.0102899214252829,0.0069463229738175,-0.0092371739447116
1770452529229,-0.105072021484375,-0.2288970947265625,-0.96466064453125,-0.0021188110113143,0.018819760531187,0.000819188368041
1770452529239,-0.10943603515625,-0.222625732421875,-0.9566650390625,-0.0195084530860185,0.0505023226141929,0.0025739450938999
1770452529249,-0.105224609375,-0.2242889404296875,-0.9622955322265624,-0.0282236486673355,0.0581980571150779,0.0075745629146695
1770452529259,-0.106658935546875,-0.22528076171875,-0.96441650390625,-0.0249580796808004,0.0464817471802234,0.0094126760959625
1770452529269,-0.1090087890625,-0.2182159423828125,-0.971588134765625,-0.0174423735588789,0.0429029911756515,0.0121477432548999
1770452529279,-0.107666015625,-0.2200775146484375,-0.9807891845703124,-0.0087793767452239,0.0188360065221786,0.0126681244000792
1770452529289,-0.1064453125,-0.2234039306640625,-0.9812774658203124,0.0053987600840628,-0.0007190534961409,0.0187180284410715
1770452529299,-0.11224365234375,-0.2266845703125,-0.972442626953125,0.0105860652402043,-0.0028032432310283,0.0162620600312948
1770452529309,-0.1122589111328125,-0.226348876953125,-0.971832275390625,0.0145770786330103,0.0118177775293588,0.0147850709035992
1770452529319,-0.1113128662109375,-0.2284698486328125,-0.96966552734375,0.0147110354155302,0.0097993677482008,0.013907560147345
1770452529329,-0.1123046875,-0.2236480712890625,-0.9637451171875,0.0113557185977697,0.0110585102811455,0.0162708479911088
1770452529339,-0.1122894287109375,-0.2254486083984375,-0.9687957763671876,0.0138455079868435,0.0073149045929312,0.0116412099450826
1770452529349,-0.11224365234375,-0.228668212890625,-0.9597015380859376,0.005625395104289,0.0052110073156654,0.0071540493518114
1770452529359,-0.111419677734375,-0.223419189453125,-0.95208740234375,-0.0117040602490305,0.0270390734076499,0.002681270474568
1770452529369,-0.1130828857421875,-0.2156982421875,-0.960784912109375,-0.0130593432113528,0.0388315506279468,-0.0068885325454175
1770452529379,-0.11572265625,-0.21343994140625,-0.9737396240234376,-0.0034253578633069,0.0298915859311819,-0.0139991724863648
1770452529389,-0.113677978515625,-0.219970703125,-0.9741058349609376,0.0033388049341738,0.0073809507302939,-0.0124311028048396
1770452529399,-0.105133056640625,-0.222198486328125,-0.966064453125,0.0051151332445442,-0.0036107138730585,-0.0080893514677882
1770452529410,-0.0996856689453125,-0.2271575927734375,-0.961517333984375,0.0030141656752675,-0.0005928196478635,-0.0090265180915594
1770452529420,-0.10235595703125,-0.2269134521484375,-0.9571990966796876,-0.0011270497925579,0.0082387551665306,-0.0160998739302158
1770452529430,-0.1010284423828125,-0.22711181640625,-0.9553070068359376,-0.0096321208402514,0.0153842829167842,-0.0143152894452214
1770452529440,-0.0955047607421875,-0.230072021484375,-0.9534759521484376,-0.0203593336045742,0.0277844928205013,-0.0030650321859866
1770452529450,-0.0982513427734375,-0.2291717529296875,-0.955810546875,-0.0284694582223892,0.0323259830474853,-0.0001454086013836
1770452529460,-0.10614013671875,-0.22491455078125,-0.9564971923828124,-0.0354967415332794,0.0245817750692367,0.0053420346230268
1770452529470,-0.10333251953125,-0.2255401611328125,-0.9543609619140624,-0.0483246557414531,0.0252888444811105,0.015459650196135
1770452529480,-0.1010589599609375,-0.223907470703125,-0.9542388916015624,-0.0598870366811752,0.0309733618050813,0.0185435898602008
1770452529490,-0.104522705078125,-0.21966552734375,-0.967071533203125,-0.0588177777826786,0.0265021808445453,0.0185776781290769
1770452529500,-0.1063079833984375,-0.2208709716796875,-0.97235107421875,-0.0553519390523433,0.0150524526834487,0.0176730025559663
1770452529510,-0.1051483154296875,-0.219696044921875,-0.9664154052734376,-0.0528767965734005,0.0183153580874204,0.0187009833753108
1770452529520,-0.1045074462890625,-0.21844482421875,-0.97216796875,-0.0474034696817398,0.0234403442591428,0.0178940463811159
1770452529530,-0.1068267822265625,-0.221588134765625,-0.975860595703125,-0.0438358969986438,0.025941053405404,0.0130332438275218
1770452529540,-0.1127166748046875,-0.22528076171875,-0.969268798828125,-0.041555967181921,0.0142138237133622,0.0056791910901665
1770452529550,-0.1080322265625,-0.22247314453125,-0.970977783203125,-0.0380136929452419,0.0119874207302927,0.0068608354777097
1770452529561,-0.1049346923828125,-0.2198333740234375,-0.9731597900390624,-0.0362339057028293,0.012330169789493,0.0017401094082742
1770452529570,-0.1116180419921875,-0.218414306640625,-0.97186279296875,-0.0323110669851303,0.0131568145006895,-0.0042698462493717
1770452529580,-0.1100311279296875,-0.21661376953125,-0.9726409912109376,-0.0316681824624538,0.0160535350441932,-0.0068890652619302
1770452529590,-0.1116180419921875,-0.2147979736328125,-0.96148681640625,-0.0398334339261055,0.0161440819501876,-0.0119301630184054
1770452529600,-0.10992431640625,-0.2150726318359375,-0.9573211669921876,-0.0495526380836963,0.0193784907460212,-0.0141898551955819
1770452529611,-0.101654052734375,-0.219146728515625,-0.956085205078125,-0.0616002455353736,0.0177758019417524,-0.0146545767784118
1770452529621,-0.1041259765625,-0.2196044921875,-0.953216552734375,-0.0722670033574104,0.0136079536750912,-0.0136156771332025
1770452529631,-0.0988006591796875,-0.2152252197265625,-0.9577789306640624,-0.0775704234838485,0.0148282144218683,-0.0101104248315095
1770452529641,-0.098846435546875,-0.21124267578125,-0.9632720947265624,-0.0817915350198745,0.0177925787866115,-0.0082696480676531
1770452529651,-0.1052093505859375,-0.2109222412109375,-0.967071533203125,-0.0831273794174194,0.0239966791123151,-0.0062427157536149
1770452529661,-0.0972900390625,-0.2107086181640625,-0.9708251953125,-0.0820815563201904,0.0361366979777812,0.0013028184184804
1770452529671,-0.094451904296875,-0.2158966064453125,-0.977630615234375,-0.0704549923539161,0.0327281206846237,0.0042791673913598
1770452529681,-0.0963592529296875,-0.214752197265625,-0.983795166015625,-0.0538525804877281,0.0220573656260967,0.0049287122674286
1770452529691,-0.09637451171875,-0.211822509765625,-0.986663818359375,-0.03930239751935,0.0115498630329966,0.0076102488674223
1770452529701,-0.09710693359375,-0.21307373046875,-0.9804534912109376,-0.031394675374031,0.0107168266549706,0.010669688694179
1770452529711,-0.0988311767578125,-0.210845947265625,-0.9807586669921876,-0.0249591451138257,0.0118497349321842,0.0137895820662379
1770452529722,-0.10015869140625,-0.2114410400390625,-0.9812164306640624,-0.0176618173718452,0.0044930190779268,0.0151432668790221
1770452529731,-0.1010894775390625,-0.2168731689453125,-0.973358154296875,-0.0166175924241542,-0.0012647352414205,0.0153464656323194
1770452529741,-0.0996856689453125,-0.21392822265625,-0.96405029296875,-0.0175731349736452,0.0031747543253004,0.0117783620953559
1770452529751,-0.1030731201171875,-0.2094268798828125,-0.9707489013671876,-0.014413028024137,0.0079327579587697,0.0051249871030449
1770452529761,-0.1049652099609375,-0.2100067138671875,-0.973297119140625,-0.0132044851779937,0.010374610312283,0.0020469056908041
1770452529771,-0.104217529296875,-0.212310791015625,-0.9755859375,-0.019644808024168,0.0087684579193592,0.0078768311068415
1770452529781,-0.1068267822265625,-0.2096405029296875,-0.971343994140625,-0.0195745006203651,-0.0073764235712587,0.0079532638192176
1770452529791,-0.1081695556640625,-0.2044219970703125,-0.9663543701171876,-0.0096411760896444,-0.0139054292812943,0.0015209312550723
1770452529801,-0.1035308837890625,-0.2029571533203125,-0.9789886474609376,-0.0079010659828782,0.0099873868748545,-0.0050512175075709
1770452529811,-0.1031646728515625,-0.2122802734375,-0.9813690185546876,6.285060226218775e-05,0.0002031991898547,0.0012546151410788
1770452529822,-0.1024322509765625,-0.198974609375,-0.9819793701171876,0.0166721865534782,-0.0123898237943649,-0.0032594427466392
1770452529832,-0.1084442138671875,-0.1987762451171875,-0.981353759765625,0.0304050426930189,-0.0052293832413852,-0.0158175788819789
1770452529842,-0.1012115478515625,-0.215728759765625,-0.977996826171875,0.0331672728061676,0.0014423680258914,-0.0209167338907718
1770452529852,-0.0918731689453125,-0.234100341796875,-0.975677490234375,0.0262963194400072,-0.0065937205217778,-0.0062831956893205
1770452529862,-0.0929412841796875,-0.2224578857421875,-0.9715118408203124,0.0233551245182752,0.0002545981842558,0.0071026505902409
1770452529872,-0.09722900390625,-0.2083282470703125,-0.9757537841796876,0.0313238352537155,0.0052983588539063,0.0070437947288155
1770452529882,-0.09759521484375,-0.20367431640625,-0.97265625,0.046078011393547,-0.0063987770117819,-0.001292698434554
1770452529892,-0.0986328125,-0.2037811279296875,-0.9594879150390624,0.051614724099636,-0.0151611100882291,-0.0085340999066829
1770452529902,-0.0987548828125,-0.2100982666015625,-0.9599761962890624,0.0474071949720382,-0.0072845444083213,-0.0105008436366915
1770452529912,-0.0998077392578125,-0.2155609130859375,-0.962921142578125,0.035143606364727,-0.0186780802905559,-0.0050019491463899
1770452529922,-0.1027679443359375,-0.21514892578125,-0.9561004638671876,0.0145821385085582,-0.0109583754092454,0.0008242483600042
1770452529932,-0.103271484375,-0.2122039794921875,-0.95068359375,-0.0088467551395297,-0.0022764701861888,0.0025379925500601
1770452529942,-0.103607177734375,-0.208831787109375,-0.947357177734375,-0.0309211649000644,0.0170634053647518,0.0028101676143705
1770452529955,-0.1000213623046875,-0.210723876953125,-0.95367431640625,-0.0338620916008949,0.0121203120797872,0.0020740698091685
1770452529962,-0.0993499755859375,-0.211944580078125,-0.969818115234375,-0.0338620916008949,0.0121203120797872,0.0020740698091685
1770452529972,-0.104522705078125,-0.214508056640625,-0.979461669921875,-0.0211300533264875,-0.0208418983966112,0.0005366269615478
1770452529982,-0.110626220703125,-0.2086334228515625,-0.9797821044921876,-0.0092427665367722,-0.0315794982016086,-0.0009520800667814
1770452529992,-0.1116790771484375,-0.207733154296875,-0.9806671142578124,-0.0018247979460284,-0.0171598121523857,-0.0017387778498232
1770452530002,-0.103363037109375,-0.2127532958984375,-0.9839630126953124,0.0051031494513154,-0.0094720646739006,0.0002391518646618
1770452530012,-0.094818115234375,-0.2176361083984375,-0.98394775390625,0.0142750758677721,-0.0120401512831449,0.0071215592324733
1770452530022,-0.0999603271484375,-0.216949462890625,-0.9792633056640624,0.021768145263195,-0.0202775746583938,0.00495614297688
1770452530032,-0.1022491455078125,-0.2147979736328125,-0.9728240966796876,0.0259873922914266,-0.0133565515279769,0.0055092815309762
1770452530043,-0.1008453369140625,-0.2151031494140625,-0.9739990234375,0.0281938202679157,-0.0121117904782295,0.0053297844715416
1770452530053,-0.100372314453125,-0.215179443359375,-0.9693603515625,0.0274068564176559,-0.0092331795021891,0.0081532672047615
1770452530063,-0.1013641357421875,-0.2082366943359375,-0.9725341796875,0.0341624990105629,-0.0122609268873929,0.00220935838297
1770452530073,-0.103546142578125,-0.20904541015625,-0.96661376953125,0.0343246832489967,-0.0075354143045842,0.0003254382754676
1770452530083,-0.1049346923828125,-0.2094573974609375,-0.9644012451171876,0.0277828946709632,-0.0154154412448406,-0.0042243059724569
1770452530093,-0.1105194091796875,-0.2099456787109375,-0.9576873779296876,0.0170610081404447,-0.0153491292148828,-0.010129333473742
1770452530103,-0.1038360595703125,-0.2127532958984375,-0.9527587890625,0.0028770128265023,-0.0045350971631705,-0.0114625114947557
1770452530113,-0.1002349853515625,-0.21661376953125,-0.9570159912109376,-0.0035627768374979,0.0021499700378626,-0.0123805031180381
1770452530123,-0.09991455078125,-0.217315673828125,-0.9626312255859376,-0.0098587563261389,-0.0032919333316385,-0.009000951424241
1770452530133,-0.097412109375,-0.2173004150390625,-0.9611663818359376,-0.0166724529117345,-0.0024644893128424,-0.0008407599525526
1770452530143,-0.096038818359375,-0.2197723388671875,-0.961151123046875,-0.0243668593466281,-0.010324808768928,0.0041390848346054
1770452530153,-0.10565185546875,-0.2175140380859375,-0.9627685546875,-0.0297885220497846,-0.0153778912499547,0.0076118470169603
1770452530163,-0.10540771484375,-0.2151031494140625,-0.962127685546875,-0.0355942137539386,-0.014112090691924,0.0059870523400604
1770452530173,-0.101531982421875,-0.214996337890625,-0.9594879150390624,-0.0469539277255535,-0.0019379822770133,0.0061987736262381
1770452530183,-0.10235595703125,-0.212738037109375,-0.9599609375,-0.0583999268710613,0.0143672209233045,0.0049822418950498
1770452530193,-0.1003875732421875,-0.2160797119140625,-0.96197509765625,-0.0648743361234664,0.021662151440978,0.0066107646562159
1770452530203,-0.1012420654296875,-0.21392822265625,-0.96075439453125,-0.0717817768454551,0.0259700808674097,0.0075961342081427
1770452530213,-0.104461669921875,-0.21014404296875,-0.9679412841796876,-0.0696315392851829,0.0219660196453332,0.0092246569693088
1770452530223,-0.1086578369140625,-0.207916259765625,-0.97259521484375,-0.0639395713806152,0.0149190286174416,0.0104499775916337
1770452530233,-0.10400390625,-0.205108642578125,-0.9789276123046876,-0.0550986714661121,0.0061481734737753,0.015009575523436
1770452530243,-0.1055450439453125,-0.2080230712890625,-0.978759765625,-0.0448886454105377,-0.0056432383134961,0.0122811673209071
1770452530255,-0.107177734375,-0.20574951171875,-0.97906494140625,-0.0378701500594615,-0.0006583334179595,0.0103298695757985
1770452530264,-0.106689453125,-0.2072296142578125,-0.9773101806640624,-0.0312969349324703,0.0042493399232625,0.0076161078177392
1770452530274,-0.102447509765625,-0.2081756591796875,-0.9768829345703124,-0.0245106685906648,0.0147022474557161,0.0079021314159035
1770452530284,-0.0993194580078125,-0.211181640625,-0.98382568359375,-0.0093943011015653,0.0071559138596057,0.006263222079724
1770452530294,-0.102386474609375,-0.211822509765625,-0.9823455810546876,0.0030530479270964,-0.0196322910487651,0.0081247715279459
1770452530304,-0.1037750244140625,-0.2099456787109375,-0.97686767578125,0.0125083345919847,-0.0255674123764038,0.0098526310175657
1770452530314,-0.1035308837890625,-0.2095184326171875,-0.970123291015625,0.0094952341169118,-0.0129331089556217,0.0105674229562282
1770452530324,-0.1040496826171875,-0.2064056396484375,-0.9708099365234376,0.0077010630629956,-0.0034642398823052,0.0075836172327399
1770452530334,-0.103851318359375,-0.20855712890625,-0.971710205078125,0.0057838531211018,-0.0102997757494449,0.0093514239415526
1770452530344,-0.1077117919921875,-0.2045440673828125,-0.9673309326171876,0.0015323829138651,-0.0012309130979701,0.007833688519895
1770452530354,-0.1080780029296875,-0.207244873046875,-0.966400146484375,-0.0057763964869081,0.005837382748723,0.008168714120984
1770452530364,-0.102935791015625,-0.213134765625,-0.9645538330078124,-0.008167915046215,0.0049265818670392,0.0086675239726901
1770452530374,-0.1036529541015625,-0.20867919921875,-0.95904541015625,-0.0150154344737529,0.0106997825205326,0.0045518749393522
1770452530384,-0.1069488525390625,-0.20819091796875,-0.9599151611328124,-0.0232035890221595,0.007390271872282,0.0029031119775027
1770452530394,-0.1083984375,-0.2095489501953125,-0.963897705078125,-0.0273442734032869,-0.0051361722871661,-0.000843689427711
1770452530404,-0.1063079833984375,-0.2041778564453125,-0.966400146484375,-0.0335979089140892,-0.003410177771002,0.00716896308586
1770452530414,-0.1030426025390625,-0.2052154541015625,-0.9715576171875,-0.0340740792453289,0.006655772216618,0.01124919205904
1770452530424,-0.10260009765625,-0.206298828125,-0.9828948974609376,-0.021873340010643,-0.0087458211928606,0.0152487279847264
1770452530434,-0.106170654296875,-0.2102813720703125,-0.98291015625,-0.0089844400063157,-0.0289672035723924,0.014577611349523
1770452530444,-0.1068572998046875,-0.2073211669921875,-0.977508544921875,0.0009203884401358,-0.0295610874891281,0.0142835984006524
1770452530455,-0.103759765625,-0.209716796875,-0.97601318359375,0.0046469499357044,-0.0247130692005157,0.0152790872380137
1770452530465,-0.10150146484375,-0.211334228515625,-0.9703826904296876,-0.0062022358179092,-0.0018852517241612,0.016921192407608
1770452530475,-0.1087799072265625,-0.210205078125,-0.9733428955078124,-0.0135413752868771,0.010170878842473,0.0181238763034343
1770452530485,-0.111083984375,-0.212860107421875,-0.970550537109375,-0.0106806075200438,-0.0112033858895301,0.0183177553117275
1770452530495,-0.1074066162109375,-0.2043304443359375,-0.96533203125,-0.0125605324283242,-0.0033776871860027,0.0151331461966037
1770452530505,-0.111328125,-0.206512451171875,-0.973663330078125,-0.0127384318038821,0.0220570992678403,0.0114606469869613
1770452530515,-0.1104736328125,-0.2023773193359375,-0.982421875,-0.0018626148812472,-0.0051683965139091,0.0119008682668209
1770452530525,-0.1213836669921875,-0.1932830810546875,-0.9749603271484376,0.0105988485738635,-0.0143168875947594,-0.0047580036334693
1770452530535,-0.1190643310546875,-0.2015533447265625,-0.970184326171875,0.0049196574836969,-0.0026839338243007,-0.0188525170087814
1770452530545,-0.100555419921875,-0.223846435546875,-0.96380615234375,-0.0083237094804644,-0.0039049931801855,-0.0106265451759099
1770452530555,-0.0962677001953125,-0.2230377197265625,-0.9692840576171876,-0.0185888651758432,-0.0098824584856629,0.0078560588881373
1770452530565,-0.1042327880859375,-0.2091827392578125,-0.9678802490234376,-0.0228802822530269,-0.009385778568685,0.0164450202137231
1770452530575,-0.1011199951171875,-0.196929931640625,-0.9619598388671876,-0.0199199113994836,0.005388640332967,0.0124252438545227
1770452530585,-0.1006622314453125,-0.1996002197265625,-0.961669921875,-0.0117205716669559,0.0087799094617366,-0.0016620787791907
1770452530595,-0.107940673828125,-0.2021636962890625,-0.9705352783203124,0.0009131979313679,-0.0048496164381504,-0.0117884827777743
1770452530605,-0.104827880859375,-0.207244873046875,-0.9717559814453124,0.0035329493694007,-0.0206378996372222,-0.001651426195167
1770452530615,-0.1056671142578125,-0.2071685791015625,-0.9714202880859376,-0.00421072402969,-0.0247721914201974,0.009640909731388
1770452530625,-0.1104278564453125,-0.2049102783203125,-0.9739837646484376,-0.012114186771214,-0.0092427665367722,0.0153422048315405
1770452530635,-0.1055908203125,-0.20501708984375,-0.9730377197265624,-0.0143637591972947,0.0101823303848505,0.0204264447093009
1770452530645,-0.1040802001953125,-0.2091522216796875,-0.9720916748046876,-0.0084771076217293,0.0164178553968668,0.0185225512832403
1770452530655,-0.113006591796875,-0.2081298828125,-0.9711761474609376,-0.0006455502589233,0.0090739224106073,0.0060541639104485
1770452530665,-0.1142120361328125,-0.20367431640625,-0.97637939453125,0.0087130637839436,-0.0050086071714758,0.005331914871931
1770452530676,-0.1183319091796875,-0.2024993896484375,-0.978851318359375,0.0164783094078302,-0.0177275985479354,-0.0007885619997978
1770452530686,-0.1173553466796875,-0.2035064697265625,-0.9807281494140624,0.0233015939593315,-0.0187790133059024,0.0022282667923718
1770452530696,-0.1115264892578125,-0.20404052734375,-0.9774627685546876,0.0241095963865518,-0.0048448224551975,0.0035196337848901
1770452530706,-0.109893798828125,-0.2120361328125,-0.9712371826171876,0.0214813239872455,0.0025963156949728,0.0043476102873682
1770452530716,-0.1096954345703125,-0.21429443359375,-0.9691619873046876,0.018330005928874,-0.0029979203827679,0.0075465994887053
1770452530726,-0.11346435546875,-0.2119293212890625,-0.962921142578125,0.012982377782464,-0.0185827389359474,0.0022458436433225
1770452530736,-0.1154937744140625,-0.2121429443359375,-0.954833984375,0.0017795242602005,-0.0211763922125101,0.0007528756395913
1770452530746,-0.1121826171875,-0.212860107421875,-0.954986572265625,-0.0161203797906637,-0.0078115840442478,0.0005339637864381
1770452530756,-0.1120452880859375,-0.203094482421875,-0.95806884765625,-0.0240901559591293,-0.0041220407001674,-0.0040243025869131
1770452530766,-0.117767333984375,-0.201934814453125,-0.9597930908203124,-0.0284284446388483,0.0041065942496061,-0.012915532104671
1770452530776,-0.115142822265625,-0.2027130126953125,-0.965484619140625,-0.0367015562951564,0.0168644674122333,-0.0136218024417757
1770452530786,-0.1157684326171875,-0.2070770263671875,-0.9757232666015624,-0.0335829928517341,0.0014008227735757,-0.0174112152308225
1770452530796,-0.1122894287109375,-0.209625244140625,-0.973846435546875,-0.0331254638731479,-0.0179896522313356,-0.011046259663999
1770452530806,-0.109130859375,-0.2069854736328125,-0.97186279296875,-0.0343403965234756,-0.0122627913951873,-0.0128470892086625
1770452530816,-0.10791015625,-0.2101287841796875,-0.9731597900390624,-0.035350002348423,-0.0018237327458336,-0.0118601210415363
1770452530826,-0.1055450439453125,-0.2127838134765625,-0.971954345703125,-0.0317962802946567,0.0098896482959389,-0.0101730087772011
1770452530836,-0.105377197265625,-0.212188720703125,-0.9797515869140624,-0.0220656208693981,0.0078406129032373,-0.0064059677533805
1770452530846,-0.106292724609375,-0.2089996337890625,-0.982635498046875,-0.0122489426285028,-0.0073721623048186,-0.0046693203039467
1770452530856,-0.11138916015625,-0.2041778564453125,-0.9818115234375,-0.0026069683954119,-0.016195748001337,-0.0058677429333329
1770452530866,-0.1102142333984375,-0.20867919921875,-0.9779052734375,0.0005094627267681,-0.0171891059726476,-0.0028149613644927
1770452530876,-0.1097869873046875,-0.210052490234375,-0.97882080078125,0.0084576671943068,-0.0158892180770635,-0.0018570221727713
1770452530886,-0.1130828857421875,-0.209503173828125,-0.9746551513671876,0.0136843863874673,-0.0196557268500328,-0.0044338968582451
1770452530896,-0.1087493896484375,-0.2052001953125,-0.9701385498046876,0.0144867971539497,-0.0041718417778611,-0.0030072415247559
1770452530907,-0.109100341796875,-0.204437255859375,-0.970245361328125,0.0140409842133522,0.0018351842882111,-0.0075039891526103
1770452530917,-0.1116180419921875,-0.206634521484375,-0.9739532470703124,0.0153003931045532,-0.0042874231003224,-0.007179083302617
1770452530927,-0.1113128662109375,-0.21124267578125,-0.966278076171875,0.0122374910861253,-0.0106555735692381,-0.0036863475106656
1770452530937,-0.1089935302734375,-0.2096710205078125,-0.967132568359375,0.0145453866571187,-0.0050485543906688,-0.0052823801524937
1770452530947,-0.1091766357421875,-0.207794189453125,-0.9700164794921876,0.0156431421637535,-0.002821619156748,-0.0059409798122942
1770452530957,-0.1079254150390625,-0.20648193359375,-0.9729156494140624,0.0203801058232784,-0.0125442873686552,-0.0038429414853453
1770452530967,-0.109954833984375,-0.206207275390625,-0.969757080078125,0.0167832411825656,-0.0147552443668246,-0.0026463831309229
1770452530977,-0.11260986328125,-0.20654296875,-0.9622039794921876,0.0059891827404499,-0.0024482440203428,-0.0006181196658872
1770452530988,-0.111724853515625,-0.2112884521484375,-0.9613037109375,-0.0015177355380728,0.0073346118442714,-0.0005044027348048
1770452530997,-0.11016845703125,-0.2099456787109375,-0.965576171875,-0.0057947719469666,0.0065796058624982,0.0020341223571449
1770452531007,-0.109832763671875,-0.2057647705078125,-0.9715576171875,-0.0034756914246827,0.0055692023597657,0.0009070726810023
1770452531017,-0.114501953125,-0.204498291015625,-0.9682159423828124,-0.0067114322446286,0.0079458076506853,3.941478280466981e-05
1770452531027,-0.1082000732421875,-0.20648193359375,-0.964111328125,-0.0073828152380883,0.0042645200155675,-6.498113361885771e-05
1770452531037,-0.11126708984375,-0.2073211669921875,-0.96636962890625,-0.0075804218649864,-0.0036677054595202,-0.001906557008624
1770452531047,-0.11383056640625,-0.2061309814453125,-0.9725494384765624,-0.0024162861518561,-0.0078392811119556,-0.0016974988393485
1770452531061,-0.1120147705078125,-0.2088165283203125,-0.9728851318359376,-0.0006042712484486,-0.0141291348263621,-0.0022293322253972
1770452531067,-0.112396240234375,-0.2079010009765625,-0.9686431884765624,-0.0006042712484486,-0.0141291348263621,-0.0022293322253972
1770452531077,-0.1138153076171875,-0.2056732177734375,-0.9644927978515624,-0.0064349961467087,-0.0079045286402106,-0.005241101142019
1770452531087,-0.11334228515625,-0.20745849609375,-0.968597412109375,-0.0112635735422372,0.0022525016684085,-0.0052461610175669
1770452531097,-0.108123779296875,-0.21087646484375,-0.9680023193359376,-0.0206552110612392,0.0112569155171513,-0.0011912320042029
1770452531108,-0.1053924560546875,-0.21044921875,-0.9723663330078124,-0.0189382713288068,0.0172277223318815,0.0066192867234349
1770452531117,-0.1089630126953125,-0.2081298828125,-0.97869873046875,-0.0085439532995224,0.0160149186849594,0.0105961849913001
1770452531128,-0.1071319580078125,-0.2099609375,-0.979766845703125,0.003777427598834,0.0093982955440878,0.0136313894763588
1770452531138,-0.1132659912109375,-0.2089996337890625,-0.975555419921875,0.0112217618152499,-0.0136380475014448,0.0139978406950831
1770452531148,-0.11468505859375,-0.20501708984375,-0.975250244140625,0.0185427907854318,-0.022650184109807,0.0169470254331827
1770452531158,-0.112091064453125,-0.2122650146484375,-0.9736175537109376,0.0209923665970563,-0.0219673495739698,0.016437828540802
1770452531168,-0.1128692626953125,-0.2156219482421875,-0.96990966796875,0.0158327594399452,-0.0129339080303907,0.0186274796724319
1770452531178,-0.11376953125,-0.2082672119140625,-0.9658966064453124,0.0072981268167495,-0.0099626192823052,0.0206275135278701
1770452531188,-0.1162872314453125,-0.21014404296875,-0.967193603515625,0.00933597702533,-0.0191412046551704,0.0168042797595262
1770452531198,-0.112640380859375,-0.2084503173828125,-0.96240234375,0.0021366542205214,-0.0032208270858973,0.0075431372970342
1770452531208,-0.1133270263671875,-0.2147979736328125,-0.9618682861328124,-0.0077806916087865,0.0216163452714681,0.0090422304347157
1770452531218,-0.11199951171875,-0.203460693359375,-0.9674530029296876,-0.0017190704820677,0.0040421457961201,0.0084201162680983
1770452531228,-0.1248321533203125,-0.19427490234375,-0.9658050537109376,-6.178533658385277e-05,0.0031193606555461,-0.0089836409315466
1770452531238,-0.1213226318359375,-0.207122802734375,-0.9655609130859376,-0.0046299053356051,0.0120004704222083,-0.0117533290758728
1770452531248,-0.102630615234375,-0.22119140625,-0.969024658203125,-0.0094795217737555,0.006803311407566,0.0004111920716241
1770452531258,-0.1110687255859375,-0.21368408203125,-0.9703216552734376,-0.0023113575298339,-0.0053164684213697,0.0072829467244446
1770452531268,-0.108642578125,-0.199676513671875,-0.9700927734375,0.0076009281910955,-0.0062006381340324,0.0080709755420684
1770452531278,-0.105560302734375,-0.2009124755859375,-0.96002197265625,0.0067308731377124,0.0095138764008879,-0.0017707358347252
1770452531289,-0.1114959716796875,-0.2089996337890625,-0.953125,-0.0036493295338004,0.0142820002511143,-0.0104611627757549
1770452531298,-0.1092681884765625,-0.214080810546875,-0.9550018310546876,-0.0112739596515893,0.0222877282649278,-0.0048347027041018
1770452531308,-0.104705810546875,-0.219024658203125,-0.962921142578125,-0.0224099680781364,0.0166061408817768,0.0049707903526723
1770452531318,-0.110443115234375,-0.2127227783203125,-0.9648895263671876,-0.0308284871280193,0.0206735860556364,0.0141959805041551
1770452531328,-0.1128997802734375,-0.2006378173828125,-0.9661865234375,-0.0378579013049602,0.0301283411681652,0.0137970382347702
1770452531339,-0.1146392822265625,-0.19793701171875,-0.9657135009765624,-0.0380033068358898,0.0398885607719421,0.0077623156830668
1770452531349,-0.116241455078125,-0.2024383544921875,-0.9733428955078124,-0.0298657529056072,0.0403460897505283,0.0025497104506939
1770452531359,-0.1092071533203125,-0.2084197998046875,-0.9839630126953124,-0.0122457472607493,0.0238347593694925,0.0052211270667612
1770452531369,-0.1071929931640625,-0.21270751953125,-0.979644775390625,0.0061473748646676,0.0046032737009227,0.0081143854185938
1770452531379,-0.1077880859375,-0.2097320556640625,-0.9758148193359376,0.0191073808819055,0.0030967236962169,0.0131112746894359
1770452531389,-0.10638427734375,-0.2120208740234375,-0.973358154296875,0.020348947495222,-0.0010053432779386,0.0153677705675363
1770452531399,-0.1100921630859375,-0.2145233154296875,-0.9673004150390624,0.0176122821867465,-0.0097349192947149,0.017967015504837
1770452531409,-0.1141510009765625,-0.2107086181640625,-0.967041015625,0.0130404345691204,-0.0131749240681529,0.0183912571519613
1770452531419,-0.1153564453125,-0.2095947265625,-0.96502685546875,0.0073412698693573,-0.0097429081797599,0.0173587501049041
1770452531429,-0.117095947265625,-0.2081298828125,-0.961761474609375,-0.0006114617572166,-0.0024519723374396,0.0099911149591207
1770452531439,-0.1175994873046875,-0.207000732421875,-0.9615020751953124,-0.0089596724137663,0.0187731552869081,0.0056341835297644
1770452531449,-0.11126708984375,-0.2097930908203125,-0.967193603515625,-0.0162796378135681,0.0268281511962413,0.0060845240950584
1770452531459,-0.1094818115234375,-0.2056884765625,-0.9688568115234376,-0.0076549900695681,0.0090062776580452,0.0038296256680041
1770452531469,-0.1124725341796875,-0.2034912109375,-0.9715423583984376,0.001163002452813,0.0065838666632771,-0.0021603561472147
1770452531479,-0.1072235107421875,-0.210205078125,-0.970550537109375,0.0013134710025042,0.0096811233088374,-0.0002101234131259
1770452531489,-0.10577392578125,-0.215423583984375,-0.965301513671875,-0.0021390509791672,0.0120470756664872,0.0004977448261342
1770452531499,-0.107086181640625,-0.212677001953125,-0.96563720703125,-0.0021297298371791,0.0208157990127801,0.0022218753583729
1770452531510,-0.1056060791015625,-0.217437744140625,-0.9687957763671876,-0.0028261465486139,0.0157315582036972,0.0046775760129094
1770452531519,-0.1030731201171875,-0.2194671630859375,-0.969329833984375,-8.335694292327389e-05,0.0075849490240216,0.0104611627757549
1770452531529,-0.1085968017578125,-0.2162933349609375,-0.97216796875,0.0048051415942609,0.005551625508815,0.0139381857588887
1770452531540,-0.1092681884765625,-0.212860107421875,-0.9708709716796876,0.0060208747163414,0.0014599448768422,0.0197971407324075
1770452531550,-0.110748291015625,-0.208892822265625,-0.9640655517578124,-0.0018335863715037,0.000655403942801,0.0197806283831596
1770452531560,-0.1120452880859375,-0.2088775634765625,-0.96160888671875,-0.0114273577928543,0.0125528099015355,0.0197446756064891
1770452531570,-0.110931396484375,-0.2083740234375,-0.9617919921875,-0.0197430774569511,0.0323949567973613,0.0158071927726268
1770452531580,-0.10858154296875,-0.212982177734375,-0.967437744140625,-0.0192543882876634,0.0387181006371974,0.0142726795747876
1770452531590,-0.1063690185546875,-0.2158355712890625,-0.9697418212890624,-0.0175624825060367,0.0350117795169353,0.0189055148512125
1770452531600,-0.1063232421875,-0.214202880859375,-0.9710235595703124,-0.0124119287356734,0.0321222506463527,0.0194192379713058
1770452531610,-0.1095428466796875,-0.2105560302734375,-0.97406005859375,-0.008651278913021,0.0286172628402709,0.0177968405187129
1770452531620,-0.113494873046875,-0.209381103515625,-0.9726104736328124,-0.0089823100715875,0.0221282057464122,0.0127663947641849
1770452531630,-0.1150665283203125,-0.210693359375,-0.96759033203125,-0.0104656899347901,0.0166801773011684,0.013643373735249
1770452531640,-0.1093292236328125,-0.206512451171875,-0.9660186767578124,-0.0165837705135345,0.0152649730443954,0.0142678851261734
1770452531650,-0.1083831787109375,-0.205322265625,-0.9693756103515624,-0.0198240391910076,0.0184589028358459,0.0124417562037706
1770452531660,-0.1078948974609375,-0.2062835693359375,-0.9723358154296876,-0.0193718336522579,0.0159555301070213,0.0102883242070674
1770452531670,-0.109466552734375,-0.2079925537109375,-0.96868896484375,-0.0204141940921545,0.0146926594898104,0.0116515960544347
1770452531680,-0.104278564453125,-0.207855224609375,-0.968475341796875,-0.0182956494390964,0.0164870973676443,0.0114020574837923
1770452531690,-0.1080169677734375,-0.2060699462890625,-0.9716339111328124,-0.015823969617486,0.0141240749508142,0.0105916578322649
1770452531700,-0.10601806640625,-0.202972412109375,-0.9750518798828124,-0.0097176088020205,0.0149600412696599,0.0149576440453529
1770452531710,-0.104400634765625,-0.2083740234375,-0.9795684814453124,-0.0030415961518883,0.0127884997054934,0.0176612846553325
1770452531720,-0.1044464111328125,-0.2138519287109375,-0.9741058349609376,-0.0038546593859791,0.0157549940049648,0.0204655937850475
1770452531730,-0.1021270751953125,-0.2122802734375,-0.9706573486328124,-0.0023965786676853,0.0181270726025104,0.0242659244686365
1770452531740,-0.1103057861328125,-0.2106170654296875,-0.97088623046875,-0.000989097985439,0.016384033486247,0.0190679673105478
1770452531750,-0.10833740234375,-0.208587646484375,-0.9774627685546876,0.0065130265429615,0.0100060291588306,0.018091918900609
1770452531761,-0.1091461181640625,-0.21112060546875,-0.976470947265625,0.0078387483954429,0.0080086579546332,0.0165600683540105
1770452531771,-0.1088104248046875,-0.2065887451171875,-0.9716796875,0.0102803343906998,0.025320004671812,0.015155516564846
1770452531781,-0.1087646484375,-0.20367431640625,-0.9781036376953124,0.017856229096651,0.0199334938079118,0.0120196444913744
1770452531791,-0.1136474609375,-0.2065277099609375,-0.9893798828125,0.0390597842633724,-0.0063588297925889,0.0125959524884819
1770452531801,-0.1096954345703125,-0.2131805419921875,-0.988616943359375,0.0540531165897846,-0.0244129318743944,0.0154897440224885
1770452531811,-0.1121673583984375,-0.2148284912109375,-0.977813720703125,0.0636327713727951,-0.0276920814067125,0.0138550950214266
1770452531821,-0.110504150390625,-0.2142486572265625,-0.9730987548828124,0.0656439885497093,-0.0200091283768415,0.0117642479017376
1770452531831,-0.1046905517578125,-0.214080810546875,-0.9644012451171876,0.060537114739418,-0.0028530445415526,0.0050296462140977
1770452531842,-0.104095458984375,-0.21551513671875,-0.9624786376953124,0.0574486441910266,0.0050344397313892,0.0055476306006312
1770452531851,-0.1055145263671875,-0.2132110595703125,-0.965484619140625,0.0561237223446369,-0.0096848513931036,0.003818972967565
1770452531861,-0.114959716796875,-0.219482421875,-0.9604949951171876,0.0424619726836681,-0.0134431039914488,0.0094928378239274
1770452531871,-0.110198974609375,-0.217376708984375,-0.9556121826171876,0.0232930723577737,0.002158758463338,0.0193145759403705
1770452531881,-0.109100341796875,-0.21502685546875,-0.9564056396484376,0.0187427941709756,-0.0013092099688947,0.0255479700863361
1770452531891,-0.1106719970703125,-0.205780029296875,-0.9626007080078124,0.0180887226015329,0.0039430763572454,0.0169896353036165
1770452531901,-0.1159210205078125,-0.2155609130859375,-0.9642486572265624,0.0081852255389094,0.0117280287668108,0.0190051160752773
1770452531911,-0.1061553955078125,-0.2135009765625,-0.9605560302734376,0.0088701909407973,-0.0133128762245178,0.0247146673500537
1770452531921,-0.114166259765625,-0.1995697021484375,-0.9648284912109376,0.0167227871716022,-0.0023790018167346,0.0076003954745829
1770452531931,-0.11944580078125,-0.205535888671875,-0.9663543701171876,0.0167771149426698,0.0174674075096845,-0.0088619347661733
1770452531941,-0.1088104248046875,-0.2289886474609375,-0.962158203125,0.0075987973250448,0.0010447581298649,-0.0044469465501606
1770452531951,-0.10345458984375,-0.2285614013671875,-0.9598236083984376,-0.0020101540721952,-0.0149121042340993,0.0095953689888119
1770452531962,-0.1117401123046875,-0.2125244140625,-0.95843505859375,-0.009663812816143,-0.0079079903662204,0.0106888636946678
1770452531971,-0.110137939453125,-0.2056884765625,-0.955902099609375,-0.0140907848253846,0.0054805190302431,0.0016008261591196
1770452531982,-0.109649658203125,-0.2091827392578125,-0.957366943359375,-0.0119775673374533,0.0089237205684185,-0.0103178853169083
1770452531991,-0.113372802734375,-0.21051025390625,-0.9618377685546876,-0.0105764782056212,-0.0024849956389516,-0.0204831715673208
1770452532002,-0.116485595703125,-0.21429443359375,-0.9629364013671876,-0.016516126692295,-0.0097399791702628,-0.0218176804482936
1770452532012,-0.110504150390625,-0.2177581787109375,-0.969024658203125,-0.0279666539281606,-0.0073322150856256,-0.007553790230304
1770452532022,-0.108612060546875,-0.213592529296875,-0.9704132080078124,-0.0363521501421928,0.0081298314034938,-0.0025212145410478
1770452532032,-0.1125946044921875,-0.2131805419921875,-0.9698944091796876,-0.0365982241928577,0.0169060137122869,-0.0077322218567132
1770452532042,-0.1090240478515625,-0.2137298583984375,-0.965087890625,-0.0389431379735469,0.0204197876155376,-0.008838765323162
1770452532052,-0.104949951171875,-0.2150421142578125,-0.9683685302734376,-0.03443094342947,0.0239098593592643,-0.0121634555980563
1770452532062,-0.10369873046875,-0.2122650146484375,-0.9788665771484376,-0.0219210106879472,0.0210373736917972,-0.0119059281423687
1770452532073,-0.11517333984375,-0.209564208984375,-0.9806365966796876,-0.0093636745586991,0.0097873834893107,-0.0156450066715478
1770452532082,-0.1144256591796875,-0.20953369140625,-0.9871368408203124,0.0089879026636481,-0.0025949841365218,-0.0110419988632202
1770452532092,-0.1102752685546875,-0.2118377685546875,-0.992156982421875,0.0255706068128347,-0.0182953830808401,-0.0058802594430744
1770452532102,-0.107757568359375,-0.2121124267578125,-0.9863433837890624,0.036127645522356,-0.0292433723807334,0.0018817896489053
1770452532112,-0.104888916015625,-0.2172393798828125,-0.976959228515625,0.0358685180544853,-0.0206911638379097,0.0033595776185393
1770452532122,-0.102386474609375,-0.2204132080078125,-0.96063232421875,0.0299115590751171,-0.0008021441171877,0.004365187138319
1770452532132,-0.1015472412109375,-0.222991943359375,-0.959991455078125,0.024391358718276,-0.0030975225381553,0.0019118833588436
1770452532142,-0.1082305908203125,-0.2228851318359375,-0.9580230712890624,0.0160050652921199,-0.0039931437931954,-0.0014197311829775
1770452532152,-0.1117401123046875,-0.2084503173828125,-0.955841064453125,0.0057092849165201,-0.0037398771382868,-0.0015875103417783
1770452532162,-0.1146087646484375,-0.2008819580078125,-0.9596710205078124,0.004946821834892,-0.0065375277772545,-0.004611796233803
1770452532173,-0.1178741455078125,-0.206787109375,-0.96209716796875,-0.0038530614692717,-0.0132966302335262,-0.0103317331522703
1770452532182,-0.115875244140625,-0.207611083984375,-0.957244873046875,-0.015795474871993,-0.0190980602055788,-0.0103359948843717
1770452532192,-0.1173095703125,-0.209686279296875,-0.954010009765625,-0.0245375670492649,-0.0092347776517272,-0.0162575338035821
1770452532203,-0.10943603515625,-0.208892822265625,-0.9601287841796876,-0.0304796118289232,0.0064938520081341,-0.0210280530154705
1770452532213,-0.106109619140625,-0.2146148681640625,-0.9683685302734376,-0.030759509652853,0.009158344939351,-0.0216389819979667
1770452532223,-0.1043243408203125,-0.219573974609375,-0.97723388671875,-0.0226073078811168,-0.0051146009936928,-0.0151328798383474
1770452532233,-0.1024627685546875,-0.21929931640625,-0.9763946533203124,-0.0182434525340795,-0.0127669274806976,-0.0052533512935042
1770452532243,-0.099090576171875,-0.21807861328125,-0.976287841796875,-0.0145967854186892,-0.0118436096236109,0.0079873530194163
1770452532253,-0.1027679443359375,-0.22064208984375,-0.974395751953125,-0.0146234175190329,-0.0024322650860995,0.0122244423255324
1770452532263,-0.1088714599609375,-0.2194061279296875,-0.969329833984375,-0.0127336382865905,-0.004627242218703,0.0122721120715141
1770452532273,-0.110198974609375,-0.2167510986328125,-0.9725494384765624,-0.0047801076434552,-0.0179185457527637,0.0141922514885663
1770452532283,-0.111572265625,-0.2133636474609375,-0.976470947265625,0.0002434129273751,-0.0260598305612802,0.0149070443585515
1770452532293,-0.116302490234375,-0.2066802978515625,-0.9736328125,0.001578721916303,-0.0265341382473707,0.013979997485876
1770452532303,-0.1151275634765625,-0.2062835693359375,-0.9716949462890624,0.0027718180790543,-0.0108467889949679,0.0105911251157522
1770452532313,-0.1111907958984375,-0.213104248046875,-0.97381591796875,0.0043638558126986,-0.0096915094181895,0.0069870692677795
1770452532323,-0.1123809814453125,-0.217132568359375,-0.970703125,0.0067228837870061,-0.0132883749902248,0.0079348888248205
1770452532333,-0.11334228515625,-0.21392822265625,-0.96600341796875,0.0045052696950733,-0.0052597429603338,0.0018106831703335
1770452532343,-0.1131744384765625,-0.2132415771484375,-0.9660797119140624,0.0017651431262493,0.0075418059714138,0.0015022892039269
1770452532353,-0.1115264892578125,-0.21533203125,-0.9644775390625,-0.0057907775044441,0.0143011752516031,0.0001739044237183
1770452532363,-0.1103363037109375,-0.2151031494140625,-0.961761474609375,-0.0105027081444859,0.0189284179359674,-0.0006916229031048
1770452532373,-0.1100311279296875,-0.2137603759765625,-0.966949462890625,-0.0090110721066594,0.0142234107479453,-0.0002189118386013
1770452532383,-0.10980224609375,-0.2142791748046875,-0.9686737060546876,-0.0041646515019237,0.0004577973741106,0.0001374191051581
1770452532393,-0.114227294921875,-0.21307373046875,-0.97027587890625,0.0007605988066643,-0.0105581022799015,-0.0026112294290214
1770452532403,-0.1127166748046875,-0.209075927734375,-0.968963623046875,-0.0018788601737469,-0.0059385830536484,0.0020823257509618
1770452532414,-0.108856201171875,-0.208587646484375,-0.965972900390625,-0.0092771211639046,0.0081247715279459,0.0033736925106495
1770452532424,-0.1101226806640625,-0.211151123046875,-0.9689178466796876,-0.0105876633897423,0.0084994789212942,0.0037148434203118
1770452532434,-0.1123504638671875,-0.2136077880859375,-0.96575927734375,-0.0099636847153306,0.0016330503858625,0.0031742216087877
1770452532444,-0.1061553955078125,-0.21575927734375,-0.963409423828125,-0.0133363120257854,0.0039550606161355,0.0058163437061011
1770452532454,-0.1004791259765625,-0.21636962890625,-0.96636962890625,-0.0131075466051697,0.0064602959901094,0.0063782706856727
1770452532464,-0.1071929931640625,-0.2133941650390625,-0.966156005859375,-0.0148239536210894,0.0070286146365106,0.0070632356218993
1770452532474,-0.1107940673828125,-0.210784912109375,-0.9646453857421876,-0.0164335686713457,0.0077719027176499,0.0092803174629807
1770452532484,-0.113250732421875,-0.211273193359375,-0.9613037109375,-0.0225569736212492,0.0082619246095418,0.0075165056623518
1770452532494,-0.1140289306640625,-0.210784912109375,-0.962249755859375,-0.0280353631824255,0.0114300213754177,0.0100475745275616
1770452532504,-0.11004638671875,-0.21136474609375,-0.96600341796875,-0.0309206321835517,0.0063356603495776,0.0131506891921162
1770452532514,-0.1072845458984375,-0.21185302734375,-0.9666595458984376,-0.0310495290905237,-0.0012764531420543,0.0162399560213089
1770452532524,-0.1101226806640625,-0.212860107421875,-0.9664306640625,-0.0328229293227195,0.0015225291717797,0.0170993581414222
1770452532534,-0.1111297607421875,-0.21435546875,-0.9695587158203124,-0.0303496494889259,0.0070752198807895,0.0150969270616769
1770452532544,-0.109222412109375,-0.211700439453125,-0.97735595703125,-0.0228994563221931,0.0064789382740855,0.0182234793901443
1770452532554,-0.1097869873046875,-0.2156524658203125,-0.979827880859375,-0.0153885437175631,0.0022114890161901,0.0193558540195226
1770452532564,-0.1100616455078125,-0.2160186767578125,-0.977630615234375,-0.0212909076362848,0.0162391569465398,0.0244771130383014
1770452532574,-0.1087188720703125,-0.21502685546875,-0.971527099609375,-0.0220427177846431,0.0191859453916549,0.0295323263853788
1770452532584,-0.11309814453125,-0.2102203369140625,-0.96820068359375,-0.0128494855016469,0.0114585170522332,0.0237167812883853
1770452532594,-0.117462158203125,-0.2089996337890625,-0.9711456298828124,-0.0131118074059486,0.0297200791537761,0.0186842046678066
1770452532605,-0.1098175048828125,-0.215118408203125,-0.9765625,-0.0090536819770932,0.0200368240475654,0.0248598102480173
1770452532614,-0.1119842529296875,-0.19921875,-0.974395751953125,0.0029638318810611,-0.0043417513370513,0.0205896981060504
1770452532625,-0.1253509521484375,-0.1841583251953125,-0.9690704345703124,0.0036567864008247,0.0116241658106446,0.0003030677326023
1770452532635,-0.126739501953125,-0.203704833984375,-0.9655303955078124,-0.0045332326553761,0.0238259714096784,-0.0186402630060911
1770452532645,-0.10821533203125,-0.2333221435546875,-0.96783447265625,-0.0142340632155537,0.0050725229084491,-0.0041308291256427
1770452532655,-0.10198974609375,-0.2253265380859375,-0.9667510986328124,-0.0228318125009536,0.0006562029011547,0.0128801120445132
1770452532665,-0.1089324951171875,-0.2091064453125,-0.9676513671875,-0.0242179874330759,0.0075484635308384,0.0103312004357576
1770452532675,-0.1070098876953125,-0.2028350830078125,-0.962249755859375,-0.0204323045909404,0.0112119084224104,0.0026080335956066
1770452532685,-0.10479736328125,-0.2017059326171875,-0.9628448486328124,-0.0125117972493171,0.0216943770647048,0.000303866690956
1770452532695,-0.1072845458984375,-0.2091827392578125,-0.968170166015625,-0.0071316789835691,0.0154524594545364,-0.0005121259018778
1770452532705,-0.1085968017578125,-0.2099609375,-0.96844482421875,-0.0099815279245376,0.0133437681943178,0.0054735951125621
1770452532715,-0.1064910888671875,-0.2104949951171875,-0.9692535400390624,-0.0164697878062725,0.0189622398465871,0.0178018994629383
1770452532725,-0.107666015625,-0.2103118896484375,-0.9727783203125,-0.0177861880511045,0.0290817189961671,0.0227298140525817
1770452532735,-0.109344482421875,-0.2115478515625,-0.972991943359375,-0.0199180487543344,0.0307573806494474,0.024517860263586
1770452532745,-0.1064910888671875,-0.2129974365234375,-0.9684600830078124,-0.0178295969963073,0.0345214903354644,0.0313725695013999
1770452532755,-0.1073455810546875,-0.212799072265625,-0.9732818603515624,-0.0115868812426924,0.0159499384462833,0.032431710511446
1770452532765,-0.113677978515625,-0.208099365234375,-0.976531982421875,0.0008338357438333,0.004684766754508,0.0299243424087762
1770452532775,-0.1176910400390625,-0.2057952880859375,-0.9754180908203124,0.0023856596089899,0.0079695098102092,0.0275107193738222
1770452532785,-0.1198272705078125,-0.2068023681640625,-0.9736480712890624,0.0060720071196556,0.0107176257297396,0.0234201047569513
1770452532795,-0.119598388671875,-0.20721435546875,-0.9785003662109376,0.0115578528493642,0.0029236183036118,0.0208863727748394
1770452532807,-0.1204376220703125,-0.2085113525390625,-0.977325439453125,0.0148764178156852,-0.0029715551063418,0.0176098868250846
1770452532815,-0.114898681640625,-0.2105255126953125,-0.9777374267578124,0.0221926532685756,-0.016626913100481,0.0194903444498777
1770452532826,-0.1133270263671875,-0.2127838134765625,-0.970458984375,0.0226970557123422,-0.0134604154154658,0.0144508443772792
1770452532836,-0.118865966796875,-0.2128753662109375,-0.9633331298828124,0.020004067569971,0.0003121224872302,0.0053122071549296
1770452532846,-0.1161651611328125,-0.2112274169921875,-0.9664764404296876,0.0141198132187128,0.0097232013940811,-0.00346743571572
1770452532856,-0.11334228515625,-0.2054901123046875,-0.968292236328125,0.0172338485717773,0.0020983046852052,-0.0083503415808081
1770452532866,-0.112457275390625,-0.20379638671875,-0.9725341796875,0.0233002621680498,-0.0021299961954355,-0.0097064226865768
1770452532876,-0.1119232177734375,-0.21051025390625,-0.9747161865234376,0.0227495208382606,-0.0046533411368727,-0.0094542214646935
1770452532886,-0.1071929931640625,-0.215728759765625,-0.96771240234375,0.0215777307748794,-0.0094811199232935,-0.0071441959589719
1770452532896,-0.1053619384765625,-0.216949462890625,-0.9610137939453124,0.0192985963076353,0.0002271676348755,-0.0067322049289941
1770452532906,-0.10430908203125,-0.213714599609375,-0.958221435546875,0.009843842126429,0.0214088857173919,-0.0087420921772718
1770452532916,-0.1049652099609375,-0.2150726318359375,-0.9631195068359376,0.0036437369417399,0.0260635577142238,-0.0086209187284111
1770452532926,-0.10614013671875,-0.21710205078125,-0.9612884521484376,-0.0024604944046586,0.0167203899472951,-0.0004599279200192
1770452532936,-0.1085052490234375,-0.2145538330078125,-0.9592742919921876,-0.0118577247485518,0.0145459193736314,0.001374990097247
1770452532946,-0.112060546875,-0.2142486572265625,-0.9639739990234376,-0.0170514211058616,0.0116113824769854,0.0049167280085384
1770452532956,-0.111572265625,-0.213226318359375,-0.9675140380859376,-0.0190890058875083,0.0074792215600609,0.0050141997635364
1770452532966,-0.113067626953125,-0.210235595703125,-0.9613037109375,-0.0247479565441608,0.0038639802951365,0.005714344792068
1770452532976,-0.1118927001953125,-0.208343505859375,-0.9645843505859376,-0.0322665944695472,0.0072275530546903,0.0017765947850421
1770452532986,-0.1165008544921875,-0.2123870849609375,-0.9659423828125,-0.0351164415478706,0.0105985822156071,-0.0026322684716433
1770452532996,-0.106903076171875,-0.2122955322265625,-0.9687652587890624,-0.0339790061116218,0.0214829221367836,0.0015081481542438
1770452533006,-0.106658935546875,-0.21014404296875,-0.9741973876953124,-0.0312431398779153,0.0283631980419158,-0.0015225291717797
1770452533016,-0.1078338623046875,-0.210357666015625,-0.974700927734375,-0.0253391787409782,0.0321161262691021,-0.0009174589649774
1770452533026,-0.1082763671875,-0.2118377685546875,-0.974151611328125,-0.0190727598965168,0.0183928553014993,0.0006676545017398
1770452533036,-0.1108856201171875,-0.209930419921875,-0.9810943603515624,-0.0036650423426181,0.0035886096302419,0.003695135936141
1770452533046,-0.11151123046875,-0.2044830322265625,-0.9828643798828124,0.0043065976351499,0.0017816547770053,0.0057444386184215
1770452533057,-0.108795166015625,-0.2089385986328125,-0.9755859375,0.0095636779442429,0.0031111047137528,0.0080209085717797
1770452533067,-0.107879638671875,-0.2109832763671875,-0.972503662109375,0.0142753422260284,0.0024322650860995,0.005953496787697
1770452533077,-0.1132354736328125,-0.2092132568359375,-0.9700927734375,0.0179393198341131,-0.0061913169920444,0.0002450108295306
1770452533087,-0.1083526611328125,-0.2099761962890625,-0.9650726318359376,0.0153914727270603,-0.0101652862504124,0.0018136126454919
1770452533097,-0.1083831787109375,-0.212493896484375,-0.957977294921875,0.0029893983155488,-0.0020133496727794,-5.725796290789731e-05
1770452533107,-0.1058349609375,-0.2086334228515625,-0.9559173583984376,-0.0123309679329395,0.0162335652858018,0.0008181231096386
1770452533117,-0.10809326171875,-0.2097930908203125,-0.956268310546875,-0.0237783007323741,0.0221449825912714,-0.0039923447184264
1770452533127,-0.1086883544921875,-0.2091522216796875,-0.9614410400390624,-0.0291544236242771,0.0153659069910645,-0.0005600627628155
1770452533137,-0.105194091796875,-0.2096099853515625,-0.9700927734375,-0.0251652747392654,0.0003547330561559,0.0038980687968432
1770452533147,-0.11260986328125,-0.2067718505859375,-0.9707794189453124,-0.0212866459041833,-0.0037233654875308,0.0018266622209921
1770452533157,-0.1114044189453125,-0.2059783935546875,-0.9743194580078124,-0.0149717591702938,-0.0119208414107561,0.0029095034115016
1770452533167,-0.107452392578125,-0.20721435546875,-0.968231201171875,-0.0184868648648262,-0.0064110276289284,0.0060666808858513
1770452533177,-0.1087188720703125,-0.209808349609375,-0.965545654296875,-0.0202035382390022,0.0022240057587623,0.0020996362436562
1770452533187,-0.1067657470703125,-0.208465576171875,-0.9659271240234376,-0.0212533567100763,0.0131184654310345,0.0020860540680587
1770452533197,-0.105743408203125,-0.2106475830078125,-0.9639739990234376,-0.0235687084496021,0.0137128829956054,-0.001743305241689
1770452533207,-0.1102447509765625,-0.2112579345703125,-0.97509765625,-0.0129291145130991,0.0021358551457524,-0.004063983913511
1770452533217,-0.10809326171875,-0.2106781005859375,-0.978790283203125,-0.0080169141292572,-0.0106116319075226,-0.0005307680112309
1770452533227,-0.1063995361328125,-0.209564208984375,-0.9734649658203124,-0.0058027617633342,-0.0134162064641714,0.0045289718545973
1770452533237,-0.105316162109375,-0.209442138671875,-0.9764556884765624,-0.0018775284988805,-0.0118159130215644,0.0073268888518214
1770452533247,-0.1080780029296875,-0.208251953125,-0.9772491455078124,0.0058184741064906,-0.0189169663935899,0.0068488512188196
1770452533258,-0.1108856201171875,-0.2115936279296875,-0.9732818603515624,0.0058738682419061,-0.0149477906525135,0.0088033452630043
1770452533268,-0.1026763916015625,-0.21636962890625,-0.97088623046875,-0.003196858568117,-0.0080970749258995,0.0180045664310455
1770452533278,-0.1027679443359375,-0.2128143310546875,-0.9645843505859376,-0.0077106500975787,-0.0056544234976172,0.0244416929781436
1770452533288,-0.109710693359375,-0.2088623046875,-0.964141845703125,-0.0039353528991341,-0.0087745832279324,0.0187414642423391
1770452533298,-0.1096038818359375,-0.2049407958984375,-0.9653472900390624,-0.0103226788341999,0.0244621988385915,0.01293177716434
1770452533308,-0.11090087890625,-0.2131195068359375,-0.971466064453125,-0.0147429937496781,0.0290223304182291,0.0161826983094215
1770452533318,-0.1060638427734375,-0.203338623046875,-0.9702606201171876,-0.0058022290468215,0.00215929094702,0.0167129337787628
1770452533328,-0.1205596923828125,-0.19232177734375,-0.967193603515625,-0.0014128069160506,0.0067862668074667,-0.0021528995130211
1770452533338,-0.1226654052734375,-0.203887939453125,-0.9656829833984376,-0.0028597023338079,0.0075804218649864,-0.0191673021763563
1770452533348,-0.104339599609375,-0.2247467041015625,-0.9623870849609376,-0.0181584972888231,-0.0012458267156034,-0.0089490199461579
1770452533359,-0.1039276123046875,-0.2188720703125,-0.96490478515625,-0.0328253246843814,0.0058469702489674,0.0026953853666782
1770452533368,-0.10833740234375,-0.2056427001953125,-0.9639892578125,-0.0372749343514442,0.0108377337455749,0.0014950985787436
1770452533378,-0.10498046875,-0.1999664306640625,-0.95806884765625,-0.0410403758287429,0.0213590841740369,-0.00496386596933
1770452533388,-0.106842041015625,-0.1976165771484375,-0.9631195068359376,-0.0318865589797496,0.0155286258086562,-0.0150798829272389
1770452533398,-0.11309814453125,-0.2042999267578125,-0.9713134765625,-0.0238941479474306,-0.0007142598042264,-0.0200623907148838
1770452533408,-0.1071929931640625,-0.205413818359375,-0.97442626953125,-0.0250877756625413,-0.0021313277538865,-0.0100076263770461
1770452533418,-0.107666015625,-0.20623779296875,-0.9827423095703124,-0.0203468166291713,-0.0037167076952755,-0.0038240330759435
1770452533428,-0.1113433837890625,-0.203857421875,-0.9875030517578124,-0.0128244524821639,-0.030189860612154,-0.0006974819116294
1770452533438,-0.1036376953125,-0.2047882080078125,-0.967803955078125,-0.020911406725645,0.0157555267214775,0.0078912125900387
1770452533448,-0.101043701171875,-0.210723876953125,-0.96954345703125,-0.0138356545940041,0.0187795460224151,0.0071119717322289
1770452533459,-0.107940673828125,-0.209075927734375,-0.9835205078125,0.0031894017010927,-0.0044144559651613,0.0073175677098333
1770452533468,-0.106781005859375,-0.2082366943359375,-0.984527587890625,0.019603794440627,-0.0223766788840293,0.0098888492211699
1770452533479,-0.1063690185546875,-0.2083740234375,-0.982513427734375,0.0272268280386924,-0.0285192597657442,0.0136308576911687
1770452533488,-0.1144866943359375,-0.2075042724609375,-0.9695587158203124,0.0231473967432975,-0.0207257848232984,0.0115338843315839
1770452533499,-0.1146240234375,-0.2049407958984375,-0.962432861328125,0.0076581859029829,-0.0034131072461605,0.0131166009232401
1770452533509,-0.1125335693359375,-0.2091827392578125,-0.959503173828125,-0.0058392467908561,0.0100174807012081,0.0109453257173299
1770452533519,-0.111297607421875,-0.2068328857421875,-0.9654388427734376,-0.010521350428462,0.0006809702608734,0.0105037735775113
1770452533529,-0.1152801513671875,-0.2027435302734375,-0.9720916748046876,-0.0087335705757141,-0.0203774441033601,0.0071905348449945
1770452533539,-0.1158294677734375,-0.206939697265625,-0.9708404541015624,-0.0055995625443756,-0.030886011198163,0.007381749805063
1770452533549,-0.1136016845703125,-0.209381103515625,-0.96807861328125,-0.0129301799461245,-0.0240640565752983,0.0081183798611164
1770452533559,-0.1134796142578125,-0.1995697021484375,-0.968902587890625,-0.0065838666632771,-0.015565644018352,0.0008452873444184
1770452533569,-0.10894775390625,-0.2036895751953125,-0.9788665771484376,0.0069354041479527,-0.0119639849290251,-0.0030522488523274
1770452533579,-0.1029815673828125,-0.207000732421875,-0.9801483154296876,0.0130337765440344,-0.0181419849395751,-0.0005595301627181
1770452533589,-0.1060791015625,-0.2094879150390625,-0.973907470703125,0.0213785246014595,-0.0240723136812448,0.0010783139150589
1770452533599,-0.10498046875,-0.2101287841796875,-0.9732666015625,0.0253218673169612,-0.0186344049870967,0.0015523566398769
1770452533609,-0.1059722900390625,-0.2096405029296875,-0.96734619140625,0.0178903173655271,0.0034698324743658,0.0008330367854796
1770452533619,-0.1047210693359375,-0.21319580078125,-0.968719482421875,0.0105879297479987,0.0062006381340324,0.0031835427507758
1770452533629,-0.105926513671875,-0.21417236328125,-0.968658447265625,0.0117306914180517,-0.0096936402842402,0.0111538516357541
1770452533639,-0.1061553955078125,-0.2124481201171875,-0.9638519287109376,0.0030293457675725,-0.0204576049000024,0.0183606315404176
1770452533649,-0.1144561767578125,-0.2082061767578125,-0.9537200927734376,-0.0123378923162817,-0.0022607573773711,0.0173390433192253
1770452533659,-0.1154937744140625,-0.2005157470703125,-0.9584503173828124,-0.0249322485178709,0.0186304096132516,0.0114079164341092
1770452533669,-0.110809326171875,-0.2018890380859375,-0.96282958984375,-0.0325153321027755,0.025320004671812,0.0150055810809135
1770452533680,-0.1112213134765625,-0.2072296142578125,-0.9665985107421876,-0.0338487774133682,0.0148524492979049,0.014697453007102
1770452533690,-0.115234375,-0.207672119140625,-0.967926025390625,-0.028881449252367,0.001333178486675,0.013097159564495
1770452533699,-0.11468505859375,-0.20391845703125,-0.97607421875,-0.0227849408984184,-0.0014458301011472,0.0117458719760179
1770452533710,-0.1166839599609375,-0.2083282470703125,-0.9749603271484376,-0.0145826712250709,-0.0138090224936604,0.0073359436355531
1770452533720,-0.11181640625,-0.2066650390625,-0.9767608642578124,-0.0094491615891456,-0.0119006019085645,0.0125741148367524
1770452533730,-0.1129608154296875,-0.21051025390625,-0.9758758544921876,-0.0061415159143507,-0.0188567787408828,0.0103903226554393
1770452533740,-0.110595703125,-0.208740234375,-0.9696807861328124,-0.0033795514609664,-0.0159640535712242,0.0110545149073004
1770452533750,-0.1103363037109375,-0.2073822021484375,-0.9716644287109376,-0.0020093549974262,-0.0110244220122694,0.009533317759633
1770452533760,-0.1133880615234375,-0.2070770263671875,-0.9722747802734376,0.0011526161106303,-0.0128742530941963,0.0102185485884547
1770452533770,-0.1136474609375,-0.20654296875,-0.9705352783203124,0.002470081904903,-0.0251066852360963,0.0094973649829626
1770452533780,-0.1147308349609375,-0.2049560546875,-0.9640350341796876,-0.0017089504981413,-0.0257815290242433,0.0140007706359028
1770452533790,-0.11407470703125,-0.202667236328125,-0.9596710205078124,-0.0110494550317525,-0.009254484437406,0.0133216641843318
1770452533800,-0.113189697265625,-0.2039642333984375,-0.9605865478515624,-0.0196645148098468,0.0085775088518857,0.0135696046054363
1770452533810,-0.1128082275390625,-0.2060394287109375,-0.96600341796875,-0.0176274627447128,0.0106047075241804,0.0131999580189585
1770452533820,-0.115631103515625,-0.2053375244140625,-0.9662322998046876,-0.0202528070658445,0.0103642242029309,0.0103887254372239
1770452533830,-0.1160736083984375,-0.206573486328125,-0.9632568359375,-0.0251969657838344,0.0037105823867022,0.0096840523183345
1770452533840,-0.1124114990234375,-0.208740234375,-0.96575927734375,-0.0279115252196788,0.0032804817892611,0.0100169479846954
1770452533850,-0.112091064453125,-0.208709716796875,-0.9691619873046876,-0.0274569243192672,-0.0003755057114176,0.0107330717146396
1770452533860,-0.1123199462890625,-0.2084503173828125,-0.9691619873046876,-0.0335960425436496,-0.0018993664998561,0.0103128245100378
1770452533870,-0.1139984130859375,-0.2108306884765625,-0.9593505859375,-0.0433546639978885,0.0024663533549755,0.0152985285967588
1770452533880,-0.110382080078125,-0.2071380615234375,-0.9654693603515624,-0.0476293042302131,0.0050152647309005,0.017297763377428
1770452533890,-0.1171112060546875,-0.204742431640625,-0.972686767578125,-0.0467107817530632,0.0008242483600042,0.0182112287729978
1770452533900,-0.11407470703125,-0.201507568359375,-0.97515869140625,-0.0444558821618557,-0.0049859699793159,0.0208735894411802
1770452533911,-0.1137847900390625,-0.2036895751953125,-0.96728515625,-0.0478458181023597,0.0033968619536608,0.0224392618983984
1770452533921,-0.1174163818359375,-0.205352783203125,-0.9613494873046876,-0.0553964115679264,0.0114944698289036,0.013563479296863
1770452533931,-0.118896484375,-0.2071533203125,-0.9597015380859376,-0.0604388415813446,0.0105146924033761,0.0081170490011572
1770452533941,-0.1173248291015625,-0.2029876708984375,-0.9644317626953124,-0.0622340776026248,0.007326622493565,0.0017901768442243
1770452533951,-0.1170654296875,-0.1996002197265625,-0.97137451171875,-0.0635456889867782,0.0074877436272799,-0.0036413401830941
1770452533961,-0.1178131103515625,-0.2012176513671875,-0.97406005859375,-0.073057435452938,0.0141624240204691,-0.0017454357584938
1770452533971,-0.1172027587890625,-0.2020721435546875,-0.973541259765625,-0.0781962648034095,0.0156133146956563,0.0050315102562308
1770452533981,-0.1138458251953125,-0.20050048828125,-0.971527099609375,-0.0690070316195488,0.006884004920721,0.0079122511669993
1770452533991,-0.116851806640625,-0.19610595703125,-0.9743804931640624,-0.0581932663917541,0.0132231274619698,0.0005885586142539
1770452534001,-0.1156768798828125,-0.2056884765625,-0.980133056640625,-0.0562528856098651,0.0086795082315802,0.0052091432735323
1770452534011,-0.1080780029296875,-0.200927734375,-0.97283935546875,-0.0514354929327964,-0.0198783669620752,0.0121607920154929
1770452534021,-0.1179351806640625,-0.1871337890625,-0.9696197509765624,-0.0459970533847808,-0.0208885036408901,-0.0003467435599304
1770452534031,-0.1205902099609375,-0.1914215087890625,-0.9766387939453124,-0.0395860262215137,-0.0169496890157461,-0.0139461755752563
1770452534041,-0.1090545654296875,-0.208526611328125,-0.9686737060546876,-0.0478290393948555,-0.0162423532456159,-0.0075157070532441
1770452534051,-0.10931396484375,-0.2070465087890625,-0.9647369384765624,-0.0622732266783714,0.0043223104439675,0.0002934803487733
1770452534061,-0.114410400390625,-0.1917572021484375,-0.9737396240234376,-0.0573101602494716,0.0164599325507879,0.0004649879119824
1770452534072,-0.1111297607421875,-0.1871185302734375,-0.97833251953125,-0.0388256907463073,-1.1717908819264268e-05,-0.0077292923815548
1770452534081,-0.112518310546875,-0.1902008056640625,-0.9757232666015624,-0.0254670102149248,-0.0138753354549407,-0.0134865138679742
1770452534091,-0.1115875244140625,-0.1908111572265625,-0.9720306396484376,-0.0237202420830726,-0.0063977120444178,-0.0160253047943115
1770452534101,-0.1163787841796875,-0.19671630859375,-0.974395751953125,-0.0284271147102117,0.0076954700052738,-0.0121035343036055
1770452534111,-0.113739013671875,-0.201751708984375,-0.978759765625,-0.0337446480989456,-5.00674286740832e-05,0.0006607302348129
1770452534122,-0.112091064453125,-0.1986236572265625,-0.9751434326171876,-0.0377393886446952,-0.0031063109636306,0.0087785776704549
1770452534132,-0.1222686767578125,-0.1941070556640625,-0.972412109375,-0.0389489978551864,0.0048605352640151,-0.0007326356135308
1770452534142,-0.1197509765625,-0.1876220703125,-0.977691650390625,-0.0307371392846107,0.008788963779807,-0.0024359934031963
1770452534152,-0.1177978515625,-0.1871185302734375,-0.983184814453125,-0.0209193956106901,-0.0025824673939496,-0.0077487332746386
1770452534162,-0.1201934814453125,-0.185089111328125,-0.9852752685546876,-0.0077665764838457,-0.007849933579564,-0.0138175450265407
1770452534172,-0.11767578125,-0.18994140625,-0.9849853515625,0.0017449031583964,-0.0091884387657046,-0.0152252921834588
1770452534182,-0.1143341064453125,-0.1954345703125,-0.98046875,0.0067852018401026,-0.011313640512526,-0.0098489020019769
1770452534192,-0.1145172119140625,-0.199676513671875,-0.973297119140625,0.0050578755326569,-0.0135128796100616,-0.0082581965252757
1770452534202,-0.11505126953125,-0.198944091796875,-0.969146728515625,0.0024740765802562,-0.0172303859144449,-0.0040567931719124
1770452534212,-0.1148681640625,-0.199066162109375,-0.9706573486328124,0.0025579661596566,-0.0246954932808876,-0.0035188347101211
1770452534222,-0.11590576171875,-0.1951904296875,-0.969879150390625,0.0040133837610483,-0.0268782190978527,-0.0030344056431204
1770452534232,-0.1184234619140625,-0.1934967041015625,-0.9698028564453124,-0.0033380060922354,-0.0238483417779207,0.002019741339609
1770452534242,-0.1194915771484375,-0.186279296875,-0.9685211181640624,-0.0090379696339368,-0.0197721067816019,0.0011246529174968
1770452534252,-0.12261962890625,-0.1854705810546875,-0.9663848876953124,-0.0085351653397083,-0.0228813476860523,-0.0020937772933393
1770452534262,-0.115936279296875,-0.1916656494140625,-0.968994140625,-0.0126811740919947,-0.0134377777576446,-0.0020319919567555
1770452534272,-0.112335205078125,-0.1949005126953125,-0.96728515625,-0.016732906922698,-0.0119232386350631,-0.0029827402904629
1770452534282,-0.1118621826171875,-0.1957855224609375,-0.9646453857421876,-0.0220693498849868,-0.0015456987312063,-0.0061047640629112
1770452534292,-0.1108551025390625,-0.1943206787109375,-0.9741668701171876,-0.0213660094887018,-0.0020908478181809,-0.008085623383522
1770452534302,-0.1148223876953125,-0.1893157958984375,-0.97894287109375,-0.0162071995437145,-0.0084321005269885,-0.0035571842454373
1770452534312,-0.1141357421875,-0.19207763671875,-0.982696533203125,-0.0085005434229969,-0.0143682863563299,0.006271744146943
1770452534323,-0.115081787109375,-0.1959381103515625,-0.9837799072265624,-0.001358478446491,-0.0162261072546243,0.0118729043751955
1770452534332,-0.1188812255859375,-0.196258544921875,-0.982574462890625,0.0063830646686255,-0.0213878471404314,0.0096965692937374
1770452534343,-0.1157379150390625,-0.1941986083984375,-0.981475830078125,0.0104880612343549,-0.0112585136666893,0.0124540068209171
1770452534353,-0.1160736083984375,-0.1956329345703125,-0.984405517578125,0.019564913585782,-0.0073162359185516,0.0101980427280068
1770452534363,-0.1148223876953125,-0.1969757080078125,-0.9849395751953124,0.0291445702314376,-0.0175273288041353,0.012008192948997
1770452534373,-0.119659423828125,-0.19610595703125,-0.9741058349609376,0.0312308892607688,-0.0196152459830045,0.0127762490883469
1770452534383,-0.118927001953125,-0.1922760009765625,-0.9756622314453124,0.0362916961312294,-0.0174884460866451,0.0136817237362265
1770452534393,-0.1171417236328125,-0.1933746337890625,-0.97344970703125,0.0330146737396717,-0.0178889855742454,0.0131983598694205
1770452534403,-0.1166229248046875,-0.19586181640625,-0.9698028564453124,0.0327973626554012,-0.009892844595015,0.0146774798631668
1770452534413,-0.1152191162109375,-0.196075439453125,-0.977142333984375,0.0380232818424701,-0.0130665330216288,0.0148324752226471
1770452534423,-0.11944580078125,-0.195404052734375,-0.971649169921875,0.0434502735733985,-0.0234632473438978,0.0156287606805562
1770452534433,-0.1205596923828125,-0.1941375732421875,-0.9650726318359376,0.0395452789962291,-0.0318868272006511,0.0151848122477531
1770452534443,-0.1219329833984375,-0.190704345703125,-0.9610137939453124,0.0282401591539382,-0.0286918319761753,0.0145730832591652
1770452534453,-0.1175079345703125,-0.194000244140625,-0.954071044921875,0.0124806379899382,-0.0048866341821849,0.0163629949092865
1770452534463,-0.117095947265625,-0.196868896484375,-0.9604034423828124,0.0033747577108442,0.0038541266694664,0.0129847740754485
1770452534474,-0.123077392578125,-0.194183349609375,-0.964996337890625,0.0007416903390549,-0.0025534387677907,0.0110393352806568
1770452534483,-0.1222076416015625,-0.191497802734375,-0.9635162353515624,-0.0049095372669398,-0.0105383945629,0.0122055336833
1770452534493,-0.1269683837890625,-0.19195556640625,-0.9685516357421876,-0.0081820301711559,-0.0179062969982624,0.0115735651925206
1770452534503,-0.119964599609375,-0.1962890625,-0.9713134765625,-0.0087154610082507,-0.0171773880720138,0.0168532822281122
1770452534513,-0.1158905029296875,-0.2007293701171875,-0.9760589599609376,-0.0008934905636124,-0.0310106463730335,0.0200317651033401
1770452534524,-0.11920166015625,-0.200592041015625,-0.9746856689453124,0.0051865060813724,-0.0312580540776252,0.0240435507148504
1770452534533,-0.124053955078125,-0.1988983154296875,-0.96868896484375,0.0023334617726504,-0.0315158478915691,0.0170021522790193
1770452534543,-0.12335205078125,-0.197998046875,-0.9613494873046876,-0.0052341767586767,-0.0100105563178658,0.0177294630557298
1770452534554,-0.1204071044921875,-0.1966094970703125,-0.9654693603515624,-0.0088757835328578,0.0037606498226523,0.0189300160855054
1770452534564,-0.124420166015625,-0.1967010498046875,-0.971954345703125,-0.0065899919718503,0.0032975259236991,0.0166234523057937
1770452534574,-0.1226043701171875,-0.190704345703125,-0.9715576171875,-0.0050871702842414,0.0040067257359623,0.015164571814239
1770452534584,-0.1231231689453125,-0.1958465576171875,-0.967315673828125,-0.006247776094824,0.0090403668582439,0.0137522974982857
1770452534594,-0.1251220703125,-0.1974639892578125,-0.970489501953125,-0.000966461142525,0.0123256416991353,0.0098550273105502
1770452534604,-0.1240692138671875,-0.1986083984375,-0.9725341796875,0.0040543964132666,-0.0095684714615345,0.007758320774883
1770452534614,-0.127349853515625,-0.19647216796875,-0.970458984375,0.007226487621665,-0.030064957216382,0.0102182831615209
1770452534624,-0.129058837890625,-0.19366455078125,-0.9715576171875,0.0052373725920915,-0.031643945723772,0.0096459696069359
1770452534634,-0.1265411376953125,-0.1966400146484375,-0.971893310546875,0.0026993800420314,-0.0209279190748929,0.009024653583765
1770452534644,-0.120635986328125,-0.20257568359375,-0.9715728759765624,-0.0078842882066965,-0.0066025089472532,0.0160042662173509
1770452534654,-0.1186676025390625,-0.202667236328125,-0.970916748046875,-0.0115418741479516,0.0133437681943178,0.0215985029935836
1770452534664,-0.1223602294921875,-0.196990966796875,-0.9701995849609376,-0.0021305289119482,-0.0095964344218373,0.0176021624356508
1770452534674,-0.127655029296875,-0.191253662109375,-0.9763946533203124,0.0075969332829117,-0.0072970613837242,0.0076872142963111
1770452534684,-0.1290283203125,-0.2032318115234375,-0.9763336181640624,0.0053095440380275,-0.0092190643772482,0.0165744498372077
1770452534694,-0.1233062744140625,-0.1932220458984375,-0.9696807861328124,0.0096811233088374,-0.0130167324095964,0.019619507715106
1770452534704,-0.129302978515625,-0.1968994140625,-0.965087890625,0.002437058603391,0.0070621706545352,0.0091258538886904
1770452534714,-0.122955322265625,-0.2056121826171875,-0.961517333984375,-0.0071106399409472,0.0198546648025512,0.0068360683508217
1770452534724,-0.12548828125,-0.2063446044921875,-0.966461181640625,-0.004660265520215,0.0059012984856963,0.0081892199814319
1770452534734,-0.1328125,-0.1952972412109375,-0.97064208984375,0.0078869517892599,-0.0110635701566934,0.0052869073115289
1770452534745,-0.1269073486328125,-0.1850433349609375,-0.9666290283203124,0.013839116320014,-0.0196048598736524,0.0032823460642248
1770452534754,-0.1281280517578125,-0.1916961669921875,-0.958984375,0.00560915004462,-0.0147421946749091,-0.01174081210047
1770452534765,-0.1266937255859375,-0.19671630859375,-0.9560394287109376,-0.0057276603765785,-0.0029092370532453,-0.016948090866208
1770452534775,-0.1248779296875,-0.205047607421875,-0.9544525146484376,-0.0230653714388608,0.0030077740084379,-0.0147597715258598
1770452534785,-0.12420654296875,-0.2082061767578125,-0.952362060546875,-0.0468719005584716,-0.0005624596378766,-0.006418484263122
1770452534795,-0.126556396484375,-0.202362060546875,-0.9501953125,-0.0707988068461418,0.0053833136335015,0.0010061422362923
1770452534805,-0.122528076171875,-0.1953277587890625,-0.9553070068359376,-0.0861628502607345,0.0201390907168388,0.0036368127912282
1770452534815,-0.1238555908203125,-0.190673828125,-0.954864501953125,-0.09625755995512,0.0320213176310062,0.0008567389450035
1770452534825,-0.12298583984375,-0.1860504150390625,-0.9568939208984376,-0.1049527823925018,0.04828817024827,-0.0049375006929039
1770452534835,-0.123016357421875,-0.188201904296875,-0.9682769775390624,-0.1014419347047805,0.0447384417057037,-0.0041979406960308
1770452534845,-0.1250762939453125,-0.189666748046875,-0.9772186279296876,-0.0891333371400833,0.0225870683789253,-0.0017108146566897
1770452534855,-0.1294097900390625,-0.1903076171875,-0.976470947265625,-0.0796799138188362,0.0220182165503501,0.0043856934644281
1770452534865,-0.123291015625,-0.192291259765625,-0.995361328125,-0.0583187006413936,-0.0017771273851394,0.0109192263334989
1770452534876,-0.1224517822265625,-0.1938018798828125,-0.993438720703125,-0.0500660948455333,0.0037731665652245,0.0189177654683589
1770452534885,-0.1162872314453125,-0.193267822265625,-0.980743408203125,-0.0413434468209743,0.0174074862152338,0.0250038858503103
1770452534895,-0.1227264404296875,-0.1957855224609375,-0.9937591552734376,-0.0193867478519678,-0.010210826061666,0.024040088057518
1770452534905,-0.124298095703125,-0.193115234375,-0.9831695556640624,-0.0019465044606477,-0.0098638162016868,0.0209225919097661
1770452534915,-0.1240997314453125,-0.1944580078125,-0.994049072265625,0.0131802503019571,-0.0044221789576113,0.0154972001910209
1770452534925,-0.130950927734375,-0.1873931884765625,-0.987457275390625,0.0311086513102054,-0.0120601253584027,0.0110867395997047
1770452534935,-0.134490966796875,-0.181793212890625,-0.9872589111328124,0.0503420010209083,-0.0248733926564455,0.0041326931677758
1770452534946,-0.1349029541015625,-0.1835174560546875,-0.9819183349609376,0.0574861951172351,-0.0261868629604578,-0.0049295113421976
1770452534955,-0.13006591796875,-0.189788818359375,-0.973724365234375,0.0589421465992927,-0.0196898151189088,-0.0093122748658061
1770452534965,-0.1246185302734375,-0.1973114013671875,-0.97088623046875,0.0563285201787948,-0.0175188053399324,-0.0136758647859096
1770452534976,-0.1209564208984375,-0.1961517333984375,-0.96392822265625,0.050749197602272,-0.0153493955731391,-0.0184581037610769
1770452534986,-0.1250762939453125,-0.195159912109375,-0.959259033203125,0.0408598147332668,-0.0184346679598093,-0.0230243597179651
1770452534996,-0.126312255859375,-0.1941375732421875,-0.9602813720703124,0.0309749599546194,-0.0128276478499174,-0.0199883561581373
1770452535006,-0.1221466064453125,-0.195770263671875,-0.962371826171875,0.016119047999382,-0.0019108180422335,-0.0089570097625255
1770452535016,-0.1220703125,-0.1941986083984375,-0.9635009765625,0.0065276739187538,0.0060906494036316,-0.0022325278259813
1770452535026,-0.12457275390625,-0.1937255859375,-0.967926025390625,0.0027542412281036,0.0065974490717053,0.0031198931392282
1770452535036,-0.122222900390625,-0.1958465576171875,-0.97174072265625,0.0020820593927055,-0.0021017666440457,0.0057609500363469
1770452535046,-0.124969482421875,-0.194915771484375,-0.9638214111328124,-0.002755040070042,0.0067306067794561,0.004202201962471
1770452535057,-0.1186981201171875,-0.1968994140625,-0.96661376953125,-0.0078544607385993,0.0180900543928146,0.0072741582989692
1770452535066,-0.1205902099609375,-0.19921875,-0.968170166015625,-0.008772718720138,0.0088384989649057,0.0106209525838494
1770452535076,-0.12530517578125,-0.19354248046875,-0.970306396484375,-0.0084627270698547,0.0112137719988822,0.0110297482460737
1770452535086,-0.1251068115234375,-0.1919708251953125,-0.971954345703125,-0.0055620120838284,0.016866598278284,0.011338141746819
1770452535096,-0.1257781982421875,-0.1916656494140625,-0.978912353515625,0.0041444110684096,0.0094848480075597,0.0106057729572057
1770452535108,-0.129119873046875,-0.19061279296875,-0.9862823486328124,0.0294423103332519,-0.0104534402489662,0.004669586662203
1770452535116,-0.13079833984375,-0.1927032470703125,-0.9819183349609376,0.0294423103332519,-0.0104534402489662,0.004669586662203
1770452535126,-0.1274871826171875,-0.19329833984375,-0.9799957275390624,0.0361617319285869,-0.0085167894139885,0.0053343116305768
1770452535136,-0.125244140625,-0.1963958740234375,-0.97552490234375,0.038451250642538,-0.0120574617758393,0.0034168355632573
1770452535146,-0.1240692138671875,-0.192626953125,-0.966827392578125,0.033872477710247,-0.0068134311586618,0.0023190807551145
