timestamp_ms,acc_x,acc_y,acc_z,gyro_x,gyro_y,gyro_z
1769169554873,-0.1271209716796875,-0.986053466796875,-0.1324310302734375,0.121249996125698,0.0364000871777534,0.0322663262486457
1769169554884,-0.1195526123046875,-0.9952545166015624,-0.1012725830078125,0.0906593278050422,0.0331475660204887,0.0420784763991832
1769169554891,-0.141815185546875,-0.987060546875,-0.087158203125,0.0598042123019695,0.0470426082611084,0.0342658273875713
1769169554901,-0.1711273193359375,-0.975311279296875,-0.0818023681640625,0.031030086800456,0.039163913577795,0.0127733191475272
1769169554911,-0.1811065673828125,-0.967620849609375,-0.0843658447265625,0.0042027346789836,0.0205753166228532,-0.0057708038948476
1769169554921,-0.1775360107421875,-0.96502685546875,-0.09527587890625,-0.0100052300840616,0.0064970478415489,-0.0242882948368787
1769169554931,-0.165802001953125,-0.9649658203125,-0.1140594482421875,-0.0072544505819678,0.0049284459091722,-0.0276784989982843
1769169554941,-0.1476593017578125,-0.9721832275390624,-0.1354522705078125,0.0097090862691402,-0.0036093820817768,-0.0200743749737739
1769169554951,-0.1385040283203125,-0.976409912109375,-0.154632568359375,0.0415021702647209,-0.0295485705137252,-0.018951853737235
1769169554963,-0.1456756591796875,-0.9856719970703124,-0.1692047119140625,0.0640444979071617,-0.0127389645203948,-0.0090544810518622
1769169554971,-0.135650634765625,-0.9793701171875,-0.1658477783203125,0.0890582352876663,0.0025491777341812,0.0023331954143941
1769169554982,-0.142730712890625,-0.9841156005859376,-0.1623077392578125,0.1025426164269447,0.0326658003032207,0.005151352379471
1769169554992,-0.145721435546875,-0.977203369140625,-0.15057373046875,0.1004515066742897,0.0472588576376438,0.0067867995239794
1769169555002,-0.1481781005859375,-0.977783203125,-0.1284637451171875,0.0764814615249633,0.0655534416437149,0.0105184214189648
1769169555012,-0.142669677734375,-0.97833251953125,-0.1043548583984375,0.0488684736192226,0.0909277722239494,0.0148907983675599
1769169555022,-0.140625,-0.9818878173828124,-0.0944061279296875,0.0313059911131858,0.0806106925010681,0.0171933677047491
1769169555032,-0.14654541015625,-0.980987548828125,-0.0988616943359375,0.0209697298705577,0.0696057081222534,0.0118273645639419
1769169555042,-0.1520538330078125,-0.979522705078125,-0.10906982421875,0.0274129826575517,0.0523175336420536,0.005142031237483
1769169555052,-0.151519775390625,-0.9793701171875,-0.1151885986328125,0.0329446345567703,0.0401106663048267,-0.0017590179340913
1769169555062,-0.1540374755859375,-0.9811248779296876,-0.11932373046875,0.0411314591765403,0.0281184539198875,-0.005397162400186
1769169555072,-0.151214599609375,-0.98040771484375,-0.1177825927734375,0.0374696105718612,0.0184660926461219,0.0001912149600684
1769169555083,-0.141754150390625,-0.980255126953125,-0.10797119140625,0.0209441632032394,0.0118625182658433,0.0059798620641231
1769169555092,-0.142578125,-0.9813079833984376,-0.0961151123046875,-0.0003933488915208,0.0146348690614104,0.0056190034374594
1769169555102,-0.1507110595703125,-0.9795074462890624,-0.0925750732421875,-0.030090257525444,0.0248728599399328,0.0046482812613248
1769169555112,-0.1522979736328125,-0.979766845703125,-0.0891571044921875,-0.0587647780776023,0.0341944545507431,0.0012756541837006
1769169555122,-0.1540069580078125,-0.9805908203125,-0.0948944091796875,-0.0785256996750831,0.0303147621452808,-0.0045729139819741
1769169555132,-0.1539306640625,-0.977447509765625,-0.1078643798828125,-0.086717315018177,0.0295965075492858,-0.004554271697998
1769169555142,-0.14874267578125,-0.977691650390625,-0.12603759765625,-0.0788372904062271,0.0041252365335822,-0.0029800771735608
1769169555152,-0.1440582275390625,-0.9820556640625,-0.143890380859375,-0.0670786350965499,-0.0180756729096174,0.0038661109283566
1769169555162,-0.1351165771484375,-0.98468017578125,-0.14947509765625,-0.0507470667362213,-0.0256624855101108,0.0148929292336106
1769169555172,-0.135528564453125,-0.9803314208984376,-0.1601715087890625,-0.020667728036642,-0.022840067744255,0.0159890856593847
1769169555182,-0.1485748291015625,-0.9748992919921876,-0.1728057861328125,0.0160314310342073,-0.019515112042427,0.0089918971061706
1769169555192,-0.1534576416015625,-0.970703125,-0.1693115234375,0.0400249138474464,-0.0201068669557571,0.0084581999108195
1769169555203,-0.1487579345703125,-0.973480224609375,-0.1557464599609375,0.0632141232490539,-0.0124694528058171,0.0074856132268905
1769169555213,-0.1522674560546875,-0.97509765625,-0.149200439453125,0.0757919624447822,0.0095759285613894,0.0021241372451186
1769169555223,-0.15521240234375,-0.9775238037109376,-0.1351165771484375,0.0779818817973136,0.0383319407701492,0.0025465146172791
1769169555233,-0.1494598388671875,-0.9789581298828124,-0.121368408203125,0.0690821334719657,0.0542677640914917,0.0065178205259144
1769169555243,-0.148712158203125,-0.98089599609375,-0.1042633056640625,0.0405628718435764,0.0553607270121574,0.0061758705414831
1769169555253,-0.14361572265625,-0.9835052490234376,-0.089019775390625,0.0009872338268905,0.0327635407447814,0.0148255517706274
1769169555263,-0.140533447265625,-0.98504638671875,-0.07977294921875,-0.0341289415955543,0.0074909394606947,0.013938452117145
1769169555273,-0.1490478515625,-0.9814300537109376,-0.088134765625,-0.0512163154780864,-0.0201532058417797,0.0037337518297135
1769169555283,-0.155548095703125,-0.9762420654296876,-0.1120758056640625,-0.0446974299848079,-0.041589256376028,-0.0028043086640536
1769169555293,-0.153839111328125,-0.977020263671875,-0.1302947998046875,-0.0288292504847049,-0.0325052142143249,-0.0034980620257556
1769169555303,-0.1521148681640625,-0.9786224365234376,-0.1456451416015625,0.001546763931401,-0.0059060924686491,-0.0026186862960457
1769169555313,-0.1475677490234375,-0.9802703857421876,-0.1555328369140625,0.0319243781268596,0.0224765464663505,0.0076651102863252
1769169555323,-0.1377105712890625,-0.9791717529296876,-0.1559295654296875,0.0484463609755039,0.0511566624045372,0.0201026052236557
1769169555333,-0.133331298828125,-0.9775390625,-0.148773193359375,0.0594489462673664,0.0675422921776771,0.0269775558263063
1769169555343,-0.13861083984375,-0.980804443359375,-0.1378326416015625,0.0499566420912742,0.0656375959515571,0.033780600875616
1769169555353,-0.1388397216796875,-0.9824371337890624,-0.12115478515625,0.0321326367557048,0.0446420349180698,0.0437139235436916
1769169555363,-0.1378631591796875,-0.981903076171875,-0.1086883544921875,0.0203510783612728,0.0240025389939546,0.0434766374528408
1769169555373,-0.154815673828125,-0.978759765625,-0.1082305908203125,0.022487198933959,0.0173449013382196,0.0265237521380186
1769169555383,-0.1747894287109375,-0.9752044677734376,-0.12005615234375,0.0230563171207904,0.0163366291671991,0.0082957465201616
1769169555394,-0.1699676513671875,-0.972381591796875,-0.1217803955078125,0.0230033192783594,0.0078712385147809,0.0001233043585671
1769169555404,-0.1630096435546875,-0.9740142822265624,-0.12005615234375,0.0283719860017299,0.0105136269703507,-0.0023193468805402
1769169555414,-0.1574249267578125,-0.9743804931640624,-0.120574951171875,0.0274268314242362,0.025457689538598,0.0055521582253277
1769169555426,-0.148101806640625,-0.978973388671875,-0.1170196533203125,0.0250547528266906,0.0507366806268692,0.0171398390084505
1769169555434,-0.137542724609375,-0.9848480224609376,-0.1111907958984375,0.015818377956748,0.0632202476263046,0.0306404661387205
1769169555444,-0.139007568359375,-0.98468017578125,-0.104339599609375,0.0042613241821527,0.0626250281929969,0.031582161784172
1769169555454,-0.154449462890625,-0.9767608642578124,-0.1050872802734375,-0.0106305396184325,0.0440801084041595,0.0178431794047355
1769169555464,-0.16754150390625,-0.9747161865234376,-0.109130859375,-0.0241503436118364,0.0075687039643526,-0.0055702677927911
1769169555474,-0.1715240478515625,-0.972930908203125,-0.1169586181640625,-0.0317701809108257,-0.0253666099160909,-0.0237767025828361
1769169555484,-0.166412353515625,-0.968780517578125,-0.1287384033203125,-0.0192056521773338,-0.0354677140712738,-0.0312804244458675
1769169555494,-0.160003662109375,-0.96807861328125,-0.144775390625,0.00454495055601,-0.0315310284495353,-0.0282398927956819
1769169555504,-0.144775390625,-0.9747467041015624,-0.149932861328125,0.0228187628090381,-0.0083905551582574,-0.0017409083666279
1769169555514,-0.1191253662109375,-0.9906005859375,-0.14031982421875,0.0368379093706607,0.0343188233673572,0.023102656006813
1769169555524,-0.117095947265625,-0.9987640380859376,-0.130279541015625,0.0456894561648368,0.0683702677488327,0.034018687903881
1769169555534,-0.13507080078125,-0.9935302734375,-0.1240234375,0.051525242626667,0.073942132294178,0.0305938608944416
1769169555544,-0.155487060546875,-0.9785919189453124,-0.119232177734375,0.0444183312356472,0.0670725107192993,0.0167547445744276
1769169555554,-0.1705169677734375,-0.9680328369140624,-0.1111907958984375,0.0335004366934299,0.0354376174509525,-0.0009411611245013
1769169555564,-0.175689697265625,-0.9637603759765624,-0.109588623046875,0.023365244269371,-0.0036330842413008,-0.0258907191455364
1769169555574,-0.178497314453125,-0.9646148681640624,-0.1114349365234375,0.0171824488788843,-0.0241127926856279,-0.0380067713558673
1769169555584,-0.171356201171875,-0.96685791015625,-0.1121368408203125,0.0089996205642819,-0.0338514409959316,-0.040901094675064
1769169555594,-0.14898681640625,-0.9717254638671876,-0.1131134033203125,0.000404800492106,-0.0234584547579288,-0.0204887632280588
1769169555605,-0.131378173828125,-0.9801177978515624,-0.1113739013671875,-0.0041297636926174,-0.0070179621689021,-0.0050405650399625
1769169555615,-0.1324310302734375,-0.9838409423828124,-0.1126556396484375,-0.0130502879619598,0.0044133905321359,0.0095844501629471
1769169555625,-0.1378631591796875,-0.9854736328125,-0.1081085205078125,-0.0154551230370998,0.0133933033794164,0.0092076128348708
1769169555635,-0.15313720703125,-0.98199462890625,-0.113372802734375,-0.017052486538887,0.0160822961479425,0.0046938215382397
1769169555645,-0.1574859619140625,-0.9808349609375,-0.118865966796875,-0.0064131580293178,0.0159579273313283,9.58738019107841e-05
1769169555655,-0.157745361328125,-0.9810943603515624,-0.1276397705078125,0.00943558011204,0.0185529123991727,-0.0070256851613521
1769169555665,-0.1568145751953125,-0.9809722900390624,-0.130584716796875,0.0255985707044601,0.0165022779256105,-0.008289354853332
1769169555675,-0.1556549072265625,-0.97979736328125,-0.133697509765625,0.0449277944862842,0.0086009446531534,-0.0127754500135779
1769169555685,-0.1558380126953125,-0.9788360595703124,-0.131622314453125,0.049228798598051,0.0248262546956539,-0.0088459560647606
1769169555695,-0.1458587646484375,-0.97918701171875,-0.115966796875,0.0335550308227539,0.044813010841608,0.0056688045151531
1769169555705,-0.1349029541015625,-0.97979736328125,-0.097320556640625,0.0127285784110426,0.0407945662736892,0.0107706226408481
1769169555715,-0.1419525146484375,-0.982696533203125,-0.08563232421875,-0.0251993630081415,0.0246342401951551,0.0113410716876387
1769169555725,-0.1464691162109375,-0.9850616455078124,-0.0714111328125,-0.0684709399938583,0.0116816898807883,0.0113956658169627
1769169555735,-0.1504364013671875,-0.987274169921875,-0.07208251953125,-0.0905205756425857,-0.0061353906057775,0.0013819142477586
1769169555745,-0.1663665771484375,-0.985015869140625,-0.0923309326171875,-0.0988637283444404,-0.0077580544166266,-0.0095564872026443
1769169555755,-0.1571197509765625,-0.98211669921875,-0.10968017578125,-0.0908273756504058,-0.0043225768022239,-0.0078089209273457
1769169555765,-0.1454925537109375,-0.9799957275390624,-0.1317138671875,-0.066553458571434,-0.0110766198486089,-0.005626194179058
1769169555775,-0.1509246826171875,-0.9778289794921876,-0.1545562744140625,-0.0364522822201252,-0.0043638558126986,-0.0032298816367983
1769169555785,-0.142791748046875,-0.97564697265625,-0.1635284423828125,-0.0019156117923557,0.012197277508676,0.0080115878954529
1769169555796,-0.1373443603515625,-0.975921630859375,-0.1687774658203125,0.032328113913536,0.0244914945214986,0.0177936442196369
1769169555805,-0.135833740234375,-0.981536865234375,-0.1681976318359375,0.0514330975711345,0.0382006503641605,0.0292510967701673
1769169555816,-0.1294708251953125,-0.9817657470703124,-0.162078857421875,0.0723975002765655,0.0402283780276775,0.0374565608799457
1769169555826,-0.1390533447265625,-0.9818267822265624,-0.1594696044921875,0.0931611061096191,0.0353555940091609,0.0325326435267925
1769169555837,-0.1517791748046875,-0.981353759765625,-0.149932861328125,0.1046246811747551,0.0195880830287933,0.0178413148969411
1769169555846,-0.1658477783203125,-0.9801025390625,-0.131103515625,0.099822998046875,0.0118939438834786,-0.0015933692920953
1769169555856,-0.1696014404296875,-0.9783172607421876,-0.1068572998046875,0.0817675665020942,0.00706536648795,-0.0095828520134091
1769169555866,-0.1685028076171875,-0.9778289794921876,-0.0842437744140625,0.0536666885018348,0.006581203546375,-0.0147986533120274
1769169555876,-0.16558837890625,-0.973419189453125,-0.068389892578125,0.0274140480905771,0.0113972639665007,-0.0153017248958349
1769169555886,-0.1582489013671875,-0.97186279296875,-0.0683135986328125,0.0108529143035411,0.0147600378841161,-0.0155515288934111
1769169555896,-0.15606689453125,-0.974609375,-0.0735931396484375,-0.0061489725485444,0.0134521592408418,-0.011298194527626
1769169555906,-0.1473846435546875,-0.9782867431640624,-0.07806396484375,-0.0188820790499448,0.0129930302500724,-0.006213953718543
1769169555916,-0.144805908203125,-0.98065185546875,-0.0867462158203125,-0.0209518875926733,0.0121440142393112,-0.0026711504906415
1769169555926,-0.148193359375,-0.982086181640625,-0.1013336181640625,-0.0242584683001041,0.0107197556644678,-0.0044309673830866
1769169555936,-0.147491455078125,-0.9848175048828124,-0.10888671875,-0.0314756333827972,0.0075476649217307,-0.0008700547041371
1769169555946,-0.144866943359375,-0.9824981689453124,-0.1142578125,-0.0336538329720497,-0.0140596264973282,-0.0049457564018666
1769169555956,-0.156341552734375,-0.9813385009765624,-0.12152099609375,-0.0361145958304405,-0.0325741879642009,-0.0133514916524291
1769169555966,-0.1660308837890625,-0.979583740234375,-0.1222381591796875,-0.0391790941357612,-0.0409210659563541,-0.0218307301402091
1769169555976,-0.1684112548828125,-0.9775390625,-0.1153564453125,-0.0513026006519794,-0.0376456454396247,-0.0284438915550708
1769169555986,-0.1645050048828125,-0.9768218994140624,-0.1067352294921875,-0.0640636682510376,-0.0352333560585975,-0.0345087088644504
1769169555997,-0.15771484375,-0.9781494140625,-0.1085357666015625,-0.0648751333355903,-0.0261280070990324,-0.0326050817966461
1769169556006,-0.145843505859375,-0.978729248046875,-0.1180877685546875,-0.0570467747747898,0.0014152037911117,-0.0201681181788444
1769169556016,-0.132171630859375,-0.9783935546875,-0.1277313232421875,-0.040329847484827,0.0208107400685548,-0.0046051382087171
1769169556026,-0.1280059814453125,-0.9781341552734376,-0.14324951171875,-0.0112326806411147,0.0357984788715839,0.0052746566943824
1769169556036,-0.13153076171875,-0.9764404296875,-0.1577301025390625,0.0233495309948921,0.0400544740259647,0.0073537868447601
1769169556047,-0.142181396484375,-0.9747161865234376,-0.166534423828125,0.0541900023818016,0.041682731360197,0.0042117894627153
1769169556057,-0.1462860107421875,-0.9737701416015624,-0.160308837890625,0.0715705901384353,0.041360754519701,0.0018940401496365
1769169556067,-0.152618408203125,-0.9754486083984376,-0.144927978515625,0.0796860381960868,0.0194032583385705,-0.0069055766798555
1769169556077,-0.156646728515625,-0.9804840087890624,-0.1265869140625,0.0640700608491897,-0.0059047606773674,-0.006288522388786
1769169556087,-0.1477813720703125,-0.9889373779296876,-0.100006103515625,0.0347896702587604,-0.0150449955835938,0.001790975802578
1769169556097,-0.1465606689453125,-0.9920501708984376,-0.0821380615234375,0.0062586949206888,-0.0013390374369919,0.0029300097376108
1769169556107,-0.1536102294921875,-0.985076904296875,-0.080230712890625,-0.0156921446323394,0.0030282805673778,0.0002391518646618
1769169556117,-0.1584014892578125,-0.9769744873046876,-0.0836944580078125,-0.0291400421410799,0.0050813113339245,-0.0024019049014896
1769169556127,-0.15826416015625,-0.9746246337890624,-0.0929412841796875,-0.0436502769589424,0.0020921793766319,-0.0133669376373291
1769169556137,-0.1598052978515625,-0.9735107421875,-0.1019439697265625,-0.0423290804028511,-0.0018956380663439,-0.0232195686548948
1769169556147,-0.15545654296875,-0.9735565185546876,-0.120330810546875,-0.0234595201909542,-0.0014935007784515,-0.0254190731793642
1769169556157,-0.1416015625,-0.974517822265625,-0.1406097412109375,0.0057100835256278,-0.0103200152516365,-0.0128628015518188
1769169556167,-0.13836669921875,-0.97900390625,-0.1511688232421875,0.0380254127085208,-0.0043340283446013,-0.0046685212291777
1769169556177,-0.1366729736328125,-0.99359130859375,-0.1461639404296875,0.050008837133646,0.0015994944842532,0.0108052436262369
1769169556187,-0.1256256103515625,-1.003570556640625,-0.127838134765625,0.043399404734373,0.0120228407904505,0.0227130353450775
1769169556197,-0.1347503662109375,-0.992340087890625,-0.112396240234375,0.0370214022696018,0.02535648830235,0.0130913006141781
1769169556207,-0.1608428955078125,-0.9742279052734376,-0.1044769287109375,0.0091543495655059,0.0301302056759595,0.0076856166124343
1769169556217,-0.1605682373046875,-0.9681396484375,-0.0871734619140625,-0.0179046988487243,0.0198269672691822,-0.0045819687657058
1769169556228,-0.1631927490234375,-0.96820068359375,-0.0881805419921875,-0.0364938303828239,-0.0033659692853689,-0.0166447572410106
1769169556238,-0.1591339111328125,-0.9696044921875,-0.0986785888671875,-0.0394435450434684,-0.0177861880511045,-0.0220469795167446
1769169556248,-0.1531829833984375,-0.975433349609375,-0.109832763671875,-0.0285802464932203,-0.016202138736844,-0.0223593674600124
1769169556258,-0.1478271484375,-0.982696533203125,-0.1251678466796875,-0.0093381078913807,-0.010701379738748,-0.0176959056407213
1769169556268,-0.1421966552734375,-0.9871673583984376,-0.1364288330078125,0.014977085404098,-0.0007558051147498,-0.0132958320900797
1769169556278,-0.1409759521484375,-0.9880523681640624,-0.1427154541015625,0.0311211682856082,0.0145733496174216,-0.0064773401245474
1769169556288,-0.1406097412109375,-0.985748291015625,-0.135101318359375,0.032332107424736,0.0287070125341415,0.0021651498973369
1769169556298,-0.1388702392578125,-0.9833526611328124,-0.121002197265625,0.0171262566000223,0.0340735465288162,0.0093769896775484
1769169556308,-0.142547607421875,-0.98095703125,-0.1064453125,-0.0100797982886433,0.0243476834148168,0.01205959264189
1769169556318,-0.1484832763671875,-0.9785308837890624,-0.09381103515625,-0.0405511558055877,0.0043116579763591,0.0054597463458776
1769169556328,-0.1557769775390625,-0.9790802001953124,-0.0884552001953125,-0.0561048127710819,-0.0027973842807114,-0.0049604037776589
1769169556338,-0.16290283203125,-0.979217529296875,-0.0970306396484375,-0.055133294314146,0.0031217574141919,-0.01169846765697
1769169556348,-0.155181884765625,-0.9791412353515624,-0.1102752685546875,-0.0403719246387481,0.0088049434125423,-0.0096044242382049
1769169556358,-0.148529052734375,-0.9809722900390624,-0.128692626953125,-0.0046592000871896,0.0028346686158329,-0.0126348352059721
1769169556368,-0.1529998779296875,-0.9820404052734376,-0.1468353271484375,0.0274787619709968,0.0014745922526344,-0.0194245651364326
1769169556378,-0.1491851806640625,-0.9837646484375,-0.144561767578125,0.046758983284235,0.017887121066451,-0.0114686368033289
1769169556388,-0.1359710693359375,-0.9818572998046876,-0.1332855224609375,0.0552190467715263,0.0326128043234348,8.655273268232122e-05
1769169556398,-0.13128662109375,-0.9814605712890624,-0.1228790283203125,0.0477821677923202,0.0374264679849147,0.0075788237154483
1769169556408,-0.134368896484375,-0.9816741943359376,-0.1111907958984375,0.0313099846243858,0.0449216701090335,0.0148950600996613
1769169556418,-0.1396331787109375,-0.9784393310546876,-0.0961151123046875,0.0038970035966485,0.0456636250019073,0.0183430537581443
1769169556428,-0.146270751953125,-0.9811248779296876,-0.08563232421875,-0.0222011767327785,0.0308231599628925,0.0164213180541992
1769169556438,-0.156036376953125,-0.979248046875,-0.084808349609375,-0.0449421741068363,0.0175795257091522,0.005666141398251
1769169556449,-0.1651763916015625,-0.9780120849609376,-0.091217041015625,-0.0560928285121917,-0.0012183962389826,-0.0108864698559045
1769169556459,-0.1648712158203125,-0.9812164306640624,-0.101318359375,-0.0564478300511837,-0.0089519498869776,-0.020379839465022
1769169556469,-0.15374755859375,-0.98699951171875,-0.1116943359375,-0.0541900023818016,-0.0135858496651053,-0.0175947062671184
1769169556480,-0.1388702392578125,-0.9876861572265624,-0.1205902099609375,-0.0394978746771812,-0.020020579919219,-0.0114028565585613
1769169556489,-0.1342315673828125,-0.9818878173828124,-0.1372528076171875,-0.0150982588529586,-0.0077170417644083,-0.0017933726776391
1769169556499,-0.1305694580078125,-0.979644775390625,-0.1481170654296875,0.0068366006016731,0.0112627744674682,0.0153227634727954
1769169556509,-0.127960205078125,-0.981536865234375,-0.1431884765625,0.0228736232966184,0.017479658126831,0.0243447534739971
1769169556519,-0.136627197265625,-0.9786224365234376,-0.1394195556640625,0.0375835932791233,0.0212869122624397,0.0239540692418813
1769169556529,-0.14990234375,-0.97833251953125,-0.1325836181640625,0.0451704077422618,0.023390544578433,0.0186714213341474
1769169556539,-0.1604461669921875,-0.97808837890625,-0.1212310791015625,0.03823047503829,0.0182581003755331,0.0089524826034903
1769169556549,-0.1664276123046875,-0.9759521484375,-0.1082000732421875,0.0285677295178174,0.0122175179421901,-0.0105471834540367
1769169556559,-0.1696624755859375,-0.978271484375,-0.1065216064453125,0.0177784636616706,0.004145476501435,-0.0242608655244112
1769169556570,-0.1605377197265625,-0.97882080078125,-0.101776123046875,0.0078778965398669,0.000283360335743,-0.022359101101756
1769169556579,-0.1447906494140625,-0.9778289794921876,-0.1021575927734375,0.0061255367472767,0.0009494169498793,-0.0179683472961187
1769169556589,-0.140350341796875,-0.98193359375,-0.105682373046875,0.0004785700584761,0.0118286963552236,-0.0056472332216799
1769169556599,-0.1355133056640625,-0.9824676513671876,-0.1026763916015625,-0.010039584711194,0.024768728762865,0.009720804169774
1769169556609,-0.1318511962890625,-0.9846649169921876,-0.096221923828125,-0.0268571805208921,0.0261714160442352,0.0146742835640907
1769169556620,-0.1468505859375,-0.9833984375,-0.101287841796875,-0.0340274758636951,0.021436583250761,0.0070126359350979
1769169556629,-0.153411865234375,-0.981903076171875,-0.1132965087890625,-0.0287901032716035,0.009329586289823,-0.0017718010349199
1769169556639,-0.152252197265625,-0.979705810546875,-0.130767822265625,-0.0053987600840628,0.0067521785385906,-0.0005619269795715
1769169556649,-0.148040771484375,-0.98004150390625,-0.1475830078125,0.0243146605789661,0.0018599516479298,0.0008956210804171
1769169556659,-0.1440887451171875,-0.979583740234375,-0.15509033203125,0.050775296986103,0.0055745285935699,0.0046370960772037
1769169556670,-0.1455535888671875,-0.9791717529296876,-0.154205322265625,0.0721056163311004,0.0275986045598983,0.0084677869454026
1769169556680,-0.1419525146484375,-0.979644775390625,-0.1421661376953125,0.0825433433055877,0.0424920655786991,0.0183901917189359
1769169556690,-0.13995361328125,-0.9810333251953124,-0.1267547607421875,0.079306274652481,0.0476876273751258,0.0206938274204731
1769169556700,-0.1488189697265625,-0.978790283203125,-0.108734130859375,0.0696360692381858,0.0584047213196754,0.0170194637030363
1769169556710,-0.1519775390625,-0.9747161865234376,-0.0950775146484375,0.0485582165420055,0.0410089530050754,0.0130947632715106
1769169556720,-0.150146484375,-0.97320556640625,-0.087432861328125,0.0364906340837478,0.0295981056988239,0.0088699245825409
1769169556730,-0.1514434814453125,-0.9752960205078124,-0.091339111328125,0.0250917710363864,0.020322049036622,0.0012575446162372
1769169556740,-0.1547393798828125,-0.975921630859375,-0.088897705078125,0.0146673591807484,0.0313997343182563,-0.0020706076174974
1769169556750,-0.1507720947265625,-0.9826202392578124,-0.08758544921875,0.0056070191785693,0.0390006639063358,-0.0003065298369619
1769169556760,-0.1427764892578125,-0.98828125,-0.094940185546875,0.0041824942454695,0.0284281782805919,0.0021643510553985
1769169556770,-0.14666748046875,-0.9891815185546876,-0.103546142578125,0.007129814941436,0.0189883392304182,-0.002125735161826
1769169556781,-0.1522216796875,-0.9811248779296876,-0.113189697265625,0.0107213538140058,0.0074246269650757,-0.0078555261716246
1769169556790,-0.1591949462890625,-0.9763031005859376,-0.1146392822265625,0.0160684492439031,-0.0097769973799586,-0.012613795697689
1769169556800,-0.160308837890625,-0.975616455078125,-0.11065673828125,0.0027441212441772,-0.0212629437446594,-0.0201609283685684
1769169556810,-0.1599578857421875,-0.9763946533203124,-0.1007232666015625,-0.0143746780231595,-0.0215212702751159,-0.0298657529056072
1769169556820,-0.15826416015625,-0.977935791015625,-0.096710205078125,-0.0264372006058692,-0.0100028328597545,-0.0325166657567024
1769169556832,-0.145599365234375,-0.9810791015625,-0.100006103515625,-0.0381146296858787,-0.0150724267587065,-0.021738052368164
1769169556840,-0.137054443359375,-0.980438232421875,-0.1013336181640625,-0.03528768196702,-0.0037153759039938,-0.0185249485075473
1769169556850,-0.1469573974609375,-0.9874267578125,-0.110687255859375,-0.0239186491817235,0.0213335175067186,-0.0073838802054524
1769169556860,-0.1263580322265625,-0.9992218017578124,-0.1121978759765625,-0.0152652394026517,0.0247415658086538,0.0174373127520084
1769169556871,-0.122314453125,-0.9960479736328124,-0.1181182861328125,0.0064059677533805,0.0334226712584495,0.0100845918059349
1769169556881,-0.1538238525390625,-0.9754638671875,-0.1388702392578125,0.0064059677533805,0.0334226712584495,0.0100845918059349
1769169556891,-0.1631011962890625,-0.966552734375,-0.14453125,0.0377660207450389,0.038262166082859,-0.003271959722042
1769169556900,-0.1587066650390625,-0.964111328125,-0.13568115234375,0.0567972362041473,0.0234153103083372,-0.0196477379649877
1769169556911,-0.1566162109375,-0.9682464599609376,-0.119781494140625,0.0400012135505676,0.0106779439374804,-0.0188730228692293
1769169556921,-0.146820068359375,-0.97772216796875,-0.1014404296875,0.0224461872130632,0.0282902270555496,-0.0131424339488148
1769169556931,-0.1396942138671875,-0.98486328125,-0.0849761962890625,-0.005969741847366,0.0242009442299604,-0.0084981471300125
1769169556941,-0.1391448974609375,-0.990509033203125,-0.0695343017578125,-0.0462825447320938,-0.0025553030427545,-0.0048504150472581
1769169556951,-0.139190673828125,-0.9935760498046876,-0.0635986328125,-0.0824277624487876,-0.0257394518703222,-0.0109890019521117
1769169556965,-0.144561767578125,-0.991729736328125,-0.076080322265625,-0.097341202199459,-0.0242888275533914,-0.015975771471858
1769169556971,-0.146728515625,-0.987457275390625,-0.1021575927734375,-0.0834629386663436,-0.0214653443545103,-0.0136838546022772
1769169556981,-0.140716552734375,-0.98223876953125,-0.13507080078125,-0.0451730713248252,-0.0009789780015125,-0.0096781933680176
1769169556991,-0.141143798828125,-0.9804229736328124,-0.1591949462890625,0.0017427726415917,0.0173704680055379,-0.0053039514459669
1769169557001,-0.135894775390625,-0.97784423828125,-0.1730804443359375,0.0501140318810939,0.0206016805022954,0.0061926483176648
1769169557011,-0.1338653564453125,-0.97784423828125,-0.17315673828125,0.0929768085479736,0.0273384135216474,0.0129434950649738
1769169557021,-0.1400604248046875,-0.979156494140625,-0.1623687744140625,0.113232284784317,0.0441690571606159,0.0172476954758167
1769169557031,-0.1418914794921875,-0.9820709228515624,-0.132171630859375,0.1124016419053077,0.0482990890741348,0.0160285010933876
1769169557041,-0.150238037109375,-0.983123779296875,-0.104766845703125,0.0925256758928299,0.0297762714326381,0.010015083476901
1769169557051,-0.153961181640625,-0.9835357666015624,-0.0812835693359375,0.0925256758928299,0.0297762714326381,0.010015083476901
1769169557061,-0.1605682373046875,-0.9817657470703124,-0.061676025390625,0.0647164136171341,0.0118955411016941,-0.0005752427969127
1769169557071,-0.161346435546875,-0.980560302734375,-0.0482177734375,-0.0185790099203586,-0.0088914958760142,-0.0163193177431821
1769169557081,-0.15185546875,-0.980377197265625,-0.0463409423828125,-0.0591991394758224,-0.007849933579564,-0.0164002776145935
1769169557091,-0.1414794921875,-0.97686767578125,-0.05181884765625,-0.087051011621952,-0.0058126151561737,-0.0092257224023342
1769169557101,-0.142333984375,-0.97711181640625,-0.0714263916015625,-0.098649077117443,-0.008543686941266,-0.0164705868810415
1769169557111,-0.1485137939453125,-0.9758453369140624,-0.0958251953125,-0.0962229371070861,-0.0175688732415437,-0.0215521641075611
1769169557121,-0.1490325927734375,-0.9761199951171876,-0.11614990234375,-0.077312096953392,-0.016245549544692,-0.0229231584817171
1769169557131,-0.1486053466796875,-0.9791412353515624,-0.1345672607421875,-0.0462892018258571,-0.0058933091349899,-0.0208770520985126
1769169557141,-0.142303466796875,-0.987762451171875,-0.1474609375,-0.0213015601038932,0.0113943349570035,-0.0194304231554269
1769169557152,-0.13775634765625,-0.9914703369140624,-0.1467437744140625,-0.001824265345931,0.0167198572307825,-0.0194397438317537
1769169557162,-0.1439208984375,-0.9880218505859376,-0.1473236083984375,0.0145712196826934,0.009011604823172,-0.0220035687088966
1769169557172,-0.145660400390625,-0.9852752685546876,-0.1457061767578125,0.0235074572265148,-0.0053979610092937,-0.0227785501629114
1769169557182,-0.141571044921875,-0.9829559326171876,-0.1311798095703125,0.0227881371974945,-0.0105365300551056,-0.0227748211473226
1769169557192,-0.13873291015625,-0.982421875,-0.1175384521484375,0.0182833988219499,-0.0162391569465398,-0.0211817175149917
1769169557202,-0.1419830322265625,-0.9808349609375,-0.10479736328125,0.0143605638295412,-0.014805044978857,-0.023504527285695
1769169557217,-0.1446533203125,-0.9805145263671876,-0.0954437255859375,0.0007470166892744,-0.0072339442558586,-0.0209071468561887
1769169557222,-0.137603759765625,-0.9814605712890624,-0.08648681640625,-0.0140234073624014,0.0010775149567052,-0.0114835500717163
1769169557232,-0.127838134765625,-0.9819488525390624,-0.0863800048828125,-0.0183326676487922,0.0051007522270083,-0.0061503043398261
1769169557242,-0.1329498291015625,-0.9822540283203124,-0.1010284423828125,-0.0085982820019125,0.0097871171310544,-0.0066515109501779
1769169557252,-0.1386871337890625,-0.9874114990234376,-0.111663818359375,0.0011891013709828,0.0137182092294096,-0.0038559909444302
1769169557263,-0.1385040283203125,-0.989471435546875,-0.115203857421875,0.014095046557486,0.0272848848253488,-0.002143578371033
1769169557272,-0.14300537109375,-0.9908905029296876,-0.12347412109375,0.0253772623836994,0.0263114981353282,-0.0033246902748942
1769169557282,-0.144073486328125,-0.9870147705078124,-0.123046875,0.0311033241450786,0.018213091418147,-0.0038935414049774
1769169557292,-0.1480255126953125,-0.982421875,-0.1181793212890625,0.0248081441968679,0.0148841412737965,-0.0052839778363704
1769169557303,-0.155303955078125,-0.977935791015625,-0.1089630126953125,0.0101956455036997,0.0113996611908078,-0.007513309828937
1769169557313,-0.157562255859375,-0.97332763671875,-0.101409912109375,-0.0099948430433869,0.0063055665232241,-0.0106193544343113
1769169557323,-0.1542510986328125,-0.973724365234375,-0.0918426513671875,-0.0358424186706543,-0.0006245112745091,-0.0096811233088374
1769169557333,-0.1480560302734375,-0.975341796875,-0.0871124267578125,-0.0481922961771488,-0.0139794647693634,-0.0144425891339778
1769169557343,-0.1430511474609375,-0.9779205322265624,-0.0950469970703125,-0.0498711541295051,-0.0262656919658184,-0.0139419147744774
1769169557353,-0.135345458984375,-0.9805450439453124,-0.10552978515625,-0.0413519665598869,-0.0312844179570674,-0.0089141326025128
1769169557363,-0.1295623779296875,-0.9857177734375,-0.118499755859375,-0.0217809285968542,-0.0131517546251416,-0.0016077503096312
1769169557373,-0.1281280517578125,-0.987396240234375,-0.127410888671875,0.0008349010022357,0.0183659568428993,0.0091724591329693
1769169557383,-0.132354736328125,-0.985748291015625,-0.1317901611328125,0.019330820068717,0.0474418178200721,0.0155438054352998
1769169557393,-0.1380615234375,-0.982391357421875,-0.12884521484375,0.0277173817157745,0.0846914499998092,0.0186525136232376
1769169557403,-0.146759033203125,-0.982513427734375,-0.1162109375,0.0167467556893825,0.1136823594570159,0.0184525102376937
1769169557413,-0.1466217041015625,-0.9827728271484376,-0.0966339111328125,-0.0141768055036664,0.1099081262946128,0.0195020623505115
1769169557423,-0.146728515625,-0.9841461181640624,-0.0793304443359375,-0.048724927008152,0.0893256217241287,0.0162215810269117
1769169557433,-0.1500396728515625,-0.9896087646484376,-0.0755767822265625,-0.084108754992485,0.0564382411539554,0.014347780495882
1769169557443,-0.141876220703125,-0.9922943115234376,-0.07281494140625,-0.1035098806023597,0.0172402393072843,0.0152093125507235
1769169557453,-0.1403045654296875,-0.988861083984375,-0.0931549072265625,-0.0994826480746269,-0.017478859052062,0.0069148978218436
1769169557463,-0.150360107421875,-0.980987548828125,-0.1206512451171875,-0.0770753398537635,-0.0256992373615503,-0.0034163030795753
1769169557473,-0.154144287109375,-0.9795379638671876,-0.1393280029296875,-0.0481755174696445,-0.0263357330113649,-0.0122087290510535
1769169557484,-0.1440277099609375,-0.9786376953125,-0.1495513916015625,-0.0188828781247138,-0.0125256450846791,-0.0136521626263856
1769169557493,-0.13677978515625,-0.9769287109375,-0.15606689453125,0.0166223868727684,0.0182642247527837,0.0010077401529997
1769169557503,-0.1303253173828125,-0.976531982421875,-0.15447998046875,0.0461653657257556,0.0376293994486331,0.0128252506256103
1769169557514,-0.1362457275390625,-0.974884033203125,-0.150390625,0.068967081606388,0.0381881333887577,0.0160340946167707
1769169557524,-0.144287109375,-0.9825286865234376,-0.13909912109375,0.0759336426854133,0.0330785922706127,0.0230991933494806
1769169557534,-0.1347503662109375,-0.996337890625,-0.1175384521484375,0.0689457803964614,0.0139999715611338,0.0334857888519763
1769169557544,-0.1408538818359375,-0.9936370849609376,-0.105865478515625,0.0672935545444488,0.0089151980355381,0.0184168238192796
1769169557554,-0.1702117919921875,-0.977081298828125,-0.1075286865234375,0.0643036216497421,-0.0015885755419731,-0.0079426113516092
1769169557564,-0.1796875,-0.9652862548828124,-0.1034088134765625,0.051675446331501,-0.0284675937145948,-0.0296721421182155
1769169557574,-0.1731414794921875,-0.9632568359375,-0.0926666259765625,0.0274643804877996,-0.0386089123785495,-0.0438183210790157
1769169557584,-0.15484619140625,-0.9673004150390624,-0.07708740234375,-0.0084321005269885,-0.0338564999401569,-0.0368019565939903
1769169557594,-0.133209228515625,-0.9774169921875,-0.06439208984375,-0.0424278825521469,-0.0174777936190366,-0.021256286650896
1769169557604,-0.1237945556640625,-0.9850616455078124,-0.0615081787109375,-0.0699934661388397,-0.0049023469910025,-0.0096110822632908
1769169557614,-0.1242828369140625,-0.9897308349609376,-0.0718231201171875,-0.0842797234654426,-0.0057798586785793,-0.001669535646215
1769169557624,-0.1298675537109375,-0.98931884765625,-0.0887603759765625,-0.0826882198452949,-0.0033089776989072,0.0026674221735447
1769169557635,-0.1394805908203125,-0.9855804443359376,-0.1152496337890625,-0.0670906230807304,-0.003433879930526,-0.0020687435753643
1769169557644,-0.1479339599609375,-0.98297119140625,-0.13641357421875,-0.0461613684892654,-0.0033920682035386,-0.0082688489928841
1769169557654,-0.153045654296875,-0.9812164306640624,-0.1511993408203125,-0.0234920103102922,-0.0146521795541048,-0.0149097070097923
1769169557664,-0.1479949951171875,-0.9820404052734376,-0.155853271484375,-0.0085522094741463,-0.0191497262567281,-0.0147752175107598
1769169557674,-0.1392822265625,-0.98370361328125,-0.1536102294921875,0.0097639476880431,-0.014895592816174,-0.0104739461094141
1769169557684,-0.1353912353515625,-0.9836273193359376,-0.1498870849609375,0.0260965824127197,-0.0110654346644878,-0.0032610406633466
1769169557694,-0.130218505859375,-0.9817657470703124,-0.140838623046875,0.0382451228797435,0.0032189628109335,0.0078712385147809
1769169557705,-0.1302032470703125,-0.9807891845703124,-0.128021240234375,0.0471059940755367,0.014672951772809,0.0135842524468898
1769169557715,-0.136993408203125,-0.981414794921875,-0.1150054931640625,0.0471502020955085,0.0246358383446931,0.0169922988861799
1769169557725,-0.1400146484375,-0.9826507568359376,-0.102386474609375,0.0356171168386936,0.026772491633892,0.0150204943493008
1769169557735,-0.1416473388671875,-0.9806976318359376,-0.0904998779296875,0.0269466619938612,0.0248803161084651,0.0152167696505784
1769169557745,-0.1409454345703125,-0.9811553955078124,-0.0924530029296875,0.0221098288893699,0.0206837076693773,0.0136974360793828
1769169557755,-0.140655517578125,-0.9823455810546876,-0.095458984375,0.0167579408735036,0.0110888704657554,0.014954182319343
1769169557765,-0.1434326171875,-0.9806671142578124,-0.0989990234375,0.0167547445744276,0.0029617014806717,0.0090736560523509
1769169557775,-0.1492919921875,-0.9803924560546876,-0.1038818359375,0.0067311394959688,-0.0042322957888245,0.0061377873644232
1769169557785,-0.14459228515625,-0.9804534912109376,-0.0991058349609375,-0.0027489147614687,-0.0159539319574832,0.0056562880054116
1769169557795,-0.147979736328125,-0.98291015625,-0.09814453125,-0.0163949523121118,-0.0152348792180418,0.0027555727865546
1769169557805,-0.1502532958984375,-0.9873046875,-0.0926971435546875,-0.0342442579567432,-0.0122172515839338,0.0026479810476303
1769169557815,-0.14447021484375,-0.9922332763671876,-0.0872039794921875,-0.058077685534954,-0.018287394195795,0.004325239919126
1769169557825,-0.1422576904296875,-0.9929962158203124,-0.083465576171875,-0.0753972828388214,-0.0100278668105602,0.0058845207095146
1769169557835,-0.1456756591796875,-0.985748291015625,-0.0930023193359375,-0.0751552060246467,-0.0089093390852212,0.0043793022632598
1769169557845,-0.14910888671875,-0.973358154296875,-0.1114044189453125,-0.0636016130447387,-0.0048778457567095,-0.0002532666258048
1769169557855,-0.1492767333984375,-0.9698028564453124,-0.1252593994140625,-0.0523699969053268,0.0026032398454844,0.0014839133946225
1769169557865,-0.140594482421875,-0.9700164794921876,-0.1334075927734375,-0.0274843554943799,0.0022098910994827,0.0031334753148257
1769169557875,-0.142578125,-0.9708099365234376,-0.14910888671875,0.0108190914615988,0.0064650899730622,0.0031920648179948
1769169557885,-0.144134521484375,-0.9744720458984376,-0.1575927734375,0.036723393946886,0.0218166150152683,0.0056142099201679
1769169557895,-0.1377716064453125,-0.9790802001953124,-0.1485443115234375,0.0574782080948352,0.0302828047424554,0.0171358436346054
1769169557905,-0.13360595703125,-0.986968994140625,-0.137603759765625,0.0608902499079704,0.0297717433422803,0.0239460784941911
1769169557916,-0.135498046875,-0.9902496337890624,-0.11676025390625,0.0451514981687068,0.0282124634832143,0.0260110944509506
1769169557926,-0.1430511474609375,-0.989166259765625,-0.098846435546875,0.019595006480813,0.0148969236761331,0.0235271640121936
1769169557936,-0.149169921875,-0.98516845703125,-0.0857391357421875,-0.0112374741584062,-0.0047422908246517,0.0149824116379022
1769169557946,-0.15447998046875,-0.9789886474609376,-0.0798492431640625,-0.0305350050330162,-0.0183539725840091,0.0062789348885416
1769169557956,-0.15850830078125,-0.9787139892578124,-0.090911865234375,-0.0364437624812126,-0.019519105553627,-0.0014482269762083
1769169557966,-0.1536407470703125,-0.979766845703125,-0.1004486083984375,-0.0355388186872005,-0.022007830440998,0.0002985403698403
1769169557976,-0.1443634033203125,-0.979766845703125,-0.1121368408203125,-0.0225628335028886,-0.0203920900821685,0.0033039175905287
1769169557986,-0.142364501953125,-0.9779815673828124,-0.1215057373046875,-0.01103001460433,-0.0102118914946913,0.0095801893621683
1769169557996,-0.14654541015625,-0.97772216796875,-0.12115478515625,0.0012293151812627,0.0136300586163997,0.0087705887854099
1769169558006,-0.145660400390625,-0.9792938232421876,-0.116302490234375,0.002616822021082,0.0252017602324485,0.0157161131501197
1769169558016,-0.1407623291015625,-0.9821929931640624,-0.109710693359375,-0.0048746499232947,0.0238177143037319,0.0196216385811567
1769169558026,-0.1436767578125,-0.9816741943359376,-0.10107421875,-0.0182146895676851,0.0201468132436275,0.0181736778467893
1769169558036,-0.147552490234375,-0.978546142578125,-0.1038360595703125,-0.0230041183531284,0.0073109096847474,0.0071521853096783
1769169558046,-0.1561279296875,-0.9746551513671876,-0.112640380859375,-0.0190298836678266,-0.0052773198112845,-0.0085351653397083
1769169558056,-0.162841796875,-0.973114013671875,-0.1215057373046875,-0.0151659036055207,-0.0154609819874167,-0.0165616665035486
1769169558071,-0.15509033203125,-0.973480224609375,-0.121185302734375,-0.01174081210047,-0.022750586271286,-0.0213870480656623
1769169558076,-0.1486358642578125,-0.9765625,-0.118377685546875,-0.0124220484867692,-0.0212533567100763,-0.0172700677067041
1769169558086,-0.14251708984375,-0.9808502197265624,-0.1136627197265625,-0.0159150511026382,-0.0161797683686018,-0.006900783162564
1769169558096,-0.135162353515625,-0.9857940673828124,-0.1111297607421875,-0.0162578001618385,-0.0017805894603952,0.0015662050573155
1769169558106,-0.1373748779296875,-0.983184814453125,-0.1155242919921875,-0.0107024451717734,0.0035539884120225,-0.0017957695527002
1769169558116,-0.143035888671875,-0.9790191650390624,-0.11480712890625,-0.0147962570190429,0.0140979755669832,0.0017132115317508
1769169558127,-0.1409454345703125,-0.9801025390625,-0.1106414794921875,-0.019859192892909,0.0152519233524799,0.0016839167801663
1769169558137,-0.1404876708984375,-0.9819488525390624,-0.114227294921875,-0.0219343267381191,0.0049681267701089,-0.0013949638232588
1769169558147,-0.1451263427734375,-0.9813690185546876,-0.1222686767578125,-0.0091285174712538,-0.0005933523061685,-0.00168471573852
1769169558157,-0.1478271484375,-0.97857666015625,-0.1334381103515625,0.0106417257338762,-0.012370117008686,0.0006000102148391
1769169558167,-0.1482391357421875,-0.9822540283203124,-0.1397552490234375,0.0304591059684753,-0.0304420609027147,0.0014263890916481
1769169558177,-0.1425933837890625,-0.9945068359375,-0.1331939697265625,0.039615586400032,-0.0297602917999029,0.0044810348190367
1769169558187,-0.1391754150390625,-0.9983367919921876,-0.1221923828125,0.0472085252404212,-0.0267061796039342,0.0013883059145882
1769169558197,-0.14556884765625,-0.9887542724609376,-0.1140899658203125,0.0483558140695095,-0.0141951814293861,0.0016386429779231
1769169558207,-0.14495849609375,-0.9763641357421876,-0.1046295166015625,0.0416949838399887,-0.0013840447645634,0.0049153962172567
1769169558217,-0.1496124267578125,-0.9655914306640624,-0.091949462890625,0.0218826625496149,0.0190692991018295,0.002707103267312
1769169558227,-0.1551513671875,-0.963470458984375,-0.0798492431640625,-0.0077958712354302,0.0299720130860805,-0.0047324374318122
1769169558237,-0.1616973876953125,-0.9636688232421876,-0.073760986328125,-0.0378951840102672,0.0308796186000108,-0.0122119253501296
1769169558247,-0.157440185546875,-0.9711151123046876,-0.0793609619140625,-0.0572523698210716,0.011819907464087,-0.0158681795001029
1769169558257,-0.151092529296875,-0.980743408203125,-0.093231201171875,-0.0626753643155098,-0.0032929987646639,-0.0163265094161033
1769169558267,-0.1477813720703125,-0.9877166748046876,-0.108795166015625,-0.055607870221138,-0.0159198436886072,-0.0142228780314326
1769169558277,-0.1433563232421875,-0.9866180419921876,-0.1268768310546875,-0.0336809977889061,-0.0279490761458873,-0.0112803513184189
1769169558287,-0.140777587890625,-0.982574462890625,-0.14398193359375,-0.0077242325060069,-0.029640981927514,-0.0133323166519403
1769169558297,-0.14398193359375,-0.983306884765625,-0.15203857421875,0.0174887124449014,-0.0170689988881349,-0.011200456880033
1769169558307,-0.138671875,-0.984771728515625,-0.144805908203125,0.0310540553182363,0.0049550775438547,0.0031012510880827
1769169558317,-0.12567138671875,-0.9887847900390624,-0.1289520263671875,0.0314423441886901,0.0174333192408084,0.0192429367452859
1769169558327,-0.1268463134765625,-0.990753173828125,-0.1118621826171875,0.02481853030622,0.0224448554217815,0.0234504640102386
1769169558337,-0.140594482421875,-0.9908905029296876,-0.1012115478515625,0.0135120805352926,0.0237098559737205,0.0216267313808202
1769169558348,-0.1442108154296875,-0.9891357421875,-0.090576171875,0.0002348908019484,0.019039737060666,0.016471117734909
1769169558358,-0.1488494873046875,-0.9850311279296876,-0.08935546875,-0.0128225879743695,0.0266499873250722,0.0130947632715106
1769169558368,-0.144500732421875,-0.982635498046875,-0.0919342041015625,-0.0196437425911426,0.0206437595188617,0.0153491292148828
1769169558378,-0.1403350830078125,-0.981964111328125,-0.100372314453125,-0.0182386580854654,0.0191198978573083,0.0211058184504508
1769169558388,-0.1381378173828125,-0.9802093505859376,-0.1128997802734375,-0.0159906838089227,0.0061356569640338,0.024248082190752
1769169558398,-0.1446533203125,-0.9782257080078124,-0.1173248291015625,-0.013644971884787,0.0007398261222988,0.022756977006793
1769169558408,-0.147247314453125,-0.9810638427734376,-0.123046875,-0.0101903192698955,-0.0035001926589757,0.0240795034915208
1769169558418,-0.14654541015625,-0.9822845458984376,-0.123779296875,-0.0022104235831648,0.0072011873126029,0.0277943462133407
1769169558428,-0.146240234375,-0.9818115234375,-0.121856689453125,0.0037904770579189,0.0225868020206689,0.0269107092171907
1769169558438,-0.15203857421875,-0.9807891845703124,-0.1204071044921875,0.0112143047153949,0.0255216043442487,0.0229433998465538
1769169558448,-0.15667724609375,-0.9776763916015624,-0.1219024658203125,0.0196932777762413,0.0182343982160091,0.010628942400217
1769169558458,-0.155548095703125,-0.9801483154296876,-0.1214447021484375,0.0229748245328664,0.0075202342122793,0.0080946777015924
1769169558468,-0.1430511474609375,-0.9850921630859376,-0.1173248291015625,0.0285416301339864,0.0031747543253004,0.0075356806628406
1769169558478,-0.1425628662109375,-0.9824066162109376,-0.1157684326171875,0.0326753892004489,0.011396731249988,0.0109170963987708
1769169558489,-0.142974853515625,-0.978179931640625,-0.114044189453125,0.0366285853087902,0.0120625216513872,0.0172516908496618
1769169558498,-0.1466827392578125,-0.97247314453125,-0.111663818359375,0.038995336741209,0.0151901384815573,0.0152758918702602
1769169558508,-0.1550445556640625,-0.9681396484375,-0.1057891845703125,0.0238661840558052,0.0152399390935897,0.0133560188114643
1769169558518,-0.15667724609375,-0.96868896484375,-0.09259033203125,0.0031430625822395,0.0170277189463377,0.0100012347102165
1769169558528,-0.1621246337890625,-0.96929931640625,-0.089202880859375,-0.0172253251075744,0.0246329084038734,0.0028165590483695
1769169558538,-0.1614990234375,-0.973175048828125,-0.09124755859375,-0.0205920934677124,0.0155856171622872,-0.0001134506601374
1769169558549,-0.15966796875,-0.979248046875,-0.103363037109375,-0.0136886481195688,0.0048626656644046,-0.0058078216388821
1769169558558,-0.152496337890625,-0.9832305908203124,-0.1142425537109375,0.0005395564367063,1.304948909819359e-05,-0.0038306908681988
1769169558569,-0.145751953125,-0.985015869140625,-0.12274169921875,0.0202818363904953,-0.0045215147547423,-0.0039358856156468
1769169558579,-0.14312744140625,-0.9871368408203124,-0.12677001953125,0.0341142937541008,-0.0076302229426801,0.0004042678629048
1769169558589,-0.14373779296875,-0.986236572265625,-0.1198883056640625,0.0366879738867282,0.0058493670076131,0.0055140750482678
1769169558599,-0.1441192626953125,-0.9832000732421876,-0.1092987060546875,0.0256177447736263,0.0206775814294815,0.0105482479557394
1769169558609,-0.1448822021484375,-0.980224609375,-0.0946044921875,-0.0022437132429331,0.0359103307127952,0.0171432998031377
1769169558619,-0.1472015380859375,-0.977569580078125,-0.0827178955078125,-0.0319965481758117,0.0404475592076778,0.0168330427259206
1769169558629,-0.156219482421875,-0.976715087890625,-0.082427978515625,-0.0516576021909713,0.0243609994649887,0.0088038779795169
1769169558639,-0.1627197265625,-0.97479248046875,-0.0912628173828125,-0.0671052709221839,0.0051185954362154,0.0008386294357478
1769169558649,-0.1642913818359375,-0.97760009765625,-0.0996856689453125,-0.063817597925663,-0.0171475615352392,-0.0091911014169454
1769169558659,-0.168243408203125,-0.97857666015625,-0.117584228515625,-0.043961863964796,-0.0318732447922229,-0.0175257306545972
1769169558669,-0.160736083984375,-0.9788818359375,-0.132720947265625,-0.0178959090262651,-0.0271099135279655,-0.0128444256260991
1769169558679,-0.150604248046875,-0.980255126953125,-0.1376800537109375,0.0108792791143059,-0.0121067306026816,-0.0064555024728178
1769169558689,-0.146453857421875,-0.9785003662109376,-0.136260986328125,0.0261639598757028,0.0071503212675452,0.0008926916052587
1769169558699,-0.145660400390625,-0.977294921875,-0.12664794921875,0.0352096520364284,0.0167470220476388,-0.0011273160343989
1769169558709,-0.15264892578125,-0.97503662109375,-0.11944580078125,0.0339734144508838,0.0127456225454807,-0.0112534537911415
1769169558719,-0.155517578125,-0.972259521484375,-0.1047821044921875,0.0171265229582786,0.0145626971498131,-0.0139882536605
1769169558729,-0.1512908935546875,-0.9756927490234376,-0.087493896484375,-0.0128857046365737,0.0024676851462572,-0.0133395073935389
1769169558739,-0.148773193359375,-0.9854736328125,-0.07391357421875,-0.0529921129345893,-0.0118830250576138,-0.0079498020932078
1769169558749,-0.1419219970703125,-0.98956298828125,-0.066558837890625,-0.0832879692316055,-0.0222525745630264,-0.0069090388715267
1769169558759,-0.1530914306640625,-0.982177734375,-0.074371337890625,-0.0995761230587959,-0.025997245684266,-0.0207646675407886
1769169558769,-0.16461181640625,-0.97320556640625,-0.093719482421875,-0.10938161611557,-0.0319099947810173,-0.0307991914451122
1769169558780,-0.1590728759765625,-0.9689483642578124,-0.103424072265625,-0.1128628998994827,-0.0352775640785694,-0.0346967279911041
1769169558790,-0.1524505615234375,-0.966705322265625,-0.12091064453125,-0.0965097621083259,-0.0328378416597843,-0.0426052510738372
1769169558800,-0.155609130859375,-0.9664459228515624,-0.14306640625,-0.0656085684895515,-0.0174743309617042,-0.0470210388302803
1769169558810,-0.147857666015625,-0.97283935546875,-0.1580047607421875,-0.0274619851261377,0.0005281048361212,-0.0394315607845783
1769169558820,-0.1341094970703125,-0.9814910888671876,-0.164276123046875,0.0112222945317626,0.0131040839478373,-0.0247665997594594
1769169558830,-0.11865234375,-1.0008087158203125,-0.1639251708984375,0.0391159765422344,0.0144907915964722,-0.0031702269334346
1769169558840,-0.10858154296875,-1.0103912353515625,-0.1509552001953125,0.0577269457280635,0.0329030901193618,0.0106715522706508
1769169558850,-0.124114990234375,-1.0001983642578125,-0.14385986328125,0.0766923800110817,0.0498834028840065,0.0090025495737791
1769169558860,-0.1434326171875,-0.98388671875,-0.1395263671875,0.0853231549263,0.0370887778699398,0.0052972938865423
1769169558870,-0.14739990234375,-0.97601318359375,-0.127838134765625,0.0770910531282424,0.0122675849124789,0.0004817658336833
1769169558880,-0.1558685302734375,-0.971099853515625,-0.1107025146484375,0.0621728263795375,-0.0048669269308447,-0.0155704375356435
1769169558890,-0.165618896484375,-0.9680633544921876,-0.0950469970703125,0.0354115217924118,-0.0137280626222491,-0.0253351833671331
1769169558900,-0.1634979248046875,-0.9725341796875,-0.078125,0.0079213064163923,-0.0197231043130159,-0.0273882150650024
1769169558910,-0.1512298583984375,-0.98040771484375,-0.07269287109375,-0.0161323640495538,-0.0207060780376195,-0.0272238980978727
1769169558920,-0.1483154296875,-0.98638916015625,-0.0723724365234375,-0.0346799492835998,-0.0063329972326755,-0.0215628165751695
1769169558930,-0.1382904052734375,-0.988861083984375,-0.0782928466796875,-0.0452423132956028,0.0118177775293588,-0.0119975404813885
1769169558940,-0.1368560791015625,-0.9852447509765624,-0.0899658203125,-0.040440633893013,0.026128539815545,-0.0082265045493841
1769169558950,-0.1431427001953125,-0.9842071533203124,-0.1069793701171875,-0.0360927581787109,0.0349601134657859,-0.0060712085105478
1769169558960,-0.1410675048828125,-0.9815826416015624,-0.1152496337890625,-0.0349401421844959,0.038399588316679,-0.0048991511575877
1769169558970,-0.14373779296875,-0.9812164306640624,-0.1222991943359375,-0.030171750113368,0.0273788943886756,-0.0060336575843393
1769169558981,-0.1427154541015625,-0.979034423828125,-0.1266326904296875,-0.0201793033629655,0.0131131391972303,-0.0081356903538107
1769169558991,-0.148193359375,-0.9757080078125,-0.1377105712890625,0.0039385487325489,0.0031475899741053,-0.0163539387285709
1769169559001,-0.1509857177734375,-0.9795684814453124,-0.1414031982421875,0.0155616486445069,-0.0028330706991255,-0.0156833548098802
1769169559011,-0.1469879150390625,-0.979766845703125,-0.1286773681640625,0.01697339117527,-0.0013938985066488,-0.0162127912044525
1769169559021,-0.1429901123046875,-0.982330322265625,-0.117828369140625,0.0120212426409125,0.0037390780635178,-0.013006879016757
1769169559031,-0.1417388916015625,-0.98284912109375,-0.11248779296875,0.0128055438399314,0.0169177316129207,-0.0121144531294703
1769169559041,-0.1385345458984375,-0.9830169677734376,-0.1111907958984375,0.0103826001286506,0.022537799552083,-0.0052709286101162
1769169559051,-0.133758544921875,-0.9842071533203124,-0.104827880859375,0.0075189024209976,0.0237042643129825,-0.0004167847218923
1769169559061,-0.1347198486328125,-0.98748779296875,-0.1057281494140625,0.0048631983809173,0.0246283803135156,0.0011198592837899
1769169559071,-0.1386260986328125,-0.9848785400390624,-0.1064605712890625,0.00894396007061,0.0285972896963357,0.0006178533658385
1769169559081,-0.1427459716796875,-0.9839019775390624,-0.111480712890625,0.0135640120133757,0.0220547020435333,-0.0007731156656518
1769169559091,-0.145660400390625,-0.980621337890625,-0.1197052001953125,0.0208698622882366,0.0065345983020961,-0.0055156727321445
1769169559101,-0.15228271484375,-0.981597900390625,-0.1226043701171875,0.0256417132914066,-0.0045473473146557,-0.0067926584742963
1769169559111,-0.1485137939453125,-0.9837188720703124,-0.11602783203125,0.0184597000479698,-0.002250104676932,-0.0075577846728265
1769169559121,-0.144378662109375,-0.988128662109375,-0.1056976318359375,-0.0038868836127221,-0.0006178533658385,0.0002748382103163
1769169559131,-0.1353759765625,-0.9863433837890624,-0.092010498046875,-0.0212030224502086,0.0083069317042827,0.0079426113516092
1769169559141,-0.1433563232421875,-0.9795989990234376,-0.0958404541015625,-0.0282183215022087,0.0201968811452388,0.0023190807551145
1769169559151,-0.1510162353515625,-0.975128173828125,-0.1036834716796875,-0.0322482176125049,0.018899654969573,0.0003885551996063
1769169559161,-0.144378662109375,-0.9765472412109376,-0.1031646728515625,-0.0394760370254516,0.0101093593984842,-0.0023925839923322
1769169559171,-0.14990234375,-0.9760284423828124,-0.106964111328125,-0.0342120341956615,0.0068560419604182,-0.0123916883021593
1769169559182,-0.15692138671875,-0.9737091064453124,-0.122344970703125,-0.0157478041946887,0.0075540565885603,-0.0226925294846296
1769169559192,-0.149749755859375,-0.9748687744140624,-0.136016845703125,0.0058437744155526,-0.0002021339314524,-0.0231127757579088
1769169559202,-0.139984130859375,-0.976715087890625,-0.1414947509765625,0.0291941035538911,0.0053481599316,-0.0185651630163192
1769169559212,-0.137908935546875,-0.9813232421875,-0.1417999267578125,0.0463720262050628,0.0146154277026653,-0.0121064642444252
1769169559222,-0.1336822509765625,-0.983367919921875,-0.132598876953125,0.0460417941212654,0.0303160939365625,0.0006239786162041
1769169559232,-0.12701416015625,-0.9864044189453124,-0.1171417236328125,0.0369524247944355,0.0271591823548078,0.0138321919366717
1769169559242,-0.1337432861328125,-0.9910430908203124,-0.1020965576171875,0.027622040361166,0.0245972219854593,0.0087407613173127
1769169559252,-0.1463165283203125,-0.9922637939453124,-0.09771728515625,0.0117051256820559,0.0152564505115151,0.003713778220117
1769169559262,-0.139373779296875,-0.9924163818359376,-0.0876312255859375,-0.0092499572783708,0.0054166032932698,0.0050807786174118
1769169559272,-0.1413421630859375,-0.9873199462890624,-0.087127685546875,-0.0147509826347231,0.004275971557945,-0.004063184838742
1769169559282,-0.1518096923828125,-0.9805755615234376,-0.1009521484375,-0.0147350039333105,-0.003573429537937,-0.0108787463977932
1769169559292,-0.1544036865234375,-0.977569580078125,-0.1090545654296875,-0.0055295214988291,-0.0071300812996923,-0.016414925456047
1769169559302,-0.15087890625,-0.979156494140625,-0.118408203125,-0.0027848675381392,-0.0071916002780199,-0.0129128694534301
1769169559312,-0.1426544189453125,-0.97772216796875,-0.1157684326171875,-0.0006916229031048,0.0060166134499013,-0.0060195429250597
1769169559322,-0.136962890625,-0.9788818359375,-0.113616943359375,-0.0012471582740545,0.0098281297832727,0.0015233281301334
1769169559332,-0.1344451904296875,-0.97698974609375,-0.1130218505859375,-0.0023276028223335,0.0191214960068464,0.011339739896357
1769169559342,-0.1380462646484375,-0.9777984619140624,-0.1131744384765625,0.0022786005865782,0.0204493477940559,0.0086989495903253
1769169559352,-0.146484375,-0.9808502197265624,-0.1189727783203125,0.003614974906668,0.0150196962058544,0.0011459582019597
1769169559362,-0.1513214111328125,-0.9800567626953124,-0.1136932373046875,0.0069109029136598,0.0123962154611945,-0.0053742588497698
1769169559372,-0.1554107666015625,-0.9782562255859376,-0.1183624267578125,0.0174442380666732,0.0091831116005778,-0.0209015533328056
1769169559382,-0.1593017578125,-0.9759521484375,-0.11944580078125,0.0221812017261981,0.0100342584773898,-0.0273101832717657
1769169559392,-0.1557464599609375,-0.974639892578125,-0.113037109375,0.0230192989110946,0.0095367794856429,-0.0324881672859191
1769169559403,-0.1479949951171875,-0.9802398681640624,-0.1038970947265625,0.0129634691402316,-0.0039755669422447,-0.0237700436264276
1769169559412,-0.13037109375,-0.9865264892578124,-0.094146728515625,-0.0061822622083127,0.0004237089306116,-0.005763613153249
1769169559423,-0.1262359619140625,-0.98663330078125,-0.090240478515625,-0.0130438962951302,0.0113895405083894,-0.0037958035245537
1769169559433,-0.137451171875,-0.9790496826171876,-0.09747314453125,-0.0271599814295768,0.0182751435786485,-0.0032581111881881
1769169559443,-0.1460113525390625,-0.973785400390625,-0.09649658203125,-0.0430108495056629,0.0169736575335264,-0.0057700048200786
1769169559453,-0.1468353271484375,-0.9774627685546876,-0.095916748046875,-0.0549460723996162,0.0020628846250474,-0.0159350242465734
1769169559463,-0.150909423828125,-0.9825897216796876,-0.1030120849609375,-0.0530448406934738,-0.0097527625039219,-0.0262632947415113
1769169559473,-0.151336669921875,-0.9851837158203124,-0.115509033203125,-0.0443301796913147,-0.0060704094357788,-0.0334021635353565
1769169559483,-0.1429443359375,-0.985107421875,-0.12225341796875,-0.036760676652193,-0.011700065806508,-0.0254118833690881
1769169559493,-0.129486083984375,-0.98577880859375,-0.125518798828125,-0.0207377690821886,-0.010471548885107,-0.0170812495052814
1769169559503,-0.130828857421875,-0.99017333984375,-0.1341705322265625,0.0047838361933827,-0.0107636982575058,-0.0054877097718417
1769169559513,-0.12274169921875,-0.9983062744140624,-0.1379852294921875,0.0200490746647119,-0.0038432078436017,0.0039715720340609
1769169559523,-0.1257171630859375,-0.9960174560546876,-0.1281890869140625,0.0296873208135366,0.0164761785417795,0.0035747610963881
1769169559533,-0.1413726806640625,-0.9791717529296876,-0.1213531494140625,0.0317872241139411,0.0320079997181892,0.0007435545558109
1769169559543,-0.1487579345703125,-0.9662933349609376,-0.1121673583984375,0.0263479836285114,0.0374408476054668,-0.0048821070231497
1769169559553,-0.1527099609375,-0.964569091796875,-0.10455322265625,0.0158274322748184,0.0296425800770521,-0.0172429028898477
1769169559563,-0.1497650146484375,-0.969024658203125,-0.0963134765625,-0.0085247782990336,0.0147765493020415,-0.0233332850039005
1769169559573,-0.14093017578125,-0.9761962890625,-0.0919189453125,-0.0294423103332519,0.0008535431115888,-0.0189870074391365
1769169559583,-0.13189697265625,-0.9838409423828124,-0.094573974609375,-0.0376395210623741,-0.0045809033326804,-0.0120585272088646
1769169559593,-0.1323089599609375,-0.9898223876953124,-0.105255126953125,-0.0307515207678079,0.0024844629224389,-0.0069047776050865
1769169559604,-0.135040283203125,-0.99249267578125,-0.11895751953125,-0.0210458971560001,-0.0032514533959329,-0.0056853163987398
1769169559614,-0.134307861328125,-0.9908294677734376,-0.1265411376953125,-0.0065748118795454,-0.0030378678347915,-0.0057383133098483
1769169559624,-0.1424102783203125,-0.9847259521484376,-0.130645751953125,0.0070919981226325,0.0036682379432022,-0.0073364758864045
1769169559634,-0.1439361572265625,-0.982330322265625,-0.1312255859375,0.0150527190417051,0.0085053378716111,-0.0048480182886123
1769169559644,-0.1395263671875,-0.98199462890625,-0.1280670166015625,0.0177126843482255,0.010774883441627,-0.0014703312190249
1769169559654,-0.137939453125,-0.9791412353515624,-0.1235198974609375,0.0238488744944334,0.0194586534053087,0.002380599733442
1769169559664,-0.13922119140625,-0.9780426025390624,-0.123138427734375,0.0315145179629325,0.0259503740817308,0.0015070828376337
1769169559674,-0.1444854736328125,-0.9822845458984376,-0.1216583251953125,0.0378057025372982,0.0292239319533109,-0.0009859022684395
1769169559684,-0.138458251953125,-0.985748291015625,-0.1132965087890625,0.0397609956562519,0.0205750502645969,0.0002524676674511
1769169559694,-0.13201904296875,-0.9871673583984376,-0.1029815673828125,0.0316359549760818,0.0211849138140678,0.0071226241998374
1769169559704,-0.1354217529296875,-0.9847869873046876,-0.090576171875,0.0143030388280749,0.0138465734198689,0.0038799594622105
1769169559714,-0.141815185546875,-0.9819488525390624,-0.085296630859375,-0.0033635725267231,0.0007512777228839,-0.003092196304351
1769169559724,-0.14984130859375,-0.9803009033203124,-0.0844879150390625,-0.0210200641304254,-0.0094614122062921,-0.013602627441287
1769169559734,-0.151458740234375,-0.9793853759765624,-0.087493896484375,-0.0363095365464687,-0.0133080817759037,-0.0193872805684804
1769169559744,-0.1464996337890625,-0.9804229736328124,-0.08795166015625,-0.0490064248442649,-0.0076310215517878,-0.017536649480462
1769169559754,-0.14117431640625,-0.9813995361328124,-0.0922698974609375,-0.0596625320613384,0.006287723314017,-0.0150620397180318
1769169559764,-0.141448974609375,-0.979736328125,-0.09893798828125,-0.0598537474870681,0.0113546531647443,-0.0128369685262441
1769169559774,-0.139404296875,-0.977386474609375,-0.1129913330078125,-0.052113801240921,0.0072262212634086,-0.0088909631595015
1769169559784,-0.1343231201171875,-0.9815216064453124,-0.124114990234375,-0.0397194512188434,-0.0003030677326023,-0.0075098481029272
1769169559794,-0.129730224609375,-0.9877777099609376,-0.1307830810546875,-0.0278856940567493,-0.0117951408028602,-0.0008492820779792
1769169559804,-0.12933349609375,-0.991729736328125,-0.1308135986328125,-0.0146156940609216,-0.0134809212759137,-0.0010229201288893
1769169559814,-0.1373748779296875,-0.984100341796875,-0.1340179443359375,-0.0034799524582922,-0.0076712355948984,-0.0032743564806878
1769169559825,-0.1420745849609375,-0.9803924560546876,-0.1324005126953125,0.0046099317260086,-0.005167331546545,-0.0035385421942919
1769169559835,-0.1370391845703125,-0.9781341552734376,-0.13067626953125,0.0108441254124045,0.003156644757837,-0.0037113812286406
1769169559845,-0.1399078369140625,-0.9776611328125,-0.1255340576171875,0.0171678010374307,0.0241301041096448,-0.0066674901172518
1769169559855,-0.1407318115234375,-0.9782562255859376,-0.1248626708984375,0.025840651243925,0.0220626909285783,-0.0066003785468637
1769169559865,-0.13592529296875,-0.9823150634765624,-0.124053955078125,0.0326740555465221,0.0237119868397712,-0.003540406236425
1769169559875,-0.1325836181640625,-0.9828338623046876,-0.1198883056640625,0.0379042401909828,0.0264286771416664,-4.740426811622456e-05
1769169559885,-0.1356201171875,-0.9836883544921876,-0.1154937744140625,0.039420910179615,0.0165483504533767,-0.0033696976024657
1769169559895,-0.1389617919921875,-0.981964111328125,-0.1109466552734375,0.0393428802490234,0.008648881688714,-0.0036421390250325
1769169559905,-0.138092041015625,-0.9835968017578124,-0.1028900146484375,0.0262529086321592,0.0031398669816553,-0.0002476739755365
1769169559915,-0.1369171142578125,-0.9859466552734376,-0.090789794921875,0.0097841871902346,-0.0055881110019981,0.001652757753618
1769169559925,-0.1355743408203125,-0.9856719970703124,-0.0869598388671875,-0.0090843085199594,-0.0228424649685621,0.0018064221367239
1769169559935,-0.1421051025390625,-0.983642578125,-0.0863037109375,-0.0280220471322536,-0.0214600190520286,-0.0006415555253624
1769169559945,-0.14398193359375,-0.983062744140625,-0.085296630859375,-0.0480764470994472,-0.0089058773592114,-0.002887399168685
1769169559955,-0.143798828125,-0.9813995361328124,-0.0880126953125,-0.0590031333267688,0.00836365763098,-0.0036258937325328
1769169559965,-0.142730712890625,-0.979583740234375,-0.10064697265625,-0.0579088404774665,0.012891030870378,-0.0066126291640102
1769169559975,-0.14105224609375,-0.979827880859375,-0.118682861328125,-0.042578887194395,0.0066115637309849,-0.0082342280074954
1769169559985,-0.13934326171875,-0.9818572998046876,-0.1326446533203125,-0.0180319976061582,0.0075077172368764,-0.0071543157100677
1769169559995,-0.13671875,-0.984710693359375,-0.143280029296875,0.0093253245577216,0.006811833474785,-0.003776895115152
1769169560005,-0.1300506591796875,-0.9830780029296876,-0.14862060546875,0.0388715006411075,0.0069881347008049,0.0047729173675179
1769169560015,-0.1298980712890625,-0.9821929931640624,-0.149017333984375,0.0592529363930225,0.0133371111005544,0.0085655245929956
1769169560026,-0.1307373046875,-0.9816741943359376,-0.1381378173828125,0.0716659277677536,0.0193297564983367,0.0137248672544956
1769169560036,-0.1334991455078125,-0.9794921875,-0.1243896484375,0.066081017255783,0.0285919643938541,0.0181856621056795
1769169560046,-0.1372833251953125,-0.979705810546875,-0.1049346923828125,0.0483102761209011,0.0282398927956819,0.0139110218733549
1769169560056,-0.145843505859375,-0.98138427734375,-0.0889739990234375,0.0243133287876844,0.0196019299328327,0.003075684653595
1769169560066,-0.1549072265625,-0.97930908203125,-0.0806732177734375,0.0049348375760018,0.0082163847982883,-0.0148378014564514
1769169560076,-0.15643310546875,-0.9795684814453124,-0.0803070068359375,-0.0110710272565484,0.0014711301773786,-0.0239506065845489
1769169560086,-0.1479339599609375,-0.98089599609375,-0.0834197998046875,-0.0292809233069419,-0.0031166973058134,-0.0189630389213562
1769169560096,-0.1324462890625,-0.986358642578125,-0.084808349609375,-0.0356797017157077,-0.0075838835909962,-0.0098414458334445
1769169560106,-0.1311798095703125,-0.98870849609375,-0.0963287353515625,-0.0363217890262603,-0.0092528872191905,-0.0040093888528645
1769169560116,-0.13519287109375,-0.983856201171875,-0.1062774658203125,-0.0344306789338588,-0.0009632653673179,-0.0013709953054785
1769169560126,-0.1378021240234375,-0.97991943359375,-0.11572265625,-0.0276875533163547,0.0084797712042927,-0.0048072719946503
1769169560136,-0.141326904296875,-0.9777069091796876,-0.124114990234375,-0.0184189546853303,0.0078009315766394,-0.010390056297183
1769169560146,-0.1419830322265625,-0.979522705078125,-0.1290283203125,-0.0091836443170905,0.0068342038430273,-0.0142921200022101
1769169560156,-0.1368408203125,-0.9815673828125,-0.1290740966796875,-4.793690095539205e-05,0.0120020676404237,-0.0146543104201555
1769169560166,-0.134002685546875,-0.982269287109375,-0.129119873046875,0.0093389069661498,0.0046956855803728,-0.0069604376330971
1769169560176,-0.13018798828125,-0.98358154296875,-0.124847412109375,0.0140226082876324,-0.0060898503288626,-0.006876281928271
1769169560186,-0.135284423828125,-0.9799957275390624,-0.1207275390625,0.0262529086321592,8.229167724493891e-05,-0.0045920885168015
1769169560196,-0.1343536376953125,-0.9899139404296876,-0.1200103759765625,0.0319262407720088,-0.0018429075134918,0.0061931810341775
1769169560206,-0.1198272705078125,-0.9997406005859376,-0.1085357666015625,0.0277658514678478,0.0007398261222988,0.0194863490760326
1769169560216,-0.1252899169921875,-0.9918060302734376,-0.1006927490234375,0.0290201995521783,0.0204560067504644,0.0127512151375412
1769169560227,-0.1506195068359375,-0.976226806640625,-0.1013336181640625,0.0247026830911636,0.0204339027404785,0.0025137576740235
1769169560237,-0.1544036865234375,-0.968597412109375,-0.097412109375,0.01277039013803,0.0209345761686563,-0.0062965117394924
1769169560247,-0.15093994140625,-0.9698333740234376,-0.0953826904296875,-0.0024988439399749,0.0203606653958559,-0.0135570876300334
1769169560257,-0.146392822265625,-0.972564697265625,-0.0919647216796875,-0.0133474972099065,0.0153661733493208,-0.0167241189628839
1769169560267,-0.1379547119140625,-0.9815521240234376,-0.097015380859375,-0.0195814240723848,0.0076600504107773,-0.0139240715652704
1769169560277,-0.132659912109375,-0.9876708984375,-0.1021881103515625,-0.0191481281071901,-0.002069808775559,-0.0096425069496035
1769169560287,-0.1324310302734375,-0.9923095703125,-0.107940673828125,-0.023779897019267,-0.0091362399980425,-0.0106505136936903
1769169560297,-0.1402435302734375,-0.9894256591796876,-0.107513427734375,-0.0281120613217353,-0.0146242165938019,-0.0148327415809035
1769169560307,-0.14373779296875,-0.9845123291015624,-0.1087188720703125,-0.0386227592825889,-0.0273919440805912,-0.0208629369735717
1769169560317,-0.1450653076171875,-0.9790802001953124,-0.1082916259765625,-0.0465491265058517,-0.0287677329033613,-0.0262305382639169
1769169560327,-0.143035888671875,-0.9788665771484376,-0.1080322265625,-0.0528717376291751,-0.0155797582119703,-0.0251586157828569
1769169560337,-0.1352386474609375,-0.9792633056640624,-0.113525390625,-0.0478016100823879,-0.0039092539809644,-0.0194386783987283
1769169560347,-0.127685546875,-0.9801788330078124,-0.123779296875,-0.0258752722293138,0.0117866182699799,-0.0143701508641242
1769169560357,-0.12841796875,-0.9805908203125,-0.139801025390625,0.0022234732750803,0.0252347830682992,-0.0101727424189448
1769169560367,-0.1287384033203125,-0.983367919921875,-0.1436004638671875,0.0337771363556385,0.023154055699706,-0.0041819619946181
1769169560377,-0.12957763671875,-0.987152099609375,-0.142730712890625,0.0558195896446704,0.0166532788425683,-0.0055154063738882
1769169560387,-0.134613037109375,-0.988525390625,-0.1353302001953125,0.0692094340920448,0.0098574245348572,-0.0070563117042183
1769169560397,-0.13494873046875,-0.990386962890625,-0.1178436279296875,0.069252572953701,0.0097306575626134,-0.0052986252121627
1769169560407,-0.132537841796875,-0.9895782470703124,-0.1036529541015625,0.0566017590463161,0.0062728095799684,-0.0044743767939507
1769169560417,-0.1318206787109375,-0.9875640869140624,-0.091064453125,0.0356698483228683,0.0010420948965474,-0.0012724583502858
1769169560427,-0.1341094970703125,-0.9855499267578124,-0.080322265625,0.0084054693579673,-0.0025254755746573,-0.0032410670537501
1769169560437,-0.13775634765625,-0.9835357666015624,-0.0732879638671875,-0.0159675143659114,-0.0087953554466366,-0.0044309673830866
1769169560448,-0.14495849609375,-0.9820404052734376,-0.069549560546875,-0.0387798845767974,-0.0025651566684246,-0.0106108328327536
1769169560458,-0.1497650146484375,-0.980194091796875,-0.0715484619140625,-0.0596060715615749,0.0037830201908946,-0.0127717219293117
1769169560468,-0.1458740234375,-0.9798736572265624,-0.076690673828125,-0.0684946402907371,-0.001112935016863,-0.0187417306005954
1769169560478,-0.141448974609375,-0.983642578125,-0.0918426513671875,-0.0676717236638069,-0.0030591732356697,-0.0180580969899892
1769169560488,-0.129486083984375,-0.9888153076171876,-0.1035003662109375,-0.0710784345865249,-0.0085974829271435,-0.0071527180261909
1769169560498,-0.119140625,-0.9868927001953124,-0.1163787841796875,-0.0528128817677497,-0.0011957592796534,-0.0055162054486572
1769169560508,-0.1307220458984375,-0.9806060791015624,-0.142547607421875,-0.0234565902501344,0.0024477113038301,-0.0069788135588169
1769169560518,-0.130523681640625,-0.9791259765625,-0.153839111328125,0.0028184233233332,0.006221676710993,-0.0025542378425598
1769169560528,-0.12841796875,-0.982147216796875,-0.1508026123046875,0.0172634087502956,0.0102015044540166,0.0013582120882347
1769169560538,-0.1287841796875,-0.982208251953125,-0.137298583984375,0.0203550718724727,0.0096678072586655,0.0055297878570854
1769169560548,-0.13116455078125,-0.982696533203125,-0.123779296875,0.0152396727353334,0.0031688953749835,0.0022407837677747
1769169560558,-0.1382904052734375,-0.9817047119140624,-0.11212158203125,0.0025872609112411,-0.0064065004698932,-0.0049044773913919
1769169560568,-0.1432037353515625,-0.9840087890625,-0.101226806640625,-0.0087522128596901,-0.0160042662173509,-0.0109445266425609
1769169560578,-0.1421051025390625,-0.9864501953125,-0.0970306396484375,-0.0187252182513475,-0.0201441496610641,-0.0129996882751584
1769169560588,-0.1341552734375,-0.98626708984375,-0.098785400390625,-0.025758359581232,-0.0176250655204057,-0.0045912899076938
1769169560598,-0.1274871826171875,-0.9882049560546876,-0.0995635986328125,-0.0292620155960321,-0.0043540019541978,0.003460245206952
1769169560608,-0.122589111328125,-0.9882965087890624,-0.1032867431640625,-0.0295941103249788,-0.0045111286453902,0.0115530593320727
1769169560618,-0.12542724609375,-0.9844970703125,-0.10968017578125,-0.0212967656552791,-0.0055356468074023,0.0132353780791163
1769169560628,-0.1323089599609375,-0.9821014404296876,-0.1215972900390625,-0.0118811605498194,-0.0077165090478956,0.0099016325548291
1769169560638,-0.1348419189453125,-0.983306884765625,-0.1248626708984375,-0.0002708434767555,0.0023363912478089,0.0098462393507361
1769169560648,-0.133392333984375,-0.982879638671875,-0.1235809326171875,0.0131261879578232,0.01016182359308,0.0167369022965431
1769169560658,-0.1338653564453125,-0.9824676513671876,-0.1242523193359375,0.0213979668915271,0.0095138764008879,0.018098309636116
1769169560669,-0.135711669921875,-0.9797821044921876,-0.1196746826171875,0.0266686286777257,0.0021861889399588,0.0158860217779874
1769169560678,-0.13922119140625,-0.9778900146484376,-0.1184539794921875,0.0307675004005432,-0.0115682389587163,0.0104563692584633
1769169560689,-0.144378662109375,-0.9779052734375,-0.117462158203125,0.0259615592658519,-0.0208237897604703,0.0051553472876548
1769169560699,-0.147186279296875,-0.9796142578125,-0.10870361328125,0.0230102445930242,-0.0141445808112621,-0.001104679191485
1769169560709,-0.144622802734375,-0.9802398681640624,-0.1019134521484375,0.011700065806508,-0.008453139103949,0.000303866690956
1769169560719,-0.13897705078125,-0.97943115234375,-0.0949554443359375,-0.0006849650526419,0.0113139068707823,0.0061463094316422
1769169560729,-0.1338348388671875,-0.976715087890625,-0.0888519287109375,-0.0145903946831822,0.0231444668024778,0.007898136973381
1769169560739,-0.1367340087890625,-0.9752655029296876,-0.0905609130859375,-0.0244289096444845,0.0166175924241542,0.0060456418432295
1769169560749,-0.141143798828125,-0.9779510498046876,-0.093414306640625,-0.0294620189815759,0.0092217279598116,-0.0008889631717465
1769169560759,-0.1411285400390625,-0.980712890625,-0.1006317138671875,-0.0306157004088163,0.0056954361498355,-0.0053822486661374
1769169560769,-0.1417083740234375,-0.9838714599609376,-0.109527587890625,-0.0218094252049922,-0.0095476983115077,-0.0103722130879759
1769169560779,-0.13836669921875,-0.989410400390625,-0.1181488037109375,-0.0130905015394091,-0.0115128457546234,-0.0067929248325526
1769169560789,-0.131256103515625,-0.9947509765625,-0.120452880859375,-0.0088667282834649,-0.0108835399150848,-0.0005187837523408
1769169560799,-0.1280059814453125,-0.9904327392578124,-0.1172637939453125,-0.0098931109532713,-0.0115330852568149,0.00211135414429
1769169560809,-0.1324462890625,-0.987579345703125,-0.1164703369140625,-0.0111770210787653,-0.0008356999605894,0.0024490428622812
1769169560819,-0.1329498291015625,-0.98480224609375,-0.113739013671875,-0.0179731417447328,0.0022820627782493,0.0015486282063648
1769169560829,-0.1319122314453125,-0.9833221435546876,-0.1096649169921875,-0.0244890972971916,0.0019475696608424,0.0040474720299243
1769169560839,-0.1368560791015625,-0.9771270751953124,-0.1124725341796875,-0.0187696926295757,0.0021603561472147,-0.0007853662245906
1769169560849,-0.14569091796875,-0.9705352783203124,-0.1193695068359375,-0.0082214446738362,0.0005187837523408,-0.0035657063126564
1769169560859,-0.1411285400390625,-0.9759674072265624,-0.12066650390625,-0.0024732777383178,-0.0120161827653646,0.0039135152474045
1769169560870,-0.1301727294921875,-0.986785888671875,-0.1188201904296875,0.0134713342413306,-0.0128308441489934,0.0042512039653956
1769169560880,-0.1310272216796875,-0.9927215576171876,-0.12347412109375,0.0250680688768625,-0.0039060583803802,0.0043028695508837
1769169560890,-0.1283721923828125,-0.9917144775390624,-0.1232757568359375,0.0363979563117027,0.0087484838441014,0.0126912938430905
1769169560900,-0.1276092529296875,-0.9827117919921876,-0.120025634765625,0.0453293994069099,0.0271559879183769,0.0136846527457237
1769169560910,-0.1405487060546875,-0.9716033935546876,-0.1157989501953125,0.0414877869188785,0.0376219451427459,0.0064254086464643
1769169560920,-0.146209716796875,-0.9688720703125,-0.105499267578125,0.022487198933959,0.0311933401972055,0.001716939965263
1769169560930,-0.1437835693359375,-0.96954345703125,-0.092254638671875,7.483482477255166e-05,0.0157161131501197,-0.0019443739438429
1769169560940,-0.146331787109375,-0.9748382568359376,-0.086151123046875,-0.0223942548036575,-0.0051337755285203,-0.0108025800436735
1769169560950,-0.147430419921875,-0.9833984375,-0.0875091552734375,-0.0396052002906799,-0.0203018095344305,-0.0160783026367425
1769169560960,-0.145355224609375,-0.9879302978515624,-0.089447021484375,-0.0464639030396938,-0.0172522235661745,-0.018361696973443
1769169560970,-0.1415557861328125,-0.9873046875,-0.1005401611328125,-0.0434329621493816,-0.0197771675884723,-0.0167395658791065
1769169560980,-0.139129638671875,-0.9858245849609376,-0.10986328125,-0.0430699735879898,-0.0087602017447352,-0.0147914625704288
1769169560990,-0.1327056884765625,-0.9849853515625,-0.1132659912109375,-0.0398771092295646,-0.0021880532149225,-0.007325024344027
1769169561000,-0.1301422119140625,-0.9822998046875,-0.1165313720703125,-0.0351188369095325,0.0103996442630887,-0.0013536848127841
1769169561010,-0.1263427734375,-0.982269287109375,-0.1220550537109375,-0.0257767364382743,0.0196522641927003,0.0093293199315667
1769169561020,-0.1260223388671875,-0.98211669921875,-0.1232147216796875,-0.0158426128327846,0.0262310709804296,0.0127091370522975
1769169561030,-0.1309967041015625,-0.984588623046875,-0.1258087158203125,-0.000932372699026,0.0277733076363801,0.0101205445826053
1769169561040,-0.138214111328125,-0.983184814453125,-0.12835693359375,0.0135741317644715,0.0158844236284494,0.0060054282657802
1769169561050,-0.1414947509765625,-0.982025146484375,-0.1249847412109375,0.0247130692005157,0.0061332597397267,0.0006117281154729
1769169561060,-0.1410369873046875,-0.983001708984375,-0.1218414306640625,0.0287823788821697,-0.0132196648046374,-0.0017539578257128
1769169561071,-0.141815185546875,-0.9819488525390624,-0.1139373779296875,0.0234083868563175,-0.0219654869288206,-0.0086685894057154
1769169561081,-0.1422882080078125,-0.982452392578125,-0.105560302734375,0.011986088939011,-0.018769159913063,-0.0092150699347257
1769169561091,-0.1355133056640625,-0.9821624755859376,-0.0958251953125,-0.0052877063862979,-0.0132478950545191,-0.0036021915730088
1769169561101,-0.1298980712890625,-0.981536865234375,-0.0890655517578125,-0.0284931603819131,0.0085522094741463,0.0065353973768651
1769169561111,-0.1279144287109375,-0.9829864501953124,-0.083251953125,-0.049051433801651,0.0293067563325166,0.009131446480751
1769169561121,-0.1329803466796875,-0.9816131591796876,-0.088287353515625,-0.0595895610749721,0.0335995070636272,0.0078129153698682
1769169561131,-0.1410064697265625,-0.9807586669921876,-0.099609375,-0.0618668310344219,0.0234949402511119,0.0013845774810761
1769169561141,-0.14093017578125,-0.9802398681640624,-0.1134490966796875,-0.0470085218548774,0.0037891454994678,4.6072687837295234e-05
1769169561151,-0.139617919921875,-0.9849090576171876,-0.1277008056640625,-0.0258784685283899,0.0009563411585986,-0.0022615564521402
1769169561161,-0.1314544677734375,-0.991943359375,-0.134185791015625,-0.0124225812032818,-0.0131762558594346,0.0071556475013494
1769169561171,-0.1269073486328125,-0.990936279296875,-0.1308746337890625,0.0025587652344256,-0.0044096619822084,0.0104502439498901
1769169561181,-0.135101318359375,-0.9848175048828124,-0.1326751708984375,0.0182658229023218,0.0010743191232904,0.0096273273229599
1769169561191,-0.1396331787109375,-0.97711181640625,-0.13330078125,0.0276907496154308,-0.0007448861724697,0.0026746126823127
1769169561201,-0.1422119140625,-0.9737701416015624,-0.1245880126953125,0.0248257219791412,0.0013978932984173,0.0006354302167892
1769169561211,-0.13848876953125,-0.974151611328125,-0.1098480224609375,0.0159326270222663,0.0036224317736923,0.0028200212400406
1769169561221,-0.1338653564453125,-0.978179931640625,-0.1006011962890625,0.0024258734192699,-0.0038056571502238,0.0005595301627181
1769169561231,-0.1361236572265625,-0.981475830078125,-0.09576416015625,-0.0097831217572093,-0.0019206717843189,-0.0009350358741357
1769169561241,-0.1392669677734375,-0.9842376708984376,-0.097442626953125,-0.0136447055265307,-0.0080379527062177,-0.0028746160678565
1769169561251,-0.1375885009765625,-0.9859161376953124,-0.1021881103515625,-0.0147051764652132,-0.0118414796888828,-0.0010588727891445
1769169561261,-0.1306915283203125,-0.989166259765625,-0.107574462890625,-0.0111384047195315,-0.0001800296886358,0.0059159458614885
1769169561271,-0.1310577392578125,-0.98974609375,-0.11151123046875,-0.010906177572906,0.0229173004627227,0.0160801671445369
1769169561281,-0.1276092529296875,-0.984222412109375,-0.11114501953125,-0.0158609878271818,0.0340341329574584,0.0262089669704437
1769169561292,-0.1315460205078125,-0.979949951171875,-0.1148681640625,-0.0138273984193801,0.0209889058023691,0.0247620716691017
1769169561301,-0.142791748046875,-0.977447509765625,-0.126617431640625,-0.0077665764838457,0.0127432253211736,0.0119770346209406
1769169561312,-0.1455230712890625,-0.9760284423828124,-0.1302032470703125,0.0003832288784906,0.0090305125340819,0.0073663033545017
1769169561322,-0.1394805908203125,-0.97943115234375,-0.132476806640625,0.017856229096651,-0.0013965616235509,0.0070336745120584
1769169561332,-0.13458251953125,-0.9806671142578124,-0.1373138427734375,0.0319115929305553,-0.0068089039996266,0.0061527010984718
1769169561342,-0.1349639892578125,-0.9831390380859376,-0.13275146484375,0.041323471814394,-0.0078438082709908,0.0098720714449882
1769169561352,-0.136993408203125,-0.982421875,-0.12274169921875,0.0423413328826427,-0.0132857114076614,0.0134779922664165
1769169561362,-0.1347503662109375,-0.9825286865234376,-0.1097259521484375,0.0304050426930189,-0.0064333979971706,0.0209316462278366
1769169561372,-0.1356658935546875,-0.9837188720703124,-0.0952301025390625,0.0155842863023281,0.0081106573343276,0.0221116933971643
1769169561382,-0.1382598876953125,-0.9839935302734376,-0.09210205078125,-0.0024527714122086,0.0136508308351039,0.022063223645091
1769169561392,-0.1385040283203125,-0.980224609375,-0.089599609375,-0.0156564582139253,0.0181963145732879,0.0202621277421712
1769169561403,-0.14727783203125,-0.9788818359375,-0.095489501953125,-0.017127588391304,0.0156921446323394,0.0096688726916909
1769169561412,-0.1556549072265625,-0.9774932861328124,-0.1052093505859375,-0.0118555938825011,0.0093245254829525,-0.001602690317668
1769169561422,-0.150604248046875,-0.976837158203125,-0.1149749755859375,-0.0019861855544149,-0.0029981867410242,-0.0056123454123735
1769169561432,-0.146453857421875,-0.9779205322265624,-0.1200408935546875,0.0118436096236109,-0.0085487468168139,-0.0053316485136747
1769169561442,-0.139617919921875,-0.98577880859375,-0.11773681640625,0.009622267447412,-0.015638880431652,0.0014314490836113
1769169561452,-0.1309051513671875,-0.98846435546875,-0.10565185546875,-0.0019699402619153,-0.0094038881361484,0.0088502168655395
1769169561462,-0.13140869140625,-0.9864501953125,-0.0980987548828125,-0.0155006628483533,-0.0018423747969791,0.0054115434177219
1769169561472,-0.1418609619140625,-0.979156494140625,-0.101318359375,-0.0265586394816637,0.0022754047531634,0.0016990967560559
1769169561482,-0.146148681640625,-0.9783935546875,-0.100494384765625,-0.0443658679723739,0.0058440407738089,0.0009560748003423
1769169561493,-0.1387481689453125,-0.9817352294921876,-0.0960693359375,-0.0561591424047946,0.002102832077071,-4.76705827168189e-05
1769169561503,-0.13629150390625,-0.98101806640625,-0.103485107421875,-0.0545908063650131,0.0017041567480191,-0.0010586065473034
1769169561513,-0.138580322265625,-0.9792938232421876,-0.1182861328125,-0.035989161580801,-0.0075031900778412,0.0024804682470858
1769169561523,-0.132904052734375,-0.97857666015625,-0.133880615234375,-0.0081082601100206,-0.0115996645763516,0.0150439301505684
1769169561533,-0.1257781982421875,-0.9865264892578124,-0.1401519775390625,0.0207135342061519,-0.004800081718713,0.0214000977575778
1769169561543,-0.13250732421875,-0.9921875,-0.140228271484375,0.0429325550794601,0.0062831956893205,0.0213111471384763
1769169561553,-0.136322021484375,-0.9931488037109376,-0.1316375732421875,0.0576228164136409,0.0142146218568086,0.0179710108786821
1769169561563,-0.1427154541015625,-0.987274169921875,-0.1253509521484375,0.0653667524456977,0.0182157550007104,0.0110401343554258
1769169561573,-0.1530303955078125,-0.9767608642578124,-0.1186370849609375,0.0625222325325012,0.0224214196205139,0.0005486111622303
1769169561583,-0.1555328369140625,-0.96905517578125,-0.102142333984375,0.0375108905136585,0.0262704864144325,-0.0048727858811616
1769169561593,-0.1455078125,-0.969573974609375,-0.0878753662109375,0.0114238960668444,0.022907979786396,-0.0063609601929783
1769169561603,-0.144439697265625,-0.972747802734375,-0.0832672119140625,-0.0162271726876497,0.01039245352149,-0.0059388494119048
1769169561613,-0.139892578125,-0.9795074462890624,-0.0791015625,-0.0420411936938762,-0.0120380204170942,-0.0025728798937052
1769169561623,-0.1391143798828125,-0.984527587890625,-0.0826416015625,-0.0551977418363094,-0.0230635069310665,-0.0035776905715465
1769169561633,-0.14642333984375,-0.9870758056640624,-0.0957489013671875,-0.0553684495389461,-0.0278585292398929,-0.0090776504948735
1769169561643,-0.148895263671875,-0.9871673583984376,-0.10675048828125,-0.0489315912127494,-0.015539544634521,-0.0166357010602951
1769169561653,-0.1432647705078125,-0.9835968017578124,-0.116729736328125,-0.0384842753410339,-0.0036826191935688,-0.0117642479017376
1769169561663,-0.13897705078125,-0.9791717529296876,-0.125579833984375,-0.0232991967350244,0.0133877107873559,-0.0060871872119605
1769169561673,-0.133148193359375,-0.9782257080078124,-0.133026123046875,-0.0081175817176699,0.0239237081259489,0.000179230744834
1769169561683,-0.1293487548828125,-0.9803619384765624,-0.13623046875,0.0103498427197337,0.0312324874103069,0.0114420056343078
1769169561694,-0.128570556640625,-0.981536865234375,-0.137115478515625,0.0293110162019729,0.0260752756148576,0.0134132774546742
1769169561703,-0.138336181640625,-0.981964111328125,-0.1352081298828125,0.0494210794568061,0.0201595965772867,0.0111764883622527
1769169561714,-0.144012451171875,-0.9834747314453124,-0.132354736328125,0.0594721138477325,0.0151435332372784,0.0054080812260508
1769169561724,-0.14447021484375,-0.9832000732421876,-0.1190185546875,0.0573953837156295,0.0099932458251714,0.0029403960797935
1769169561734,-0.143157958984375,-0.9843292236328124,-0.1035308837890625,0.0479464866220951,-0.001521463971585,-0.0007813714328221
1769169561744,-0.144500732421875,-0.9847869873046876,-0.090179443359375,0.0292838532477617,0.0081071946769952,0.0004285026225261
1769169561754,-0.141571044921875,-0.9852447509765624,-0.0815582275390625,0.0077442061156034,0.0210264548659324,0.0034112429711967
1769169561764,-0.1366729736328125,-0.985076904296875,-0.0791473388671875,-0.0169547479599714,0.0284918285906314,0.0118510667234659
1769169561774,-0.1315460205078125,-0.9840240478515624,-0.0789947509765625,-0.0312519297003746,0.0306670982390642,0.0167534127831459
1769169561784,-0.136993408203125,-0.9824371337890624,-0.0897979736328125,-0.0370634794235229,0.0180479753762483,0.0119168469682335
1769169561794,-0.142730712890625,-0.9831085205078124,-0.10302734375,-0.0352197736501693,0.0065756109543144,0.0085061360150575
1769169561804,-0.1433563232421875,-0.9845733642578124,-0.1129150390625,-0.0257077608257532,0.0067417924292385,0.0058389804325997
1769169561814,-0.14361572265625,-0.982177734375,-0.1229705810546875,-0.0078595206141471,0.0005994775565341,0.0037912761326879
1769169561824,-0.14715576171875,-0.9830474853515624,-0.13134765625,0.0078411446884274,-0.0092662023380398,-0.002936135046184
1769169561834,-0.1438140869140625,-0.986541748046875,-0.130157470703125,0.0149094406515359,-0.0018554243724793,-0.000647148117423
1769169561844,-0.1347808837890625,-0.9864044189453124,-0.1231689453125,0.0206639990210533,-0.002609631512314,0.0058911787346005
1769169561854,-0.132843017578125,-0.9818572998046876,-0.1197357177734375,0.0279482770711183,0.0104646254330873,0.0073724286630749
1769169561864,-0.1403045654296875,-0.9762725830078124,-0.1186981201171875,0.0317145213484764,0.0291365794837474,0.0068019796162843
1769169561874,-0.1425323486328125,-0.9713134765625,-0.111297607421875,0.0240137241780757,0.0394070595502853,0.0104856640100479
1769169561884,-0.1394500732421875,-0.9709930419921876,-0.1008148193359375,0.0153824184089899,0.0405652709305286,0.0109067102894186
1769169561894,-0.144622802734375,-0.974151611328125,-0.0993499755859375,0.0055098137818276,0.0286010187119245,0.0061449776403605
1769169561904,-0.1482391357421875,-0.9758758544921876,-0.09869384765625,-0.0023124227300286,0.0099205411970615,-0.0013614079216495
1769169561914,-0.148284912109375,-0.98187255859375,-0.0985107421875,-0.0091913677752017,-0.0073130400851368,-0.0081503381952643
1769169561925,-0.1466217041015625,-0.9860687255859376,-0.0992889404296875,-0.0132164694368839,-0.0120918164029717,-0.0097330547869205
1769169561935,-0.1420745849609375,-0.9884185791015624,-0.1000213623046875,-0.0165257137268781,-0.0118601210415363,-0.0093855122104287
1769169561945,-0.1380615234375,-0.9901123046875,-0.09991455078125,-0.0214586872607469,-0.0046528088860213,-0.0052253883332014
1769169561956,-0.135223388671875,-0.988800048828125,-0.1003570556640625,-0.0274835564196109,0.0046528088860213,-0.0001691107318038
1769169561965,-0.134124755859375,-0.9875640869140624,-0.09991455078125,-0.0361942239105701,0.017936922609806,0.0015558187151327
1769169561975,-0.1385040283203125,-0.9833221435546876,-0.1021575927734375,-0.0406377092003822,0.0253892466425895,0.0016959009226411
1769169561985,-0.1383819580078125,-0.98040771484375,-0.10809326171875,-0.0428124442696571,0.0290921051055192,0.0007139935041777
1769169561995,-0.1428985595703125,-0.9779815673828124,-0.1145782470703125,-0.0392928123474121,0.031808529049158,-0.0012194614391773
1769169562005,-0.147216796875,-0.9762115478515624,-0.1205902099609375,-0.0292316544800996,0.0303480513393878,-0.0016375777777284
1769169562015,-0.144927978515625,-0.97900390625,-0.127471923828125,-0.0159579273313283,0.0133480299264192,-0.0067252805456519
1769169562025,-0.144683837890625,-0.97906494140625,-0.130523681640625,0.0006404902087524,-0.0014021543320268,-0.0087183900177478
1769169562035,-0.1419830322265625,-0.9800872802734376,-0.133575439453125,0.0219444464892148,-0.0054248590022325,-0.0075284899212419
1769169562045,-0.1405487060546875,-0.9805145263671876,-0.133941650390625,0.036672793328762,-1.5446334145963192e-05,-0.0036032570060342
1769169562055,-0.1348419189453125,-0.9806976318359376,-0.12591552734375,0.0412592887878418,0.0084121264517307,0.0033816818613559
1769169562065,-0.1327362060546875,-0.9786224365234376,-0.1154632568359375,0.0330176055431366,0.0227724239230155,0.0074589815922081
1769169562075,-0.1380462646484375,-0.977386474609375,-0.1013946533203125,0.0134737305343151,0.0302069038152694,0.0064746770076453
1769169562085,-0.1457061767578125,-0.9745025634765624,-0.0906982421875,-0.0097096189856529,0.0283125974237918,-0.0030288130510598
1769169562095,-0.155242919921875,-0.975341796875,-0.0892486572265625,-0.0271037891507148,0.0244747158139944,-0.0158830918371677
1769169562105,-0.15399169921875,-0.9784698486328124,-0.0905914306640625,-0.0315621867775917,0.0118404142558574,-0.018394187092781
1769169562116,-0.145111083984375,-0.987548828125,-0.100006103515625,-0.0268412008881568,-0.0145043740049004,-0.0165701881051063
1769169562125,-0.136627197265625,-0.992401123046875,-0.1132354736328125,-0.0117922108620405,-0.0246222559362649,-0.0162697844207286
1769169562136,-0.14013671875,-0.9873809814453124,-0.1247406005859375,0.0050693270750343,-0.0265882015228271,-0.0174977667629718
1769169562146,-0.143218994140625,-0.978607177734375,-0.126129150390625,0.0148007841780781,-0.0149991894140839,-0.0171350445598363
1769169562156,-0.1414794921875,-0.9763946533203124,-0.124908447265625,0.0169273186475038,0.0035079156514257,-0.0132249919697642
1769169562166,-0.1358795166015625,-0.97894287109375,-0.1179046630859375,0.0123346969485282,0.0167941600084304,-0.0106654278934001
1769169562176,-0.134674072265625,-0.9803466796875,-0.114105224609375,0.0115780923515558,0.0248065460473299,-0.0116049908101558
1769169562186,-0.1359100341796875,-0.98260498046875,-0.110931396484375,0.0053268549963831,0.0176327899098396,-0.0112116420641541
1769169562196,-0.13134765625,-0.982635498046875,-0.10888671875,0.0031976574100553,0.0022090920247137,-0.0075005269609391
1769169562206,-0.1334075927734375,-0.989532470703125,-0.1094970703125,0.0045819687657058,-0.0156745668500661,-0.0032655680552124
1769169562216,-0.1279754638671875,-0.99822998046875,-0.107940673828125,0.0029073730111122,-0.0291174054145813,0.0029625003226101
1769169562226,-0.124725341796875,-0.9995880126953124,-0.1025390625,0.0083348955959081,-0.018155300989747,0.0029023129027336
1769169562236,-0.13970947265625,-0.9846649169921876,-0.1112060546875,0.0256275981664657,0.0020951088517904,-0.0018096179701387
1769169562246,-0.150177001953125,-0.971435546875,-0.11785888671875,0.0369454994797706,0.0197449419647455,-0.0009624664089642
1769169562256,-0.148590087890625,-0.9679107666015624,-0.1144866943359375,0.035187017172575,0.0400225184857845,-0.0052038165740668
1769169562266,-0.1467132568359375,-0.9677734375,-0.1042327880859375,0.021257085725665,0.0454106256365776,-0.006369215901941
1769169562276,-0.144134521484375,-0.9713287353515624,-0.09423828125,0.0029630330391228,0.0393199734389781,-0.0057614827528595
1769169562286,-0.139312744140625,-0.9803619384765624,-0.087799072265625,-0.0161131899803876,0.0253375805914402,-0.0038967372383922
1769169562296,-0.1412506103515625,-0.9879302978515624,-0.088043212890625,-0.0296311285346746,0.0104433195665478,-0.0040533309802412
1769169562306,-0.139007568359375,-0.992156982421875,-0.091033935546875,-0.0419245474040508,-0.0039324234239757,-0.0077311564236879
1769169562316,-0.141326904296875,-0.991973876953125,-0.0956268310546875,-0.050355315208435,-0.0211454983800649,-0.0170183982700109
1769169562326,-0.1460723876953125,-0.9884185791015624,-0.1052703857421875,-0.0515939518809318,-0.0291909091174602,-0.0216949097812175
1769169562337,-0.144378662109375,-0.9833526611328124,-0.115631103515625,-0.0438050031661987,-0.0311307553201913,-0.0260478463023901
1769169562347,-0.139495849609375,-0.980133056640625,-0.124359130859375,-0.0355675816535949,-0.0238675158470869,-0.0222690869122743
1769169562357,-0.1305694580078125,-0.9788818359375,-0.128814697265625,-0.0223910585045814,-0.0001773665280779,-0.0051247207447886
1769169562367,-0.119781494140625,-0.9795074462890624,-0.128509521484375,-0.0043382896110415,0.0216754674911499,0.0070581757463514
1769169562377,-0.1232452392578125,-0.982208251953125,-0.1321868896484375,0.0161038693040609,0.0362946242094039,0.0149991894140839
1769169562387,-0.130828857421875,-0.9819183349609376,-0.1312255859375,0.0326833762228488,0.0410803258419036,0.0121759725734591
1769169562397,-0.1375885009765625,-0.9833984375,-0.1297607421875,0.0459879972040653,0.0387260913848876,0.0063420515507459
1769169562407,-0.1391143798828125,-0.9849395751953124,-0.1228179931640625,0.05294044688344,0.0323856361210346,0.0049079395830631
1769169562417,-0.140167236328125,-0.9868927001953124,-0.1145782470703125,0.0537748150527477,0.0245953574776649,0.0011443602852523
1769169562427,-0.1400604248046875,-0.985443115234375,-0.105621337890625,0.0468580536544323,0.013717676512897,-0.0024884575977921
1769169562437,-0.1416473388671875,-0.9867706298828124,-0.0980072021484375,0.0325944274663925,0.0022272015921771,-0.003801928833127
1769169562447,-0.1405487060546875,-0.9834442138671876,-0.087890625,0.010964767076075,-0.0096957702189683,-0.0034802188165485
1769169562457,-0.1387176513671875,-0.98272705078125,-0.0789031982421875,-0.0135743981227278,-0.0116462698206305,-0.0023028354626148
1769169562467,-0.141021728515625,-0.983306884765625,-0.0751800537109375,-0.0326016172766685,-0.005730589851737,-0.0035838158801198
1769169562477,-0.145477294921875,-0.980224609375,-0.077056884765625,-0.0514709129929542,-0.0015965650090947,-0.0065092984586954
1769169562487,-0.1466217041015625,-0.9774017333984376,-0.0839691162109375,-0.055816926062107,-0.0046770432963967,-0.012827381491661
1769169562497,-0.147216796875,-0.979583740234375,-0.097930908203125,-0.0559692606329917,-0.0110925985500216,-0.0149235557764768
1769169562507,-0.1367950439453125,-0.9865570068359376,-0.107757568359375,-0.0559692606329917,-0.0110925985500216,-0.0149235557764768
1769169562520,-0.12408447265625,-0.9905242919921876,-0.114532470703125,-0.0397905558347702,-0.0004830974212381,0.0005888249143026
1769169562527,-0.127593994140625,-0.9845123291015624,-0.131439208984375,-0.0167893655598163,0.0155917424708604,0.0060112872160971
1769169562537,-0.1317138671875,-0.9796295166015624,-0.1397857666015625,0.0033337450586259,0.0226344726979732,0.0133810527622699
1769169562547,-0.1302032470703125,-0.980010986328125,-0.137725830078125,0.0180298667401075,0.029283320531249,0.015767777338624
1769169562558,-0.13275146484375,-0.9793853759765624,-0.131134033203125,0.0246891006827354,0.0272433385252952,0.0127347037196159
1769169562568,-0.137359619140625,-0.9795684814453124,-0.1241455078125,0.0299744103103876,0.0184796750545501,0.006974818650633
1769169562578,-0.1489410400390625,-0.98016357421875,-0.1171417236328125,0.0292513631284236,0.0124795725569128,-0.0074286214075982
1769169562588,-0.1516876220703125,-0.979522705078125,-0.1120758056640625,0.0265751518309116,-0.0040836911648511,-0.0160415507853031
1769169562598,-0.146728515625,-0.9797210693359376,-0.10821533203125,0.0256710089743137,-0.0178130846470594,-0.0201212465763092
1769169562608,-0.142730712890625,-0.98114013671875,-0.10565185546875,0.0240776389837265,-0.0257892534136772,-0.0183012429624795
1769169562618,-0.1389007568359375,-0.985382080078125,-0.1004638671875,0.0175917763262987,-0.0140242064371705,-0.0163864307105541
1769169562628,-0.1320953369140625,-0.9863739013671876,-0.0924224853515625,0.0062227421440184,0.008756473660469,-0.0021054951939731
1769169562638,-0.122406005859375,-0.9855499267578124,-0.0883636474609375,-0.0108497180044651,0.0198597256094217,0.0114313522353768
1769169562648,-0.1240692138671875,-0.985595703125,-0.0865936279296875,-0.0301230140030384,0.026992468163371,0.0145680233836174
1769169562658,-0.1312255859375,-0.9869537353515624,-0.0900115966796875,-0.0431235022842884,0.0266558453440666,0.0094068171456456
1769169562669,-0.138580322265625,-0.98345947265625,-0.0975494384765625,-0.0463195629417896,0.0080304956063628,0.0047313719987869
1769169562678,-0.144439697265625,-0.983428955078125,-0.113922119140625,-0.0346197634935379,-0.0138247357681393,-0.0050086071714758
1769169562690,-0.1472930908203125,-0.982391357421875,-0.12664794921875,-0.0155624477192759,-0.0246371701359748,-0.0133024891838431
1769169562698,-0.1485595703125,-0.9830322265625,-0.1338043212890625,0.0076829534955322,-0.0268875397741794,-0.0212858468294143
1769169562708,-0.1507568359375,-0.9835205078125,-0.1357879638671875,0.030572023242712,-0.0201446823775768,-0.0238408837467432
1769169562718,-0.141082763671875,-0.9820404052734376,-0.1333465576171875,0.0423253513872623,-0.0152540542185306,-0.0152524560689926
1769169562728,-0.128265380859375,-0.9806365966796876,-0.1207275390625,0.0441141985356807,0.0063194148242473,9.82706405920908e-05
1769169562739,-0.1242218017578125,-0.9804229736328124,-0.1085968017578125,0.035746544599533,0.0269647724926471,0.0109530491754412
1769169562748,-0.126556396484375,-0.979461669921875,-0.0966796875,0.0211404394358396,0.0286537483334541,0.0112188318744301
1769169562759,-0.1375885009765625,-0.978668212890625,-0.091583251953125,0.0055074170231819,0.0204930249601602,0.0021694109309464
1769169562769,-0.1497650146484375,-0.9774322509765624,-0.08782958984375,-0.008045676164329,0.0110571784898638,-0.0116531942039728
1769169562779,-0.1528167724609375,-0.9767608642578124,-0.089263916015625,-0.0161382239311933,-0.0010444917716085,-0.020478643476963
1769169562789,-0.1497955322265625,-0.9795989990234376,-0.094024658203125,-0.02311996743083,-0.0076978672295808,-0.0223593674600124
1769169562799,-0.1380157470703125,-0.9859466552734376,-0.0975799560546875,-0.0334743373095989,-0.0251024235039949,-0.0145467184484004
1769169562809,-0.1323699951171875,-0.9892578125,-0.09552001953125,-0.0399836339056491,-0.0171651374548673,-0.0104185519739985
1769169562819,-0.1338653564453125,-0.98651123046875,-0.1038360595703125,-0.0392560586333274,-0.0052871736697852,-0.0099309273064136
1769169562829,-0.1375274658203125,-0.9814453125,-0.11090087890625,-0.0311600491404533,0.010727479122579,-0.0055098137818276
1769169562839,-0.1362152099609375,-0.9798736572265624,-0.1173553466796875,-0.0247287824749946,0.0195393469184637,-0.0042341598309576
1769169562849,-0.132659912109375,-0.981842041015625,-0.1204986572265625,-0.0147986533120274,0.0178844574838876,-0.0041715754196047
1769169562859,-0.134124755859375,-0.9831695556640624,-0.1243743896484375,0.0003142530040349,0.0101612908765673,-0.0112838130444288
1769169562869,-0.13800048828125,-0.98358154296875,-0.1319732666015625,0.0177113525569438,-0.0018136126454919,-0.0115820877254009
1769169562879,-0.13067626953125,-0.983428955078125,-0.12957763671875,0.0325731225311756,-0.0068240840919315,-0.0103367930278182
1769169562889,-0.135498046875,-0.9837646484375,-0.124237060546875,0.0398201160132885,-0.001619201968424,-0.0099463742226362
1769169562899,-0.1336669921875,-0.989593505859375,-0.11431884765625,0.0378408543765544,-0.002004561247304,0.0020208065398037
1769169562909,-0.1192779541015625,-1.0001068115234375,-0.0995941162109375,0.0240336973220109,-0.0051292483694851,0.0128156635910272
1769169562920,-0.1257476806640625,-0.992706298828125,-0.0897979736328125,0.012207131832838,0.0090203927829861,0.0057745319791138
1769169562929,-0.1453704833984375,-0.978790283203125,-0.0909576416015625,-0.0011116034584119,0.0183728821575641,-0.001978195970878
1769169562939,-0.1487274169921875,-0.96917724609375,-0.0894012451171875,-0.0167211890220642,0.0180967114865779,-0.0050671966746449
1769169562949,-0.141754150390625,-0.9673004150390624,-0.0885772705078125,-0.0293485671281814,0.007007042877376,-0.0084832329303026
1769169562959,-0.14373779296875,-0.9709014892578124,-0.09417724609375,-0.0353396162390708,-0.0017126789316534,-0.0139062283560633
1769169562970,-0.1425018310546875,-0.979644775390625,-0.1033172607421875,-0.0280971489846706,-0.0105996476486325,-0.013750965707004
1769169562980,-0.1378173828125,-0.98773193359375,-0.111053466796875,-0.0175185389816761,-0.0097751328721642,-0.0102800680324435
1769169562990,-0.1336212158203125,-0.9925994873046876,-0.1143035888671875,-0.0072741582989692,0.0061127534136176,-0.0060413810424506
1769169563000,-0.133575439453125,-0.991455078125,-0.1137237548828125,-0.0076501965522766,0.0289853122085332,0.0013227921444922
1769169563010,-0.1307525634765625,-0.98760986328125,-0.10894775390625,-0.0198786333203315,0.0436827652156353,0.0091066788882017
1769169563020,-0.126312255859375,-0.983673095703125,-0.103302001953125,-0.034919898957014,0.0286667980253696,0.0094803208485245
1769169563030,-0.1330718994140625,-0.9801025390625,-0.1031646728515625,-0.0471169129014015,0.0113754263147711,0.0105176223441958
1769169563040,-0.1365203857421875,-0.9780120849609376,-0.1060791015625,-0.0483251884579658,-0.0009283779654651,0.0048517468385398
1769169563051,-0.140045166015625,-0.9785308837890624,-0.1164703369140625,-0.0328359752893447,-0.0154058542102575,-0.0011086739832535
1769169563060,-0.1449737548828125,-0.97955322265625,-0.1283721923828125,-0.0093929693102836,-0.0132646728307008,-0.0096704708412289
1769169563070,-0.142364501953125,-0.9809417724609376,-0.137420654296875,0.0202181860804557,0.0049265818670392,-0.0069135660305619
1769169563080,-0.1346435546875,-0.98309326171875,-0.138763427734375,0.0423972569406032,0.0268342774361372,-6.151902198325843e-05
1769169563090,-0.127288818359375,-0.98388671875,-0.12957763671875,0.0504511892795562,0.041908036917448,0.0133296540006995
1769169563101,-0.1195526123046875,-0.9851226806640624,-0.1135406494140625,0.0450329892337322,0.0438380278646945,0.0242688544094562
1769169563110,-0.1255035400390625,-0.98358154296875,-0.098114013671875,0.0329001583158969,0.0413112193346023,0.0208530835807323
1769169563120,-0.1403961181640625,-0.98358154296875,-0.090301513671875,0.0151366088539361,0.0290457662194967,0.0107530457898974
1769169563130,-0.14459228515625,-0.982940673828125,-0.084320068359375,-0.0012460930738598,0.0136505644768476,0.0040336237289011
1769169563140,-0.146881103515625,-0.9832763671875,-0.0883636474609375,-0.0118827586993575,-0.0058150123804807,-0.0080472733825445
1769169563151,-0.1508331298828125,-0.9838104248046876,-0.0915985107421875,-0.0221449825912714,-0.0196229703724384,-0.0182024389505386
1769169563160,-0.1505889892578125,-0.9820098876953124,-0.09521484375,-0.0333473049104213,-0.0278486758470535,-0.0247926972806453
1769169563170,-0.14105224609375,-0.9799652099609376,-0.1006927490234375,-0.0352133810520172,-0.028964539989829,-0.0188613049685955
1769169563180,-0.1335906982421875,-0.980712890625,-0.108489990234375,-0.0275099202990531,-0.0088816424831748,-0.00811811350286
1769169563191,-0.1249847412109375,-0.9859161376953124,-0.113128662109375,-0.023658724501729,0.0087729850783944,0.002926813904196
1769169563201,-0.11981201171875,-0.993896484375,-0.111907958984375,-0.0207582749426364,0.0193827524781227,0.0105357319116592
1769169563211,-0.1222686767578125,-0.987335205078125,-0.116912841796875,-0.0086941560730338,0.0252201352268457,0.0105067025870084
1769169563222,-0.136138916015625,-0.98126220703125,-0.12274169921875,6.897587445564568e-05,0.0282888952642679,0.011675564572215
1769169563231,-0.1343231201171875,-0.980224609375,-0.1176300048828125,-0.0014969628537073,0.0195505321025848,0.0100582269951701
1769169563241,-0.136322021484375,-0.9784393310546876,-0.1118316650390625,0.0004255731473676,0.0068496502935886,0.0010610034223645
1769169563251,-0.148834228515625,-0.9769134521484376,-0.1149444580078125,0.0019182749092578,-0.0072070462629199,-0.0099562276154756
1769169563261,-0.1484527587890625,-0.9788665771484376,-0.1171875,0.006811833474785,-0.0142585644498467,-0.0139871882274746
1769169563271,-0.14215087890625,-0.9786529541015624,-0.1144866943359375,0.0140324616804718,-0.0135248638689517,-0.0172468982636928
1769169563281,-0.1416473388671875,-0.978302001953125,-0.1146087646484375,0.0157627183943986,-0.000121440141811,-0.0169486235827207
1769169563291,-0.1345672607421875,-0.9803924560546876,-0.1100311279296875,0.0093444995582103,0.0169030837714672,-0.0070765516720712
1769169563301,-0.12408447265625,-0.9869384765625,-0.0991668701171875,0.0016594156622886,0.0190858095884323,0.0006034722900949
1769169563311,-0.126220703125,-0.9891357421875,-0.0972442626953125,-0.0033790187444537,0.0141397872939705,0.0013467605458572
1769169563321,-0.130645751953125,-0.9891815185546876,-0.1007537841796875,-0.0053281863220036,0.0029334719292819,0.001055677072145
1769169563331,-0.1304931640625,-0.987213134765625,-0.10430908203125,-0.0020389161072671,0.0007779093575663,0.0033542513847351
1769169563341,-0.1344146728515625,-0.98394775390625,-0.1117706298828125,0.0064254086464643,-0.0060874535702168,0.0012074771802872
1769169563351,-0.13995361328125,-0.9815521240234376,-0.1180572509765625,0.0124340327456593,-0.0162767078727483,0.0002388855500612
1769169563361,-0.139312744140625,-0.9801177978515624,-0.1156463623046875,0.0087487502023577,-0.0060059609822928,0.0012887036427855
1769169563371,-0.135894775390625,-0.9826507568359376,-0.1112518310546875,0.0046062031760811,0.0032533176708966,0.002167280530557
1769169563381,-0.13494873046875,-0.98114013671875,-0.1089324951171875,0.0035883432719856,0.0001166464571724,0.0068240840919315
1769169563392,-0.1343994140625,-0.98077392578125,-0.1085205078125,0.0053111421875655,0.002134257229045,0.0080717746168375
1769169563403,-0.1357574462890625,-0.982025146484375,-0.108489990234375,0.0043047335930168,0.0089351721107959,0.0061220745556056
1769169563412,-0.13531494140625,-0.984130859375,-0.105865478515625,0.0069154305383563,0.0043627903796732,0.0071615064516663
1769169563422,-0.1381072998046875,-0.9837493896484376,-0.10443115234375,0.0044192494824528,-0.0013118730857968,0.0022213426418602
1769169563432,-0.1411895751953125,-0.983978271484375,-0.102813720703125,-0.0012104066554456,-0.0137491011992096,-0.0044197821989655
1769169563442,-0.1423797607421875,-0.9796905517578124,-0.1018218994140625,-0.0038826225791126,-0.0141280693933367,-0.0106667587533593
1769169563452,-0.143280029296875,-0.980438232421875,-0.1044769287109375,0.000121440141811,-0.0093889739364385,-0.0163243785500526
1769169563462,-0.14385986328125,-0.9764251708984376,-0.106170654296875,0.000844222086016,-0.000867391587235,-0.0185960549861192
1769169563472,-0.1379852294921875,-0.97711181640625,-0.10638427734375,0.0010860371403396,0.0015992282424122,-0.0093354452401399
1769169563482,-0.1332244873046875,-0.981170654296875,-0.1068115234375,0.0002926813904196,0.0102731436491012,-0.0034708979073911
1769169563492,-0.128326416015625,-0.9872589111328124,-0.104949951171875,-0.004702609963715,0.0033145702909678,0.0066187540069222
1769169563503,-0.12738037109375,-0.9905853271484376,-0.1004638671875,-0.0123152555897831,-0.0036695697344839,0.0047673247754573
1769169563512,-0.1351318359375,-0.9864654541015624,-0.10455322265625,-0.0150255551561713,-0.00827550701797,0.0001326254277955
1769169563522,-0.1368865966796875,-0.9816741943359376,-0.10626220703125,-0.012786635197699,0.0014181332662701,-0.0037808897905051
1769169563532,-0.1428070068359375,-0.9796142578125,-0.111297607421875,-0.0063308663666248,-0.0002668487431947,-0.0124553376808762
1769169563542,-0.1441650390625,-0.9824981689453124,-0.11767578125,0.0041966093704104,-0.0094662057235836,-0.0220845285803079
1769169563552,-0.14117431640625,-0.9831085205078124,-0.118621826171875,0.010924020782113,-0.0126414932310581,-0.022941268980503
1769169563562,-0.1317901611328125,-0.9827117919921876,-0.115692138671875,0.0128819765523076,-0.0119890188798308,-0.0158047955483198
1769169563572,-0.124908447265625,-0.98382568359375,-0.1110076904296875,0.0142076984047889,-0.0049058091826736,-0.0044099283404648
1769169563582,-0.1280670166015625,-0.981597900390625,-0.1074981689453125,0.0142183508723974,0.0127112679183483,0.004659466445446
1769169563593,-0.126800537109375,-0.990386962890625,-0.101654052734375,0.0068411282263696,0.0195737015455961,0.0192421376705169
1769169563603,-0.1160888671875,-1.0008697509765625,-0.0916290283203125,-0.0087865674868226,0.0236784312874078,0.0250419694930315
1769169563613,-0.1289215087890625,-0.99395751953125,-0.0901031494140625,-0.0152790872380137,0.028758144006133,0.0108382664620876
1769169563623,-0.1513214111328125,-0.97796630859375,-0.1009521484375,-0.0126252472400665,0.0167542118579149,-0.0034362766891717
1769169563633,-0.153228759765625,-0.9700927734375,-0.108367919921875,-0.0114598488435149,0.0028336034156382,-0.0144830690696835
1769169563643,-0.1472625732421875,-0.9685821533203124,-0.110321044921875,-0.0097077544778585,-0.0104166883975267,-0.0217079576104879
1769169563653,-0.1434326171875,-0.9730224609375,-0.1110382080078125,-0.0083828317001461,-0.0247514192014932,-0.0231463313102722
1769169563663,-0.135955810546875,-0.97979736328125,-0.11187744140625,-0.0063172844238579,-0.0344631671905517,-0.0223785433918237
1769169563673,-0.1346893310546875,-0.985076904296875,-0.10748291015625,-0.0081388866528868,-0.0279205814003944,-0.0176674108952283
1769169563683,-0.1317138671875,-0.9878692626953124,-0.104461669921875,-0.0151544520631432,-0.0108891334384679,-0.0124319018796086
1769169563693,-0.1298675537109375,-0.9880828857421876,-0.0980072021484375,-0.0283546764403581,0.015411446802318,-0.0065031731501221
1769169563704,-0.127899169921875,-0.986663818359375,-0.0942535400390625,-0.0458508469164371,0.0282532088458538,-0.0026101642288267
1769169563713,-0.1284942626953125,-0.9849090576171876,-0.09844970703125,-0.0538994520902633,0.0219167508184909,-0.0046339002437889
1769169563723,-0.1342926025390625,-0.984375,-0.110198974609375,-0.053518883883953,0.0065625617280602,-0.0074137076735496
1769169563733,-0.13323974609375,-0.984283447265625,-0.11895751953125,-0.0422257520258426,-0.0093610109761357,-0.0092225270345807
1769169563743,-0.13348388671875,-0.9832611083984376,-0.131011962890625,-0.0152822835370898,-0.0186453238129615,-0.0103285377845168
1769169563753,-0.1376953125,-0.9832305908203124,-0.1435546875,0.0166753828525543,-0.0280702505260705,-0.0127328392118215
1769169563763,-0.1363677978515625,-0.9836273193359376,-0.1453094482421875,0.0458188876509666,-0.0271975323557853,-0.0105565041303634
1769169563773,-0.1310882568359375,-0.98480224609375,-0.136932373046875,0.0619488544762134,-0.0216056928038597,-0.0065593658946454
1769169563783,-0.132232666015625,-0.984771728515625,-0.11932373046875,0.0610580258071422,-0.0070738885551691,-0.0052962284535169
1769169563794,-0.1322479248046875,-0.9853363037109376,-0.099334716796875,0.0507268272340297,0.0022956449538469,-0.0042551988735795
1769169563804,-0.1305999755859375,-0.9864349365234376,-0.083740234375,0.0278287008404731,0.0145842693746089,-0.0012724583502858
1769169563813,-0.129913330078125,-0.9864044189453124,-0.0743408203125,0.0021121529862284,0.0153102464973926,0.0004932174342684
1769169563824,-0.13128662109375,-0.9834747314453124,-0.0694580078125,-0.0221524406224489,0.0063793361186981,-0.002380599733442
1769169563834,-0.136688232421875,-0.9823150634765624,-0.072662353515625,-0.0456923879683017,-0.014633803628385,-0.0081218425184488
1769169563844,-0.1402435302734375,-0.9824371337890624,-0.07781982421875,-0.0672639906406402,-0.0305709578096866,-0.0089988214895129
1769169563854,-0.13714599609375,-0.9822845458984376,-0.0857086181640625,-0.0803302600979805,-0.0370781272649765,-0.0094997622072696
1769169563864,-0.13671875,-0.982452392578125,-0.0992279052734375,-0.0773171558976173,-0.0363854393362998,-0.0085831014439463
1769169563874,-0.139068603515625,-0.9849853515625,-0.11248779296875,-0.066474363207817,-0.0339126922190189,-0.0103288041427731
1769169563884,-0.130584716796875,-0.9931182861328124,-0.1226959228515625,-0.0579975210130214,-0.034155573695898,-0.005633917171508
1769169563894,-0.12115478515625,-0.997344970703125,-0.1243743896484375,-0.0457158237695694,-0.0285062100738286,0.0026032398454844
1769169563904,-0.123321533203125,-0.9900054931640624,-0.1301727294921875,-0.0241596642881631,-0.0129104722291231,0.0049510826356709
1769169563914,-0.1246185302734375,-0.986114501953125,-0.135467529296875,-0.0093727288767695,-0.0039734365418553,0.0119360219687223
1769169563924,-0.1205291748046875,-0.9838409423828124,-0.13067626953125,0.0024650217965245,-0.0060355220921337,0.0166388973593711
1769169563936,-0.1275634765625,-0.980865478515625,-0.1296539306640625,0.0149690955877304,-0.0077436733990907,0.0100680803880095
1769169563944,-0.135650634765625,-0.9793701171875,-0.1304931640625,0.0246486216783523,-0.0090249199420213,0.0090217245742678
1769169563954,-0.1370849609375,-0.98162841796875,-0.1269073486328125,0.0366477593779563,-0.009123989380896,0.0067002470605075
1769169563964,-0.13848876953125,-0.9813385009765624,-0.1259307861328125,0.0448774583637714,-0.0096006952226161,0.0036155073903501
1769169563974,-0.1368865966796875,-0.9839019775390624,-0.1171722412109375,0.046577088534832,-0.0036354812327772,0.0082342280074954
1769169563984,-0.1290130615234375,-0.987396240234375,-0.1079864501953125,0.0403381027281284,-0.0041103227995336,0.013799169100821
1769169563994,-0.1259613037109375,-0.985992431640625,-0.098297119140625,0.0299565680325031,0.0045952843502163,0.0195579882711172
1769169564004,-0.1283111572265625,-0.9860382080078124,-0.0935211181640625,0.0199689138680696,-8.016114588826895e-05,0.0241860300302505
1769169564014,-0.1317291259765625,-0.98480224609375,-0.09027099609375,0.0043556001037359,-0.0084033384919166,0.0236403476446867
1769169564025,-0.137420654296875,-0.98358154296875,-0.0896148681640625,-0.0068664280697703,-0.0107775460928678,0.0194352176040411
1769169564035,-0.140960693359375,-0.984649658203125,-0.0909271240234375,-0.0157334227114915,-0.0121714454144239,0.0150809483602643
1769169564045,-0.1407928466796875,-0.9834747314453124,-0.0980072021484375,-0.0175957717001438,-0.0243660602718591,0.0118478713557124
1769169564055,-0.1434783935546875,-0.9819183349609376,-0.102874755859375,-0.0129514848813414,-0.0279932841658592,0.0063686831854283
1769169564065,-0.1471405029296875,-0.9827117919921876,-0.109588623046875,0.002673547482118,-0.0167736541479825,0.0007843009079806
1769169564075,-0.14898681640625,-0.9808502197265624,-0.116546630859375,0.0194669086486101,-0.0032898029312491,-0.0004857605672441
1769169564085,-0.1407928466796875,-0.9810791015625,-0.117095947265625,0.0291150081902742,0.0028208203148096,0.0034083134960383
1769169564095,-0.1336822509765625,-0.98211669921875,-0.1112213134765625,0.0345092415809631,0.0070054451934993,0.0055002267472445
1769169564105,-0.133453369140625,-0.9812469482421876,-0.10693359375,0.0288542844355106,0.0086715184152126,0.012124840170145
1769169564115,-0.1294708251953125,-0.981475830078125,-0.0990142822265625,0.0166282448917627,0.0111386710777878,0.0134348487481474
1769169564125,-0.13616943359375,-0.9796295166015624,-0.093597412109375,0.00477558048442,0.0054618772119283,0.0072145033627748
1769169564135,-0.1468505859375,-0.9759521484375,-0.091949462890625,-0.0079516666010022,-0.0080073261633515,-0.0015374429058283
1769169564145,-0.1483306884765625,-0.97796630859375,-0.092803955078125,-0.0196711737662553,-0.0075388764962553,-0.0069002504460513
1769169564155,-0.1434783935546875,-0.98077392578125,-0.09307861328125,-0.0269490592181682,-0.0105418572202324,-0.0091884387657046
1769169564165,-0.13934326171875,-0.9850311279296876,-0.0961456298828125,-0.0232965350151062,-0.0083870934322476,-0.0035973980557173
1769169564175,-0.1360321044921875,-0.98895263671875,-0.1052703857421875,-0.0207462906837463,-0.0147549780085682,0.0011723234783858
1769169564185,-0.1316986083984375,-0.989349365234375,-0.10638427734375,-0.0168045461177825,-0.0092440983280539,0.0016572851454839
1769169564195,-0.1322174072265625,-0.985443115234375,-0.1098785400390625,-0.0138356545940041,-0.0049273804761469,0.0036647759843617
