timestamp_ms,acc_x,acc_y,acc_z,gyro_x,gyro_y,gyro_z
1769180653605,-0.0175933837890625,-0.117767333984375,-1.007232666015625,-0.1243930608034133,0.0812407955527305,0.0503009855747222
1769180653617,-0.0091705322265625,-0.117156982421875,-1.0261993408203125,-0.0960913822054863,0.0547585859894752,0.0456820018589496
1769180653625,-0.00177001953125,-0.1239776611328125,-1.0321502685546875,-0.065604843199253,0.0217178128659725,0.0411152131855487
1769180653636,0.0019683837890625,-0.1295166015625,-1.0220184326171875,-0.0425200313329696,0.0115405423566699,0.04566016420722
1769180653646,-0.002410888671875,-0.1296844482421875,-1.0092620849609375,-0.0337494425475597,0.0415921844542026,0.0535140894353389
1769180653656,-0.0162811279296875,-0.12445068359375,-0.9979248046875,-0.0231942683458328,0.0920505672693252,0.0519489496946334
1769180653666,-0.0351409912109375,-0.1136627197265625,-1.0050811767578125,0.002011751756072,0.1354385167360305,0.0417602285742759
1769180653676,-0.0445709228515625,-0.1044464111328125,-1.0166473388671875,0.0369340479373931,0.1621641367673874,0.0333981700241565
1769180653686,-0.0454559326171875,-0.1016998291015625,-1.0227813720703125,0.0708691105246543,0.1603103131055832,0.0144857317209243
1769180653696,-0.0485076904296875,-0.0956878662109375,-1.0158843994140625,0.0933544486761093,0.1335511356592178,-0.0105226822197437
1769180653706,-0.052886962890625,-0.095367431640625,-1.007965087890625,0.108549378812313,0.1047258824110031,-0.0440295077860355
1769180653716,-0.054595947265625,-0.099853515625,-0.997772216796875,0.11244398355484,0.0910974219441413,-0.0750635936856269
1769180653726,-0.03179931640625,-0.1149139404296875,-0.988494873046875,0.1053482592105865,0.075891301035881,-0.0786226391792297
1769180653736,1.52587890625e-05,-0.12689208984375,-0.9696807861328124,0.0793201252818107,0.038845133036375,-0.0702331513166427
1769180653747,0.0147857666015625,-0.1300201416015625,-0.9597015380859376,0.056323193013668,0.0154263600707054,-0.0555956177413463
1769180653756,0.019805908203125,-0.1399383544921875,-0.9740447998046876,0.0476279743015766,0.010121876373887,-0.0374030321836471
1769180653766,0.005218505859375,-0.12841796875,-0.98492431640625,0.0528389811515808,-0.0007014766451902,-0.0359239131212234
1769180653776,-0.02081298828125,-0.11480712890625,-0.994842529296875,0.0745461359620094,0.0195417441427707,-0.0443360395729541
1769180653787,-0.02337646484375,-0.1143646240234375,-1.0010223388671875,0.0915504246950149,0.0201814342290163,-0.0500698238611221
1769180653796,-0.01202392578125,-0.116119384765625,-0.9750518798828124,0.0682182013988494,-0.0159507375210523,-0.0497603639960289
1769180653807,-0.0002593994140625,-0.1196441650390625,-0.946319580078125,0.0262340009212493,-0.0367146059870719,-0.0475075989961624
1769180653817,0.003265380859375,-0.1230010986328125,-0.93218994140625,-0.0246472898870706,-0.0431695729494094,-0.0465310178697109
1769180653827,-9.1552734375e-05,-0.11505126953125,-0.9245452880859376,-0.0641547515988349,-0.0411498323082923,-0.0575903244316577
1769180653837,-0.0072174072265625,-0.1068115234375,-0.9389495849609376,-0.0820115134119987,-0.0135421743616461,-0.0665806233882904
1769180653847,-0.0007476806640625,-0.1088104248046875,-0.9612274169921876,-0.0830330997705459,0.0123996781185269,-0.0671151205897331
1769180653857,0.0100555419921875,-0.1105804443359375,-0.967376708984375,-0.1006741449236869,-0.0075995963998138,-0.0610628202557563
1769180653867,0.0283050537109375,-0.102142333984375,-0.9748687744140624,-0.1121425181627273,-0.0321653932332992,-0.0451757349073886
1769180653877,0.0315399169921875,-0.10302734375,-0.98785400390625,-0.1138943433761596,-0.0519167259335517,-0.0391801595687866
1769180653887,0.020050048828125,-0.1060943603515625,-0.99273681640625,-0.1129872724413871,-0.0621179640293121,-0.0436401553452014
1769180653897,0.0230255126953125,-0.1021575927734375,-0.9913177490234376,-0.1169391348958015,-0.0526528246700763,-0.0388488620519638
1769180653907,0.0189361572265625,-0.1036834716796875,-0.9941558837890624,-0.1110436990857124,-0.0362765155732631,-0.0410731360316276
1769180653917,0.019195556640625,-0.105499267578125,-1.0128936767578125,-0.0763432383537292,-0.0184426568448543,-0.0362408272922039
1769180653927,0.0268402099609375,-0.110382080078125,-1.02264404296875,-0.0370909087359905,-0.0065399245359003,-0.0181427840143442
1769180653937,0.0309600830078125,-0.113311767578125,-1.0141448974609375,-0.0143179530277848,0.0064461813308298,-0.0025808694772422
1769180653947,0.0282440185546875,-0.1128082275390625,-1.00555419921875,0.0035374767612665,0.01909033767879,0.0134684043005108
1769180653957,0.0152130126953125,-0.1152801513671875,-0.9932098388671876,0.005388640332967,0.0354280322790145,0.0148234209045767
1769180653967,0.0025787353515625,-0.1143798828125,-0.9871978759765624,0.0031462584156543,0.0725026950240135,0.0142612271010875
1769180653977,0.0084991455078125,-0.1211700439453125,-0.9929656982421876,-0.0024341291282325,0.083692230284214,0.0189100410789251
1769180653987,0.0143585205078125,-0.12872314453125,-0.9915771484375,-0.0079450085759162,0.0523500218987464,0.026928286999464
1769180653997,0.015655517578125,-0.12469482421875,-0.9890289306640624,-0.0186011139303445,0.0116497315466403,0.0278041996061801
1769180654008,0.0094451904296875,-0.1236724853515625,-0.986236572265625,-0.0259628910571336,-0.0004956142511218,0.0256939120590686
1769180654018,-0.00225830078125,-0.124420166015625,-0.990081787109375,-0.0316109247505664,0.0235258322209119,0.0228927992284297
1769180654028,-0.009368896484375,-0.1176605224609375,-0.983795166015625,-0.0364288464188575,0.0213239304721355,0.0166548769921064
1769180654038,-0.0125579833984375,-0.117340087890625,-0.9875946044921876,-0.0343582406640052,0.0153571180999279,0.0121860923245549
1769180654048,-0.0098419189453125,-0.1136474609375,-1.00030517578125,-0.0294921118766069,0.007154582068324,0.0096339853480458
1769180654058,-0.01251220703125,-0.112548828125,-1.0028533935546875,-0.0234174411743879,0.0067322049289941,0.0028178908396512
1769180654068,-0.01837158203125,-0.111297607421875,-1.0100555419921875,-0.0058821239508688,0.0004974784678779,-0.0124494787305593
1769180654078,-0.0224151611328125,-0.1079254150390625,-1.0126953125,0.0134239299222826,-0.008380701765418,-0.0228331442922353
1769180654088,-0.0206756591796875,-0.1077728271484375,-1.0107574462890625,0.0252182707190513,-0.0174492970108985,-0.0316199772059917
1769180654099,-0.0146636962890625,-0.1078338623046875,-1.0092315673828125,0.0289903730154037,-0.0229095760732889,-0.0343710221350193
1769180654108,-0.0090179443359375,-0.108673095703125,-1.005340576171875,0.0344490520656108,-0.0246377028524875,-0.0297118220478296
1769180654118,-0.0033416748046875,-0.1083221435546875,-1.005645751953125,0.047879908233881,-0.0307392701506614,-0.0246116034686565
1769180654128,-0.001190185546875,-0.109954833984375,-0.9958038330078124,0.0534533709287643,-0.0420230850577354,-0.0198490712791681
1769180654138,-0.0003662109375,-0.1135406494140625,-0.987548828125,0.0569628849625587,-0.0359875634312629,-0.0192269571125507
1769180654148,-0.003753662109375,-0.1190032958984375,-0.976898193359375,0.044833518564701,-0.041493646800518,-0.0154015934094786
1769180654158,-0.00604248046875,-0.1233673095703125,-0.9654998779296876,0.0184525102376937,-0.0365505553781986,-0.0162902902811765
1769180654168,-0.0018310546875,-0.12164306640625,-0.958648681640625,-0.0046400255523622,-0.0353276319801807,-0.0239391550421714
1769180654178,-0.0038909912109375,-0.119598388671875,-0.960784912109375,-0.0181917864829301,-0.0417575649917125,-0.0299104955047369
1769180654188,-0.0062255859375,-0.1233062744140625,-0.96820068359375,-0.0346719585359096,-0.033686589449644,-0.0303115658462047
1769180654198,-0.000335693359375,-0.1214752197265625,-0.9730987548828124,-0.0438462831079959,-0.0340306721627712,-0.031213579699397
1769180654208,0.0012359619140625,-0.118743896484375,-0.98223876953125,-0.0433365553617477,-0.041463553905487,-0.0340975150465965
1769180654219,-0.0056915283203125,-0.1165313720703125,-0.994384765625,-0.0284180585294961,-0.0374195426702499,-0.0344112366437912
1769180654229,-0.004302978515625,-0.1204376220703125,-1.0037384033203125,-0.0176943093538284,-0.032151810824871,-0.0296684131026268
1769180654239,0.0050811767578125,-0.126434326171875,-0.9951629638671876,-0.0253482330590486,-0.0471185110509395,-0.0228706952184438
1769180654249,0.004119873046875,-0.129638671875,-0.9830780029296876,-0.0384994558990001,-0.082492746412754,-0.031463649123907
1769180654259,-0.003631591796875,-0.120574951171875,-0.980712890625,-0.0358946174383163,-0.1003673523664474,-0.0468721687793731
1769180654269,-0.019989013671875,-0.113922119140625,-0.991180419921875,-0.0183001775294542,-0.0746966078877449,-0.0675745159387588
1769180654279,-0.0325164794921875,-0.1068878173828125,-0.995849609375,0.0026016421616077,-0.0485656708478927,-0.0858914703130722
1769180654289,-0.0292205810546875,-0.0999603271484375,-0.9946746826171876,0.0131664024665951,-0.0349326841533184,-0.1002552285790443
1769180654299,-0.0211029052734375,-0.1011962890625,-0.9883575439453124,0.0114843491464853,-0.0272273607552051,-0.1050009876489639
1769180654309,-0.006591796875,-0.1073150634765625,-0.98358154296875,-0.0019033611752092,-0.0192061848938465,-0.1012706980109214
1769180654319,0.0050811767578125,-0.1131591796875,-0.9838409423828124,-0.0156295597553253,-0.0060352557338774,-0.0994698628783226
1769180654329,0.0162506103515625,-0.12353515625,-0.995452880859375,-0.0110089750960469,0.0072169001214206,-0.0877247899770736
1769180654339,0.02825927734375,-0.131256103515625,-1.0103759765625,0.0068661617115139,-0.0008349010022357,-0.0711785703897476
1769180654349,0.0303192138671875,-0.13165283203125,-1.0121002197265625,0.0291107464581727,-0.0080110551789402,-0.061215154826641
1769180654359,0.026824951171875,-0.12835693359375,-1.010101318359375,0.0378299355506897,-0.0102465124800801,-0.0476676523685455
1769180654369,0.024322509765625,-0.1255645751953125,-1.0005340576171875,0.0312830880284309,-0.0041286987252533,-0.0339579656720161
1769180654379,0.007568359375,-0.1207733154296875,-0.9963531494140624,0.0198512021452188,0.0140979755669832,-0.026476614177227
1769180654389,-0.008056640625,-0.1121978759765625,-1.001739501953125,0.0164902936667203,0.0336599573493003,-0.0234275609254837
1769180654399,-0.0131072998046875,-0.1097259521484375,-1.0069122314453125,0.0186407957226037,0.0334951095283031,-0.023076556622982
1769180654409,-0.0158233642578125,-0.10980224609375,-1.00897216796875,0.0241807028651237,0.0106142945587635,-0.0242233145982027
1769180654420,-0.018646240234375,-0.112640380859375,-1.0049896240234375,0.0267618391662836,-0.014413827098906,-0.0347854122519493
1769180654429,-0.020782470703125,-0.1151275634765625,-0.9956207275390624,0.0318498089909553,-0.0248470269143581,-0.0395479425787925
1769180654440,-0.0172119140625,-0.123260498046875,-0.9824676513671876,0.0330815203487873,-0.0193784907460212,-0.0336929820477962
1769180654450,-0.0156097412109375,-0.13629150390625,-0.97222900390625,0.0354107208549976,0.0104073667898774,-0.0208565462380647
1769180654460,-0.02374267578125,-0.1260528564453125,-0.9596405029296876,0.0291613470762968,0.0431213714182376,-0.0175100173801183
1769180654470,-0.0375518798828125,-0.123138427734375,-0.9550323486328124,0.0146031770855188,0.0701279565691948,-0.0212389752268791
1769180654480,-0.0433197021484375,-0.1219329833984375,-0.961944580078125,0.0022775353863835,0.062696136534214,-0.0388994626700878
1769180654490,-0.0474853515625,-0.1187896728515625,-0.9713897705078124,-0.016115054488182,0.0245929602533578,-0.0727181434631347
1769180654500,-0.0511016845703125,-0.1182708740234375,-0.975189208984375,-0.037268541753292,-0.0344772823154926,-0.1071371063590049
1769180654510,-0.05126953125,-0.123077392578125,-0.9830322265625,-0.058259043842554,-0.070099726319313,-0.1356651484966278
1769180654520,-0.043853759765625,-0.126007080078125,-0.995025634765625,-0.0637121349573135,-0.088082455098629,-0.1479034423828125
1769180654530,-0.0387115478515625,-0.1228790283203125,-1.002593994140625,-0.0554478131234645,-0.0995729267597198,-0.1628730744123459
1769180654540,-0.039581298828125,-0.1170196533203125,-1.013946533203125,-0.0294441748410463,-0.0969158932566642,-0.1780714690685272
1769180654550,-0.02996826171875,-0.11724853515625,-1.0321044921875,0.0033838124945759,-0.0973960608243942,-0.1890918910503387
1769180654560,-0.01495361328125,-0.1221160888671875,-1.0353546142578125,0.0261932536959648,-0.0984874218702316,-0.1901366561651229
1769180654570,-0.0007476806640625,-0.1255340576171875,-1.0240325927734375,0.0350013934075832,-0.0919440388679504,-0.1797580420970916
1769180654582,0.0140380859375,-0.1327972412109375,-1.01641845703125,0.0380781441926956,-0.0757357701659202,-0.1629495024681091
1769180654590,0.0295562744140625,-0.1335906982421875,-1.0050048828125,0.03585946559906,-0.0700541883707046,-0.137268915772438
1769180654600,0.0372314453125,-0.1258087158203125,-1.0076446533203125,0.0410712696611881,-0.0520261824131011,-0.1092625707387924
1769180654610,0.0343170166015625,-0.1172637939453125,-1.0229949951171875,0.0636133328080177,-0.0204826388508081,-0.0856339409947395
1769180654621,0.0247802734375,-0.1099090576171875,-1.0244598388671875,0.0915304496884346,-0.0158585924655199,-0.071516528725624
1769180654631,0.00787353515625,-0.10308837890625,-1.0139007568359375,0.1109089404344558,-0.0338791385293006,-0.0673358961939811
1769180654641,0.0027008056640625,-0.1042938232421875,-0.9991912841796876,0.121718443930149,-0.0381018444895744,-0.062163770198822
1769180654651,0.0018157958984375,-0.107421875,-0.9752197265625,0.1062758415937423,-0.044631116092205,-0.0595613308250904
1769180654661,-0.0029754638671875,-0.1113433837890625,-0.9401397705078124,0.057198841124773,-0.0321584679186344,-0.0611357912421226
1769180654671,0.00115966796875,-0.1177215576171875,-0.91998291015625,0.0005717806634493,0.0092257224023342,-0.0564539544284343
1769180654681,0.0108795166015625,-0.1251220703125,-0.9158172607421876,-0.0520147308707237,0.0301887951791286,-0.0457243435084819
1769180654691,0.0083770751953125,-0.1218719482421875,-0.9172515869140624,-0.0939797610044479,0.0160127878189086,-0.0405295826494693
1769180654701,0.000640869140625,-0.1187591552734375,-0.940582275390625,-0.1029471531510353,0.0262734163552522,-0.0421991199254989
1769180654711,-0.01025390625,-0.1196441650390625,-0.9734039306640624,-0.0949898958206176,0.0471142493188381,-0.047963798046112
1769180654721,-0.0111236572265625,-0.1107635498046875,-0.9805450439453124,-0.082735888659954,0.0529859848320484,-0.0482884347438812
1769180654731,-0.00531005859375,-0.11322021484375,-0.976165771484375,-0.0808530375361442,0.0442926287651062,-0.0524525567889213
1769180654741,-0.0084228515625,-0.121612548828125,-0.97650146484375,-0.0800442323088646,0.0367066152393817,-0.0533812008798122
1769180654751,-0.0142669677734375,-0.120147705078125,-0.98016357421875,-0.0811502486467361,0.0485864430665969,-0.0585357472300529
1769180654761,-0.0117950439453125,-0.124176025390625,-0.990692138671875,-0.0732470527291297,0.1011141017079353,-0.0565932393074035
1769180654771,-0.0001220703125,-0.130462646484375,-1.00433349609375,-0.0632940158247947,0.1303540170192718,-0.038708247244358
1769180654781,0.0135498046875,-0.1329193115234375,-1.00421142578125,-0.0630796328186988,0.133688822388649,-0.017748637124896
1769180654791,0.0187835693359375,-0.1331024169921875,-1.0076904296875,-0.0628761649131774,0.1111835092306137,-0.0028937908355146
1769180654801,-0.00054931640625,-0.1235198974609375,-1.0143280029296875,-0.0498352013528347,0.093168556690216,-0.0081375548616051
1769180654812,-0.011810302734375,-0.1166534423828125,-1.035369873046875,-0.0126207200810313,0.0987329706549644,-0.0098987035453319
1769180654821,-0.0067596435546875,-0.1153411865234375,-1.048553466796875,0.0306007862091064,0.0793629959225654,-0.0066376626491546
1769180654832,-0.0037994384765625,-0.119171142578125,-1.0407867431640625,0.0620002523064613,0.0278785023838281,-0.0023571639321744
1769180654842,0.0012969970703125,-0.119873046875,-1.0214996337890625,0.0754404291510582,8.76179983606562e-05,0.0061369882896542
1769180654852,0.0032806396484375,-0.128265380859375,-1.0131072998046875,0.0842874497175216,-0.0133594814687967,0.0161289032548666
1769180654862,-0.0014190673828125,-0.126312255859375,-1.0092010498046875,0.1105209216475486,-0.0266435947269201,0.0075905416160821
1769180654872,-0.0193328857421875,-0.1140289306640625,-1.0143280029296875,0.1594844609498977,-0.0409037582576274,-0.0171848461031913
1769180654882,-0.0338134765625,-0.1128997802734375,-1.015533447265625,0.1971804499626159,-0.0350397415459156,-0.0402132011950016
1769180654892,-0.0330352783203125,-0.1174163818359375,-0.997161865234375,0.2079145759344101,-0.0151834804564714,-0.0542784184217453
1769180654902,-0.022125244140625,-0.1171417236328125,-0.9769287109375,0.2070903331041336,-0.0075559206306934,-0.0576087012887001
1769180654912,-0.0147552490234375,-0.121612548828125,-0.9625701904296876,0.1882242411375045,0.0042306976392865,-0.058847602456808
1769180654922,-0.016998291015625,-0.118865966796875,-0.9481353759765624,0.1399922519922256,0.0100603569298982,-0.0641286522150039
1769180654932,-0.012664794921875,-0.1202239990234375,-0.9460296630859376,0.0915072783827781,0.0263264123350381,-0.0696808099746704
1769180654942,0.00042724609375,-0.131561279296875,-0.95709228515625,0.062924638390541,0.0017805894603952,-0.0758116766810417
1769180654952,0.011993408203125,-0.1272735595703125,-0.96063232421875,0.049009621143341,-0.0444327108561992,-0.0835950300097465
1769180654962,0.01849365234375,-0.1274261474609375,-0.95819091796875,0.0320918895304203,-0.0740822181105613,-0.0818985924124717
1769180654972,0.012542724609375,-0.121551513671875,-0.946502685546875,-0.0034639735240489,-0.0822237655520439,-0.0841367170214653
1769180654982,-0.007781982421875,-0.119110107421875,-0.9690093994140624,-0.0087085366249084,-0.0248251892626285,-0.0878896415233612
1769180654992,-0.0067596435546875,-0.1183319091796875,-1.013519287109375,0.0209348425269126,0.0171542186290025,-0.0871495455503463
1769180655002,0.000732421875,-0.11846923828125,-1.0162353515625,0.043821781873703,-0.0054882424883544,-0.0858608484268188
1769180655012,0.006591796875,-0.125244140625,-1.000091552734375,0.0410001650452613,-0.0276486724615097,-0.0912630707025528
1769180655022,0.015716552734375,-0.133514404296875,-0.9797515869140624,0.0114297550171613,-0.0110816797241568,-0.0807358548045158
1769180655033,0.0229644775390625,-0.1363525390625,-0.96441650390625,-0.0307794846594333,0.0040088561363518,-0.0635376945137977
1769180655042,0.0164794921875,-0.134613037109375,-0.9565582275390624,-0.0625403448939323,-0.0019734024535864,-0.0551354251801967
1769180655053,0.01458740234375,-0.1356048583984375,-0.971832275390625,-0.0626788288354873,0.0259999092668294,-0.0448614805936813
1769180655063,0.0119476318359375,-0.1399383544921875,-0.99444580078125,-0.0518187209963798,0.0362887643277645,-0.0394187793135643
1769180655073,0.008270263671875,-0.1347808837890625,-0.992950439453125,-0.0427155047655105,0.0269386731088161,-0.0396542027592659
1769180655083,0.0083160400390625,-0.130950927734375,-1.0011138916015625,-0.0223670899868011,0.0327954962849617,-0.0381500497460365
1769180655093,0.005859375,-0.128265380859375,-1.0010833740234375,-0.0097375819459557,0.0270324163138866,-0.0349004603922367
1769180655103,-0.0048980712890625,-0.1196441650390625,-0.9796600341796876,-0.0212333835661411,0.0127735855057835,-0.0462993197143077
1769180655113,-0.0130615234375,-0.110687255859375,-0.97119140625,-0.0344575755298137,0.040828388184309,-0.0524845123291015
1769180655123,-0.0108184814453125,-0.11083984375,-0.9824371337890624,-0.040072850883007,0.0581594444811344,-0.0544888079166412
1769180655133,-0.0060272216796875,-0.1118927001953125,-0.9853363037109376,-0.0473195798695087,0.0731959193944931,-0.0491361208260059
1769180655143,0.0015869140625,-0.1160888671875,-0.9842987060546876,-0.0635888278484344,0.0674783736467361,-0.0411983020603656
1769180655153,0.0084381103515625,-0.1129913330078125,-0.99029541015625,-0.0582007206976413,0.0715652629733085,-0.0390403419733047
1769180655163,0.0053253173828125,-0.11907958984375,-0.9982147216796876,-0.0459925271570682,0.0581743568181991,-0.0395924150943756
1769180655173,0.003753662109375,-0.115509033203125,-0.9974822998046876,-0.0301203522831201,0.0427384078502655,-0.05220328271389
1769180655183,0.005645751953125,-0.11419677734375,-1.00128173828125,-0.0107285445556044,0.0350687727332115,-0.0567010976374149
1769180655193,0.01611328125,-0.1217498779296875,-1.0010528564453125,0.0043127229437232,0.0374469757080078,-0.0459581688046455
1769180655203,0.0283966064453125,-0.12689208984375,-0.9894256591796876,-0.0004191815387457,0.0379298068583011,-0.0292750652879476
1769180655213,0.028717041015625,-0.13037109375,-0.9757080078125,-0.0200493410229682,0.020398749038577,-0.0133666712790727
1769180655223,0.0212554931640625,-0.1339874267578125,-0.9685211181640624,-0.0438002124428749,0.0220184829086065,-0.0035260252188891
1769180655234,0.022247314453125,-0.1378173828125,-0.9764251708984376,-0.0595967508852481,0.0301749464124441,0.0070805461145937
1769180655243,0.02117919921875,-0.1433258056640625,-0.9871063232421876,-0.0711767077445983,0.025862755253911,0.0173321180045604
1769180655253,0.017608642578125,-0.1409454345703125,-0.9962921142578124,-0.0669135227799415,0.0259583629667758,0.0256563611328601
1769180655264,0.01068115234375,-0.1374359130859375,-1.00958251953125,-0.0436478778719902,0.0333768650889396,0.0298095606267452
1769180655274,0.0037689208984375,-0.136932373046875,-1.0100860595703125,-0.0263746157288551,0.0230659041553735,0.0314165130257606
1769180655284,-0.013763427734375,-0.12841796875,-1.0025787353515625,-0.0082073295488953,0.023559121415019,0.0229945313185453
1769180655294,-0.021392822265625,-0.12261962890625,-1.016845703125,0.027255056425929,0.0368243269622325,0.0064310012385249
1769180655304,-0.0244903564453125,-0.12493896484375,-1.019805908203125,0.0507055222988128,0.0127333719283342,-0.0080571277067065
1769180655314,-0.015716552734375,-0.1204376220703125,-1.0008087158203125,0.0473443455994129,-0.0128974225372076,-0.0206008832901716
1769180655324,-0.0164642333984375,-0.1223297119140625,-0.9972076416015624,0.0455286018550396,-0.0023268037475645,-0.028511269018054
1769180655334,-0.00927734375,-0.128082275390625,-1.002960205078125,0.0586020611226558,0.0025172198656946,-0.0325416959822177
1769180655344,-0.00030517578125,-0.129364013671875,-0.9981536865234376,0.0711466148495674,-0.019413910806179,-0.0311672408133745
1769180655354,0.0095062255859375,-0.1278228759765625,-0.9967498779296876,0.0825409516692161,-0.0302487164735794,-0.018736669793725
1769180655364,0.0124664306640625,-0.12738037109375,-0.9992218017578124,0.0918577536940574,-0.0236520655453205,-0.0151541857048869
1769180655374,0.0060577392578125,-0.1289215087890625,-0.9872283935546876,0.0937382131814956,-0.0125884963199496,-0.0143421879038214
1769180655384,-0.000244140625,-0.127166748046875,-0.9771575927734376,0.089889146387577,-0.013202354311943,-0.0201694499701261
1769180655394,-0.0012054443359375,-0.125030517578125,-0.9774169921875,0.0864970758557319,-0.0118233701214194,-0.0191326811909675
1769180655404,-0.0063323974609375,-0.122467041015625,-0.9748992919921876,0.0734305381774902,-0.023822508752346,-0.0276606567203998
1769180655415,-0.013031005859375,-0.1165771484375,-0.96795654296875,0.0554789714515209,-0.0250736605376005,-0.0411564894020557
1769180655424,-0.00823974609375,-0.11614990234375,-0.970367431640625,0.0369689352810382,-0.0244398284703493,-0.0492727421224117
1769180655434,0.0032501220703125,-0.1224212646484375,-0.9737701416015624,0.0239506065845489,-0.0200908873230218,-0.0500194914638996
1769180655444,0.0150146484375,-0.129852294921875,-0.97723388671875,0.0127565413713455,-0.0236890837550163,-0.038056306540966
1769180655455,0.0243988037109375,-0.130279541015625,-0.97906494140625,-0.000614391232375,-0.0410227999091148,-0.0218054298311471
1769180655464,0.018829345703125,-0.12689208984375,-0.9835662841796876,-0.0069785472005605,-0.056587379425764,-0.0173656735569238
1769180655474,0.0130462646484375,-0.12579345703125,-0.9954986572265624,0.0071764201857149,-0.0491028316318988,-0.0158330257982015
1769180655485,0.01373291015625,-0.1300048828125,-1.00018310546875,0.0171241257339715,-0.0608822591602802,-0.0097967041656374
1769180655495,0.0145416259765625,-0.13189697265625,-0.9866180419921876,0.0070714917965233,-0.065953716635704,-0.0005459480453282
1769180655505,0.0102691650390625,-0.1340789794921875,-0.979461669921875,-0.0048418929800391,-0.050400324165821,0.0060304617509245
1769180655515,-0.001678466796875,-0.13525390625,-0.974212646484375,-0.0144644267857074,-0.0350687727332115,0.0055130096152424
1769180655525,-0.00262451171875,-0.136871337890625,-0.97003173828125,-0.0290790554136037,-0.0200200472027063,0.0056799896992743
1769180655535,0.0044403076171875,-0.1416778564453125,-0.975616455078125,-0.0436606630682945,-0.0137893157079815,0.0080142505466938
1769180655545,0.0106353759765625,-0.1385498046875,-0.98406982421875,-0.0408518239855766,-0.0251138750463724,0.0106148272752761
1769180655555,0.0095977783203125,-0.132598876953125,-0.9984588623046876,-0.0193113796412944,-0.0416744761168956,0.0089375684037804
1769180655565,0.00408935546875,-0.129638671875,-1.0109405517578125,0.0033896714448928,-0.0428436025977134,0.012425510212779
1769180655575,-0.0105743408203125,-0.122955322265625,-1.0200653076171875,0.0299656223505735,-0.0283538773655891,0.0022695458028465
1769180655585,-0.0194549560546875,-0.1150054931640625,-1.01849365234375,0.059027899056673,-0.0095136100426316,-0.0062752063386142
1769180655595,-0.0206298828125,-0.1252288818359375,-1.0089111328125,0.0682198032736778,-0.0004857605672441,-0.0105280084535479
1769180655605,-0.014251708984375,-0.1314544677734375,-0.9918212890625,0.0502312108874321,-0.0025616947095841,-0.0146162267774343
1769180655616,-0.0059051513671875,-0.1395111083984375,-0.9849700927734376,0.0318620577454566,0.0021118866279721,-0.0085506113246083
1769180655625,0.009490966796875,-0.154876708984375,-0.9841461181640624,0.0216275304555892,-0.0059399143792688,0.0014958975370973
1769180655635,0.0184783935546875,-0.1519622802734375,-0.9833831787109376,0.0279898233711719,-0.024861142039299,0.0048994175158441
1769180655645,0.006683349609375,-0.1366424560546875,-0.9977874755859376,0.0536448508501052,-0.0154468668624758,-0.0009456885163672
1769180655656,-0.0136566162109375,-0.1276397705078125,-1.007049560546875,0.0910601317882537,0.0177728720009326,-0.0096811233088374
1769180655665,-0.0221099853515625,-0.120513916015625,-1.011749267578125,0.116571620106697,0.0429690368473529,-0.0170354433357715
1769180655675,-0.0200042724609375,-0.11541748046875,-1.00628662109375,0.1277537047863006,0.041663821786642,-0.0216147471219301
1769180655686,-0.01202392578125,-0.12255859375,-0.99072265625,0.1195335909724235,0.0291237961500883,-0.0262529086321592
1769180655696,-0.0006561279296875,-0.1348876953125,-0.9755401611328124,0.0983534678816795,0.0233018603175878,-0.0233604498207569
1769180655706,0.011199951171875,-0.1450042724609375,-0.9650421142578124,0.0700240954756736,0.0266742222011089,-0.0161906871944665
1769180655716,0.01605224609375,-0.1526031494140625,-0.9599609375,0.0496413223445415,0.0242986809462308,-0.0092869754880666
1769180655726,0.0118255615234375,-0.1518402099609375,-0.959625244140625,0.0417176187038421,0.0163014754652977,-0.0126558737829327
1769180655736,0.004486083984375,-0.150634765625,-0.9610443115234376,0.0267570447176694,0.0067175575532019,-0.0133128762245178
1769180655746,0.0168609619140625,-0.1509246826171875,-0.954193115234375,0.0100041646510362,0.0125147262588143,-0.0026469158474355
1769180655756,0.0149993896484375,-0.1545562744140625,-0.9601593017578124,-0.0010759170399978,0.0156836211681365,0.0088864360004663
1769180655766,0.0118865966796875,-0.14935302734375,-0.9671173095703124,-0.0155691057443618,0.0083743100985884,0.0170343779027462
1769180655776,0.003509521484375,-0.1450042724609375,-0.9734954833984376,-0.0249357093125581,-0.0026184199377894,0.013399695046246
1769180655786,0.0003662109375,-0.140960693359375,-0.98699951171875,-0.0223140940070152,-0.0044365599751472,0.0108870025724172
1769180655796,-0.0072784423828125,-0.1368255615234375,-1.0015106201171875,-0.0046086004003882,0.008812665939331,0.0060296631418168
1769180655806,-0.009063720703125,-0.1345367431640625,-1.0098876953125,0.0208847746253013,0.0170961618423461,0.0039926110766828
1769180655816,-0.00604248046875,-0.1403961181640625,-1.00775146484375,0.0391577892005443,0.0100270677357912,0.0110236229375004
1769180655826,0.0135955810546875,-0.1485443115234375,-0.9949188232421876,0.033546507358551,-0.0064512412063777,0.0221287384629249
1769180655836,0.0102386474609375,-0.148193359375,-0.9760589599609376,0.007104514632374,-0.0222025066614151,0.0279035363346338
1769180655846,-0.00140380859375,-0.1495819091796875,-0.9682769775390624,-0.022055234760046,-0.0291088838130235,0.0321768447756767
1769180655856,-0.0082855224609375,-0.146728515625,-0.9633331298828124,-0.0481017492711544,-0.0381311401724815,0.0231426041573286
1769180655866,-0.0129547119140625,-0.1441650390625,-0.965301513671875,-0.0691343322396278,-0.0451501682400703,0.0133054191246628
1769180655876,-0.0139007568359375,-0.1446380615234375,-0.966400146484375,-0.0864070579409599,-0.0459373965859413,0.00374600244686
1769180655887,-0.0080718994140625,-0.144866943359375,-0.968841552734375,-0.1109901666641235,-0.0559748522937297,-0.0053686662577092
1769180655897,-0.0152587890625,-0.149658203125,-0.967041015625,-0.1326909363269806,-0.0717370361089706,-0.016751816496253
1769180655907,-0.006927490234375,-0.1390838623046875,-0.9751129150390624,-0.141831174492836,-0.0464159697294235,-0.0107967210933566
1769180655917,-0.0003204345703125,-0.141143798828125,-0.9874267578125,-0.1396156847476959,-0.0261743459850549,-0.0049452236853539
1769180655927,0.0006866455078125,-0.1435394287109375,-0.9908447265625,-0.1288463920354843,-0.0173803213983774,-6.205165118444711e-05
1769180655937,-0.0034332275390625,-0.139617919921875,-1.00244140625,-0.1125933900475502,-0.0044064661487936,-0.003680754918605
1769180655947,-0.007354736328125,-0.1375732421875,-1.0150909423828125,-0.0855511203408241,0.0056941048242151,-0.0050450921989977
1769180655957,-0.0081024169921875,-0.1339569091796875,-1.0191802978515625,-0.0511963404715061,0.0082110585644841,-0.0133552197366952
1769180655967,-0.00665283203125,-0.137176513671875,-1.01776123046875,-0.0247247871011495,0.0215753335505723,-0.0082917520776391
1769180655977,0.0028228759765625,-0.1323394775390625,-1.01361083984375,-0.0042394860647618,0.0325001515448093,-0.0015102786710485
1769180655987,0.0005645751953125,-0.137054443359375,-1.00640869140625,0.0125056719407439,0.0377108938992023,0.0001731054653646
1769180655997,-0.0012969970703125,-0.1403045654296875,-1.0013275146484375,0.0146391298621892,0.0410217344760894,-0.0013171994360163
1769180656007,-0.0008087158203125,-0.1377716064453125,-0.993438720703125,0.005225121974945,0.0328682027757167,-0.0043287021107971
1769180656017,-0.0005950927734375,-0.13873291015625,-0.9932403564453124,0.006090915761888,0.0250398386269807,-0.0110409334301948
1769180656027,-0.001953125,-0.142974853515625,-1.001556396484375,0.0223801396787166,0.0264617018401622,-0.0136436400935053
1769180656037,3.0517578125e-05,-0.1418304443359375,-1.0025177001953125,0.0408217310905456,0.036522589623928,-0.0071047809906303
1769180656048,0.00091552734375,-0.143768310546875,-0.9987640380859376,0.0593839660286903,0.0501766167581081,-7.536746124969795e-05
1769180656057,-0.0027618408203125,-0.14324951171875,-0.9971160888671876,0.0677646696567535,0.0511633194983005,0.0012908341595903
1769180656067,-0.007354736328125,-0.1403045654296875,-0.987396240234375,0.0618199594318866,0.0445895716547966,-0.004163319710642
1769180656077,-0.00836181640625,-0.138885498046875,-0.980621337890625,0.0484940335154533,0.0315978750586509,-0.0063393884338438
1769180656087,-0.008514404296875,-0.1398162841796875,-0.9846343994140624,0.0439426898956298,0.0157914794981479,-0.0108252167701721
1769180656098,-0.00543212890625,-0.140167236328125,-0.9813995361328124,0.0377798676490783,0.0009898969437927,-0.0107900630682706
1769180656108,-0.0005340576171875,-0.141876220703125,-0.970306396484375,0.026445722207427,0.0005358280031941,-0.0065428540110588
1769180656118,-0.001556396484375,-0.14312744140625,-0.9652862548828124,0.0098241344094276,0.0065899919718503,-0.0034120420459657
1769180656128,-0.0037384033203125,-0.1410675048828125,-0.954803466796875,-0.0050964914262294,0.0010045443195849,-0.0117543935775756
1769180656138,-0.008880615234375,-0.1432647705078125,-0.958160400390625,-0.0128630679100751,0.0006191849242895,-0.0222634933888912
1769180656148,-0.0081634521484375,-0.14288330078125,-0.9633026123046876,-0.0281701181083917,0.0079258335754275,-0.0244254488497972
1769180656158,0.002410888671875,-0.14141845703125,-0.963958740234375,-0.0429456010460853,0.0044757085852324,-0.020053869113326
1769180656168,0.0053863525390625,-0.141845703125,-0.9629669189453124,-0.0568590201437473,-0.0119567941874265,-0.0176477022469043
1769180656178,-0.00079345703125,-0.1416778564453125,-0.9636383056640624,-0.0720917731523513,-0.031131288036704,-0.0204083360731601
1769180656188,-0.008880615234375,-0.13580322265625,-0.96875,-0.0830647945404052,-0.0449911765754222,-0.0307672340422868
1769180656198,-0.0080108642578125,-0.1342315673828125,-0.976409912109375,-0.0960266664624214,-0.0179366562515497,-0.0337678156793117
1769180656208,0.0024261474609375,-0.1360015869140625,-0.978424072265625,-0.1109883040189743,0.0048341699875891,-0.0219540353864431
1769180656218,0.0142822265625,-0.1432647705078125,-0.981903076171875,-0.1214665099978447,0.0133778573945164,-0.0036581179592758
1769180656228,0.024322509765625,-0.1426849365234375,-0.9890289306640624,-0.1120232045650482,0.0065961172804236,0.000378435186576
1769180656238,0.012664794921875,-0.128936767578125,-1.0024871826171875,-0.0720361098647117,-0.0111429318785667,-0.0080323601141572
1769180656248,-0.0106201171875,-0.12774658203125,-1.0218353271484375,-0.0308484602719545,0.006474410649389,-0.0207292474806308
1769180656258,-0.014495849609375,-0.1358184814453125,-1.0289154052734375,0.0015659386990591,0.0290955677628517,-0.0237279664725065
1769180656268,-0.001556396484375,-0.132354736328125,-1.02459716796875,0.0233932062983512,0.0044778389856219,-0.0180058982223272
1769180656278,-0.000518798828125,-0.132598876953125,-1.01116943359375,0.0352602526545524,-0.0223103649914264,-0.0230659041553735
1769180656289,-0.0116119384765625,-0.1352081298828125,-0.9982452392578124,0.031593345105648,-0.0152138406410813,-0.0339217483997345
1769180656298,-0.0111236572265625,-0.1422882080078125,-0.9844818115234376,0.002510828198865,-0.0141461789608001,-0.0271682385355234
1769180656308,0.004058837890625,-0.151580810546875,-0.9693603515625,-0.0223796069622039,-0.0189979262650012,-0.0215606857091188
1769180656319,0.0113677978515625,-0.1419677734375,-0.987213134765625,-0.0092725940048694,-0.0066054384224116,-0.0159174483269453
1769180656329,-0.0012664794921875,-0.1300201416015625,-1.008392333984375,0.0290383100509643,-0.013907560147345,-0.0261240117251873
1769180656339,-0.020050048828125,-0.1223602294921875,-1.0164337158203125,0.0653177499771118,-0.0173251945525407,-0.0385841429233551
1769180656349,-0.0228271484375,-0.1209869384765625,-1.01470947265625,0.0897788852453231,-0.0120079265907406,-0.0515984781086444
1769180656359,-0.0204925537109375,-0.127410888671875,-0.9983062744140624,0.0964692831039428,-0.0200727768242359,-0.061972290277481
1769180656369,-0.00323486328125,-0.1380157470703125,-0.972259521484375,0.0739187002182006,-0.0358227118849754,-0.0592958144843578
1769180656379,0.013763427734375,-0.144927978515625,-0.9522857666015624,0.0248662009835243,-0.0443754531443119,-0.048559546470642
1769180656389,0.0171966552734375,-0.1478271484375,-0.95306396484375,-0.0101756723597645,-0.0344349406659603,-0.0396126583218574
1769180656399,0.0137939453125,-0.145538330078125,-0.9667816162109376,-0.0248025525361299,-0.026210032403469,-0.0276364218443632
1769180656409,0.021484375,-0.1404571533203125,-0.96875,-0.0368735939264297,-0.0213455017656087,-0.007693872321397
1769180656419,0.0204620361328125,-0.1490478515625,-0.9600372314453124,-0.0467275567352771,-0.0010415622964501,0.0087705887854099
1769180656429,0.008270263671875,-0.1440887451171875,-0.96002197265625,-0.0677095353603363,0.0123501429334282,0.0205750502645969
1769180656439,-0.0037689208984375,-0.133026123046875,-0.9543609619140624,-0.0937653705477714,0.0099136168137192,0.0132747925817966
1769180656449,-0.0236358642578125,-0.1248931884765625,-0.96435546875,-0.11451006680727,0.009613212198019,-0.005315136630088
1769180656459,-0.024444580078125,-0.1198883056640625,-0.98486328125,-0.1168334111571312,0.0044091292656958,-0.0232161059975624
1769180656469,-0.01776123046875,-0.12359619140625,-0.99859619140625,-0.1094724312424659,-0.0038474688772112,-0.0347254909574985
1769180656479,-0.0034332275390625,-0.1261749267578125,-1.00457763671875,-0.0985473468899726,-0.0108185596764087,-0.0326173305511474
1769180656489,-0.001129150390625,-0.1256866455078125,-1.0166778564453125,-0.0673343017697334,-0.0235641822218894,-0.0270111113786697
1769180656499,-0.00103759765625,-0.1299285888671875,-1.0175628662109375,-0.0495619587600231,-0.0154567202553153,-0.0183537062257528
1769180656509,0.0006256103515625,-0.1331634521484375,-1.0099945068359375,-0.0400203876197338,-0.0025196166243404,-0.0149437952786684
1769180656520,0.00128173828125,-0.131927490234375,-1.0139617919921875,-0.0199015364050865,-0.0057044909335672,-0.0104627609252929
1769180656530,0.000152587890625,-0.132080078125,-1.0160675048828125,0.005503156222403,-0.0170668680220842,-0.0030248183757066
1769180656540,0.000244140625,-0.12347412109375,-1.02301025390625,0.0369673371315002,-0.02650111541152,0.0041465419344604
1769180656550,-0.0044097900390625,-0.1166534423828125,-1.0221710205078125,0.0648748725652694,-0.0281211175024509,0.0068350029177963
1769180656560,-0.0152740478515625,-0.1164703369140625,-1.0192108154296875,0.0904412195086479,-0.0263594351708889,0.0031068436801433
1769180656570,-0.0236358642578125,-0.1183624267578125,-1.011444091796875,0.1099099889397621,-0.0325486212968826,-0.0148689607158303
1769180656580,-0.0277252197265625,-0.1221160888671875,-0.9988555908203124,0.1192371770739555,-0.0555290393531322,-0.0387521907687187
1769180656590,-0.017730712890625,-0.1345367431640625,-0.978607177734375,0.119413211941719,-0.0727218762040138,-0.0690256729722023
1769180656600,-0.00848388671875,-0.1442108154296875,-0.9671173095703124,0.0982677116990089,-0.0437211170792579,-0.0637142658233642
1769180656610,-0.000732421875,-0.13873291015625,-0.962921142578125,0.0668368190526962,0.01143747754395,-0.0304854717105627
1769180656620,0.0107269287109375,-0.1313323974609375,-0.966644287109375,0.054750595241785,0.0266129691153764,-0.0004364920896477
1769180656630,0.0034942626953125,-0.1422882080078125,-0.96990966796875,0.055159393697977,0.0243189223110675,0.0067614996805787
1769180656640,-0.008880615234375,-0.1329498291015625,-0.977294921875,0.0519303083419799,0.013236709870398,0.0060997041873633
1769180656650,-0.014251708984375,-0.13128662109375,-0.9705352783203124,0.0371787920594215,-0.0051135355606675,-0.0038874163292348
1769180656660,-0.0158538818359375,-0.1379547119140625,-0.962432861328125,0.0195515975356102,-0.0169283840805292,-0.0153880110010504
1769180656670,-0.01275634765625,-0.1414642333984375,-0.9622650146484376,-0.0041968757286667,-0.0283874329179525,-0.0217114202678203
1769180656680,-0.01434326171875,-0.1403350830078125,-0.9517059326171876,-0.0347806178033351,-0.0310905408114194,-0.0303011797368526
1769180656691,-0.017822265625,-0.140625,-0.960784912109375,-0.0501638352870941,-0.0014522217679768,-0.0313211716711521
1769180656701,-0.0113525390625,-0.138885498046875,-0.9858551025390624,-0.0492916479706764,0.0118968728929758,-0.027297668159008
1769180656710,-0.0065765380859375,-0.1337127685546875,-0.997467041015625,-0.0415501073002815,-0.0085767097771167,-0.0208996888250112
1769180656721,0.0017852783203125,-0.1282958984375,-1.0082244873046875,-0.0294769313186407,-0.0262438543140888,-0.0148556446656584
1769180656730,0.0064544677734375,-0.1263427734375,-1.012115478515625,-0.0224174242466688,-0.0404353067278862,-0.0086049400269985
1769180656741,0.004730224609375,-0.1253814697265625,-1.0085601806640625,-0.0117328222841024,-0.0410164073109626,-0.0023691481910645
1769180656751,0.003265380859375,-0.127197265625,-1.0095367431640625,0.0034455978311598,-0.0238464772701263,0.0020085561554878
1769180656761,0.0016937255859375,-0.1316680908203125,-1.003204345703125,0.0185566395521163,-0.0156865511089563,0.003018426708877
1769180656771,-0.002716064453125,-0.133148193359375,-0.9961700439453124,0.0284145977348089,-0.0156463384628295,0.0044693169184029
1769180656781,-0.005859375,-0.136688232421875,-0.9896087646484376,0.0281786415725946,-0.0135568212717771,0.0070813451893627
1769180656791,-0.0068206787109375,-0.1352691650390625,-0.976806640625,0.011845207773149,-0.0120212426409125,0.013424995355308
1769180656801,-0.018218994140625,-0.1331024169921875,-0.965728759765625,-0.0148817440494894,0.00579743552953,0.0113858124241232
1769180656811,-0.0208282470703125,-0.1320037841796875,-0.9698486328125,-0.0368719957768917,0.0394744388759136,0.0129773179069161
1769180656821,-0.010650634765625,-0.132049560546875,-0.972076416015625,-0.0540810786187648,0.0551974736154079,0.0171630084514617
1769180656831,-0.0019073486328125,-0.13092041015625,-0.979888916015625,-0.0593597292900085,0.0700893402099609,0.02836799249053
1769180656841,0.0019378662109375,-0.127532958984375,-0.99359130859375,-0.0432247035205364,0.0636077374219894,0.0358599945902824
1769180656851,-0.0078125,-0.1237335205078125,-1.0039520263671875,-0.0177270658314228,0.0507712997496128,0.0296369884163141
1769180656861,-0.0162811279296875,-0.1205291748046875,-1.007781982421875,0.0064187506213784,0.0381111651659011,0.0197771675884723
1769180656871,-0.0132904052734375,-0.1264190673828125,-1.001434326171875,0.0192682370543479,0.0049236523918807,0.0150002548471093
1769180656881,-0.0085906982421875,-0.13427734375,-0.99713134765625,0.0230722967535257,0.0045204497873783,0.012425510212779
1769180656891,0.00518798828125,-0.1447906494140625,-0.9918060302734376,0.0218592267483472,-0.0128039456903934,0.0227580424398183
1769180656902,0.003662109375,-0.1349334716796875,-0.9904632568359376,0.0276073925197124,-0.0201729126274585,0.0215878505259752
1769180656911,-0.0093841552734375,-0.126495361328125,-0.994476318359375,0.0375508368015289,-0.0163712501525878,0.0150604424998164
1769180656921,-0.0208740234375,-0.1318817138671875,-0.998748779296875,0.0411772653460502,-0.0069370018318295,0.0151752242818474
1769180656931,-0.014923095703125,-0.1336822509765625,-0.990753173828125,0.0359627939760685,-0.0167816430330276,0.0168618038296699
1769180656942,-0.0101776123046875,-0.13348388671875,-0.98187255859375,0.0315936133265495,-0.0280063338577747,0.0167608708143234
1769180656952,-0.01519775390625,-0.13507080078125,-0.9839935302734376,0.0283195227384567,-0.0331928394734859,0.0127014145255088
1769180656962,-0.0202789306640625,-0.1363677978515625,-0.982330322265625,0.015926769003272,-0.0151770887896418,0.0126638635993003
1769180656972,-0.0086822509765625,-0.1419830322265625,-0.980438232421875,0.0024490428622812,0.0075220982544124,0.0263985842466354
1769180656982,0.002685546875,-0.1444549560546875,-0.9765625,-0.0034535871818661,0.0059359199367463,0.0325611382722854
1769180656992,-0.004302978515625,-0.13226318359375,-0.9810028076171876,0.0110830115154385,0.0018780612153932,0.0228339433670043
1769180657002,-0.02239990234375,-0.1218414306640625,-0.9880523681640624,0.0287352409213781,0.0138654820621013,0.0040237698704004
1769180657012,-0.029876708984375,-0.1188507080078125,-0.9893951416015624,0.0311696380376815,0.0341374650597572,-0.0099612874910235
1769180657022,-0.0248565673828125,-0.11883544921875,-0.985382080078125,0.0245040114969015,0.0185057744383811,-0.0158806964755058
1769180657032,-0.0106048583984375,-0.125579833984375,-0.9745330810546876,0.0083322320133447,-0.0011251855175942,-0.0118404142558574
1769180657042,0.00628662109375,-0.1357421875,-0.958282470703125,-0.0299616269767284,-0.0058352523483335,-0.0003430151555221
1769180657052,0.00811767578125,-0.1407012939453125,-0.950958251953125,-0.071775384247303,0.0058227353729307,0.0076065207831561
1769180657062,0.0160675048828125,-0.1440582275390625,-0.95721435546875,-0.0907434821128845,0.0036935380194336,0.0222656242549419
1769180657072,0.0158538818359375,-0.1458587646484375,-0.9626617431640624,-0.0918995663523674,-0.0131472274661064,0.0267738234251737
1769180657082,0.0056915283203125,-0.14202880859375,-0.9629364013671876,-0.1054451987147331,-0.027973311021924,0.0285267159342765
1769180657092,-0.009429931640625,-0.1292572021484375,-0.965606689453125,-0.1159540340304374,-0.0239482093602418,0.0235436763614416
1769180657103,-0.0251007080078125,-0.12738037109375,-0.99566650390625,-0.0975478589534759,0.0141142206266522,0.0179638210684061
1769180657112,-0.02081298828125,-0.12689208984375,-1.011932373046875,-0.0739152356982231,0.0181542355567216,0.0164617970585823
1769180657123,-0.0162200927734375,-0.12640380859375,-1.0092010498046875,-0.0571921840310096,0.0016306535108014,0.0151675008237361
1769180657132,-0.01025390625,-0.13043212890625,-1.00372314453125,-0.0518432222306728,0.0008428904693573,0.0143693517893552
1769180657143,-0.0060272216796875,-0.1313629150390625,-1.0030517578125,-0.0477579347789287,0.0170178655534982,0.013791712000966
1769180657153,-0.01495361328125,-0.1317596435546875,-1.0011749267578125,-0.0413042977452278,0.0359545387327671,0.0047809067182242
1769180657163,-0.0042724609375,-0.1362457275390625,-1.0167388916015625,-0.0210783872753381,0.0359191186726093,0.0236150473356246
1769180657173,0.00689697265625,-0.1421051025390625,-1.0218963623046875,-0.0039651803672313,0.0349441356956958,0.0454218089580535
1769180657183,0.0051727294921875,-0.133453369140625,-1.0187225341796875,0.0111282849684357,0.025946645066142,0.0542666986584663
1769180657193,-0.01397705078125,-0.13238525390625,-1.0163421630859375,0.0270835496485233,0.0287565477192401,0.050166230648756
1769180657203,-0.0255126953125,-0.1273345947265625,-1.0097503662109375,0.033321738243103,0.0352250970900058,0.0405764542520046
1769180657213,-0.031524658203125,-0.1207122802734375,-1.0011444091796875,0.0476426184177398,0.0566198714077472,0.0281482804566621
1769180657223,-0.02435302734375,-0.12481689453125,-1.0025482177734375,0.0667734369635582,0.0678171291947364,0.0227125026285648
1769180657233,-0.0211334228515625,-0.128143310546875,-0.99957275390625,0.0944599285721778,0.0648578256368637,0.0149571113288402
1769180657243,-0.0237579345703125,-0.1288604736328125,-0.9969482421875,0.112875685095787,0.0511249676346778,0.0115738315507769
1769180657253,-0.0191192626953125,-0.129241943359375,-0.991912841796875,0.1219285652041435,0.0298620257526636,0.0008074704091995
1769180657263,-0.0189361572265625,-0.1329498291015625,-0.9819488525390624,0.1215517297387123,0.0247964262962341,-0.0021576930303126
1769180657273,-0.015289306640625,-0.1396942138671875,-0.9734344482421876,0.1068292409181594,0.0069718891754746,-0.0012618057662621
1769180657283,-0.009918212890625,-0.1448516845703125,-0.9603118896484376,0.0761994272470474,-0.0230856109410524,-0.0021896511316299
1769180657293,-0.008544921875,-0.15185546875,-0.94683837890625,0.0295717399567365,-0.0523116737604141,-0.001235706731677
1769180657303,-0.0094451904296875,-0.1544647216796875,-0.9385528564453124,-0.0227026492357254,-0.0681183338165283,-0.0034482609480619
1769180657313,-0.006744384765625,-0.1572723388671875,-0.9476318359375,-0.063415989279747,-0.0681817159056663,-0.0003099919413216
1769180657323,-0.000823974609375,-0.152923583984375,-0.958740234375,-0.0896172374486923,-0.0591978095471859,0.0061476412229239
1769180657333,-0.0040740966796875,-0.1435089111328125,-0.9752044677734376,-0.0909000784158706,-0.0482743233442306,0.0077029271051287
1769180657343,-0.0017852783203125,-0.1351318359375,-0.9991455078125,-0.0618417970836162,-0.0089112035930156,0.0153667060658335
1769180657354,0.0122528076171875,-0.1334381103515625,-1.0211639404296875,-0.0172684695571661,0.0203939545899629,0.0325643345713615
1769180657364,0.01788330078125,-0.1330413818359375,-1.0289306640625,0.0255394484847784,0.0137030286714434,0.0492820627987384
1769180657374,0.0189361572265625,-0.13201904296875,-1.0306396484375,0.0614593662321567,-0.0049830405041575,0.0661563798785209
1769180657384,0.0153350830078125,-0.13421630859375,-1.026763916015625,0.0827939510345459,-0.0328255891799926,0.0802218690514564
1769180657394,-0.0001220703125,-0.1331329345703125,-1.005401611328125,0.0784484669566154,-0.0759296491742134,0.0846831947565078
1769180657404,-0.022705078125,-0.1307220458984375,-0.9835205078125,0.0578411966562271,-0.0869886949658393,0.0760819837450981
1769180657414,-0.0343017578125,-0.1360626220703125,-0.9691009521484376,0.0282854344695806,-0.0959070846438407,0.0582103095948696
1769180657424,-0.036102294921875,-0.1420745849609375,-0.952728271484375,-0.0009273127070628,-0.0430137813091278,0.0401010811328887
1769180657434,-0.030059814453125,-0.155120849609375,-0.946044921875,-0.0318639241158962,-0.0162578001618385,0.0251261256635189
1769180657444,-0.0078887939453125,-0.1472015380859375,-0.9412689208984376,-0.0606180727481842,-0.0014357101172208,0.0201135240495204
1769180657454,-0.0057220458984375,-0.1463165283203125,-0.958404541015625,-0.061481736600399,0.0238320957869291,0.0219074301421642
1769180657464,0.007171630859375,-0.1501312255859375,-0.9797821044921876,-0.0485901720821857,0.0380230173468589,0.0320892259478569
1769180657474,0.008819580078125,-0.14501953125,-0.996307373046875,-0.028023911640048,0.039420910179615,0.0434878207743167
1769180657484,0.006195068359375,-0.1402130126953125,-1.0086517333984375,-0.0093538202345371,0.0324729867279529,0.0574337318539619
1769180657494,0.0074005126953125,-0.1430511474609375,-1.0118255615234375,0.0056613478809595,0.0222475156188011,0.0730984434485435
1769180657504,0.007904052734375,-0.145111083984375,-1.001678466796875,0.0030708911363035,0.0043920851312577,0.0798993557691574
1769180657514,-0.0001373291015625,-0.149627685546875,-0.994171142578125,-0.0045303031802177,0.0025875272694975,0.0794996172189712
1769180657524,-0.005950927734375,-0.1490631103515625,-0.99420166015625,-0.0133203323930501,0.0003169161791447,0.0778101086616516
1769180657535,-0.0133819580078125,-0.143402099609375,-0.9923095703125,-0.0214981008321046,-0.00341949891299,0.0767456442117691
1769180657544,-0.0134429931640625,-0.148834228515625,-0.9935150146484376,-0.0316205099225044,0.0065409899689257,0.0839553549885749
1769180657554,0.00347900390625,-0.152801513671875,-1.0020599365234375,-0.0252683386206626,0.0134215326979756,0.0972085744142532
1769180657565,0.0093536376953125,-0.1346435546875,-1.0173797607421875,0.0163973495364189,0.0145693551748991,0.1023628562688827
1769180657575,-0.0075225830078125,-0.130706787109375,-1.027191162109375,0.0621720291674137,0.0333204045891761,0.1003915816545486
1769180657585,-0.0143280029296875,-0.1424102783203125,-1.02398681640625,0.0941203758120536,0.0715141296386718,0.1095089167356491
1769180657595,-0.001922607421875,-0.1398162841796875,-1.00933837890625,0.1108261197805404,0.0797241255640983,0.1226622685790062
1769180657605,0.0034027099609375,-0.143768310546875,-0.9854888916015624,0.1064928844571113,0.0631629899144172,0.1301705241203308
1769180657615,-0.0021209716796875,-0.1505584716796875,-0.9729156494140624,0.0958245322108268,0.0744292289018631,0.1330555230379104
1769180657625,-0.0028076171875,-0.1622314453125,-0.9712677001953124,0.0739945992827415,0.0823710411787033,0.1395895928144455
1769180657635,0.002471923828125,-0.1661834716796875,-0.95294189453125,0.0377665534615516,0.0572385229170322,0.1416940242052078
1769180657645,-0.0006561279296875,-0.154052734375,-0.949432373046875,0.0130865070968866,0.0386637710034847,0.133520245552063
1769180657655,-0.0203094482421875,-0.1420745849609375,-0.9738006591796876,0.0215300600975751,0.0531737394630909,0.1177476719021797
1769180657665,-0.0404510498046875,-0.1303558349609375,-0.9973297119140624,0.0489427745342254,0.0655659586191177,0.0981358885765075
1769180657675,-0.0487060546875,-0.1257171630859375,-1.0011444091796875,0.074096068739891,0.0559673942625522,0.0770455151796341
1769180657685,-0.0460968017578125,-0.1283111572265625,-0.9890594482421876,0.0820778235793113,0.0432888828217983,0.0593674518167972
1769180657695,-0.0378570556640625,-0.13909912109375,-0.9749298095703124,0.0729322656989097,0.0422939285635948,0.0470721721649169
1769180657705,-0.0250244140625,-0.1489715576171875,-0.964996337890625,0.0540840066969394,0.0279773063957691,0.0455331318080425
1769180657715,-0.008209228515625,-0.1593475341796875,-0.96185302734375,0.0333214700222015,0.0135538922622799,0.0501981899142265
1769180657725,0.0018157958984375,-0.162384033203125,-0.957855224609375,0.0039247004315257,-0.0094928378239274,0.0540608391165733
1769180657735,-0.0002899169921875,-0.1617889404296875,-0.953277587890625,-0.0257799308747053,-0.0190530531108379,0.0547849498689174
1769180657745,-0.0067138671875,-0.15936279296875,-0.9637908935546876,-0.0431967377662658,-0.0107059078291058,0.0514996759593486
1769180657755,-0.0092010498046875,-0.154266357421875,-0.971954345703125,-0.0587719716131687,-0.0127320401370525,0.0500937923789024
1769180657765,-0.012664794921875,-0.15069580078125,-0.980804443359375,-0.0586071200668811,-0.0105943214148283,0.0470138490200042
1769180657775,-0.015655517578125,-0.1463470458984375,-1.0015106201171875,-0.0383716225624084,-0.0023401195649057,0.0475427508354187
1769180657786,-0.008270263671875,-0.14385986328125,-1.0119171142578125,-0.014453774318099,-0.0007869640830904,0.0500240176916122
1769180657796,-0.010040283203125,-0.13909912109375,-1.0106964111328125,0.0061854580417275,-0.0050552124157547,0.0437970161437988
1769180657806,-0.014434814453125,-0.1335906982421875,-1.0058441162109375,0.0256044287234544,-0.0039417445659637,0.0340746119618415
1769180657816,-0.0174713134765625,-0.137237548828125,-0.9963226318359376,0.0347238928079605,-0.0099583584815263,0.0214288588613271
1769180657826,-0.0200653076171875,-0.1488800048828125,-0.983612060546875,0.0253948383033275,0.0097397128120064,0.0117360185831785
1769180657836,-0.01190185546875,-0.153106689453125,-0.9722137451171876,0.0081553980708122,0.0255783312022686,0.0160508714616298
1769180657847,-0.0040435791015625,-0.1534423828125,-0.969879150390625,0.0010902981739491,0.029844980686903,0.0225926600396633
1769180657856,0.00164794921875,-0.1590576171875,-0.9747772216796876,-0.0102821988984942,0.0254795271903276,0.0343262813985347
1769180657866,-0.0008697509765625,-0.1472930908203125,-0.981292724609375,-0.0116097843274474,0.0282779764384031,0.0355284325778484
1769180657876,-0.01129150390625,-0.138580322265625,-0.990203857421875,0.0032056469935923,0.0389122441411018,0.0230091791599988
1769180657886,-0.0155487060546875,-0.13653564453125,-0.984710693359375,0.0031406658235937,0.0396608598530292,0.0046184537932276
1769180657896,-0.0111083984375,-0.1409912109375,-0.9792327880859376,-0.0043460126034915,0.0517598651349544,-0.0028985845856368
1769180657906,0.0012359619140625,-0.14532470703125,-0.985931396484375,-0.0050647999159991,0.0691942498087883,0.0046432213857769
1769180657917,0.0108642578125,-0.150054931640625,-0.990264892578125,-0.0004604605492204,0.0642335787415504,0.0123208481818437
1769180657926,0.012054443359375,-0.1532440185546875,-0.9860687255859376,0.005046157632023,0.0641933679580688,0.0170759223401546
1769180657936,0.0102081298828125,-0.1527099609375,-0.9889373779296876,0.0173246618360281,0.0754558742046356,0.0192514583468437
1769180657946,-0.001251220703125,-0.150543212890625,-0.9961700439453124,0.0319696515798568,0.0825808942317962,0.0130468262359499
1769180657956,-0.005126953125,-0.1468505859375,-0.99383544921875,0.0384086407721042,0.0876835137605667,0.010448645800352
1769180657967,0.0001220703125,-0.1475830078125,-0.98626708984375,0.0248909685760736,0.0766604244709014,0.0139576271176338
1769180657976,0.0008087158203125,-0.1517333984375,-0.978118896484375,0.0092523545026779,0.0568638145923614,0.0147267477586865
1769180657987,-0.0010833740234375,-0.153472900390625,-0.973358154296875,-0.0069963904097676,0.0315573923289775,0.0040575922466814
1769180657997,-0.0107421875,-0.15496826171875,-0.9706878662109376,-0.0178804639726877,0.0203939545899629,-0.0020234698895365
1769180658007,-0.0102996826171875,-0.154510498046875,-0.97760009765625,-0.0223628301173448,0.0298814661800861,-0.0078563252463936
1769180658017,-0.0056304931640625,-0.149932861328125,-0.9833984375,-0.0153435366228222,0.0487936399877071,-0.0048866341821849
1769180658027,-0.0044708251953125,-0.1494598388671875,-0.9966583251953124,0.0034653050824999,0.0643331855535507,-0.0022149509750306
1769180658037,-0.003692626953125,-0.149169921875,-1.0013885498046875,0.021369470283389,0.053749781101942,-0.0080001354217529
1769180658047,-0.0018463134765625,-0.14862060546875,-0.98907470703125,0.016389625146985,0.0258779358118772,-0.0149139687418937
1769180658057,-0.0003662109375,-0.1504669189453125,-0.979248046875,0.0024442493449896,0.0150681650266051,-0.0238091927021741
1769180658067,0.003631591796875,-0.15252685546875,-0.977203369140625,-0.0095913745462894,0.0167981553822755,-0.0257104225456714
1769180658077,0.003997802734375,-0.1498565673828125,-0.980499267578125,-0.0159238390624523,0.0096289254724979,-0.0242230482399463
1769180658087,0.009613037109375,-0.1518096923828125,-0.982666015625,-0.01465670671314,0.0012570120161399,-0.0205441564321517
1769180658097,0.0103912353515625,-0.1573333740234375,-0.985870361328125,-0.0098864529281854,0.0024852619972079,-0.0131493574008345
1769180658107,0.0033416748046875,-0.1544647216796875,-0.9877166748046876,-0.0024634238798171,0.0106726177036762,-0.0102984439581632
1769180658117,0.0004425048828125,-0.155792236328125,-0.990570068359375,0.0122785037383437,0.0197990052402019,-0.0109181618317961
1769180658127,0.00177001953125,-0.156768798828125,-0.9866485595703124,0.0095604816451668,0.0130928987637162,-0.0111392037943005
1769180658137,0.000457763671875,-0.1527252197265625,-0.980865478515625,-0.0017065536230802,0.0045068673789501,-0.0159049313515424
1769180658147,-0.0009918212890625,-0.1491546630859375,-0.9810791015625,-0.0131693314760923,0.0086637958884239,-0.0213950369507074
1769180658157,0.0031890869140625,-0.1500396728515625,-0.98907470703125,-0.0148069094866514,0.0140303317457437,-0.0241181198507547
1769180658168,0.0129852294921875,-0.1538543701171875,-0.99334716796875,-0.0098792621865868,0.0126492157578468,-0.0187846068292856
1769180658177,0.02734375,-0.1656494140625,-0.98931884765625,-0.0134324515238404,-0.007195328362286,0.0066978503018617
1769180658188,0.03466796875,-0.1656494140625,-0.976165771484375,-0.0160484742373228,-0.0276148505508899,0.0191459972411394
1769180658197,0.014892578125,-0.1500091552734375,-0.96881103515625,-0.016357135027647,-0.0274529289454221,0.0096443714573979
1769180658208,-0.017547607421875,-0.1492919921875,-0.9729461669921876,-0.0260600969195365,0.0137022295966744,0.0024415859952569
1769180658218,-0.0227203369140625,-0.1532440185546875,-0.9803466796875,-0.0331824533641338,0.0461888015270233,-0.0015486282063648
1769180658228,-0.011016845703125,-0.1461181640625,-0.9749908447265624,-0.0432207062840461,0.0348714292049407,-0.0099080242216587
1769180658238,-0.0158538818359375,-0.154052734375,-0.9758758544921876,-0.0452894493937492,0.0152932023629546,-0.0333371832966804
1769180658248,-0.019989013671875,-0.1492767333984375,-0.9822540283203124,-0.057656105607748,0.02254419028759,-0.0547013282775878
1769180658258,-0.0148468017578125,-0.151153564453125,-0.98223876953125,-0.0801222696900367,0.0353260338306427,-0.0612383224070072
1769180658268,0.0060577392578125,-0.15728759765625,-0.985107421875,-0.097840279340744,0.0320255756378173,-0.0495731458067894
1769180658278,0.028289794921875,-0.1543731689453125,-0.9983673095703124,-0.0904497355222702,0.0132372416555881,-0.0383686944842338
1769180658288,0.0167388916015625,-0.1452484130859375,-1.018096923828125,-0.0505555868148803,-0.0059814597479999,-0.043647613376379
1769180658298,-0.0096282958984375,-0.1346435546875,-1.026336669921875,-0.006163886282593,0.0060946443118155,-0.0592782385647296
1769180658308,-0.0229339599609375,-0.1280975341796875,-1.0268707275390625,0.0303624328225851,0.035187017172575,-0.0757586732506752
1769180658318,-0.0172576904296875,-0.132110595703125,-1.01171875,0.0370134115219116,0.0427639745175838,-0.0809180215001106
1769180658328,-0.004241943359375,-0.138885498046875,-0.99017333984375,0.024009196087718,0.0506746284663677,-0.0803805962204933
1769180658338,0.0083770751953125,-0.1422271728515625,-0.976806640625,0.0021483721211552,0.0547849498689174,-0.0767728090286254
1769180658348,0.019775390625,-0.148956298828125,-0.97906494140625,0.0044730454683303,0.0729277357459068,-0.0650205463171005
1769180658358,0.0319061279296875,-0.155181884765625,-0.9929656982421876,0.0249543525278568,0.0719892382621765,-0.0554315671324729
1769180658368,0.037109375,-0.154083251953125,-0.9978485107421876,0.0446481630206108,0.0494269393384456,-0.0481619350612163
1769180658378,0.03704833984375,-0.1558380126953125,-0.997161865234375,0.0565546229481697,0.0368110127747058,-0.040665403008461
1769180658389,0.0360870361328125,-0.157257080078125,-0.9922027587890624,0.058853730559349,0.0116891469806432,-0.0330421067774295
1769180658398,0.0356903076171875,-0.155120849609375,-0.9783782958984376,0.0474783033132553,-0.0077609838917851,-0.0215050261467695
1769180658408,0.0296173095703125,-0.152130126953125,-0.9718017578125,0.0377433821558952,-0.0038735677953809,-0.0098038949072361
1769180658419,0.020721435546875,-0.1496429443359375,-0.971771240234375,0.0330048203468322,0.0138958422467112,0.0002932140196207
1769180658429,0.016387939453125,-0.1488037109375,-0.976959228515625,0.0348147042095661,0.0275067258626222,0.0034165694378316
1769180658439,0.0112762451171875,-0.14300537109375,-0.9765472412109376,0.0334668792784214,0.0193262938410043,0.0047806403599679
1769180658449,-0.0008544921875,-0.1385040283203125,-0.9760589599609376,0.0253871157765388,0.0129669308662414,-0.0046011433005332
1769180658459,0.0035247802734375,-0.1474609375,-0.9756927490234376,0.0090544810518622,0.0184234827756881,-0.0068760155700147
1769180658469,0.025115966796875,-0.148895263671875,-0.9753265380859376,0.0011600729776546,0.0010452907299622,0.000127831735881
1769180658479,0.0345916748046875,-0.1476593017578125,-0.9783477783203124,-0.0043843621388077,-0.025775671005249,0.010187922976911
1769180658489,0.032684326171875,-0.146820068359375,-0.9821929931640624,-0.0030210898257791,-0.0365175306797027,0.0196703746914863
1769180658499,0.02801513671875,-0.1402587890625,-0.984893798828125,0.0013214604696258,-0.0395021364092826,0.0262880623340606
1769180658509,0.017608642578125,-0.138702392578125,-0.983734130859375,0.0054661380127072,-0.0429096482694149,0.024522652849555
1769180658519,0.00384521484375,-0.1383056640625,-0.9680938720703124,-0.0076501965522766,-0.0408992283046245,0.014928882010281
1769180658529,0.0082550048828125,-0.1470184326171875,-0.9524993896484376,-0.0283477511256933,-0.0039270971901714,0.0199489407241344
1769180658539,0.0232391357421875,-0.1547088623046875,-0.9446563720703124,-0.0627438053488731,0.0205361675471067,0.0317169167101383
1769180658549,0.0273590087890625,-0.154296875,-0.9420318603515624,-0.0954500883817672,0.0157193075865507,0.0418936535716056
1769180658559,0.0288238525390625,-0.151123046875,-0.953765869140625,-0.1157763972878456,0.0114143081009387,0.0483821779489517
1769180658569,0.021636962890625,-0.1473846435546875,-0.9711761474609376,-0.1280786097049713,0.0021411816123872,0.0427032560110092
1769180658579,0.0101165771484375,-0.142608642578125,-0.981781005859375,-0.1294706463813781,-0.0076733659952878,0.034937210381031
1769180658590,0.0148468017578125,-0.1412200927734375,-0.9863433837890624,-0.1307540237903595,-0.0127272466197609,0.0318604595959186
1769180658599,0.0166168212890625,-0.1416473388671875,-0.9854888916015624,-0.1347234547138214,-0.0031931300181895,0.0332274623215198
1769180658610,0.0194091796875,-0.1420745849609375,-0.988067626953125,-0.1347562223672866,0.0100891189649701,0.0367604121565818
1769180658620,0.01947021484375,-0.146392822265625,-0.9907684326171876,-0.1297697126865387,0.0110992565751075,0.0428792908787727
1769180658630,0.017486572265625,-0.1483306884765625,-0.9975433349609376,-0.1111147999763488,0.0109266834333539,0.0482162646949291
1769180658640,0.01300048828125,-0.144287109375,-1.007293701171875,-0.0863085240125656,0.0181156210601329,0.0482950955629348
1769180658652,0.0059661865234375,-0.142303466796875,-1.0045928955078125,-0.0666749030351638,0.0335273332893848,0.0410417094826698
1769180658660,-0.0019073486328125,-0.140472412109375,-0.9963226318359376,-0.0578177608549594,0.0478716529905796,0.0317651182413101
1769180658670,-0.016143798828125,-0.1353302001953125,-0.9893341064453124,-0.0575767420232296,0.0728113576769828,0.0134625453501939
1769180658680,-0.024627685546875,-0.1389617919921875,-0.988128662109375,-0.0578097701072692,0.0992365702986717,-0.0097586214542388
1769180658690,-0.0193023681640625,-0.1414794921875,-0.9963226318359376,-0.0586960688233375,0.0954263880848884,-0.0243255794048309
1769180658700,-0.0042572021484375,-0.1385345458984375,-0.999969482421875,-0.0547154434025287,0.0775421932339668,-0.0289677362889051
1769180658710,0.017669677734375,-0.139801025390625,-1.00860595703125,-0.0444939658045768,0.075254276394844,-0.018524682149291
1769180658720,0.032379150390625,-0.1427154541015625,-1.01141357421875,-0.0325363725423812,0.0705556571483612,-0.0018873822409659
1769180658730,0.035858154296875,-0.141754150390625,-1.006805419921875,-0.0285600051283836,0.043122436851263,0.0098180100321769
1769180658740,0.0181427001953125,-0.1356353759765625,-0.9892425537109376,-0.0396693833172321,0.0280148573219776,-0.0003776362282223
1769180658750,0.008148193359375,-0.140167236328125,-0.9873504638671876,-0.0484602116048336,0.0373593568801879,-0.0150971934199333
1769180658760,0.01165771484375,-0.14306640625,-0.9889373779296876,-0.0477893613278865,0.0446894392371177,-0.0180237423628568
1769180658770,0.0186004638671875,-0.1439056396484375,-0.99169921875,-0.0444561466574668,0.0251602139323949,-0.0114601142704486
1769180658780,0.0175933837890625,-0.143798828125,-0.9968109130859376,-0.0332642123103141,0.0276465415954589,-0.0054067494347691
1769180658791,0.016021728515625,-0.14801025390625,-0.999786376953125,-0.0207516178488731,0.0454846620559692,0.0013462279457598
1769180658800,0.017242431640625,-0.1475830078125,-0.9906158447265624,-0.0188186950981616,0.0298569649457931,-0.0008042746339924
1769180658810,0.0090179443359375,-0.1323699951171875,-0.98443603515625,-0.0103879263624548,0.0143520412966609,-0.0192964654415845
1769180658821,-0.0023040771484375,-0.1287994384765625,-0.995269775390625,-0.0020727382507175,0.0152495270594954,-0.0247575435787439
1769180658830,0.0094757080078125,-0.142364501953125,-1.0010528564453125,0.0013829795643687,0.0244784448295831,-0.0104150902479887
1769180658841,0.0213775634765625,-0.1376495361328125,-0.9959259033203124,-0.0005328985280357,-0.0279101934283971,-0.0054067494347691
1769180658851,0.01104736328125,-0.12969970703125,-0.9774017333984376,0.0005052016349509,-0.0548685751855373,-0.0195558574050664
1769180658861,-0.0082244873046875,-0.1333770751953125,-0.983062744140625,0.0023949807509779,-0.0323699228465557,-0.0369604155421257
1769180658871,-0.0154876708984375,-0.136016845703125,-0.977508544921875,-0.008182561956346,-0.0057385796681046,-0.0538411289453506
1769180658881,-0.0038299560546875,-0.13885498046875,-0.966583251953125,-0.0289435014128685,-0.0225974544882774,-0.0615299381315708
1769180658891,0.0101470947265625,-0.133331298828125,-0.9675140380859376,-0.0315161161124706,-0.0483789853751659,-0.0647366493940353
1769180658901,0.003662109375,-0.127166748046875,-0.98309326171875,-0.0150436637923121,-0.0568624846637249,-0.0722241327166557
1769180658911,-0.0088958740234375,-0.12298583984375,-0.9913177490234376,-0.0017363809747621,-0.0465656369924545,-0.0766508355736732
1769180658921,-0.00872802734375,-0.12115478515625,-0.986419677734375,0.0005715143634006,-0.0295054279267787,-0.0769648253917694
1769180658931,-0.000274658203125,-0.125152587890625,-0.9786834716796876,-0.0088704572990536,-0.0249303840100765,-0.073818027973175
1769180658941,0.0053558349609375,-0.12579345703125,-0.96868896484375,-0.0332927107810974,-0.0273810233920812,-0.0769072994589805
1769180658951,0.014251708984375,-0.1317901611328125,-0.9648895263671876,-0.0559056103229522,-0.0283882319927215,-0.0753259137272834
1769180658961,0.020416259765625,-0.1414031982421875,-0.971221923828125,-0.0806652829051017,-0.0223170239478349,-0.0685452371835708
1769180658971,0.0394439697265625,-0.1470794677734375,-0.9774627685546876,-0.0930694863200187,-0.0126958210021257,-0.0489275939762592
1769180658981,0.0464324951171875,-0.1536865234375,-0.98516845703125,-0.0968730151653289,-0.0148154310882091,-0.026714701205492
1769180658992,0.0489654541015625,-0.14605712890625,-0.995758056640625,-0.0889413207769393,-0.0231157056987285,-0.0037856835406273
1769180659001,0.0376434326171875,-0.136505126953125,-1.0050811767578125,-0.0723911076784133,-0.0245085395872592,0.0074262246489524
1769180659011,0.0178070068359375,-0.1268463134765625,-1.018218994140625,-0.0425477251410484,-0.0125123299658298,0.0029252162203192
1769180659021,0.002655029296875,-0.11993408203125,-1.0388336181640625,0.0010945592075586,-0.0078528625890612,-0.0080613885074853
1769180659032,-0.0027618408203125,-0.1165008544921875,-1.0360107421875,0.0335592925548553,-0.0141246076673269,-0.0205438900738954
1769180659042,0.001220703125,-0.1201019287109375,-1.0258941650390625,0.0500969886779785,-0.0181249417364597,-0.0234928093850612
1769180659052,0.005767822265625,-0.1270751953125,-1.012237548828125,0.0606364496052265,-0.0197737049311399,-0.0251522250473499
1769180659062,0.0023651123046875,-0.131622314453125,-1.003692626953125,0.0662804841995239,-0.0167323742061853,-0.025145299732685
1769180659072,-0.0044097900390625,-0.1361236572265625,-0.998779296875,0.0746071264147758,0.0037888791412115,-0.0271067190915346
1769180659082,-0.00299072265625,-0.1344146728515625,-0.9933929443359376,0.0809611603617668,0.018362496048212,-0.0299874600023031
1769180659092,0.0047454833984375,-0.1342315673828125,-0.9875640869140624,0.0806106925010681,0.0137333888560533,-0.0321073345839977
1769180659102,0.00909423828125,-0.1303253173828125,-0.98590087890625,0.0783302262425422,-0.0047888960689306,-0.0286777168512344
1769180659112,0.003753662109375,-0.1258544921875,-0.9896087646484376,0.0773075744509697,-0.0239852275699377,-0.035426165908575
1769180659122,-0.0071563720703125,-0.1262054443359375,-0.990631103515625,0.0785110518336296,-0.0354341566562652,-0.0489939078688621
1769180659132,-0.0070037841796875,-0.132415771484375,-0.9963226318359376,0.0862781628966331,-0.044683314859867,-0.0575344003736972
1769180659142,-0.002716064453125,-0.134033203125,-0.9892730712890624,0.0857865437865257,-0.0589815601706504,-0.067464530467987
1769180659152,-0.0038299560546875,-0.1372528076171875,-0.9757843017578124,0.0735059082508087,-0.052897036075592,-0.0749509409070015
1769180659162,-0.0055084228515625,-0.1393280029296875,-0.98211669921875,0.0684040933847427,-0.0207644011825323,-0.0769419223070144
1769180659172,0.000518798828125,-0.136749267578125,-0.9864501953125,0.0656991153955459,-0.0140172820538282,-0.076700635254383
1769180659182,0.0096435546875,-0.1373291015625,-0.981170654296875,0.0582875423133373,-0.0097418427467346,-0.0689164847135543
1769180659192,0.0233306884765625,-0.14068603515625,-0.9846649169921876,0.0507483966648578,-0.0043886229395866,-0.0564997605979442
1769180659202,0.02520751953125,-0.14227294921875,-0.9908599853515624,0.0533263385295867,-0.0024695491883903,-0.0459760129451751
1769180659212,0.02490234375,-0.1420745849609375,-0.9928741455078124,0.0608596205711364,-0.0107652964070439,-0.0423178970813751
1769180659223,0.01422119140625,-0.1379852294921875,-0.9855804443359376,0.0593773052096366,-0.0108294785022735,-0.0425629056990146
1769180659233,0.0029296875,-0.1341705322265625,-0.9866943359375,0.0641973614692688,-0.0012205267557874,-0.0481278486549854
1769180659243,-0.0081634521484375,-0.131317138671875,-0.9871063232421876,0.0711340978741645,0.0053790528327226,-0.0590079277753829
1769180659253,-0.015777587890625,-0.1306610107421875,-0.981658935546875,0.0682264566421508,0.0040123183280229,-0.0703018605709075
1769180659263,-0.008697509765625,-0.1324615478515625,-0.9731292724609376,0.0583589151501655,-0.0068624336272478,-0.0751799717545509
1769180659273,-0.0065765380859375,-0.1370086669921875,-0.968353271484375,0.0440090037882328,-0.0103972470387816,-0.0792045444250106
1769180659283,-0.001708984375,-0.1397552490234375,-0.9657135009765624,0.0282124634832143,-0.0007099987124092,-0.0824695751070976
1769180659293,0.001800537109375,-0.1385650634765625,-0.9669342041015624,0.0155057227239012,0.0126303080469369,-0.0827460139989852
1769180659303,0.001800537109375,-0.1388702392578125,-0.979034423828125,0.0184274762868881,0.0141411190852522,-0.0836043506860733
1769180659313,0.00439453125,-0.1376953125,-0.9889984130859376,0.0252688713371753,0.0088659292086958,-0.0827223137021064
1769180659323,0.016693115234375,-0.138671875,-0.9960479736328124,0.0396097265183925,0.0042149848304688,-0.0769792050123214
1769180659333,0.0189208984375,-0.141876220703125,-0.9971923828125,0.0580124370753765,-0.003967311233282,-0.0742683708667755
1769180659343,0.0192718505859375,-0.1434783935546875,-0.9913787841796876,0.0707652494311332,-0.0089359702542424,-0.0693857297301292
1769180659353,0.017547607421875,-0.1423797607421875,-0.981475830078125,0.0729549005627632,0.0059609534218907,-0.0674346983432769
1769180659363,0.010772705078125,-0.1422271728515625,-0.97723388671875,0.071183368563652,0.0113048525527119,-0.0618191584944725
1769180659373,0.0032958984375,-0.13787841796875,-0.970611572265625,0.051106858998537,0.0242768432945013,-0.0610966421663761
1769180659383,0.0048980712890625,-0.14276123046875,-0.975433349609375,0.0445730611681938,0.0339971147477626,-0.0530965067446231
1769180659393,0.012908935546875,-0.1492767333984375,-0.9826812744140624,0.040968470275402,0.0171707309782505,-0.0458718836307525
1769180659403,0.01580810546875,-0.1451263427734375,-0.9728851318359376,0.0411857850849628,-0.015180017799139,-0.0455054342746734
1769180659413,0.003875732421875,-0.1333465576171875,-0.9733734130859376,0.0458069033920764,-0.0254483688622713,-0.0587424077093601
1769180659423,-0.00628662109375,-0.1359405517578125,-0.974517822265625,0.0354669131338596,-0.0178098902106285,-0.0645129457116127
1769180659434,0.007110595703125,-0.15106201171875,-0.9665679931640624,0.0090595409274101,-0.0167627353221178,-0.0563178658485412
1769180659443,0.0266265869140625,-0.14581298828125,-0.959808349609375,-0.0129703935235738,-0.0486263930797576,-0.0471206419169902
1769180659454,0.018646240234375,-0.15087890625,-0.9664764404296876,-0.0161318313330411,-0.0616564415395259,-0.0515151210129261
1769180659464,0.00262451171875,-0.150299072265625,-0.9839019775390624,-0.0061090253293514,-0.0394195765256881,-0.0579221546649932
1769180659474,9.1552734375e-05,-0.1490325927734375,-0.9833831787109376,-0.0017164073651656,-0.038646463304758,-0.0609070248901844
1769180659484,0.0113677978515625,-0.1470489501953125,-0.9755859375,-0.0048805088736116,-0.045277465134859,-0.0577525123953819
1769180659494,0.008087158203125,-0.1372833251953125,-0.9782257080078124,-0.0046509443782269,-0.0392520651221275,-0.0631371587514877
1769180659504,-0.0033721923828125,-0.1331329345703125,-0.98248291015625,-0.0055122110061347,-0.0260142907500267,-0.073229469358921
1769180659514,-0.008514404296875,-0.1277923583984375,-0.9889068603515624,-0.0079055940732359,-0.014002900570631,-0.0828163176774978
1769180659524,-0.0051727294921875,-0.13031005859375,-0.9985198974609376,0.0009041432058438,-0.0031643679831176,-0.0900888815522193
1769180659534,0.007720947265625,-0.1421356201171875,-1.0062713623046875,0.0136039592325687,-0.0160503387451171,-0.0873008146882057
1769180659544,0.0181884765625,-0.150604248046875,-1.0092315673828125,0.023317040875554,-0.0426435992121696,-0.0817582458257675
1769180659554,0.021514892578125,-0.1516265869140625,-1.006134033203125,0.0310330167412757,-0.0479491502046585,-0.0663902088999748
1769180659564,0.026763916015625,-0.1518096923828125,-1.004852294921875,0.036341231316328,-0.0748247057199478,-0.0460255481302738
1769180659574,0.033966064453125,-0.1637420654296875,-0.978912353515625,0.0259533040225505,-0.0877421051263809,-0.030837008729577
1769180659584,0.01666259765625,-0.1577301025390625,-0.959930419921875,-0.00384400668554,-0.0655742138624191,-0.0286031495779752
1769180659595,-0.0018310546875,-0.1502532958984375,-0.9596405029296876,-0.0208831783384084,-0.0379742793738842,-0.0370781272649765
1769180659604,-0.0067291259765625,-0.152069091796875,-0.9682159423828124,-0.0299592297524213,-0.0244645960628986,-0.0450809262692928
1769180659614,-0.00537109375,-0.146575927734375,-0.9781951904296876,-0.0271876789629459,-0.0258763376623392,-0.0484053492546081
1769180659624,-0.006378173828125,-0.145050048828125,-0.994354248046875,-0.0091897696256637,-0.0282540079206228,-0.0529748015105724
1769180659635,-0.003570556640625,-0.1428680419921875,-1.008026123046875,0.0165704544633626,-0.0314782969653606,-0.0515966154634952
1769180659645,-0.0039215087890625,-0.139404296875,-1.00848388671875,0.0365990251302719,-0.0399735160171985,-0.0527942404150962
1769180659654,-0.003448486328125,-0.1370849609375,-1.0019989013671875,0.0436713136732578,-0.0558145307004451,-0.0576177574694156
1769180659664,0.0019073486328125,-0.141082763671875,-0.9952545166015624,0.0365944951772689,-0.0578153617680072,-0.0589730404317379
1769180659675,0.013671875,-0.1481781005859375,-0.9836273193359376,0.0213769283145666,-0.0565796568989753,-0.0479651279747486
1769180659686,0.026092529296875,-0.149627685546875,-0.9825897216796876,0.0251413062214851,-0.0475246421992778,-0.0346607752144336
1769180659695,0.0261383056640625,-0.1526641845703125,-0.9937591552734376,0.045750442892313,-0.039422508329153,-0.0255959071218967
1769180659705,0.0233612060546875,-0.152008056640625,-1.000579833984375,0.076813019812107,-0.0233846846967935,-0.0166335720568895
1769180659715,0.02044677734375,-0.152252197265625,-1.0042572021484375,0.1004054322838783,-0.0161893554031848,-0.0110156331211328
1769180659725,0.0147552490234375,-0.150726318359375,-0.9978790283203124,0.111780859529972,-0.0221596304327249,-0.0076315542683005
1769180659735,0.0107879638671875,-0.15301513671875,-0.9883270263671876,0.1082305982708931,-0.0289642736315727,-0.0070374030619859
1769180659745,0.0053863525390625,-0.14898681640625,-0.9765472412109376,0.0921139493584632,-0.0350317545235157,-0.0114175044000148
1769180659755,-0.0046234130859375,-0.144805908203125,-0.966339111328125,0.069042719900608,-0.0385481901466846,-0.0212280564010143
1769180659765,-0.010223388671875,-0.147735595703125,-0.9633636474609376,0.046911846846342,-0.0295893177390098,-0.0258912518620491
1769180659775,0.0060882568359375,-0.1574249267578125,-0.9642791748046876,0.0321073345839977,-0.0109442602843046,-0.0254382491111755
1769180659785,0.0113983154296875,-0.1627960205078125,-0.9652557373046876,0.0130998231470584,-0.0062523032538592,-0.0129512185230851
1769180659795,0.016021728515625,-0.1617431640625,-0.9721527099609376,0.0012796488590538,-0.0047859665937721,-0.0031667647417634
1769180659805,0.0094451904296875,-0.1620941162109375,-0.98480224609375,0.0022170816082507,-0.0098726041615009,0.0009076052810996
1769180659815,0.004058837890625,-0.157257080078125,-0.994720458984375,0.0157358199357986,-0.0024205471854656,0.0041779670864343
1769180659825,0.01312255859375,-0.155731201171875,-1.0020294189453125,0.0312165096402168,-0.0023646207991987,0.0126641299575567
1769180659835,0.01434326171875,-0.155548095703125,-1.001800537109375,0.045439388602972,-0.0089524826034903,0.0178189445286989
1769180659845,0.00726318359375,-0.1567840576171875,-0.995880126953125,0.0562462285161018,0.0043995422311127,0.0189212262630462
1769180659856,0.0032501220703125,-0.159515380859375,-0.9839019775390624,0.0521782487630844,0.0211111437529325,0.0182453170418739
1769180659865,0.001373291015625,-0.1623992919921875,-0.9729766845703124,0.0318679176270961,0.0273527950048446,0.0201715808361768
1769180659876,-0.000396728515625,-0.1618804931640625,-0.9759521484375,0.0144380610436201,0.0302228834480047,0.0212261918932199
1769180659886,-0.003082275390625,-0.16058349609375,-0.9852294921875,0.0148772168904542,0.028162395581603,0.0185526460409164
1769180659896,-0.000518798828125,-0.1626129150390625,-0.9979248046875,0.0283861011266708,0.0337614268064498,0.0207910314202308
1769180659906,0.00494384765625,-0.1603851318359375,-1.003570556640625,0.0455499067902565,0.0149158323183655,0.0202059354633092
1769180659916,0.0015106201171875,-0.1572113037109375,-1.0038604736328125,0.0627640485763549,-0.0075481976382434,0.0186621006578207
1769180659926,0.004425048828125,-0.1630096435546875,-0.9986114501953124,0.0716395676136016,-0.0085170557722449,0.0178525000810623
1769180659936,0.0055084228515625,-0.1655426025390625,-0.9849395751953124,0.0641078799962997,-0.0175158772617578,0.0193356145173311
1769180659946,0.0035247802734375,-0.164520263671875,-0.981353759765625,0.0599379017949104,-0.020715931430459,0.0228049140423536
1769180659956,0.001953125,-0.160430908203125,-0.978118896484375,0.0557679235935211,-0.0198535993695259,0.0173052214086055
1769180659966,-0.0050506591796875,-0.1597900390625,-0.9675750732421876,0.0477560721337795,-0.0095796566456556,0.0146385971456766
1769180659976,0.0086669921875,-0.174102783203125,-0.959228515625,0.0300939865410327,0.0140915839001536,0.0271503943949937
1769180659986,0.0272064208984375,-0.1864776611328125,-0.9561614990234376,0.0083833644166588,0.047272440046072,0.0491702109575271
1769180659996,0.02734375,-0.1750946044921875,-0.962371826171875,0.0160460788756608,0.0474186465144157,0.0484261214733123
1769180660006,0.00616455078125,-0.162811279296875,-0.9818572998046876,0.0271575842052698,0.0626340880990028,0.0460902638733387
1769180660016,0.0090179443359375,-0.169586181640625,-0.994232177734375,0.0323550105094909,0.0603168681263923,0.0590116530656814
1769180660026,0.01739501953125,-0.166717529296875,-0.9977569580078124,0.0356810316443443,0.0298982448875904,0.0666104555130004
1769180660036,0.0107879638671875,-0.1601409912109375,-0.9977569580078124,0.0473243705928325,-0.0014090784825384,0.0603589490056037
1769180660046,-0.001617431640625,-0.165679931640625,-0.9997100830078124,0.0600905008614063,-0.020633639767766,0.0464838780462741
1769180660057,-0.0110321044921875,-0.1642608642578125,-0.9892730712890624,0.0542254224419593,-0.0160812325775623,0.0386318154633045
1769180660066,-0.007598876953125,-0.1728973388671875,-0.9788970947265624,0.0490580908954143,0.0052219261415302,0.0369628109037876
1769180660077,0.000335693359375,-0.1783905029296875,-0.974761962890625,0.047347541898489,0.0082304989919066,0.0372938439249992
1769180660087,0.0047607421875,-0.169403076171875,-0.980987548828125,0.053791593760252,0.0207694601267576,0.0371415093541145
1769180660097,-0.0143280029296875,-0.161834716796875,-0.99395751953125,0.0721277222037315,0.048908419907093,0.0247064121067523
1769180660107,-0.029052734375,-0.157440185546875,-0.9974517822265624,0.0920500308275222,0.0576920583844184,0.007375091779977
1769180660117,-0.0179290771484375,-0.1612396240234375,-0.98907470703125,0.0872757807374,0.0511252358555793,-0.0052869073115289
1769180660127,-0.004364013671875,-0.165679931640625,-0.979644775390625,0.0741450637578964,0.0473725758492946,-0.0043279030360281
1769180660137,0.0111236572265625,-0.1760406494140625,-0.9806671142578124,0.0701870769262313,0.0472213067114353,0.0088584730401635
1769180660147,0.0304107666015625,-0.1873321533203125,-0.977325439453125,0.0690195485949516,0.0294737368822097,0.0298902541399002
1769180660157,0.0334320068359375,-0.1920013427734375,-0.9677886962890624,0.0507931411266326,0.0074280886910855,0.0459624305367469
1769180660167,0.01806640625,-0.1894073486328125,-0.9564971923828124,0.0317126549780368,-0.0005552690709009,0.0442486889660358
1769180660177,-0.0035247802734375,-0.18695068359375,-0.95489501953125,0.0202522743493318,0.0085372952744364,0.0315020009875297
1769180660187,-0.0165863037109375,-0.181854248046875,-0.9501953125,-0.0028250813484191,0.0399599336087703,0.0185004472732543
1769180660197,-0.0106964111328125,-0.1785888671875,-0.94970703125,-0.0324570089578628,0.0670743733644485,0.0148758850991725
1769180660207,-0.001129150390625,-0.179290771484375,-0.966064453125,-0.0400198549032211,0.0838781222701072,0.0228714942932128
1769180660217,0.01202392578125,-0.18463134765625,-0.9919891357421876,-0.0197726394981145,0.0900017917156219,0.0331345163285732
1769180660227,0.015228271484375,-0.1858367919921875,-1.0075225830078125,0.0073404707945883,0.0937608480453491,0.0394776351749897
1769180660237,0.00860595703125,-0.186676025390625,-1.011138916015625,0.0356898196041584,0.1064422875642776,0.0428723655641078
1769180660247,-0.0103607177734375,-0.186859130859375,-1.01397705078125,0.0728710144758224,0.1039064228534698,0.0164356976747512
1769180660257,-0.0311737060546875,-0.187469482421875,-1.01336669921875,0.0972051098942756,0.1062212437391281,-0.0052466937340795
1769180660267,-0.0209808349609375,-0.1768951416015625,-1.0107574462890625,0.1130594462156295,0.0958128124475479,-0.0233311560004949
1769180660278,-0.020294189453125,-0.1761932373046875,-1.0135498046875,0.1320134252309799,0.075685441493988,-0.0323313064873218
1769180660287,-0.0147552490234375,-0.1664886474609375,-1.0313568115234375,0.165698692202568,0.0683010295033454,-0.0374480411410331
1769180660298,-0.0096282958984375,-0.1658935546875,-1.0367431640625,0.2066796720027923,0.0634167864918708,-0.0447400398552417
1769180660308,0.001251220703125,-0.1706695556640625,-1.03125,0.234910786151886,0.0359537415206432,-0.0460071712732315
1769180660318,0.0138092041015625,-0.181488037109375,-1.0098419189453125,0.2433034628629684,0.0045982138253748,-0.0404155999422073
1769180660328,0.028167724609375,-0.1909027099609375,-0.97772216796875,0.2279873639345169,-0.0253013614565134,-0.0328993611037731
1769180660338,0.0378875732421875,-0.1965484619140625,-0.949249267578125,0.19442780315876,-0.030033266171813,-0.0200751740485429
1769180660348,0.035003662109375,-0.2038116455078125,-0.923004150390625,0.1504851132631302,-0.0297986418008804,-0.0135360490530729
1769180660358,0.02764892578125,-0.200408935546875,-0.90283203125,0.0964421182870864,-0.030091855674982,-0.0046163233928382
1769180660368,0.029510498046875,-0.206146240234375,-0.8885498046875,0.0420329384505748,-0.0136580215767025,0.0036176380235701
1769180660378,0.0098876953125,-0.2057342529296875,-0.88604736328125,-0.017698036506772,-0.005919674411416,-0.001055943313986
1769180660388,0.0084075927734375,-0.19818115234375,-0.8848876953125,-0.0796034857630729,-0.0037292244378477,-0.0058594867587089
1769180660398,0.0046844482421875,-0.2009124755859375,-0.893280029296875,-0.1385557502508163,0.002135588787496,-0.0153107792139053
1769180660408,0.0002288818359375,-0.195159912109375,-0.8982391357421875,-0.1954994648694992,0.016515327617526,-0.0244643297046422
1769180660418,-0.003387451171875,-0.1939697265625,-0.9151763916015624,-0.237428531050682,0.0436984784901142,-0.0305304788053035
1769180660428,0.0008697509765625,-0.195098876953125,-0.9336090087890624,-0.2617908716201782,0.0596444234251976,-0.0329164043068885
1769180660438,0.00836181640625,-0.1914520263671875,-0.9566650390625,-0.2824604511260986,0.0518967546522617,-0.0327960290014743
1769180660448,0.014251708984375,-0.1861572265625,-0.9716644287109376,-0.2960801422595978,-0.006108758971095,-0.0299839973449707
1769180660458,0.0136871337890625,-0.1785736083984375,-1.0052337646484375,-0.2775826156139374,-0.0508208349347114,-0.0427346788346767
1769180660469,0.00299072265625,-0.1711883544921875,-1.0248565673828125,-0.250898540019989,-0.0995622798800468,-0.0584241598844528
1769180660479,0.0057525634765625,-0.1739959716796875,-1.0356597900390625,-0.2164129912853241,-0.1386835873126983,-0.0824882164597511
1769180660488,0.0037994384765625,-0.1767120361328125,-1.032470703125,-0.1937993019819259,-0.1371517330408096,-0.0989409610629081
1769180660498,0.0034637451171875,-0.1773223876953125,-1.0247039794921875,-0.1867690831422805,-0.1588200032711029,-0.1011396646499633
1769180660509,-0.003326416015625,-0.172210693359375,-1.0212860107421875,-0.1623803824186325,-0.1454157829284668,-0.1091983914375305
1769180660519,-0.0055084228515625,-0.1652679443359375,-1.0349273681640625,-0.113025888800621,-0.0833683907985687,-0.1026877611875534
1769180660529,-0.0104827880859375,-0.1781005859375,-1.045654296875,-0.0381079688668251,-0.0488548912107944,-0.0948583334684372
1769180660539,0.0032806396484375,-0.17108154296875,-1.041168212890625,0.0271578505635261,-0.049358494579792,-0.0862408801913261
1769180660549,-0.0009918212890625,-0.1712646484375,-1.019134521484375,0.0585408061742782,-0.0600763857364654,-0.086316779255867
1769180660559,-0.0040435791015625,-0.1728668212890625,-0.99468994140625,0.0650264024734497,-0.0589852891862392,-0.0934394001960754
1769180660569,0.003082275390625,-0.1714935302734375,-0.9752655029296876,0.0420875325798988,-0.0576121620833873,-0.0873447582125663
1769180660580,0.0174713134765625,-0.18017578125,-0.9539642333984376,0.0122926188632845,-0.0371218025684356,-0.0623200982809066
1769180660589,0.042022705078125,-0.1887054443359375,-0.9547882080078124,0.0003310309257358,-0.0276550631970167,-0.0303999837487936
1769180660599,0.0316162109375,-0.1699371337890625,-0.952239990234375,0.0065958509221673,-0.0465363413095474,-0.033366210758686
1769180660609,-0.005096435546875,-0.1619110107421875,-0.954559326171875,-0.0030088394414633,-0.0311989318579435,-0.0494626238942146
1769180660619,-0.0143890380859375,-0.1749725341796875,-0.9528656005859376,-0.0329843163490295,-0.0116164423525333,-0.049905240535736
1769180660629,0.00604248046875,-0.1743927001953125,-0.94207763671875,-0.0651092305779457,-0.0295275319367647,-0.0433293655514717
1769180660639,0.0159912109375,-0.178070068359375,-0.9441680908203124,-0.0884571596980094,-0.044376254081726,-0.0416028387844562
1769180660649,0.0109405517578125,-0.1758880615234375,-0.9622344970703124,-0.0994144678115844,-0.0409711338579654,-0.0348085798323154
1769180660660,0.0074005126953125,-0.1782684326171875,-0.9798431396484376,-0.109479621052742,-0.038181472569704,-0.0243061389774084
1769180660669,0.0074005126953125,-0.1761474609375,-0.982452392578125,-0.1226420328021049,-0.0642162710428237,-0.0184053722769022
1769180660679,0.004974365234375,-0.16259765625,-0.9878692626953124,-0.1144261807203292,-0.0765578895807266,-0.0265783481299877
1769180660690,-0.0050048828125,-0.15203857421875,-1.009765625,-0.0721189379692077,-0.054486945271492,-0.0327313132584095
1769180660700,-0.01385498046875,-0.150238037109375,-1.0170135498046875,-0.0315209068357944,-0.0371348522603511,-0.0406888388097286
1769180660710,-0.0108795166015625,-0.147369384765625,-1.0009613037109375,-0.0270792879164218,-0.0286926310509443,-0.0452526994049549
1769180660720,-0.0009307861328125,-0.1531219482421875,-0.9861297607421876,-0.03383120149374,-0.0105583686381578,-0.0429935380816459
1769180660730,-0.004302978515625,-0.1607818603515625,-0.98614501953125,-0.0372155457735061,-0.0023142870049923,-0.0469110496342182
1769180660740,-0.003570556640625,-0.171356201171875,-0.9924774169921876,-0.0217569600790739,0.0213697366416454,-0.045032188296318
1769180660750,0.0147247314453125,-0.1804656982421875,-0.9996795654296876,-0.0069250175729393,-0.002544383984059,-0.0314292944967746
1769180660760,0.0267486572265625,-0.1807861328125,-0.980224609375,-0.0224179569631814,-0.038012895733118,-0.0194759629666805
1769180660770,0.023193359375,-0.17425537109375,-0.9515380859375,-0.0657470524311065,-0.0304380673915147,-0.0148884020745754
1769180660780,0.0059814453125,-0.1678619384765625,-0.965972900390625,-0.0853511169552803,-0.0038253646343946,-0.0082848276942968
1769180660790,-0.005767822265625,-0.1593780517578125,-0.99456787109375,-0.0688384547829628,-0.0119243040680885,-0.0052656019106507
1769180660800,-0.0063934326171875,-0.1541748046875,-1.013946533203125,-0.0324498191475868,-0.0114609133452177,-0.0096931075677275
1769180660810,-0.007720947265625,-0.158111572265625,-1.0143890380859375,0.0022708773612976,-0.0089112035930156,-0.0107397297397255
1769180660820,-0.0063934326171875,-0.1609954833984375,-1.002655029296875,0.0221678856760263,-0.0020969731267541,-0.0100020337849855
1769180660830,-0.005645751953125,-0.16259765625,-0.9871063232421876,0.0228174310177564,0.0136084863916039,-0.0179363898932933
1769180660840,-0.01654052734375,-0.16131591796875,-0.972808837890625,0.0122204469516873,0.0362091362476348,-0.0241860300302505
1769180660850,-0.016754150390625,-0.1678009033203125,-0.9783935546875,0.0056957025080919,0.0666410773992538,-0.019859192892909
1769180660860,0.0008697509765625,-0.1702728271484375,-0.9944610595703124,0.0155856171622872,0.0558606013655662,-0.0093836477026343
1769180660870,0.0044403076171875,-0.1640167236328125,-1.00128173828125,0.0378283374011516,0.0241330321878194,-0.011542672291398
1769180660881,-0.0038299560546875,-0.1671295166015625,-1.0052490234375,0.0502080433070659,0.0156197063624858,-0.0116473352536559
1769180660890,-0.009185791015625,-0.159759521484375,-0.993804931640625,0.0539109036326408,0.0238350257277488,-0.0196986030787229
1769180660900,-0.014373779296875,-0.1613616943359375,-0.9843902587890624,0.0561929643154144,0.035257589071989,-0.0246395654976367
1769180660911,-0.001708984375,-0.160491943359375,-0.9721832275390624,0.0385428667068481,0.0470396801829338,-0.0211638752371072
1769180660920,0.0084686279296875,-0.1663055419921875,-0.956268310546875,0.0068062408827245,0.061144046485424,-0.013710219413042
1769180660931,0.010955810546875,-0.171478271484375,-0.94976806640625,-0.0256262682378292,0.0727847218513488,0.0017009610310196
1769180660941,0.0115509033203125,-0.1637725830078125,-0.949951171875,-0.0599149987101554,0.0650082975625991,0.0070027820765972
1769180660951,0.0077056884765625,-0.1620941162109375,-0.954254150390625,-0.0872824415564537,0.0480828396975994,0.0075069186277687
1769180660961,0.0062255859375,-0.163055419921875,-0.961517333984375,-0.1151423007249832,0.0484295822679996,-0.002217347966507
1769180660971,0.0070953369140625,-0.1631622314453125,-0.9557342529296876,-0.1487694978713989,0.0288095436990261,-0.0042469431646168
1769180660981,0.012908935546875,-0.1651611328125,-0.9716033935546876,-0.1510172188282013,-0.0039372174069285,-0.0071023842319846
1769180660991,0.013916015625,-0.1608123779296875,-0.9773406982421876,-0.1591555625200271,-0.0291344486176967,-0.0148553783074021
1769180661001,0.01214599609375,-0.1610565185546875,-0.9828338623046876,-0.1564404666423797,-0.0144479153677821,-0.011282748542726
1769180661011,0.01373291015625,-0.1578369140625,-0.9942474365234376,-0.1397845298051834,-0.0022306637838482,-0.002993392990902
1769180661022,0.0094757080078125,-0.1560821533203125,-1.0072784423828125,-0.0987180545926094,-0.0035657063126564,-0.0016716661630198
1769180661031,0.0095062255859375,-0.1522369384765625,-1.0146636962890625,-0.0622042529284954,-0.0008495483780279,0.0002516687090974
1769180661041,0.0057525634765625,-0.14947509765625,-1.01800537109375,-0.0270694345235824,-0.0035992620978504,-0.0020463729742914
1769180661051,0.0067138671875,-0.14862060546875,-1.013458251953125,-0.0029925941489636,8.602010348113254e-05,-0.0060624200850725
1769180661062,0.0097198486328125,-0.1531524658203125,-1.00445556640625,0.0097479680553078,0.0065969163551926,-0.002536660991609
1769180661071,0.01318359375,-0.154815673828125,-0.9892730712890624,0.0048994175158441,0.0118848886340856,0.0051332428120076
1769180661081,0.005706787109375,-0.1542205810546875,-0.97802734375,-0.0032820797059684,0.025596173480153,0.0101735414937138
1769180661091,-0.0001678466796875,-0.15435791015625,-0.98150634765625,0.0017686053179204,0.0376882553100585,0.009572465904057
1769180661101,-0.00335693359375,-0.151092529296875,-0.9869232177734376,0.0096494313329458,0.0322615318000316,0.004577973857522
1769180661111,-0.0059814453125,-0.1514434814453125,-0.982696533203125,0.012425510212779,0.0392797626554966,0.0018852517241612
1769180661122,-0.00360107421875,-0.1571044921875,-0.9837188720703124,0.0188048463314771,0.0471619181334972,-0.0015907060587778
1769180661132,0.0,-0.15911865234375,-0.9730072021484376,0.0052791843190789,0.0312474016100168,-0.0013733921805396
1769180661142,0.000396728515625,-0.156219482421875,-0.95538330078125,-0.0360030084848403,0.0232944041490554,-0.0079213064163923
1769180661152,-0.0046844482421875,-0.156097412109375,-0.95379638671875,-0.078789621591568,0.0317864269018173,-0.0118971392512321
1769180661162,-0.0036163330078125,-0.159027099609375,-0.96722412109375,-0.0961438417434692,0.0378190167248249,-0.0124284401535987
1769180661172,0.0077972412109375,-0.1609344482421875,-0.9870452880859376,-0.094825841486454,0.0310718994587659,-0.0047268443740904
1769180661182,0.013946533203125,-0.163909912109375,-1.0013427734375,-0.0799619406461715,0.0348338820040226,0.0100915161892771
1769180661192,0.0178985595703125,-0.1699981689453125,-1.0098419189453125,-0.0567418411374092,0.0429791584610939,0.0258768703788518
1769180661206,0.0174713134765625,-0.1658935546875,-1.009246826171875,-0.0212323181331157,0.0465999916195869,0.0284260492771863
1769180661212,-0.0042266845703125,-0.144317626953125,-1.014434814453125,0.0183720830827951,0.0405226573348045,0.0079005332663655
1769180661222,-0.03466796875,-0.138824462890625,-1.0157012939453125,0.0372072905302047,0.0516807697713375,-0.0103791374713182
1769180661232,-0.0245208740234375,-0.152008056640625,-1.0098419189453125,0.0374011695384979,0.066335879266262,-0.0162937529385089
1769180661242,0.0098876953125,-0.149627685546875,-0.9972381591796876,0.032189093530178,0.0280084647238254,-0.0082227764651179
1769180661252,0.018768310546875,-0.1514129638671875,-0.9945526123046876,0.0384717583656311,-0.0023116238880902,-0.01297412160784
1769180661262,0.0047760009765625,-0.1539764404296875,-1.001434326171875,0.0441408306360244,0.0068587050773203,-0.0176026951521635
1769180661272,0.0102691650390625,-0.1618194580078125,-0.9951934814453124,0.0421157628297805,0.0201944839209318,-0.0127751836553215
1769180661282,0.0314483642578125,-0.173187255859375,-0.983673095703125,0.0390597842633724,0.01065344363451,0.0039883498102426
1769180661292,0.03436279296875,-0.167755126953125,-0.97442626953125,0.0456734783947467,-0.0017845842521637,0.0112340124323964
1769180661302,0.010345458984375,-0.158966064453125,-0.9795379638671876,0.059609267860651,0.0172005575150251,0.007874434813857
1769180661312,-0.0208587646484375,-0.1483306884765625,-0.981842041015625,0.0621099770069122,0.0420579724013805,-0.0061103566549718
1769180661322,-0.0343780517578125,-0.1473846435546875,-0.9722137451171876,0.0522283166646957,0.0564217306673526,-0.0358802378177642
1769180661332,-0.0308074951171875,-0.15350341796875,-0.9544525146484376,0.016171246767044,0.0328500904142856,-0.0421346686780452
1769180661343,-0.0159759521484375,-0.146453857421875,-0.938262939453125,-0.0332921780645847,0.0097338538616895,-0.0521169975399971
1769180661352,-0.0091552734375,-0.173248291015625,-0.94512939453125,-0.0736694261431694,-0.0015480954898521,-0.0623597800731658
1769180661363,0.0073089599609375,-0.1656494140625,-0.9622802734375,-0.0952285155653953,-0.0170370396226644,-0.0539724193513393
1769180661373,0.0235137939453125,-0.165802001953125,-0.977996826171875,-0.0958559587597847,-0.0428699702024459,-0.045290783047676
1769180661383,0.0266571044921875,-0.16485595703125,-0.986663818359375,-0.0867111906409263,-0.0642351806163787,-0.0324767157435417
1769180661393,0.0188140869140625,-0.159576416015625,-0.9900970458984376,-0.0700853466987609,-0.07666015625,-0.0288196634501218
1769180661403,-0.0012969970703125,-0.153289794921875,-0.9884185791015624,-0.0798527523875236,-0.0745448097586631,-0.037737525999546
1769180661413,-0.019866943359375,-0.1470184326171875,-0.981231689453125,-0.0813611671328544,-0.0588960722088813,-0.0526746623218059
1769180661423,-0.0300445556640625,-0.1396484375,-0.99078369140625,-0.0781890749931335,-0.0451544299721717,-0.0740891396999359
1769180661433,-0.0243988037109375,-0.1388397216796875,-0.9904327392578124,-0.0717687308788299,-0.048582449555397,-0.0898041874170303
1769180661443,-0.009613037109375,-0.1434783935546875,-0.9971160888671876,-0.059539757668972,-0.0527561567723751,-0.0919176712632179
1769180661453,0.006622314453125,-0.146728515625,-1.0045623779296875,-0.0456950515508651,-0.0619674958288669,-0.0913464277982711
1769180661463,0.008087158203125,-0.1527557373046875,-1.0007171630859375,-0.0322375632822513,-0.0580361373722553,-0.0919328555464744
1769180661473,0.010650634765625,-0.15594482421875,-0.9944305419921876,-0.0314628519117832,-0.0499366670846939,-0.0937057211995124
1769180661483,0.0127105712890625,-0.152435302734375,-0.9914398193359376,-0.0316972099244594,-0.0456329993903636,-0.0910960882902145
1769180661493,0.0165863037109375,-0.1562652587890625,-0.9920654296875,-0.0314982719719409,-0.0358157865703105,-0.0844698771834373
1769180661504,0.0186614990234375,-0.1480560302734375,-1.00054931640625,-0.0236773658543825,-0.025588184595108,-0.0744055211544036
1769180661513,0.0133056640625,-0.1437835693359375,-1.0104827880859375,-0.0020048276055604,-0.0112944664433598,-0.0742065832018852
1769180661523,0.01068115234375,-0.144683837890625,-1.0167694091796875,0.0331568866968154,0.0055441688746213,-0.0675481483340263
1769180661533,0.0216064453125,-0.1499481201171875,-1.011993408203125,0.0550864227116107,0.0111093763262033,-0.0576734170317649
1769180661544,0.024444580078125,-0.15142822265625,-1.002685546875,0.0663017928600311,0.0065210163593292,-0.0513683818280696
1769180661554,0.01507568359375,-0.1487579345703125,-0.9934539794921876,0.0690834671258926,-0.0130079435184597,-0.0498650260269641
1769180661564,-0.0037841796875,-0.1447906494140625,-0.9811859130859376,0.0660312175750732,-0.0049902312457561,-0.0595967508852481
1769180661574,-0.00469970703125,-0.1484527587890625,-0.98919677734375,0.0714313089847564,0.0299182180315256,-0.061070542782545
1769180661584,0.0009002685546875,-0.150299072265625,-0.9843292236328124,0.0693905279040336,0.0300050359219312,-0.0571719445288181
1769180661594,0.0054931640625,-0.150665283203125,-0.97283935546875,0.0595016777515411,0.0243503469973802,-0.0545183680951595
1769180661604,0.0080413818359375,-0.15252685546875,-0.971435546875,0.0415756739675998,0.0251647420227527,-0.0504269562661647
1769180661614,0.0095977783203125,-0.153961181640625,-0.966339111328125,0.0274587888270616,0.0189742241054773,-0.0469789616763591
1769180661624,0.005950927734375,-0.156036376953125,-0.9688873291015624,0.0195031277835369,0.0033563817851245,-0.0491443760693073
1769180661634,0.006927490234375,-0.1579742431640625,-0.96612548828125,0.003221892286092,-0.0189848765730857,-0.0461861379444599
1769180661644,0.006744384765625,-0.153106689453125,-0.963714599609375,-0.0113591812551021,-0.0200453475117683,-0.0456625595688819
1769180661654,-0.0065155029296875,-0.1525421142578125,-0.970733642578125,-0.0070666978135704,-0.0062605589628219,-0.053704772144556
1769180661664,-0.016998291015625,-0.1490631103515625,-0.9755706787109376,0.0009345032158307,0.0041848914697766,-0.0656104385852813
1769180661674,-0.0132904052734375,-0.1475372314453125,-0.9765777587890624,0.0019832560792565,0.005789179354906,-0.068933792412281
1769180661684,-0.012725830078125,-0.1499176025390625,-0.9766082763671876,-0.0031939290929585,-0.0105152251198887,-0.076899304986
1769180661694,-0.0077972412109375,-0.15325927734375,-0.9727020263671876,-0.0218099579215049,-0.0312559232115745,-0.0841830521821975
1769180661704,0.0004425048828125,-0.1528472900390625,-0.9713897705078124,-0.0474282354116439,-0.0537295415997505,-0.0778077095746994
1769180661714,0.007476806640625,-0.1505126953125,-0.9797210693359376,-0.0592377558350563,-0.0400432907044887,-0.0735945925116539
1769180661724,0.0092010498046875,-0.1501312255859375,-0.996612548828125,-0.0502621047198772,-0.0240496769547462,-0.0670080631971359
1769180661734,0.006317138671875,-0.1487884521484375,-1.0057373046875,-0.0282782427966594,-0.0280545372515916,-0.0695007815957069
1769180661745,0.006378173828125,-0.144561767578125,-1.0031585693359375,-0.0161858946084976,-0.0256108213216066,-0.0698155686259269
1769180661754,0.0030975341796875,-0.1478118896484375,-1.0048065185546875,-2.210423735959921e-05,-0.0043529369868338,-0.0723551586270332
1769180661765,0.002349853515625,-0.1508941650390625,-1.0028076171875,0.0149611067026853,0.0006359628750942,-0.0766766667366027
1769180661775,0.0054473876953125,-0.149444580078125,-0.99261474609375,0.0134678715839982,-0.0023246733471751,-0.0770393908023834
1769180661785,0.003936767578125,-0.1480865478515625,-0.99041748046875,0.0047145942226052,0.0046570696868002,-0.0800271928310394
1769180661795,0.002197265625,-0.1487579345703125,-1.000823974609375,0.006983074825257,0.0124731808900833,-0.0787225067615509
1769180661805,0.00616455078125,-0.1477203369140625,-1.0104827880859375,0.0143781406804919,0.0081324949860572,-0.0724704712629318
1769180661815,0.0158843994140625,-0.1484222412109375,-1.011749267578125,0.019409917294979,-0.0035894084721803,-0.0617951899766922
1769180661825,0.0255889892578125,-0.1490631103515625,-1.0111541748046875,0.0288723949342966,0.0108015146106481,-0.05037422478199
1769180661835,0.0355682373046875,-0.149993896484375,-1.0140533447265625,0.0589874200522899,0.0120249707251787,-0.0422702245414257
1769180661845,0.024261474609375,-0.1346588134765625,-1.00946044921875,0.0958192050457,0.0011078750248998,-0.0507207028567791
1769180661855,-0.0033111572265625,-0.1336212158203125,-1.0072021484375,0.1143665239214897,0.0269194990396499,-0.060079850256443
1769180661865,-0.0019683837890625,-0.1520538330078125,-0.9931793212890624,0.1104205176234245,0.0546917393803596,-0.0514581315219402
1769180661875,0.018096923828125,-0.1496429443359375,-0.9651336669921876,0.0940021276473999,0.0291214007884264,-0.0444271191954612
1769180661885,0.0079803466796875,-0.1515350341796875,-0.9474639892578124,0.0745991393923759,0.0256033632904291,-0.0525585487484931
1769180661895,-0.0035247802734375,-0.1541290283203125,-0.9517364501953124,0.0555924214422702,0.0486924387514591,-0.0613144896924495
1769180661905,-0.0004119873046875,-0.1570892333984375,-0.9451751708984376,0.0231500603258609,0.0490319915115833,-0.0632348954677581
1769180661915,0.0117340087890625,-0.1551971435546875,-0.93914794921875,-0.0028866003267467,0.0260547697544097,-0.0641608759760856
1769180661925,0.014404296875,-0.144439697265625,-0.9464111328125,-0.0161840301007032,0.0138039626181125,-0.0695516467094421
1769180661935,0.0020294189453125,-0.1382293701171875,-0.9600982666015624,-0.0193246956914663,0.0079548619687557,-0.0786143839359283
1769180661946,-0.002349853515625,-0.133575439453125,-0.964263916015625,-0.0275717061012983,0.0120433466508984,-0.0834360346198082
1769180661955,0.009033203125,-0.1391143798828125,-0.96728515625,-0.0343752838671207,0.0113237611949443,-0.0836498886346817
1769180661966,0.0160064697265625,-0.1478271484375,-0.9688720703125,-0.0386850759387016,0.0032983249984681,-0.0844653472304344
1769180661976,0.0205078125,-0.155975341796875,-0.9708709716796876,-0.0470263659954071,0.0059609534218907,-0.0747285634279251
1769180661986,0.0327606201171875,-0.1610565185546875,-0.9725341796875,-0.0581820793449878,-0.0036072516813874,-0.0600106045603752
1769180661996,0.0362548828125,-0.1638031005859375,-0.9742889404296876,-0.0670504048466682,-0.0128795793280005,-0.0447080843150615
1769180662006,0.0318450927734375,-0.160125732421875,-0.9730682373046876,-0.0689345896244049,-0.0027052389923483,-0.0360517427325248
1769180662016,0.023895263671875,-0.1588134765625,-0.9804534912109376,-0.0688413828611373,0.0110784834250807,-0.0333763323724269
1769180662026,0.015625,-0.153289794921875,-0.9808197021484376,-0.0759581476449966,0.0083775054663419,-0.0343763493001461
1769180662036,0.012115478515625,-0.14556884765625,-0.9845733642578124,-0.0827121883630752,0.002462092321366,-0.0386587120592594
1769180662046,0.0151824951171875,-0.1439971923828125,-0.998504638671875,-0.0830157920718193,-0.0033103092573583,-0.0384967923164367
1769180662056,0.014495849609375,-0.1441497802734375,-1.0170135498046875,-0.062756061553955,-0.0155733665451407,-0.0357936844229698
1769180662066,0.013153076171875,-0.14434814453125,-1.0263214111328125,-0.0314420796930789,-0.0287480242550373,-0.0330982990562915
1769180662076,0.010498046875,-0.14825439453125,-1.02142333984375,-0.0050725229084491,-0.0477307699620723,-0.0332378484308719
1769180662086,0.002838134765625,-0.1507568359375,-1.009552001953125,0.0081942798569798,-0.0441898331046104,-0.0369617454707622
1769180662096,0.00128173828125,-0.15447998046875,-0.9945831298828124,0.0078829564154148,-0.0282127298414707,-0.0371207371354103
1769180662106,0.00604248046875,-0.156768798828125,-0.9837188720703124,0.00094142742455,-0.0156335551291704,-0.0323283784091472
1769180662116,0.012237548828125,-0.157745361328125,-0.9754791259765624,-0.0119786318391561,-0.0223138276487588,-0.0243886969983577
1769180662126,0.012969970703125,-0.154510498046875,-0.9805450439453124,-0.0168205257505178,-0.0337180159986019,-0.0221425872296094
1769180662136,0.001678466796875,-0.1453094482421875,-0.990936279296875,-0.0064547033980488,-0.0318783037364482,-0.032144621014595
1769180662147,-3.0517578125e-05,-0.141448974609375,-1.0003662109375,0.0114705013111233,-0.0436944849789142,-0.0360157899558544
1769180662156,0.0096435546875,-0.143768310546875,-1.0021209716796875,0.0254656784236431,-0.0285522826015949,-0.0372738689184188
1769180662166,0.0149078369140625,-0.1451873779296875,-1.0067291259765625,0.0404531508684158,-0.0283970199525356,-0.0305041130632162
1769180662177,0.00946044921875,-0.1456451416015625,-1.0037689208984375,0.0641187950968742,-0.0274760983884334,-0.0280358958989381
1769180662187,0.0113983154296875,-0.146331787109375,-1.006378173828125,0.0859442055225372,0.0004327636852394,-0.0236073248088359
1769180662197,0.014190673828125,-0.15301513671875,-0.9976806640625,0.1020627170801162,0.007577758282423,-0.0169377047568559
1769180662207,0.0181884765625,-0.1540679931640625,-0.982940673828125,0.0951467528939247,0.0064714811742305,-0.0052219261415302
1769180662217,0.0197601318359375,-0.1545867919921875,-0.965240478515625,0.0738182961940765,0.0056115468032658,0.0077777621336281
1769180662227,0.0206451416015625,-0.15496826171875,-0.962188720703125,0.0589112527668476,0.0188272166997194,0.0134718669578433
1769180662237,0.017486572265625,-0.156402587890625,-0.9570159912109376,0.0449208691716194,0.0194546580314636,0.0145451202988624
1769180662247,0.011444091796875,-0.151702880859375,-0.94891357421875,0.0202216487377882,0.0088890986517071,0.0133450999855995
1769180662257,0.00372314453125,-0.1478424072265625,-0.952606201171875,0.0019917781464755,0.0190988592803478,0.0044251084327697
1769180662267,0.006134033203125,-0.150115966796875,-0.9663848876953124,-0.0007219829712994,0.0171227939426898,0.003057841444388
1769180662277,0.00958251953125,-0.15118408203125,-0.9683837890625,-0.0052829124033451,-0.0006056028068996,0.0006964165950194
1769180662287,0.0134429931640625,-0.1507415771484375,-0.96295166015625,-0.0235130488872528,-0.0040437439456582,0.0017539578257128
1769180662297,0.014984130859375,-0.15289306640625,-0.9671478271484376,-0.0356211103498935,0.0060299295000731,0.0055990298278629
1769180662307,0.013702392578125,-0.153106689453125,-0.970947265625,-0.0384235568344593,0.0132423024624586,0.0111208278685808
1769180662317,0.0151519775390625,-0.1524200439453125,-0.96893310546875,-0.0434665158390998,0.0116193713620305,0.0187997873872518
1769180662327,0.0183258056640625,-0.15533447265625,-0.97039794921875,-0.0490114837884902,0.0034205641131848,0.0249788537621498
1769180662337,0.017547607421875,-0.1568603515625,-0.9710540771484376,-0.0575194843113422,-0.0075908079743385,0.0274742357432842
1769180662347,0.009613037109375,-0.1571807861328125,-0.9683685302734376,-0.0718060135841369,-0.0229034516960382,0.0309973303228616
1769180662357,0.004241943359375,-0.1539306640625,-0.9627227783203124,-0.099069058895111,-0.0376919843256473,0.0256393160670995
1769180662368,0.0009307861328125,-0.152435302734375,-0.9580078125,-0.1216859519481659,-0.031976044178009,0.0251202676445245
1769180662378,-0.001129150390625,-0.1533660888671875,-0.9698486328125,-0.1251760274171829,-0.0130723919719457,0.0232925396412611
1769180662387,-0.0048675537109375,-0.1529998779296875,-0.9804229736328124,-0.1292693018913269,-0.0052368398755788,0.0257778018712997
1769180662398,-0.0076141357421875,-0.145599365234375,-0.9916229248046876,-0.1237025037407875,0.0092291850596666,0.0198770351707935
1769180662408,-0.0133819580078125,-0.1411285400390625,-1.0130767822265625,-0.0982232391834259,0.0104039050638675,0.0096579538658261
1769180662418,-0.005615234375,-0.1412506103515625,-1.02899169921875,-0.0623629763722419,0.006573480553925,0.0046831686049699
1769180662428,0.0064239501953125,-0.1432037353515625,-1.03277587890625,-0.0321044065058231,0.0021502361632883,0.0068927933461964
1769180662438,0.0144805908203125,-0.15386962890625,-1.0244140625,-0.0098811266943812,0.0089910980314016,0.0153688360005617
1769180662448,0.0239410400390625,-0.1664276123046875,-1.016021728515625,0.0041297636926174,0.0188160315155982,0.0321547389030456
1769180662458,0.0352935791015625,-0.175872802734375,-0.9993896484375,-0.0004876247840002,0.0121309645473957,0.0517465509474277
1769180662468,0.037017822265625,-0.166717529296875,-0.9911956787109376,0.0002769687562249,0.0055721318349242,0.0625331550836563
1769180662478,0.011383056640625,-0.143341064453125,-1.002105712890625,0.0212962329387664,-0.0064642908982932,0.0526285916566848
1769180662488,-0.0203094482421875,-0.12982177734375,-1.0094757080078125,0.041581530123949,0.0011715245200321,0.0298079624772071
1769180662498,-0.0270233154296875,-0.1267547607421875,-1.0024871826171875,0.0509976707398891,0.0006056028068996,0.0052924999035894
1769180662508,-0.0186309814453125,-0.1268157958984375,-0.9924774169921876,0.0589152462780475,-0.0144351320341229,-0.0104371942579746
1769180662518,-0.0003662109375,-0.1434478759765625,-0.980377197265625,0.0588992685079574,-0.0217005014419555,-0.0133051527664065
1769180662528,0.0156707763671875,-0.1588134765625,-0.9682464599609376,0.0480096042156219,-0.0204112660139799,-0.0033212280832231
1769180662539,0.0288848876953125,-0.171417236328125,-0.9575653076171876,0.0347161702811718,-0.0252869799733161,0.0093935020267963
1769180662548,0.0346832275390625,-0.1648406982421875,-0.947998046875,0.013024722225964,-0.0344186946749687,0.022866167128086
1769180662558,0.0190582275390625,-0.1526031494140625,-0.943939208984375,-0.0165773779153823,-0.0288295168429613,0.0259043015539646
1769180662568,-0.0010223388671875,-0.1393585205078125,-0.956329345703125,-0.0389484651386737,-0.0282976850867271,0.0238403510302305
1769180662579,-0.0094451904296875,-0.131561279296875,-0.9605865478515624,-0.0623597800731658,-0.0543101094663143,0.0175052247941494
1769180662589,-0.0077362060546875,-0.1340789794921875,-0.9595794677734376,-0.0719245225191116,-0.0882827267050743,0.0108033791184425
1769180662599,0.00103759765625,-0.145111083984375,-0.9601898193359376,-0.0924822613596916,-0.0992618724703788,0.0147539125755429
1769180662609,0.0096588134765625,-0.1521453857421875,-0.9518585205078124,-0.1273116171360016,-0.1000674813985824,0.0136154107749462
1769180662619,0.01312255859375,-0.15496826171875,-0.95086669921875,-0.1583864390850067,-0.1119041666388511,0.0166599359363317
1769180662629,0.019256591796875,-0.1568603515625,-0.95135498046875,-0.183219626545906,-0.1075203344225883,0.0236115865409374
1769180662639,0.0133056640625,-0.1598052978515625,-0.9625701904296876,-0.1990004479885101,-0.0848376601934433,0.0301826689392328
1769180662649,0.0060577392578125,-0.14892578125,-0.98785400390625,-0.1907688826322555,-0.0634207874536514,0.027066770941019
1769180662659,-0.0033721923828125,-0.138580322265625,-1.0117645263671875,-0.1627484411001205,-0.0452966429293155,0.023128755390644
1769180662669,-0.01031494140625,-0.126708984375,-1.03851318359375,-0.1089051812887191,-0.03361601755023,0.0137914456427097
1769180662679,-0.0146331787109375,-0.1222381591796875,-1.061614990234375,-0.0430958047509193,-0.0260017737746238,0.0025686188600957
1769180662689,-0.008148193359375,-0.1228485107421875,-1.06695556640625,0.0194610487669706,-0.0233742985874414,-0.0003153182624373
1769180662699,0.0026397705078125,-0.1276702880859375,-1.0623931884765625,0.0672024711966514,-0.0146039761602878,0.0098012313246726
1769180662709,0.0177764892578125,-0.1339111328125,-1.05059814453125,0.1073059514164924,-0.0071047809906303,0.0284433588385581
1769180662719,0.0202484130859375,-0.137298583984375,-1.036651611328125,0.1378406882286071,-0.0149674974381923,0.0408230647444725
1769180662729,0.0104217529296875,-0.1425628662109375,-1.01678466796875,0.1522646397352218,-0.0061782673001289,0.043680902570486
1769180662739,0.001861572265625,-0.1439971923828125,-0.9952850341796876,0.1519314795732498,0.0022793996613472,0.0461073070764541
1769180662749,-0.005859375,-0.141754150390625,-0.974151611328125,0.1397024989128112,0.0080898841843009,0.0377119593322277
1769180662759,-0.0059661865234375,-0.142608642578125,-0.961822509765625,0.1146070063114166,0.0167185254395008,0.0352898128330707
1769180662769,-0.0045623779296875,-0.1462249755859375,-0.955291748046875,0.0840472355484962,0.0203012768179178,0.0362584069371223
1769180662779,-0.0036773681640625,-0.1462554931640625,-0.95709228515625,0.0537380613386631,0.0061100902967154,0.0366605408489704
1769180662789,-0.0020751953125,-0.1530914306640625,-0.95904541015625,0.0258142873644828,-0.006637929007411,0.0371457710862159
1769180662800,-0.0002899169921875,-0.1534881591796875,-0.96051025390625,-0.0006825681775808,-0.0113541204482316,0.0430364161729812
1769180662810,-0.0080108642578125,-0.148651123046875,-0.967254638671875,-0.0126271117478609,0.0036924728192389,0.0363079383969306
1769180662820,-0.0164794921875,-0.147857666015625,-0.98583984375,-0.0040325582958757,0.0273091197013854,0.0321179889142513
1769180662830,-0.0093841552734375,-0.147125244140625,-0.9918212890625,0.0066184881143271,0.0279530715197324,0.0328546203672885
1769180662840,0.002044677734375,-0.150115966796875,-0.99102783203125,0.0118353543803095,0.0262976493686437,0.0407452993094921
1769180662850,0.0111083984375,-0.1560821533203125,-0.991790771484375,0.0160990748554468,0.0195715706795454,0.0509089864790439
1769180662860,-0.00152587890625,-0.1560821533203125,-0.989013671875,0.019466109573841,0.013015666976571,0.0508653111755847
1769180662870,-0.0135498046875,-0.15234375,-0.9881134033203124,0.0213388446718454,0.0174679402261972,0.047580037266016
1769180662880,-0.017364501953125,-0.1514129638671875,-0.98138427734375,0.0147451236844062,0.006597182713449,0.0420292094349861
1769180662890,-0.031585693359375,-0.1475677490234375,-0.96856689453125,-0.0046874298714101,-0.0035790221299976,0.0265325419604778
1769180662900,-0.03656005859375,-0.151885986328125,-0.9646453857421876,-0.027065172791481,0.0038986015133559,0.0095322523266077
1769180662910,-0.0342254638671875,-0.1534271240234375,-0.9646453857421876,-0.0390256978571414,0.0092600770294666,-0.0030682277865707
1769180662920,-0.0291290283203125,-0.1509246826171875,-0.969268798828125,-0.0474029369652271,0.0169688630849123,-0.0098742023110389
1769180662930,-0.0175323486328125,-0.150634765625,-0.9817352294921876,-0.0434478744864463,0.0242190528661012,-0.0041651837527751
1769180662940,-0.010345458984375,-0.14892578125,-0.994781494140625,-0.0315930806100368,0.0182804707437753,-0.005977464839816
1769180662950,-0.0114288330078125,-0.148895263671875,-1.000518798828125,-0.0169246550649404,0.0149187622591853,-0.0079311598092317
1769180662960,-0.0049285888671875,-0.1526336669921875,-1.00543212890625,-0.0016769925132393,0.0165166594088077,-0.008723184466362
