timestamp_ms,acc_x,acc_y,acc_z,gyro_x,gyro_y,gyro_z
1768731769928,0.1982269287109375,-0.277679443359375,-0.9338226318359376,-0.0105104316025972,0.0030687605030834,-0.0074283550493419
1768731769936,0.199676513671875,-0.27484130859375,-0.9348297119140624,-0.0104012414813041,-0.005879727192223,-0.0088062742725014
1768731769945,0.19873046875,-0.2720489501953125,-0.9350128173828124,-0.0129418978467583,-0.0015981629258021,-0.0101892538368701
1768731769955,0.2004852294921875,-0.2717437744140625,-0.94049072265625,-0.0100398510694503,0.0115887457504868,-0.0106640961021184
1768731769965,0.2005462646484375,-0.2708892822265625,-0.94378662109375,-0.0094017572700977,0.0331411771476268,-0.0094619449228048
1768731769975,0.19940185546875,-0.2713775634765625,-0.94293212890625,-0.0081665832549333,0.0454292669892311,-0.0086398273706436
1768731769985,0.195465087890625,-0.2721405029296875,-0.9379425048828124,-0.0103967143222689,0.0425525195896625,-0.0082147866487503
1768731769996,0.19476318359375,-0.27130126953125,-0.932464599609375,-0.0138692101463675,0.032275915145874,-0.0067247478291392
1768731770006,0.1943206787109375,-0.2756195068359375,-0.93035888671875,-0.0143251437693834,0.0130055472254753,-0.0126404277980327
1768731770016,0.1925048828125,-0.282379150390625,-0.9314422607421876,-0.0136843863874673,0.0118372179567813,-0.0169912334531545
1768731770026,0.193603515625,-0.278289794921875,-0.9310150146484376,-0.0160346273332834,0.0053497580811381,-0.01767273619771
1768731770036,0.1949005126953125,-0.2733001708984375,-0.929351806640625,-0.0199579950422048,-0.0054581486620008,-0.0118161793798208
1768731770046,0.1968536376953125,-0.2702178955078125,-0.93084716796875,-0.0210448317229747,-0.0113261574879288,-0.013243899680674
1768731770056,0.195068359375,-0.2793426513671875,-0.9385223388671876,-0.0163582004606723,0.0097895134240388,-0.0191103108227252
1768731770066,0.1939849853515625,-0.2723388671875,-0.9452362060546876,-0.0073649720288813,0.036940973252058,-0.0093482276424765
1768731770076,0.2051239013671875,-0.2585601806640625,-0.9480438232421876,-0.0010375675046816,0.0196032617241144,0.0020327907986938
1768731770086,0.209259033203125,-0.2648162841796875,-0.9483489990234376,0.0014258564915508,0.0150790838524699,-7.616640505148098e-05
1768731770096,0.2037811279296875,-0.2692108154296875,-0.94482421875,0.0031598405912518,0.026767699047923,-0.0026767430827021
1768731770106,0.1958465576171875,-0.2713165283203125,-0.9416351318359376,0.0032525185961276,0.0316636525094509,-0.0033806166611611
1768731770116,0.195770263671875,-0.2722625732421875,-0.939361572265625,0.0099671464413404,0.0276207085698843,-0.0017318536993116
1768731770126,0.1982421875,-0.2707366943359375,-0.9372711181640624,0.0191356111317873,0.0134588172659277,-0.0031755531672388
1768731770136,0.200592041015625,-0.2698822021484375,-0.9359588623046876,0.0217630863189697,0.0014378406340256,-0.0013113404856994
1768731770146,0.204345703125,-0.26995849609375,-0.9390106201171876,0.024287762120366,0.0011262508342042,-0.0028692898340523
1768731770156,0.204437255859375,-0.2712860107421875,-0.93743896484375,0.0196381490677595,0.0091202612966299,-0.0017925737192854
1768731770166,0.2032012939453125,-0.2768402099609375,-0.9348907470703124,0.0152665711939334,0.008945558220148,0.0017257283907383
1768731770176,0.2028656005859375,-0.2795867919921875,-0.93121337890625,0.0098188081756234,0.003327886108309,0.0012069445801898
1768731770186,0.20330810546875,-0.27911376953125,-0.931396484375,0.0094507597386837,0.0041204430162906,0.002185123739764
1768731770197,0.2026519775390625,-0.27880859375,-0.934539794921875,0.0106694223359227,0.0081378212198615,0.0046397591941058
1768731770207,0.2044830322265625,-0.2769927978515625,-0.937255859375,0.0112577145919203,0.0146923931315541,0.0119722401723265
1768731770217,0.204193115234375,-0.2768707275390625,-0.9384002685546876,0.0101330615580081,0.022963372990489,0.0120473420247435
1768731770227,0.2028045654296875,-0.2764892578125,-0.9351043701171876,0.0073284865356981,0.0219503063708543,0.0139341913163661
1768731770237,0.202545166015625,-0.2758331298828125,-0.933013916015625,0.0074861459434032,0.0142471129074692,0.0172005575150251
1768731770247,0.202606201171875,-0.2744293212890625,-0.93377685546875,0.0105895269662141,0.0076691047288477,0.0196834243834018
1768731770257,0.2024688720703125,-0.2781524658203125,-0.938995361328125,0.0133810527622699,0.0127839725464582,0.0182732790708541
1768731770267,0.20025634765625,-0.2781982421875,-0.9398651123046876,0.0167299769818782,0.0238158497959375,0.0160982757806777
1768731770277,0.1970672607421875,-0.2816009521484375,-0.9377899169921876,0.012853480875492,0.0275448095053434,0.0107399960979819
1768731770287,0.197479248046875,-0.277801513671875,-0.9311981201171876,0.0114265587180852,0.0168945603072643,0.0085053378716111
1768731770297,0.20147705078125,-0.27752685546875,-0.928436279296875,0.006041647400707,0.0029593044891953,0.0090488884598016
1768731770307,0.201934814453125,-0.277923583984375,-0.925262451171875,-0.0067551080137491,-0.0016623451374471,0.0066203521564602
1768731770317,0.201324462890625,-0.2784576416015625,-0.9234466552734376,-0.016118248924613,0.0086025428026914,0.0035989959724247
1768731770327,0.2021484375,-0.2776947021484375,-0.9254608154296876,-0.0241609960794448,0.0173001606017351,0.0060887853614985
1768731770337,0.2065887451171875,-0.2718353271484375,-0.9264068603515624,-0.0273567903786897,0.0060296631418168,0.0136244660243391
1768731770347,0.2078094482421875,-0.2752227783203125,-0.92840576171875,-0.0351055227220058,0.0043476102873682,0.0141477771103382
1768731770357,0.2035064697265625,-0.2785186767578125,-0.9266357421875,-0.0415738075971603,0.0066584353335201,0.0158095899969339
1768731770367,0.2004852294921875,-0.279296875,-0.928070068359375,-0.0447791889309883,0.0096968356519937,0.0186495836824178
1768731770377,0.20220947265625,-0.278076171875,-0.927520751953125,-0.0493369214236736,0.005093561951071,0.0242270417511463
1768731770387,0.20098876953125,-0.2784881591796875,-0.927825927734375,-0.05289863422513,-0.0070206252858042,0.0277064628899097
1768731770398,0.2010650634765625,-0.2772369384765625,-0.93145751953125,-0.0461155623197555,-0.0162524729967117,0.0328911058604717
1768731770408,0.203033447265625,-0.2752838134765625,-0.9399566650390624,-0.0399535410106182,-0.014478275552392,0.0400400944054126
1768731770418,0.202972412109375,-0.2750091552734375,-0.9443359375,-0.0333291962742805,-0.0152279548346996,0.0417197495698928
1768731770428,0.20050048828125,-0.2744293212890625,-0.9449920654296876,-0.0264001823961734,-0.0140457777306437,0.0470985360443592
1768731770438,0.2015228271484375,-0.271636962890625,-0.94696044921875,-0.0209921002388,-0.0162290371954441,0.0494141541421413
1768731770448,0.1977691650390625,-0.2724151611328125,-0.9495391845703124,-0.0162625927478075,-0.0103061674162745,0.0464125052094459
1768731770458,0.1947784423828125,-0.2730712890625,-0.9508514404296876,-0.005274390336126,-0.0020751350093632,0.0458577685058116
1768731770468,0.1951751708984375,-0.272979736328125,-0.95501708984375,0.0085040060803294,-0.0008487494196742,0.0478990823030471
1768731770478,0.1942901611328125,-0.274169921875,-0.957305908203125,0.0193952694535255,0.0105730155482888,0.044381845742464
1768731770488,0.18890380859375,-0.275848388671875,-0.9522247314453124,0.0240475460886955,0.0208885036408901,0.0390339531004428
1768731770498,0.1846771240234375,-0.2778472900390625,-0.945892333984375,0.0288106091320514,0.0082462122663855,0.0305943936109542
1768731770508,0.1860198974609375,-0.281005859375,-0.9441375732421876,0.0354546643793582,-0.00077870831592,0.0260334648191928
1768731770518,0.187255859375,-0.27874755859375,-0.947174072265625,0.0412848554551601,0.012795690447092,0.0183811374008655
1768731770528,0.187652587890625,-0.2750701904296875,-0.9460296630859376,0.0411815233528614,0.0391194410622119,0.0200314987450838
1768731770539,0.1867523193359375,-0.2752532958984375,-0.943634033203125,0.0409375801682472,0.0503095090389251,0.0214922428131103
1768731770548,0.1881866455078125,-0.275543212890625,-0.9368438720703124,0.0360317714512348,0.0465158373117446,0.0216176770627498
1768731770558,0.19061279296875,-0.2762603759765625,-0.92724609375,0.0287235230207443,0.0283027440309524,0.0179491732269525
1768731770568,0.192535400390625,-0.2773895263671875,-0.919891357421875,0.0195771642029285,0.0057244645431637,0.0166660621762275
1768731770578,0.1934051513671875,-0.279388427734375,-0.917816162109375,0.004343083128333,-0.0011502192355692,0.0117027284577488
1768731770588,0.1922760009765625,-0.2816925048828125,-0.917083740234375,-0.0116968695074319,-0.0083194486796855,0.0084534054622054
1768731770599,0.1915435791015625,-0.2820587158203125,-0.92041015625,-0.0222877282649278,-0.0171872433274984,0.0069101038388907
1768731770608,0.1935577392578125,-0.283782958984375,-0.923583984375,-0.0298122242093086,-0.0173329170793294,0.0026916568167507
1768731770619,0.1917572021484375,-0.28369140625,-0.9253082275390624,-0.031589351594448,-0.0222078338265419,0.0020735370926558
1768731770629,0.1940155029296875,-0.280181884765625,-0.932281494140625,-0.0254350528120994,-0.0198029987514019,0.0022892532870173
1768731770639,0.196807861328125,-0.2787628173828125,-0.9386444091796876,-0.0199374891817569,-0.0077205039560794,-0.0011012171162292
1768731770649,0.1962738037109375,-0.2786407470703125,-0.93994140625,-0.015098525211215,0.0038682415615767,-0.0007326356135308
1768731770659,0.1980133056640625,-0.2762298583984375,-0.9391326904296876,-0.010376208461821,0.0021353224292397,-0.0002263686910737
1768731770669,0.20281982421875,-0.277069091796875,-0.9420166015625,0.0001499359641456,-0.0086680566892027,0.0041758366860449
1768731770679,0.2030792236328125,-0.277130126953125,-0.941619873046875,0.0035124430432915,-0.0085431542247533,5.326322138898831e-07
1768731770689,0.2007904052734375,-0.2784423828125,-0.940673828125,0.0047151264734566,-0.0026085663121193,-0.0001448759576305
1768731770699,0.20074462890625,-0.2811126708984375,-0.939605712890625,-0.0026754115242511,-0.0003081277245655,0.0006444850005209
1768731770709,0.19805908203125,-0.286895751953125,-0.9373779296875,-0.0083197150379419,0.0117935426533222,-0.0066776098683476
1768731770719,0.1948394775390625,-0.2878875732421875,-0.9328765869140624,-0.0149754872545599,0.0143166212365031,-0.0083348955959081
1768731770729,0.1958160400390625,-0.2833404541015625,-0.9287109375,-0.0162759087979793,0.0001861549535533,-0.0037169738207012
1768731770739,0.2018585205078125,-0.2816009521484375,-0.930511474609375,-0.0151981273666024,-0.0031502533238381,-0.0076914755627512
1768731770749,0.198974609375,-0.28424072265625,-0.9297332763671876,-0.0153669724240899,0.0110859405249357,-0.0101533019915223
1768731770759,0.20001220703125,-0.2765655517578125,-0.931732177734375,-0.0172002911567688,0.0016706009628251,-0.004195543937385
1768731770769,0.2056121826171875,-0.2743072509765625,-0.931243896484375,-0.0198011361062526,-0.0108039118349552,-0.0011203918838873
1768731770779,0.2062530517578125,-0.2740325927734375,-0.9344940185546876,-0.01089951954782,0.0006183860241435,-0.0030157635919749
1768731770789,0.204833984375,-0.27667236328125,-0.941864013671875,-0.0094315847381949,0.007938883267343,-0.0028714202344417
1768731770800,0.199066162109375,-0.278900146484375,-0.93731689453125,-0.0146955894306302,0.0106108328327536,-0.0050647999159991
1768731770810,0.1981048583984375,-0.276397705078125,-0.932586669921875,-0.0105594340711832,0.0143986465409398,-0.0033561156596988
1768731770820,0.2036590576171875,-0.2731475830078125,-0.935272216796875,-0.0092630069702863,0.0135158086195588,0.0040181772783398
1768731770830,0.207672119140625,-0.277099609375,-0.9357757568359376,-0.0089599387720227,0.0060786651447415,0.0079322252422571
1768731770840,0.206298828125,-0.280548095703125,-0.9308013916015624,-0.0150700295343995,0.0098470384255051,0.0097738010808825
1768731770850,0.2050018310546875,-0.28314208984375,-0.929473876953125,-0.0239522047340869,0.0082059977576136,0.0047265784814953
1768731770860,0.2009735107421875,-0.28680419921875,-0.9289703369140624,-0.0289826486259698,-0.0106830047443509,-0.0014245248166844
1768731770870,0.2012481689453125,-0.28826904296875,-0.936187744140625,-0.0245996192097663,-0.0158237032592296,-0.0067383302375674
1768731770880,0.20367431640625,-0.283935546875,-0.9478302001953124,-0.0143451169133186,-0.0068549765273928,-0.0067242155782878
1768731770890,0.2029266357421875,-0.278839111328125,-0.9532012939453124,-0.0047183223068714,0.0157398153096437,-0.0056443037465214
1768731770900,0.1995849609375,-0.2761077880859375,-0.9534759521484376,0.012319516390562,0.0336351916193962,-0.0025800704024732
1768731770910,0.2000274658203125,-0.2767333984375,-0.954925537109375,0.0336058959364891,0.038727156817913,0.0019659455865621
1768731770920,0.2028656005859375,-0.2762451171875,-0.952667236328125,0.053596381098032,0.0384089089930057,0.0058179418556392
1768731770930,0.202606201171875,-0.277069091796875,-0.9458770751953124,0.0650133565068245,0.0360701195895671,0.0055721318349242
1768731770940,0.2009735107421875,-0.2803192138671875,-0.9382476806640624,0.0646852552890777,0.0340583696961402,0.0021656826138496
1768731770950,0.20166015625,-0.28094482421875,-0.9297332763671876,0.0606963708996772,0.0265061762183904,-0.0033265545498579
1768731770960,0.202178955078125,-0.2790985107421875,-0.9251861572265624,0.0487648770213127,0.0218965094536542,-0.0046570696868002
1768731770970,0.2022857666015625,-0.2811126708984375,-0.92132568359375,0.0324809774756431,0.0279248412698507,-0.0107370661571621
1768731770981,0.2009429931640625,-0.2813720703125,-0.921600341796875,0.018363295122981,0.0332620814442634,-0.0083468798547983
1768731770990,0.2032470703125,-0.2818603515625,-0.9199066162109376,0.0093500921502709,0.0175345186144113,-0.0094243939965963
1768731771000,0.205780029296875,-0.284759521484375,-0.9221038818359376,0.00145728175994,0.0182141568511724,-0.0111618405207991
1768731771010,0.201812744140625,-0.28369140625,-0.9220733642578124,-0.0054520233534276,0.0244848374277353,-0.0113847469910979
1768731771020,0.200653076171875,-0.2819671630859375,-0.9233551025390624,-0.0150649696588516,0.0248555485159158,-0.0110571784898638
1768731771031,0.2064208984375,-0.2780303955078125,-0.9255523681640624,-0.0145957209169864,0.0164969507604837,-0.0099567603319883
1768731771041,0.207672119140625,-0.27850341796875,-0.928192138671875,-0.0145824048668146,0.0057755974121391,-0.0109637016430497
1768731771051,0.208770751953125,-0.2804107666015625,-0.929779052734375,-0.0168998874723911,0.0059044943191111,-0.0085825687274336
1768731771061,0.2065582275390625,-0.2821807861328125,-0.93084716796875,-0.0182786062359809,0.0166426263749599,-0.0115328188985586
1768731771071,0.207000732421875,-0.2824859619140625,-0.932281494140625,-0.0191987287253141,0.0160005372017622,-0.0084028057754039
1768731771081,0.208251953125,-0.2815093994140625,-0.9322509765625,-0.020322049036622,0.0191068481653928,-0.009865946136415
1768731771091,0.2057037353515625,-0.2811431884765625,-0.9321441650390624,-0.0180956460535526,0.0173787232488393,-0.0110667655244469
1768731771101,0.20574951171875,-0.2819671630859375,-0.9339141845703124,-0.0136444391682744,0.0158322267234325,-0.010078732855618
1768731771111,0.2022552490234375,-0.2826385498046875,-0.9335174560546876,-0.0121280355378985,0.0213273931294679,-0.0097138797864317
1768731771121,0.2049102783203125,-0.2826995849609375,-0.9329376220703124,-0.0046397591941058,0.0176034942269325,-0.0071455272845923
1768731771131,0.2059478759765625,-0.283966064453125,-0.9337615966796876,-0.0015403723809868,0.0197196416556835,-0.0055625443346798
1768731771141,0.2041015625,-0.28204345703125,-0.9290008544921876,-0.0043657198548316,0.0167299769818782,-0.0073170349933207
1768731771151,0.2034759521484375,-0.2818756103515625,-0.92718505859375,-0.0025142903905361,0.0092177335172891,-0.0041966093704104
1768731771161,0.206024169921875,-0.281463623046875,-0.9304656982421876,-0.0007414240390062,0.0080086579546332,-0.0041891522705554
1768731771171,0.2092742919921875,-0.27960205078125,-0.935760498046875,-0.0040916805155575,0.0140971764922142,0.0007094661123119
1768731771181,0.210357666015625,-0.2782745361328125,-0.9349212646484376,-0.0038844866212457,0.0117064574733376,0.0037470676470547
1768731771191,0.2064971923828125,-0.278594970703125,-0.93304443359375,-0.0058949068188667,0.0062624234706163,0.0070991883985698
1768731771201,0.2064056396484375,-0.2807769775390625,-0.932220458984375,-0.0029704899061471,0.0051849083974957,0.0060520335100591
1768731771211,0.203094482421875,-0.2806396484375,-0.931854248046875,0.0042834281921386,-0.0065037058666348,0.0075601814314723
1768731771222,0.202972412109375,-0.284423828125,-0.9344940185546876,0.0126335034146904,-0.0054357778280973,0.0046876962296664
1768731771232,0.2023468017578125,-0.2817840576171875,-0.934783935546875,0.0096275936812162,0.0001430117554264,0.0042906189337372
1768731771242,0.20416259765625,-0.2821807861328125,-0.9337158203125,0.0008314388687722,0.0027129622176289,0.0020325244404375
1768731771252,0.2026214599609375,-0.2796783447265625,-0.928558349609375,-0.0095469001680612,0.0050176619552075,0.0006905576447024
1768731771262,0.1994781494140625,-0.2808074951171875,-0.926116943359375,-0.0141866588965058,0.0032847428228706,0.0012658004416152
1768731771272,0.1988067626953125,-0.2841644287109375,-0.928070068359375,-0.017781127244234,0.0051305796951055,-0.0022280006669461
1768731771282,0.197113037109375,-0.2848968505859375,-0.926666259765625,-0.022327410057187,0.0040277647785842,-0.0052099418826401
1768731771292,0.1993560791015625,-0.28411865234375,-0.92315673828125,-0.0270433351397514,-0.0048541435971856,-0.0024306671693921
1768731771302,0.1995697021484375,-0.2808074951171875,-0.924407958984375,-0.0321099981665611,-0.0160279683768749,-0.0051388354040682
1768731771312,0.2014312744140625,-0.27935791015625,-0.92626953125,-0.0346748903393745,-0.0150481918826699,-0.0061764032579958
1768731771322,0.2014007568359375,-0.2777099609375,-0.9298095703125,-0.0370951704680919,-0.0085322353988885,-0.0055731972679495
1768731771332,0.201202392578125,-0.27947998046875,-0.9349517822265624,-0.0405586101114749,-0.0015856460668146,-0.0046879625879228
1768731771342,0.200927734375,-0.2817535400390625,-0.9359130859375,-0.0421109683811664,-0.0017459683585911,-0.0059399143792688
1768731771352,0.200592041015625,-0.2824554443359375,-0.9340667724609376,-0.0405218601226806,-0.0049785133451223,-0.0058666775003075
1768731771362,0.1997528076171875,-0.2815704345703125,-0.93243408203125,-0.0400358326733112,-0.0067005134187638,-0.0097024282440543
1768731771372,0.199676513671875,-0.2821807861328125,-0.933685302734375,-0.0409658104181289,-0.0209915675222873,-0.011207646690309
1768731771382,0.200164794921875,-0.286712646484375,-0.9351806640625,-0.0386986583471298,-0.0204600021243095,-0.0173941701650619
1768731771392,0.1976165771484375,-0.2861328125,-0.936614990234375,-0.0346354767680168,-0.0064762751571834,-0.0226051770150661
1768731771402,0.1984710693359375,-0.284881591796875,-0.9381256103515624,-0.0267607737332582,-0.0030360035598278,-0.0184365306049585
1768731771412,0.203399658203125,-0.278076171875,-0.9407196044921876,-0.0241807028651237,0.0065857311710715,-0.0142606953158974
1768731771422,0.202667236328125,-0.277862548828125,-0.9373016357421876,-0.016570720821619,0.0181632917374372,-0.009860087186098
1768731771433,0.205291748046875,-0.2693939208984375,-0.9365692138671876,-0.0097897797822952,0.0067585702054202,-0.0052584116347134
1768731771442,0.207763671875,-0.27362060546875,-0.932861328125,-0.0078355520963668,0.0079338233917951,-0.0057135457172989
1768731771453,0.2070159912109375,-0.2680206298828125,-0.9311065673828124,-0.0020650150254368,0.0178575608879327,-0.0024442493449896
1768731771463,0.208953857421875,-0.2665252685546875,-0.930206298828125,-0.0090949609875679,0.0009219863568432,0.0007994809420779
1768731771473,0.2057952880859375,-0.27117919921875,-0.926025390625,-0.0130169987678527,0.0066334013827145,0.0008575378451496
1768731771483,0.2047882080078125,-0.2660064697265625,-0.926361083984375,-0.0167989544570446,0.0177009664475917,0.0045039379037916
1768731771493,0.205108642578125,-0.2672576904296875,-0.92315673828125,-0.0301310047507286,0.0055662728846073,0.0102606266736984
1768731771503,0.20574951171875,-0.271209716796875,-0.9186248779296876,-0.045369878411293,-0.0086821718141436,0.0128548117354512
1768731771513,0.2059326171875,-0.274993896484375,-0.9195098876953124,-0.0582262873649597,-0.0066757458262145,0.0117589216679334
1768731771523,0.2039031982421875,-0.278900146484375,-0.924957275390625,-0.0692381933331489,-0.0005107942852191,0.0075428709387779
1768731771533,0.1997222900390625,-0.2817230224609375,-0.9298095703125,-0.0804991051554679,0.0028421254828572,0.0022351911757141
1768731771543,0.19854736328125,-0.2813568115234375,-0.931732177734375,-0.0852424576878547,0.0002985403698403,-0.0013733921805396
1768731771553,0.194793701171875,-0.279388427734375,-0.9334259033203124,-0.0834240540862083,-0.0092608761042356,-2.6365294615970924e-05
1768731771563,0.1966094970703125,-0.2761688232421875,-0.939300537109375,-0.0713013410568237,-0.0189281515777111,-0.0024152207188308
1768731771573,0.19793701171875,-0.2708892822265625,-0.9459991455078124,-0.0537764132022857,-0.0234709717333316,0.0010093380697071
1768731771583,0.198699951171875,-0.267822265625,-0.9491119384765624,-0.0382400639355182,-0.0234725698828697,0.0042405514977872
1768731771593,0.1988372802734375,-0.2684783935546875,-0.9517059326171876,-0.0230917371809482,-0.0203185882419347,0.0061167483218014
1768731771603,0.199737548828125,-0.2694244384765625,-0.94964599609375,-0.0147523144260048,-0.0165387634187936,0.0054935687221586
1768731771613,0.1984405517578125,-0.27276611328125,-0.9470977783203124,-0.0150220924988389,-0.0066688214428722,0.0022548984270542
1768731771623,0.1961212158203125,-0.2745819091796875,-0.9412689208984376,-0.0194855500012636,-0.0035289546940475,-0.0022527680266648
1768731771633,0.1977996826171875,-0.27655029296875,-0.9383697509765624,-0.0281690526753664,-0.0037204360123723,-0.0108617022633552
1768731771644,0.198089599609375,-0.2748260498046875,-0.937042236328125,-0.031162180006504,-0.0041872882284224,-0.010267018340528
1768731771654,0.1995086669921875,-0.2706298828125,-0.9394073486328124,-0.031381357461214,0.0037193708121776,-0.0099114868789911
1768731771664,0.2013397216796875,-0.2673797607421875,-0.9397735595703124,-0.0241689849644899,0.0020857877098023,-0.0055550877004861
1768731771674,0.2013092041015625,-0.2702789306640625,-0.940673828125,-0.0202035382390022,0.0030442595016211,-0.0051383031532168
1768731771684,0.2021942138671875,-0.2677764892578125,-0.9396209716796876,-0.0154793569818139,-0.0004103931132704,-0.0020580908749252
1768731771694,0.2010345458984375,-0.26708984375,-0.93463134765625,-0.0111376056447625,-0.0152199659496545,0.0020343887154012
1768731771704,0.20355224609375,-0.2671051025390625,-0.9332275390625,-0.0123109947890043,-0.017402159050107,0.0012658004416152
1768731771714,0.201751708984375,-0.2666168212890625,-0.9345855712890624,-0.0141645548865199,-0.0079953419044613,0.0002567287301644
1768731771724,0.2015228271484375,-0.2601165771484375,-0.9354095458984376,-0.0142633579671382,0.0002090581401716,0.0010695254895836
1768731771734,0.201263427734375,-0.2618560791015625,-0.937530517578125,-0.0154934721067547,-0.0047366982325911,-8.921589324017987e-05
1768731771744,0.1992645263671875,-0.26513671875,-0.9366455078125,-0.0214594863355159,-0.0028836708515882,-0.0036890106275677
1768731771754,0.1961822509765625,-0.2669525146484375,-0.9344329833984376,-0.0270436014980077,0.0018895127577707,-0.0064938520081341
1768731771764,0.1956024169921875,-0.2707366943359375,-0.932037353515625,-0.0343683585524559,0.0008223841432482,-0.0063782706856727
1768731771774,0.198486328125,-0.2696990966796875,-0.9298248291015624,-0.0421764813363552,-0.0094965659081935,-0.0093168029561638
1768731771784,0.199554443359375,-0.2691802978515625,-0.9315032958984376,-0.0498226843774318,-0.0152114434167742,-0.0075958678498864
1768731771794,0.202392578125,-0.2660369873046875,-0.9348602294921876,-0.0529257990419864,-0.0173646099865436,-0.0063497750088572
1768731771804,0.201263427734375,-0.2672271728515625,-0.9398651123046876,-0.0581360086798667,-0.0064810686744749,-0.0074560521170496
1768731771814,0.1984710693359375,-0.2677764892578125,-0.943603515625,-0.0586984679102897,0.0014503574930131,-0.0110310791060328
1768731771824,0.195465087890625,-0.2675018310546875,-0.9432525634765624,-0.0548810921609401,-0.0005890912143513,-0.010979413986206
1768731771834,0.200103759765625,-0.2660675048828125,-0.9460601806640624,-0.0473571307957172,-0.0082536684349179,-0.0127096697688102
1768731771844,0.1995086669921875,-0.2649993896484375,-0.9477386474609376,-0.0373012982308864,-0.0125754466280341,-0.0136273950338363
1768731771855,0.2017822265625,-0.2614898681640625,-0.95050048828125,-0.0281576011329889,-0.00708081247285,-0.0130111398175358
1768731771865,0.2034454345703125,-0.2582244873046875,-0.9524993896484376,-0.0177462399005889,-0.0082688489928841,-0.0089436937123537
1768731771875,0.201263427734375,-0.2603759765625,-0.9547882080078124,-0.0087612671777606,-0.0008197209681384,-0.0129805132746696
1768731771885,0.199981689453125,-0.2612457275390625,-0.9544677734375,0.0063329972326755,0.0042898198589682,-0.0079529974609613
1768731771895,0.200469970703125,-0.2612152099609375,-0.956268310546875,0.0215913113206625,0.0097738010808825,-0.0061937137506902
1768731771905,0.200897216796875,-0.260284423828125,-0.9547882080078124,0.0349310860037803,0.0134870465844869,-0.0037385455798357
1768731771915,0.2007598876953125,-0.2607421875,-0.9510040283203124,0.0398651249706745,0.020530842244625,-0.0014096111990511
1768731771925,0.1988983154296875,-0.260833740234375,-0.9403076171875,0.0333992354571819,0.0207875706255435,-0.002944657113403
1768731771935,0.198333740234375,-0.263031005859375,-0.93182373046875,0.02074203081429,0.0156178418546915,-0.0033252229914069
1768731771945,0.1991729736328125,-0.265380859375,-0.9245452880859376,0.0016719325212761,0.0154830859974026,-0.0085849659517407
1768731771955,0.19952392578125,-0.265411376953125,-0.9214935302734376,-0.0128084728494286,0.0011797803454101,-0.0112553173676133
1768731771965,0.201416015625,-0.2636871337890625,-0.9250335693359376,-0.0203787740319967,-0.0049127331003546,-0.0131155354902148
1768731771975,0.2023468017578125,-0.26165771484375,-0.9347076416015624,-0.0220749415457248,0.0025137576740235,-0.0127482861280441
1768731771985,0.2005157470703125,-0.26068115234375,-0.9398345947265624,-0.0211905054748058,0.0159067939966917,-0.0129022160544991
1768731771995,0.1993255615234375,-0.259002685546875,-0.9412384033203124,-0.0215452387928962,0.023101856932044,-0.0079929456114768
1768731772005,0.200592041015625,-0.2562408447265625,-0.9378662109375,-0.0184698216617107,0.0096579538658261,-0.0030354710761457
1768731772015,0.2011260986328125,-0.2574462890625,-0.9382781982421876,-0.0092401038855314,-0.0064552361145615,-0.0032346753869205
1768731772025,0.2014312744140625,-0.2585296630859375,-0.9405975341796876,-6.0453756304923445e-05,-0.0067636300809681,-0.0082273036241531
1768731772035,0.20068359375,-0.25811767578125,-0.9440765380859376,0.008282165043056,-0.0072507224977016,-0.0092827146872878
1768731772045,0.1995849609375,-0.2562255859375,-0.944732666015625,0.0091785844415426,0.0023574302904307,-0.0142883919179439
1768731772055,0.1992950439453125,-0.259185791015625,-0.94232177734375,0.0109035139903426,0.0146849360316991,-0.0234280936419963
1768731772066,0.1995391845703125,-0.2614288330078125,-0.93853759765625,0.0090177301317453,0.0062658851966261,-0.024329574778676
1768731772076,0.203338623046875,-0.2634124755859375,-0.9351959228515624,0.0092696649953722,-0.0030549119692295,-0.0193273592740297
1768731772086,0.2039642333984375,-0.2636871337890625,-0.933502197265625,0.002976881340146,-0.011257448233664,-0.0210054162889719
1768731772096,0.201324462890625,-0.2722320556640625,-0.9322052001953124,-0.0001416801678715,0.0001347559446003,-0.0263354666531085
1768731772106,0.2025909423828125,-0.2651519775390625,-0.9334259033203124,-0.0036589170340448,0.008585232309997,-0.0205769147723913
1768731772116,0.2079620361328125,-0.25537109375,-0.9354400634765624,-0.0047148605808615,0.0173374451696872,-0.0122401546686887
1768731772126,0.2141876220703125,-0.250213623046875,-0.937896728515625,-0.0033420007675886,0.0054746600799262,-0.0064373929053545
1768731772136,0.2167510986328125,-0.249298095703125,-0.9390106201171876,-0.0042994073592126,-0.0073303510434925,-0.0024509071372449
1768731772146,0.2154541015625,-0.2504119873046875,-0.9419097900390624,-0.0002852245524991,-0.0019512980943545,-0.0014335796004161
1768731772156,0.2127227783203125,-0.2513580322265625,-0.9456024169921876,0.0022269352339208,0.0054799863137304,0.0029156287200748
1768731772166,0.2134857177734375,-0.251861572265625,-0.9437255859375,-0.0004522047529462,0.0096049569547176,0.008005728945136
1768731772176,0.209808349609375,-0.2578277587890625,-0.9376373291015624,-0.0033712955191731,0.0043502734042704,0.0069447252899408
1768731772186,0.2050628662109375,-0.267974853515625,-0.9355316162109376,-0.0111692976206541,0.0056634782813489,0.0046253781765699
1768731772196,0.2011566162109375,-0.2723846435546875,-0.9351043701171876,-0.0142958490177989,0.0022264027502387,-0.0004695153038483
1768731772206,0.2008514404296875,-0.273681640625,-0.934173583984375,-0.0202565360814332,-0.0060983723960816,-0.0020024308469146
1768731772216,0.2015380859375,-0.2728118896484375,-0.9347381591796876,-0.0221753437072038,-0.0112161692231893,-0.0003603257064241
1768731772226,0.20330810546875,-0.2704620361328125,-0.9383392333984376,-0.0218208767473697,-0.0113325491547584,0.0038615835364907
1768731772236,0.2057952880859375,-0.265411376953125,-0.9398345947265624,-0.0219026356935501,-0.012606605887413,0.0093884421512484
1768731772247,0.2065582275390625,-0.261749267578125,-0.9401702880859376,-0.0176618173718452,-0.0205465536564588,0.0134180709719657
1768731772257,0.208038330078125,-0.2604827880859375,-0.94403076171875,-0.0104499775916337,-0.0299536380916833,0.0217425804585218
1768731772267,0.2097015380859375,-0.258392333984375,-0.94842529296875,0.0009089368977583,-0.0341382622718811,0.0276516005396842
1768731772277,0.2118988037109375,-0.254974365234375,-0.9549713134765624,0.0123576000332832,-0.0279615931212902,0.0330037549138069
1768731772287,0.2099761962890625,-0.2570037841796875,-0.9600982666015624,0.0276894178241491,-0.0108193578198552,0.0377710796892643
1768731772297,0.20648193359375,-0.2571563720703125,-0.9617919921875,0.0379140935838222,0.0022391858510673,0.0370171405375003
1768731772307,0.204498291015625,-0.261749267578125,-0.95721435546875,0.0490977726876735,0.0028586371336132,0.036560408771038
1768731772317,0.2018890380859375,-0.26220703125,-0.95001220703125,0.0534826666116714,-0.0048951562494039,0.0331086851656436
1768731772327,0.199798583984375,-0.2626190185546875,-0.945831298828125,0.0576944537460804,-0.0158218406140804,0.0314343571662902
1768731772337,0.2006072998046875,-0.26483154296875,-0.9432220458984376,0.0623070485889911,-0.0102393217384815,0.0289983619004488
1768731772347,0.202728271484375,-0.262115478515625,-0.9439544677734376,0.0638333112001419,-0.0030237531755119,0.0313818901777267
1768731772357,0.198577880859375,-0.263916015625,-0.9402313232421876,0.0592308342456817,0.0044349622912704,0.0304825417697429
1768731772367,0.1973419189453125,-0.26470947265625,-0.9317626953125,0.0489576905965805,0.0149653675034642,0.0293592195957899
1768731772377,0.1964111328125,-0.2641754150390625,-0.9282073974609376,0.0412489026784896,0.0239490084350109,0.0289666708558797
1768731772387,0.1976165771484375,-0.2606201171875,-0.9245147705078124,0.0307704284787178,0.0123088639229536,0.0316820293664932
1768731772397,0.1993560791015625,-0.2664794921875,-0.9223480224609376,0.01827940531075,0.0029707562644034,0.0256582256406545
1768731772407,0.1970062255859375,-0.2711639404296875,-0.921875,0.0003134540456812,0.0148186273872852,0.0222666896879673
1768731772417,0.1974945068359375,-0.2690277099609375,-0.92303466796875,-0.0085378279909491,0.0182735454291105,0.0261666234582662
1768731772427,0.1994476318359375,-0.269561767578125,-0.9283294677734376,-0.0127754500135779,0.0190455969423055,0.0296953115612268
1768731772437,0.201812744140625,-0.267608642578125,-0.930267333984375,-0.0161824319511652,0.0168668646365404,0.0346093773841857
1768731772447,0.203826904296875,-0.2650604248046875,-0.934478759765625,-0.0141198132187128,0.0142540372908115,0.0377598963677883
1768731772458,0.2014617919921875,-0.267242431640625,-0.9395599365234376,-0.0158103890717029,0.0221361946314573,0.0369303226470947
1768731772467,0.197357177734375,-0.269989013671875,-0.9394073486328124,-0.0195390805602073,0.0345680974423885,0.0373287312686443
1768731772478,0.1972198486328125,-0.26947021484375,-0.939208984375,-0.0179321281611919,0.0336482413113117,0.0344764851033687
1768731772488,0.1965484619140625,-0.2705841064453125,-0.9409637451171876,-0.0162495430558919,0.0282268449664115,0.0333728715777397
1768731772498,0.1964569091796875,-0.2721099853515625,-0.9438934326171876,-0.0140396524220705,0.0353486686944961,0.0266105718910694
1768731772508,0.1959991455078125,-0.271514892578125,-0.9469451904296876,-0.011568771675229,0.0417176187038421,0.0227548480033874
1768731772519,0.19476318359375,-0.2718048095703125,-0.9466552734375,-0.0124675882980227,0.0541258193552494,0.019519904628396
1768731772528,0.1925506591796875,-0.27117919921875,-0.9461822509765624,-0.0067508472129702,0.0595464184880256,0.0170197300612926
1768731772539,0.19384765625,-0.272216796875,-0.945159912109375,-0.000589890172705,0.0521319098770618,0.0150130381807684
1768731772548,0.1937255859375,-0.27191162109375,-0.9428863525390624,0.0046400255523622,0.0444484241306781,0.0134377777576446
1768731772558,0.1975250244140625,-0.27044677734375,-0.9420013427734376,0.0098062921315431,0.0375942476093769,0.0123922210186719
1768731772568,0.1988677978515625,-0.272308349609375,-0.94189453125,0.0090843085199594,0.0414134860038757,0.0108846053481101
1768731772578,0.198944091796875,-0.272369384765625,-0.9376983642578124,0.005520200356841,0.0476021394133567,0.0098465057089924
1768731772588,0.1988525390625,-0.2708892822265625,-0.9345855712890624,0.0053646718151867,0.0421434603631496,0.0130031500011682
1768731772598,0.202239990234375,-0.27081298828125,-0.93597412109375,0.0049292449839413,0.0368552207946777,0.013040967285633
1768731772608,0.2035980224609375,-0.267059326171875,-0.933563232421875,0.0027819380629807,0.0366365760564804,0.0123735787346959
1768731772618,0.203857421875,-0.2681121826171875,-0.933258056640625,0.0053944992832839,0.0409503616392612,0.0148364705964922
1768731772628,0.2034149169921875,-0.268829345703125,-0.9355926513671876,0.0100414492189884,0.0496924556791782,0.0124854315072298
1768731772638,0.2044830322265625,-0.2693023681640625,-0.9383697509765624,0.0140489740297198,0.0615520440042018,0.0126721197739243
1768731772648,0.204864501953125,-0.26959228515625,-0.93695068359375,0.0187153648585081,0.0655654296278953,0.014846590347588
1768731772658,0.2061309814453125,-0.2691650390625,-0.937164306640625,0.0215042270720005,0.0569208078086376,0.0201334971934556
1768731772668,0.2080535888671875,-0.2686309814453125,-0.934539794921875,0.0255746021866798,0.0374882519245147,0.0261098966002464
1768731772678,0.210235595703125,-0.2727203369140625,-0.933135986328125,0.0246355719864368,0.030248450115323,0.0297363232821226
1768731772689,0.2100372314453125,-0.275543212890625,-0.93280029296875,0.0210885070264339,0.0263554416596889,0.0327006876468658
1768731772699,0.209320068359375,-0.2779541015625,-0.928619384765625,0.0089689940214157,0.0253631472587585,0.0346064455807209
1768731772709,0.2078399658203125,-0.2788848876953125,-0.9224395751953124,-0.0118494685739278,0.0303097032010555,0.032189093530178
1768731772719,0.205291748046875,-0.2775115966796875,-0.92156982421875,-0.0291474983096122,0.0342506468296051,0.0265466552227735
1768731772729,0.2039642333984375,-0.281280517578125,-0.927947998046875,-0.0350248292088508,0.0386456623673439,0.0235311593860387
1768731772739,0.205657958984375,-0.2788848876953125,-0.9335479736328124,-0.0350533239543437,0.0393428802490234,0.0235969386994838
1768731772749,0.207611083984375,-0.274169921875,-0.9369354248046876,-0.0318032018840312,0.0316098593175411,0.0266792811453342
1768731772759,0.20654296875,-0.2726287841796875,-0.942474365234375,-0.025531193241477,0.0289200656116008,0.02162966132164
1768731772769,0.201171875,-0.2789154052734375,-0.9476776123046876,-0.007455519400537,0.0305312778800725,0.0202509425580501
1768731772779,0.2044219970703125,-0.271820068359375,-0.950775146484375,0.0107812751084566,0.034817636013031,0.0271440036594867
1768731772789,0.2064361572265625,-0.260528564453125,-0.9503326416015624,0.0300716161727905,0.033518012613058,0.0332868508994579
1768731772799,0.206756591796875,-0.26397705078125,-0.9490203857421876,0.0441616028547287,0.0348855443298816,0.0321960188448429
1768731772809,0.204193115234375,-0.27398681640625,-0.94415283203125,0.0547575205564498,0.0431109853088855,0.0268212277442216
1768731772819,0.2003021240234375,-0.2723846435546875,-0.940155029296875,0.0602449662983417,0.0390400774776935,0.0272220335900783
1768731772829,0.2017822265625,-0.2701568603515625,-0.9294281005859376,0.0599176622927188,0.0250430349260568,0.0293975695967674
1768731772839,0.20440673828125,-0.2701263427734375,-0.92120361328125,0.0544440671801567,0.0073274215683341,0.0316543318331241
1768731772849,0.2052001953125,-0.2757720947265625,-0.916748046875,0.041345041245222,-0.002707635750994,0.0305211581289768
1768731772859,0.207305908203125,-0.2786865234375,-0.91363525390625,0.0233995988965034,-0.0032178976107388,0.0275549292564392
1768731772869,0.21014404296875,-0.2779388427734375,-0.9137115478515624,0.0026559706311672,0.0065473816357553,0.0280803702771663
1768731772880,0.2108306884765625,-0.279052734375,-0.91448974609375,-0.0208304468542337,0.012852681800723,0.021116204559803
1768731772890,0.2073974609375,-0.280670166015625,-0.91650390625,-0.0389894768595695,0.0096749980002641,0.017885522916913
1768731772900,0.209075927734375,-0.2803497314453125,-0.9198760986328124,-0.0483813807368278,-0.0024546354543417,0.0157336890697479
1768731772910,0.2090606689453125,-0.27685546875,-0.92645263671875,-0.050598993897438,-0.0140140857547521,0.0127490842714905
1768731772920,0.208099365234375,-0.275421142578125,-0.930694580078125,-0.0470695085823535,-0.0262073688209056,0.0103208143264055
1768731772930,0.2066497802734375,-0.27587890625,-0.939727783203125,-0.0357263050973415,-0.0255474373698234,0.0152218295261263
1768731772940,0.207275390625,-0.2742767333984375,-0.94683837890625,-0.0215034279972314,-0.0156753659248352,0.0178210753947496
1768731772950,0.2060089111328125,-0.27392578125,-0.94915771484375,-0.009906692430377,-0.0015118765877559,0.018687667325139
1768731772960,0.2050628662109375,-0.275909423828125,-0.9433746337890624,-0.0051167313940823,0.0006141249323263,0.0181017722934484
1768731772970,0.203765869140625,-0.275848388671875,-0.94073486328125,0.0022021678742021,-0.0075458004139363,0.0185100343078374
1768731772980,0.20538330078125,-0.276824951171875,-0.940673828125,0.0046386937610805,-0.0071777515113353,0.0126343024894595
1768731772990,0.204833984375,-0.2779083251953125,-0.9395599365234376,0.0049388320185244,-0.0022074941080063,0.0072920015081763
1768731773000,0.2036895751953125,-0.27777099609375,-0.937347412109375,0.0065183532424271,-0.0033571808598935,0.0021188110113143
1768731773010,0.2083282470703125,-0.2734527587890625,-0.936798095703125,0.008608135394752,-0.0032623722217977,0.0014133396325632
1768731773020,0.21185302734375,-0.2674102783203125,-0.9384307861328124,0.0101240072399377,-0.0137312589213252,0.0023078953381627
1768731773030,0.2130126953125,-0.2707672119140625,-0.9367523193359376,0.0123943518847227,-0.0181686170399189,0.0023409186396747
1768731773040,0.2106170654296875,-0.271759033203125,-0.940643310546875,0.0211164709180593,-0.000449807906989,0.0023177489638328
1768731773051,0.2083892822265625,-0.272125244140625,-0.943572998046875,0.0249833799898624,0.008005728945136,0.0023403859231621
1768731773060,0.207733154296875,-0.276641845703125,-0.93572998046875,0.0210027527064085,-0.0007329019135795,0.0039603868499398
1768731773070,0.208160400390625,-0.27703857421875,-0.9277496337890624,0.0143605638295412,-0.009172991849482,0.0025121597573161
1768731773080,0.2064666748046875,-0.2757568359375,-0.9252471923828124,0.0086829699575901,-0.0050898334011435,0.0013824469642713
1768731773090,0.207366943359375,-0.273956298828125,-0.92303466796875,0.0024948492646217,-0.0114372111856937,0.0017715347930788
1768731773101,0.209869384765625,-0.273162841796875,-0.926788330078125,-0.0029923277907073,-0.0182916559278965,0.0032237565610557
1768731773111,0.2089996337890625,-0.275482177734375,-0.9291534423828124,-0.008839564397931,-0.013163206167519,0.0009739180095493
1768731773121,0.2073822021484375,-0.27557373046875,-0.92962646484375,-0.0167848393321037,-0.0062831956893205,-0.002200836315751
1768731773131,0.2059783935546875,-0.2757568359375,-0.92864990234375,-0.0248776525259017,0.000449807906989,-0.0026887273415923
1768731773141,0.204315185546875,-0.2780303955078125,-0.92706298828125,-0.0323289111256599,-0.0049438923597335,-0.0036437369417399
1768731773151,0.2032928466796875,-0.278564453125,-0.925933837890625,-0.0369345806539058,-0.0131674669682979,-0.0037337518297135
1768731773161,0.20538330078125,-0.2792816162109375,-0.9261474609375,-0.0416963137686252,-0.011052917689085,-0.0073846792802214
1768731773171,0.203460693359375,-0.279205322265625,-0.9275054931640624,-0.0470079891383647,-0.0145222172141075,-0.0122124580666422
1768731773181,0.2022705078125,-0.277252197265625,-0.9293670654296876,-0.0473094582557678,-0.0259072314947843,-0.0137405795976519
1768731773191,0.2101593017578125,-0.2740020751953125,-0.9371185302734376,-0.0396739095449447,-0.0349249616265296,-0.0115032577887177
1768731773201,0.2138214111328125,-0.2726898193359375,-0.9442901611328124,-0.0318567343056201,-0.0257849916815757,-0.0071849422529339
1768731773211,0.2096099853515625,-0.2722320556640625,-0.9485321044921876,-0.0217031650245189,-0.0141965122893452,-0.0042229746468365
1768731773221,0.2076416015625,-0.2732391357421875,-0.949737548828125,-0.0119687784463167,-0.0091556813567876,-0.0017459683585911
1768731773231,0.2099151611328125,-0.2712554931640625,-0.9493408203125,0.0056464341469109,-0.0162796378135681,-0.0002346244873479
1768731773241,0.2111968994140625,-0.271087646484375,-0.9517059326171876,0.0209223255515098,-0.0177438426762819,0.0002223739429609
1768731773251,0.2078857421875,-0.2739105224609375,-0.9508056640625,0.0281650591641664,-0.0076153092086315,-0.0015433018561452
1768731773261,0.2070465087890625,-0.27276611328125,-0.9483184814453124,0.0388603135943412,-0.0047718519344925,0.0001488707057433
1768731773271,0.21014404296875,-0.271636962890625,-0.94927978515625,0.0479483492672443,-0.0078398138284683,0.0026035062037408
1768731773281,0.2118988037109375,-0.2726898193359375,-0.947723388671875,0.0519058071076869,0.0047047403641045,0.0047316383570432
1768731773291,0.209442138671875,-0.2730865478515625,-0.943939208984375,0.0518291108310222,0.0115549229085445,0.0039614522829651
1768731773301,0.2060089111328125,-0.2777252197265625,-0.9366912841796876,0.0482831113040447,0.009737049229443,0.0013054815353825
1768731773312,0.205047607421875,-0.2785186767578125,-0.9282989501953124,0.0407636761665344,-0.0030708911363035,-0.000859135761857
1768731773322,0.20501708984375,-0.2799835205078125,-0.923614501953125,0.0294036958366632,-0.006917827297002,-0.0050189932808279
1768731773332,0.204376220703125,-0.2787628173828125,-0.9222869873046876,0.0218797326087951,-0.0017683389596641,-0.0034384073223918
1768731773342,0.2037811279296875,-0.2788543701171875,-0.9257354736328124,0.016645023599267,0.0028410602826625,-0.0013880395563319
1768731773352,0.2104949951171875,-0.2765045166015625,-0.92529296875,0.0076041240245103,0.0032032502349466,0.0002269013202749
1768731773362,0.20947265625,-0.2731170654296875,-0.92169189453125,-0.0009520800667814,0.000744087214116,0.0052754557691514
1768731773372,0.206695556640625,-0.2749176025390625,-0.9189605712890624,-0.0117844874039292,-0.006385994143784,0.0053569483570754
1768731773382,0.20330810546875,-0.2782135009765625,-0.91748046875,-0.0211343131959438,-0.0186035111546516,0.002453037770465
1768731773392,0.2026519775390625,-0.282989501953125,-0.9193572998046876,-0.0268830135464668,-0.029415413737297,-0.0043875579722225
1768731773402,0.1996002197265625,-0.2848663330078125,-0.9262847900390624,-0.0255833901464939,-0.0308955982327461,-0.006655772216618
1768731773412,0.203033447265625,-0.2782440185546875,-0.93670654296875,-0.0199028681963682,-0.0287134032696485,-0.0005954828229732
1768731773422,0.204559326171875,-0.2752532958984375,-0.9417572021484376,-0.020022178068757,-0.0062120896764099,-0.0005036037764512
1768731773432,0.2021484375,-0.2837677001953125,-0.941619873046875,-0.0242022760212421,0.0133861126378178,-0.0076347501017153
1768731773442,0.2013092041015625,-0.283447265625,-0.9358978271484376,-0.0240555349737405,0.0127104688435792,-0.0050405650399625
1768731773452,0.207244873046875,-0.2711029052734375,-0.9354705810546876,-0.0211119428277015,0.0070192934945225,0.0086574042215943
1768731773462,0.2093505859375,-0.2667694091796875,-0.936004638671875,-0.0089415628463029,0.0067742830142378,0.0095825865864753
1768731773472,0.2105712890625,-0.2705535888671875,-0.9376678466796876,-0.0002751045394688,-0.0047694551758468,0.0092920353636145
1768731773482,0.2080535888671875,-0.27532958984375,-0.94549560546875,0.0138811944052577,0.0032490564044564,0.0074999942444264
1768731773492,0.207550048828125,-0.2701416015625,-0.9460906982421876,0.0205894317477941,0.0193353481590747,0.013096360489726
1768731773502,0.2091827392578125,-0.26739501953125,-0.9426116943359376,0.0294489692896604,0.0250893738120794,0.0212307199835777
1768731773513,0.210113525390625,-0.26837158203125,-0.936737060546875,0.0285741202533245,0.014281733892858,0.0276739727705717
1768731773523,0.210205078125,-0.27557373046875,-0.925262451171875,0.0194227006286382,0.0067907944321632,0.0231639090925455
1768731773533,0.2065277099609375,-0.280609130859375,-0.9220123291015624,0.005364139098674,0.009236641228199,0.0186490509659051
1768731773543,0.2040557861328125,-0.284210205078125,-0.922454833984375,-0.0105080343782901,0.0136359175667166,0.0168008171021938
1768731773553,0.20623779296875,-0.2834014892578125,-0.9248809814453124,-0.0172698013484478,0.0139943789690732,0.0173262599855661
1768731773563,0.2056732177734375,-0.2845306396484375,-0.930694580078125,-0.0209982264786958,0.0147491190582513,0.0164641942828893
1768731773573,0.2069244384765625,-0.27947998046875,-0.932861328125,-0.0199393536895513,0.0117032611742615,0.0209689307957887
1768731773586,0.2058868408203125,-0.2765350341796875,-0.9315338134765624,-0.0163994804024696,-0.0026479810476303,0.0243255794048309
1768731773593,0.2037506103515625,-0.2763214111328125,-0.933319091796875,-0.0144263431429862,-0.0142923863604664,0.0254773963242769
1768731773603,0.2025909423828125,-0.277801513671875,-0.93438720703125,-0.0099524995312094,-0.0207790471613407,0.0235825572162866
1768731773613,0.2020721435546875,-0.27606201171875,-0.938751220703125,-0.0003526025393512,-0.0242411568760871,0.025509089231491
1768731773623,0.20068359375,-0.276214599609375,-0.9437408447265624,0.0068350029177963,-0.0169944297522306,0.0253234654664993
1768731773633,0.19769287109375,-0.2794036865234375,-0.94110107421875,0.0106337359175086,-0.010376208461821,0.0219039674848318
1768731773643,0.1950225830078125,-0.28143310546875,-0.93817138671875,0.0113842142745852,-0.0025118936318904,0.0180863253772258
1768731773653,0.1949920654296875,-0.2823638916015625,-0.9335479736328124,0.0027134947013109,-0.0026948526501655,0.013048424385488
1768731773663,0.1947479248046875,-0.284332275390625,-0.9244537353515624,-0.0078177088871598,-0.009801497682929,0.0059921122156083
1768731773673,0.194671630859375,-0.28277587890625,-0.9178314208984376,-0.0226440597325563,-0.0146266128867864,0.0023377228062599
1768731773683,0.1966400146484375,-0.2783050537109375,-0.913543701171875,-0.040492832660675,-0.0174692720174789,-0.0013515542959794
1768731773693,0.197998046875,-0.2763519287109375,-0.9102630615234376,-0.0625411421060562,-0.024435568600893,-0.0043550673872232
1768731773703,0.1986541748046875,-0.2750396728515625,-0.9114532470703124,-0.0797078758478164,-0.0155832208693027,-0.0038796931039541
1768731773713,0.199371337890625,-0.2718505859375,-0.92010498046875,-0.0845212787389755,-0.0105410581454634,0.0019992350134998
1768731773724,0.2017364501953125,-0.268768310546875,-0.9286346435546876,-0.0905360281467437,-0.0146865341812372,0.0045342980884015
1768731773734,0.2028350830078125,-0.274658203125,-0.9344329833984376,-0.0941358208656311,-0.013309147208929,0.0061215418390929
1768731773744,0.1991729736328125,-0.2762908935546875,-0.938629150390625,-0.0908074006438255,-0.0070858728140592,0.006637929007411
1768731773754,0.1959228515625,-0.2793121337890625,-0.94110107421875,-0.0872499495744705,-0.0072973277419805,0.0074922712519764
1768731773764,0.1967926025390625,-0.27935791015625,-0.9409332275390624,-0.0796631351113319,-0.0073644393123686,0.0040658479556441
1768731773774,0.1999359130859375,-0.27587890625,-0.9438934326171876,-0.0730438530445098,-0.0154484650120139,0.0056395097635686
1768731773784,0.2014007568359375,-0.2721099853515625,-0.9482269287109376,-0.06505037099123,-0.009369533509016,0.0119962086901068
1768731773794,0.2036285400390625,-0.2687530517578125,-0.953704833984375,-0.0491891168057918,0.0072059812955558,0.0125229824334383
1768731773804,0.2047119140625,-0.265045166015625,-0.9593048095703124,-0.0302431229501962,0.0187763515859842,0.015001586638391
1768731773814,0.2039642333984375,-0.2654876708984375,-0.9604644775390624,-0.012140286155045,0.0248291827738285,0.0189635716378688
1768731773824,0.201995849609375,-0.2649383544921875,-0.95635986328125,0.0011640676530078,0.0291293896734714,0.0226608384400606
1768731773834,0.2002410888671875,-0.2644805908203125,-0.951324462890625,0.0175504982471466,0.02280118688941,0.0238049309700727
1768731773844,0.203155517578125,-0.2645416259765625,-0.9497528076171876,0.0284625347703695,0.0230627078562974,0.0262025762349367
1768731773854,0.2023468017578125,-0.2660675048828125,-0.943328857421875,0.0322823040187358,0.0280566681176424,0.0248840451240539
1768731773864,0.2002716064453125,-0.2659149169921875,-0.936126708984375,0.0276004690676927,0.0222645588219165,0.0273189730942249
1768731773874,0.198211669921875,-0.2687835693359375,-0.9281768798828124,0.0199532024562358,0.0183899253606796,0.0274649132043123
1768731773884,0.201446533203125,-0.2671966552734375,-0.926483154296875,0.0154362143948674,0.0067471186630427,0.0282145943492651
1768731773894,0.2010955810546875,-0.26678466796875,-0.925384521484375,0.0081077273935079,-0.003032807726413,0.0301589667797088
1768731773905,0.1996612548828125,-0.2713470458984375,-0.9241790771484376,-0.0050738546997308,0.0003190466959495,0.0294979717582464
1768731773914,0.1955718994140625,-0.2755279541015625,-0.918487548828125,-0.021575067192316,0.0033169670496135,0.0279485434293746
1768731773924,0.1916351318359375,-0.2778167724609375,-0.918487548828125,-0.0321131944656372,-0.0029483856633305,0.0259498413652181
1768731773935,0.1893157958984375,-0.280670166015625,-0.9179229736328124,-0.0448026247322559,-0.0105538405478,0.018092717975378
1768731773945,0.18682861328125,-0.2848968505859375,-0.919525146484375,-0.0541162304580211,-0.0244922935962677,0.0095218662172555
1768731773955,0.1868743896484375,-0.284515380859375,-0.9267120361328124,-0.0600763857364654,-0.0350147075951099,0.0009760485263541
1768731773965,0.187530517578125,-0.2815704345703125,-0.9324188232421876,-0.0584318861365318,-0.0330543555319309,-0.0061170146800577
1768731773975,0.1890106201171875,-0.2798004150390625,-0.9400634765625,-0.0577162913978099,-0.0241053365170955,-0.010057427920401
1768731773985,0.192596435546875,-0.276824951171875,-0.9403839111328124,-0.0612303353846073,-0.0125450864434242,-0.0137472376227378
1768731773995,0.1917572021484375,-0.2755584716796875,-0.9373931884765624,-0.0635539442300796,-0.0138465734198689,-0.0175014957785606
1768731774005,0.194610595703125,-0.2754364013671875,-0.9395751953125,-0.0613419190049171,-0.0159384869039058,-0.0153166381642222
1768731774015,0.2014312744140625,-0.2717132568359375,-0.9461669921875,-0.0541106387972831,-0.0126825058832764,-0.0146303419023752
1768731774025,0.204315185546875,-0.2690582275390625,-0.9489593505859376,-0.0482005514204502,-0.0004095941840205,-0.0114832846447825
1768731774035,0.2004547119140625,-0.26995849609375,-0.9460296630859376,-0.0459840036928653,0.0092446310445666,-0.0111008547246456
1768731774045,0.1989593505859375,-0.27191162109375,-0.9427642822265624,-0.0459459200501441,0.0121322963386774,-0.015017032623291
1768731774055,0.1999053955078125,-0.2744140625,-0.940093994140625,-0.041999913752079,0.0122010065242648,-0.018869562074542
1768731774065,0.20166015625,-0.27117919921875,-0.9434967041015624,-0.0309328828006982,0.002272475278005,-0.0114326840266585
1768731774075,0.2068634033203125,-0.265899658203125,-0.948455810546875,-0.0236454084515571,0.0061194114387035,-0.0014176006661728
1768731774085,0.20660400390625,-0.2659759521484375,-0.9447784423828124,-0.0229175668209791,0.0227673631161451,0.0015797871164977
1768731774095,0.198638916015625,-0.2708282470703125,-0.94873046875,-0.0157888159155845,0.0480005480349063,0.000688160827849
1768731774105,0.206573486328125,-0.2626953125,-0.94219970703125,-0.0165033433586359,0.0241125263273715,0.0096283927559852
1768731774116,0.208953857421875,-0.2586822509765625,-0.935211181640625,-0.0125631960108876,0.0132012898102402,0.0182602293789386
1768731774125,0.2085113525390625,-0.2560577392578125,-0.9377593994140624,-0.001498028053902,0.0153049202635884,0.0212437696754932
1768731774136,0.20367431640625,-0.2655181884765625,-0.9445648193359376,-0.0017528926255181,0.0252318531274795,0.0214488338679075
1768731774146,0.201995849609375,-0.2646026611328125,-0.9393463134765624,-0.0027334685437381,0.0316101238131523,0.0170799177139997
1768731774156,0.2020111083984375,-0.2585296630859375,-0.9405364990234376,-0.002364088082686,0.0425876751542091,0.0281205847859382
1768731774166,0.20166015625,-0.2554168701171875,-0.937408447265625,-0.0007206514128483,0.0348256230354309,0.0304500516504049
1768731774176,0.2008819580078125,-0.2660980224609375,-0.93310546875,-0.0060088904574513,0.0154950702562928,0.0274292267858982
1768731774186,0.1962432861328125,-0.2754974365234375,-0.9283447265625,-0.0120697123929858,0.0140907848253846,0.0227284822613
1768731774196,0.194488525390625,-0.27703857421875,-0.921905517578125,-0.0281477477401494,0.0035222969017922,0.0195161774754524
1768731774206,0.1914825439453125,-0.27752685546875,-0.920257568359375,-0.0449456349015235,0.0024538366124033,0.01106090657413
1768731774216,0.1938629150390625,-0.2750701904296875,-0.922119140625,-0.0576308071613311,-0.0069266157224774,0.0071362066082656
1768731774226,0.1980133056640625,-0.2697296142578125,-0.9304046630859376,-0.0590870231389999,-0.0143504431471228,0.0077287596650421
1768731774236,0.198760986328125,-0.2670135498046875,-0.938690185546875,-0.0617666952311992,-0.0110526513308286,0.0090134683996438
1768731774246,0.194976806640625,-0.2657928466796875,-0.9435882568359376,-0.0576339997351169,-0.0126865003257989,0.0078121167607605
1768731774256,0.1951446533203125,-0.2649993896484375,-0.94439697265625,-0.0479922927916049,-0.0166849698871374,0.003810983384028
1768731774266,0.1975555419921875,-0.2643280029296875,-0.94970703125,-0.0372104868292808,-0.0182325337082147,0.0014010890154168
1768731774276,0.197479248046875,-0.261322021484375,-0.953125,-0.026683010160923,-0.0121876904740929,0.0003901530872099
1768731774286,0.191314697265625,-0.2620086669921875,-0.948883056640625,-0.0167270489037036,-0.0082121230661869,0.0022913836874067
1768731774296,0.1896209716796875,-0.26422119140625,-0.947418212890625,-0.0086092008277773,-0.0143586993217468,0.0006711165769957
1768731774306,0.1924285888671875,-0.26422119140625,-0.9457855224609376,-0.0050786482170224,-0.0277256369590759,-0.0011398328933864
1768731774316,0.1943817138671875,-0.266357421875,-0.944793701171875,-0.0025893915444612,-0.0247471574693918,-0.008732771500945
1768731774327,0.193328857421875,-0.266143798828125,-0.9421539306640624,-0.0046032737009227,-0.009384180419147,-0.01362712867558
1768731774337,0.195037841796875,-0.26312255859375,-0.9424591064453124,-0.005984122864902,-0.0123703833669424,-0.0143275400623679
1768731774347,0.1966705322265625,-0.2641143798828125,-0.9401397705078124,-0.0064842645078897,-0.0181901883333921,-0.0182514414191246
1768731774357,0.1978759765625,-0.2655792236328125,-0.9405670166015624,-0.0016285229939967,-0.023535419255495,-0.0218544322997331
1768731774367,0.2003631591796875,-0.2607574462890625,-0.9445953369140624,0.0068073058500885,-0.0169275850057601,-0.0205904953181743
1768731774377,0.2047576904296875,-0.25592041015625,-0.9431915283203124,0.0126036759465932,-0.0160599257797002,-0.0162538047879934
1768731774387,0.20751953125,-0.257904052734375,-0.9441680908203124,0.0050637344829738,-0.0170919019728899,-0.015475096181035
1768731774397,0.2056121826171875,-0.2581634521484375,-0.94110107421875,-0.0020322583150118,-0.0047960868105292,-0.0143981138244271
1768731774407,0.2017822265625,-0.258392333984375,-0.940277099609375,-0.0080771008506417,0.0085394261404871,-0.0137959737330675
1768731774417,0.1985321044921875,-0.26220703125,-0.9394989013671876,-0.0053236591629683,0.0069146314635872,-0.0072651035152375
1768731774427,0.201416015625,-0.2618255615234375,-0.9402923583984376,0.0011105381418019,-0.0006737797521054,-0.0010130665032193
1768731774437,0.2033538818359375,-0.2629852294921875,-0.9405059814453124,0.0042211101390421,-0.0036607813090085,0.002887399168685
1768731774447,0.203094482421875,-0.2632598876953125,-0.9402313232421876,0.003981692250818,-0.0119456090033054,0.0051502874121069
1768731774457,0.2046356201171875,-0.262664794921875,-0.9384307861328124,0.0024652881547808,-0.0199260376393795,0.0077250311151146
1768731774467,0.204132080078125,-0.261688232421875,-0.9351806640625,-0.002135588787496,-0.0199468098580837,0.0081455446779727
1768731774477,0.201385498046875,-0.26171875,-0.936798095703125,-0.004153199493885,-0.0194831546396017,0.0076587186194956
1768731774487,0.2014617919921875,-0.2628326416015625,-0.9413909912109376,-0.0038304245099425,-0.0202698521316051,0.0091466270387172
1768731774497,0.2017974853515625,-0.26336669921875,-0.9419097900390624,-0.0009608684922568,-0.0219971779733896,0.0111008547246456
1768731774507,0.1986541748046875,-0.263153076171875,-0.9420928955078124,0.0028253474738448,-0.0203990153968334,0.0079580582678318
1768731774518,0.197296142578125,-0.2640838623046875,-0.9405975341796876,0.0091490233317017,-0.0220371261239051,0.0067974524572491
1768731774527,0.1963653564453125,-0.2615966796875,-0.943572998046875,0.0162056013941764,-0.0202456172555685,0.0090992227196693
1768731774538,0.1958770751953125,-0.2595062255859375,-0.9473876953125,0.0226544458419084,-0.0084472801536321,0.0102430498227477
1768731774548,0.195648193359375,-0.25830078125,-0.9499359130859376,0.0344660989940166,-0.0038647793699055,0.0150718940421938
1768731774558,0.19683837890625,-0.2576141357421875,-0.951751708984375,0.0419200211763381,-0.0068549765273928,0.0182170867919921
1768731774568,0.19720458984375,-0.2599334716796875,-0.9497528076171876,0.0445698648691177,-0.0065108961425721,0.0196815598756074
1768731774578,0.1974639892578125,-0.261260986328125,-0.94195556640625,0.0375457778573036,-0.0109229553490877,0.0188517179340124
1768731774588,0.1943817138671875,-0.261993408203125,-0.9336395263671876,0.0245090704411268,-0.0104241454973816,0.0151541857048869
1768731774598,0.190887451171875,-0.264984130859375,-0.9263458251953124,0.0152444662526249,-0.015100123360753,0.0131472274661064
1768731774608,0.191162109375,-0.2658843994140625,-0.930694580078125,0.0060666808858513,-0.0131134055554866,0.0102888569235801
1768731774618,0.1904296875,-0.262542724609375,-0.9339447021484376,0.0061862566508352,-0.0118896821513772,0.0126209864392876
1768731774628,0.1942596435546875,-0.2613525390625,-0.9355316162109376,0.0017941716359928,-0.0074235615320503,0.0092331795021891
1768731774638,0.1910400390625,-0.2636566162109375,-0.9358978271484376,-0.0088515486568212,-0.0007574030314572,0.0075798891484737
1768731774648,0.1890411376953125,-0.2648468017578125,-0.9305419921875,-0.0218270011246204,0.0007635282818228,4.9801110435510054e-05
1768731774658,0.1865081787109375,-0.2665557861328125,-0.926910400390625,-0.0294524300843477,-0.0052227252162992,-0.0059079565107822
1768731774668,0.1866455078125,-0.26776123046875,-0.925872802734375,-0.0354999378323555,-0.0195723697543144,-0.008608934469521
1768731774678,0.1890411376953125,-0.2676544189453125,-0.9281158447265624,-0.0416885912418365,-0.0273368153721094,-0.0132652055472135
1768731774688,0.185821533203125,-0.2677459716796875,-0.929595947265625,-0.0490181408822536,-0.024203073233366,-0.0213633459061384
1768731774698,0.18463134765625,-0.2708892822265625,-0.9338836669921876,-0.0500573068857193,-0.0180043000727891,-0.0260268077254295
1768731774708,0.1824951171875,-0.27056884765625,-0.93890380859375,-0.0488745979964733,-0.01121830008924,-0.0255863200873136
1768731774719,0.1877593994140625,-0.2627716064453125,-0.9405364990234376,-0.0463459268212318,-0.0116699719801545,-0.0196677111089229
1768731774728,0.1934814453125,-0.25927734375,-0.9425506591796876,-0.0473403520882129,-0.0182945858687162,-0.0201446823775768
1768731774739,0.1911163330078125,-0.270172119140625,-0.94158935546875,-0.0495462492108345,-0.0101919174194335,-0.0294234026223421
1768731774749,0.1898193359375,-0.2619781494140625,-0.94287109375,-0.0468620471656322,-0.008404403924942,-0.0204006135463714
1768731774758,0.1990509033203125,-0.254974365234375,-0.9497528076171876,-0.0352914109826087,-0.0027723505627363,-0.0126207200810313
1768731774769,0.200775146484375,-0.251922607421875,-0.9575347900390624,-0.02330825291574,0.0124297719448804,-0.011691809631884
1768731774779,0.1992034912109375,-0.2521514892578125,-0.9561767578125,-0.0167981553822755,0.0128108700737357,-0.0065780077129602
1768731774789,0.1957244873046875,-0.25335693359375,-0.9525909423828124,-0.0107549093663692,0.017296964302659,-0.0090630035847425
1768731774799,0.1915740966796875,-0.2554779052734375,-0.9522247314453124,-0.0047105993144214,0.0264486521482467,-0.0088515486568212
1768731774809,0.190643310546875,-0.2548370361328125,-0.952117919921875,0.0067114322446286,0.0239548683166503,-0.0036890106275677
1768731774819,0.19342041015625,-0.256683349609375,-0.9499053955078124,0.0182309355586767,0.0096092177554965,0.0001030643325066
1768731774829,0.195770263671875,-0.2607879638671875,-0.9481353759765624,0.024623055011034,0.0025361282750964,-0.0016245282022282
1768731774839,0.1929931640625,-0.265777587890625,-0.9441070556640624,0.0229149032384157,0.0035273567773401,-0.0043678502552211
1768731774849,0.1910858154296875,-0.26678466796875,-0.939727783203125,0.0190147031098604,0.0081351585686206,-0.0040144491940736
1768731774859,0.1949310302734375,-0.2654571533203125,-0.9374237060546876,0.009835054166615,0.0083002736791968,-0.0030093719251453
1768731774869,0.1940460205078125,-0.2630767822265625,-0.9363555908203124,0.0001771002134773,0.007790545001626,-0.0065718824043869
1768731774879,0.1935882568359375,-0.26177978515625,-0.9361114501953124,-0.0049873017705976,0.0058429753407835,-0.0043374905362725
1768731774889,0.19464111328125,-0.26318359375,-0.939910888671875,-0.0085841668769717,0.0035145736765116,-0.004185423720628
1768731774899,0.19195556640625,-0.261688232421875,-0.94140625,-0.00860973354429,0.0014948323369026,-0.0042019356042146
1768731774909,0.190948486328125,-0.2620849609375,-0.941864013671875,-0.0023973775096237,-0.0010918960906565,-0.0028812738601118
1768731774919,0.190338134765625,-0.261199951171875,-0.9428253173828124,0.0046397591941058,-0.0066669574007391,-0.0049625341780483
1768731774929,0.18695068359375,-0.2624969482421875,-0.943572998046875,0.0097977695986628,-0.0137981036677956,-0.0069535137154161
1768731774939,0.186279296875,-0.263214111328125,-0.944122314453125,0.0126950228586792,-0.0139389848336577,-0.0106419920921325
1768731774950,0.18804931640625,-0.26446533203125,-0.943756103515625,0.0103836646303534,-0.0062027685344219,-0.0133086144924163
1768731774960,0.185302734375,-0.2647857666015625,-0.9398193359375,-0.0016700683627277,0.0040408144704997,-0.0165712535381317
1768731774970,0.1852874755859375,-0.266387939453125,-0.938018798828125,-0.0050938283093273,0.013814615085721,-0.0208645351231098
1768731774980,0.1884002685546875,-0.2637481689453125,-0.9349822998046876,-0.0116246985271573,0.0113647738471627,-0.0186205562204122
1768731774990,0.1924591064453125,-0.2622222900390625,-0.9320526123046876,-0.0160663183778524,-0.0024807346053421,-0.0233143772929906
1768731775000,0.19384765625,-0.26104736328125,-0.931671142578125,-0.0205028783529996,-0.0083458144217729,-0.0258851274847984
1768731775010,0.1955718994140625,-0.25701904296875,-0.9379119873046876,-0.0145626971498131,-0.0062568304128944,-0.0236043948680162
1768731775020,0.1981201171875,-0.253570556640625,-0.9421539306640624,-0.01018872205168,-0.0001920139184221,-0.018524682149291
1768731775030,0.1992645263671875,-0.25677490234375,-0.94537353515625,-0.0106087019667029,0.0009158611064776,-0.0189875401556491
1768731775040,0.1962890625,-0.261505126953125,-0.9459381103515624,-0.0099144158884882,0.0141925178468227,-0.0183332003653049
1768731775050,0.193603515625,-0.2640838623046875,-0.94659423828125,-0.0079657807946205,0.0288164671510458,-0.0163672547787427
1768731775060,0.194000244140625,-0.2650146484375,-0.9419403076171876,-0.0101509047672152,0.0258038993924856,-0.0127229858189821
1768731775070,0.19390869140625,-0.2655029296875,-0.9340972900390624,-0.0153637761250138,0.0139698777347803,-0.0120382867753505
1768731775080,0.1945648193359375,-0.265533447265625,-0.9305267333984376,-0.0205321721732616,0.000386158353649,-0.0120132528245449
1768731775090,0.1978302001953125,-0.26373291015625,-0.9296112060546876,-0.0258137546479702,-0.0131695978343486,-0.0116766300052404
1768731775100,0.19793701171875,-0.262359619140625,-0.9324798583984376,-0.0327456966042518,-0.0047537423670291,-0.0109988553449511
1768731775110,0.1954803466796875,-0.2594757080078125,-0.9365386962890624,-0.0388762913644313,0.0146785452961921,-0.0137376496568322
1768731775120,0.1961822509765625,-0.2604827880859375,-0.9411468505859376,-0.0391202382743358,0.019732691347599,-0.0135509623214602
1768731775130,0.1973114013671875,-0.2610015869140625,-0.943145751953125,-0.0422382690012455,0.0215724036097526,-0.0129168638959527
1768731775141,0.1970062255859375,-0.2599639892578125,-0.9416961669921876,-0.0433085933327674,0.010358365252614,-0.0158639177680015
1768731775150,0.1958465576171875,-0.2602996826171875,-0.9423828125,-0.0392049252986907,-0.0018602180061861,-0.0182767417281866
1768731775160,0.1967010498046875,-0.2602081298828125,-0.9464263916015624,-0.0288446974009275,-0.0023662187159061,-0.0191952660679817
1768731775171,0.1986083984375,-0.259124755859375,-0.9511871337890624,-0.019276225939393,0.0142721468582749,-0.0161795020103454
1768731775181,0.1963958740234375,-0.2581787109375,-0.9530181884765624,-0.0137315243482589,0.0255477037280797,-0.014789598993957
1768731775191,0.19525146484375,-0.259765625,-0.950469970703125,-0.006468285806477,0.0255085565149784,-0.0099509013816714
1768731775201,0.195648193359375,-0.261566162109375,-0.945220947265625,-0.0044578653760254,0.0180218778550624,-0.0101514374837279
1768731775211,0.19659423828125,-0.2609100341796875,-0.9395751953125,-0.0060192765668034,0.003760383464396,-0.0088390316814184
1768731775221,0.197479248046875,-0.26068115234375,-0.9383697509765624,-0.007978830486536,-0.0104678208008408,-0.010229468345642
1768731775231,0.19671630859375,-0.260986328125,-0.9385528564453124,-0.0166072063148021,0.0034991272259503,-0.0139248706400394
1768731775241,0.1965179443359375,-0.2580718994140625,-0.9399566650390624,-0.015800267457962,0.025269404053688,-0.0141645548865199
1768731775251,0.1969757080078125,-0.2577056884765625,-0.9432373046875,-0.0124401580542325,0.0269719623029232,-0.0072549832984805
1768731775261,0.19793701171875,-0.258056640625,-0.9380035400390624,-0.015058577992022,0.0249029528349638,-0.0069098374806344
1768731775271,0.199859619140625,-0.25604248046875,-0.93341064453125,-0.0200048666447401,0.0227069109678268,-0.0113935358822345
1768731775281,0.1994476318359375,-0.255279541015625,-0.9327850341796876,-0.0235428772866725,0.0129799805581569,-0.0085889603942632
1768731775291,0.2026824951171875,-0.256072998046875,-0.93505859375,-0.027090473100543,0.0038016624748706,-0.0059790629893541
1768731775301,0.202789306640625,-0.2583160400390625,-0.9368743896484376,-0.0320074670016765,0.010373811237514,-0.0111250886693596
1768731775311,0.1963043212890625,-0.2596282958984375,-0.9372406005859376,-0.0386129058897495,0.0192338824272155,-0.0124593330547213
1768731775321,0.1991729736328125,-0.256622314453125,-0.9390411376953124,-0.0394691117107868,0.012245480902493,-0.0114446682855486
1768731775331,0.2024383544921875,-0.2595062255859375,-0.9443511962890624,-0.0397514067590236,0.0148018496111035,-0.0143563020974397
1768731775341,0.1985931396484375,-0.26239013671875,-0.94647216796875,-0.0336085595190525,0.0225836057215929,-0.0164426229894161
1768731775351,0.1972198486328125,-0.26214599609375,-0.9499359130859376,-0.0206927619874477,0.0191305503249168,-0.006983074825257
1768731775361,0.199310302734375,-0.2545166015625,-0.9493408203125,-0.0141885234043002,0.011190602555871,-0.0001491370203439
1768731775372,0.2017974853515625,-0.2528839111328125,-0.9427947998046876,-0.0125022092834115,-0.004561994690448,-0.0048307077959179
1768731775382,0.19561767578125,-0.2641143798828125,-0.937530517578125,-0.0110987238585948,-0.0066075688228011,-0.014748852699995
1768731775392,0.1989593505859375,-0.256988525390625,-0.940093994140625,-0.0065950518473982,-0.0098813930526375,-0.0095335841178894
1768731775402,0.2074127197265625,-0.2469024658203125,-0.947113037109375,-0.0029020465444773,0.0138476388528943,-0.0061532338149845
1768731775412,0.2083740234375,-0.2412109375,-0.9505767822265624,0.0050922301597893,0.0364807806909084,-0.0050967577844858
1768731775422,0.20538330078125,-0.2447357177734375,-0.95263671875,0.0075404741801321,0.0413855239748954,0.0002753708686213
1768731775432,0.20684814453125,-0.2488861083984375,-0.9448089599609376,0.0067492490634322,0.04148805513978,0.0032397354952991
1768731775442,0.2025299072265625,-0.2516937255859375,-0.9391937255859376,0.0073716300539672,0.0372887812554836,0.0062397862784564
1768731775452,0.2032318115234375,-0.2528228759765625,-0.932708740234375,0.0064435182139277,0.0201675854623317,0.0114513263106346
1768731775462,0.2052154541015625,-0.2533111572265625,-0.9262847900390624,-0.0008122641011141,-0.0002751045394688,0.0130422990769147
1768731775472,0.2036285400390625,-0.25909423828125,-0.9245452880859376,-0.0107871340587735,0.0012796488590538,0.0112390723079442
1768731775482,0.2028961181640625,-0.2564239501953125,-0.9237213134765624,-0.0275642499327659,-0.003877029987052,0.0067423246800899
1768731775492,0.2045745849609375,-0.2571563720703125,-0.9258270263671876,-0.0410835221409797,-0.0035436020698398,0.0031875374261289
1768731775502,0.2076873779296875,-0.2555999755859375,-0.9341278076171876,-0.0519721210002899,0.0015164038632065,0.006090116687119
1768731775512,0.204498291015625,-0.253662109375,-0.940521240234375,-0.0580537170171737,0.0094819189980626,0.0075790900737047
1768731775522,0.2029876708984375,-0.2550201416015625,-0.94183349609375,-0.0565506257116794,0.0060682790353894,0.0110313454642891
1768731775532,0.2053680419921875,-0.2538299560546875,-0.948272705078125,-0.0446241945028305,0.0010498181218281,0.0158506017178297
1768731775542,0.205169677734375,-0.2531585693359375,-0.9520111083984376,-0.0306359399110078,0.0016253271605819,0.0214791931211948
1768731775553,0.2012786865234375,-0.2532196044921875,-0.9560089111328124,-0.0169233232736587,0.0063042347319424,0.0235759001225233
1768731775562,0.1994171142578125,-0.2520904541015625,-0.95379638671875,-0.0031369375064969,0.0071162325330078,0.0262731499969959
1768731775572,0.1961517333984375,-0.2531890869140625,-0.9516754150390624,0.007095992565155,0.0034770229831337,0.0216152798384428
1768731775583,0.1942138671875,-0.2540130615234375,-0.9498748779296876,0.0158543307334184,-0.0031941954512149,0.0160111915320158
1768731775593,0.1962738037109375,-0.2510528564453125,-0.9515228271484376,0.0235705729573965,-0.001857821131125,0.0142780058085918
1768731775603,0.19659423828125,-0.25225830078125,-0.9526824951171876,0.0230200979858636,0.0110672982409596,0.0094488952308893
1768731775613,0.1945953369140625,-0.25091552734375,-0.947967529296875,0.0228730905801057,0.0227479226887226,0.0072800172492861
1768731775623,0.19769287109375,-0.2504425048828125,-0.9452362060546876,0.0206349715590477,0.0208022166043519,0.0103351958096027
1768731775633,0.2036895751953125,-0.248870849609375,-0.9410400390625,0.0135949049144983,0.0159110557287931,0.0105525096878409
1768731775643,0.201171875,-0.2499542236328125,-0.93267822265625,0.0024019049014896,0.0158039964735507,0.0065140919759869
1768731775653,0.19598388671875,-0.24853515625,-0.9304046630859376,-0.0020061591640114,0.0079407477751374,0.007348726503551
1768731775663,0.1999053955078125,-0.24755859375,-0.93402099609375,-0.0033971283119171,-0.0037739656399935,0.0066605657339096
1768731775673,0.2000274658203125,-0.2523040771484375,-0.93707275390625,-0.0075772260315716,-0.0027249464765191,0.0019228023011237
1768731775683,0.195709228515625,-0.2559051513671875,-0.937652587890625,-0.0179957784712314,0.0056781256571412,-0.0009632653673179
1768731775693,0.1964569091796875,-0.2540435791015625,-0.9368896484375,-0.0221415217965841,0.0118675781413912,-0.0019337212434038
1768731775703,0.1981048583984375,-0.251953125,-0.9365386962890624,-0.0254728700965642,0.0053976946510374,0.0010815097484737
1768731775713,0.19964599609375,-0.2523345947265625,-0.9343414306640624,-0.0347739607095718,-0.0009683253592811,0.0007089334540069
1768731775723,0.2016448974609375,-0.248504638671875,-0.9326171875,-0.0399362295866012,-0.0137744015082716,-0.001726527349092
1768731775733,0.20343017578125,-0.24920654296875,-0.940673828125,-0.0389031916856765,-0.0078880172222852,-0.0048751826398074
1768731775743,0.2035980224609375,-0.2467803955078125,-0.95098876953125,-0.0310231633484363,0.0007984156836755,-0.0019318570848554
1768731775753,0.20489501953125,-0.2450408935546875,-0.9605865478515624,-0.0144330011680722,0.0161584634333848,0.0045188516378402
1768731775763,0.204498291015625,-0.2456512451171875,-0.9637298583984376,-0.0003387540928088,0.0281219147145748,0.0084834992885589
1768731775773,0.2016754150390625,-0.2476043701171875,-0.959075927734375,0.0107133639976382,0.0240787044167518,0.0110348081216216
1768731775785,0.19964599609375,-0.2517852783203125,-0.9559783935546876,0.023109845817089,0.0144298058003187,0.0141869252547621
1768731775794,0.198089599609375,-0.2522735595703125,-0.9534759521484376,0.0362831726670265,0.0074368771165609,0.0129083413630723
1768731775804,0.1963348388671875,-0.2541961669921875,-0.951385498046875,0.0429639779031276,0.0076328860595822,0.0126255135983228
1768731775814,0.1934661865234375,-0.253326416015625,-0.9494476318359376,0.0437504090368747,0.0101333279162645,0.0081974761560559
1768731775824,0.19488525390625,-0.2516937255859375,-0.9442596435546876,0.0432686433196067,0.0118590565398335,0.0067263459786772
1768731775834,0.1970062255859375,-0.2496795654296875,-0.941314697265625,0.0368203334510326,0.0143488459289073,0.0049241846427321
1768731775844,0.198577880859375,-0.2492218017578125,-0.9374237060546876,0.0233077201992273,0.0152540542185306,0.0038607846945524
1768731775854,0.2024078369140625,-0.2487335205078125,-0.9337921142578124,0.0107383979484438,0.014699850231409,0.0034756914246827
1768731775864,0.2018585205078125,-0.2496337890625,-0.9310302734375,-0.0051952945068478,0.0211713314056396,0.0038466698024421
1768731775874,0.1989898681640625,-0.25201416015625,-0.9288177490234376,-0.0180908534675836,0.0218309964984655,0.0047076698392629
1768731775884,0.196868896484375,-0.2529754638671875,-0.928741455078125,-0.0226789470762014,0.0091857751831412,0.0072150360792875
1768731775894,0.1961822509765625,-0.2522430419921875,-0.932830810546875,-0.0232736300677061,-0.0106646288186311,0.0041782334446907
1768731775904,0.1950836181640625,-0.254180908203125,-0.939544677734375,-0.0141381891444325,-0.0218784008175134,0.0010104032699018
1768731775914,0.195892333984375,-0.254547119140625,-0.9478302001953124,-0.0021001687273383,-0.0149168977513909,-0.0043705138377845
1768731775924,0.195037841796875,-0.25335693359375,-0.9525299072265624,0.0040751690976321,-0.0044967476278543,-0.0091346427798271
1768731775934,0.1939849853515625,-0.2512664794921875,-0.9517822265625,0.0098893819376826,0.0045902244746685,-0.0111615741625428
1768731775944,0.1970672607421875,-0.248443603515625,-0.9516448974609376,0.0199563968926668,0.0073777548968791,-0.010685933753848
1768731775954,0.1979217529296875,-0.2508697509765625,-0.95123291015625,0.022972960025072,0.0109591744840145,-0.0091580785810947
1768731775964,0.1991729736328125,-0.251739501953125,-0.9473419189453124,0.0239399541169405,0.0152013236656785,-0.0125517444685101
1768731775974,0.1963958740234375,-0.2523193359375,-0.942352294921875,0.0219777375459671,0.0123219136148691,-0.0167622026056051
1768731775985,0.2000579833984375,-0.255950927734375,-0.941314697265625,0.0261202845722436,0.0064456486143171,-0.0101706124842166
1768731775995,0.2038726806640625,-0.2518463134765625,-0.9408721923828124,0.0312889479100704,-0.0009608684922568,-0.001996838254854
1768731776005,0.2062530517578125,-0.2448577880859375,-0.9377288818359376,0.0313366167247295,-0.0094108125194907,0.0040509342215955
1768731776015,0.205596923828125,-0.253143310546875,-0.934906005859375,0.0228464603424072,-0.0125826373696327,0.0002258360618725
1768731776025,0.202728271484375,-0.2585906982421875,-0.9344482421875,0.0174458362162113,0.0016996293561533,0.0009723200928419
1768731776035,0.203643798828125,-0.2494354248046875,-0.9327545166015624,0.0052797170355916,0.0080877542495727,0.0047513456083834
1768731776045,0.2034454345703125,-0.24365234375,-0.9288177490234376,-0.0043627903796732,0.0073447320610284,0.0070898672565817
1768731776055,0.2063751220703125,-0.2465972900390625,-0.9332275390625,-0.0002420813398202,-0.0005161206354387,0.0054935687221586
1768731776065,0.208404541015625,-0.248504638671875,-0.9405364990234376,0.0012250541476532,-0.0040765004232525,0.0083737773820757
1768731776075,0.2069854736328125,-0.2465057373046875,-0.9422454833984376,0.0041808965615928,0.0038099181838333,0.0121032679453492
1768731776085,0.2062225341796875,-0.2480926513671875,-0.9446563720703124,0.0010532801970839,0.0122350947931408,0.0160175822675228
1768731776095,0.2058258056640625,-0.246063232421875,-0.9373321533203124,-0.0016652746126055,0.0067697553895413,0.0210197977721691
1768731776105,0.20452880859375,-0.252899169921875,-0.9323883056640624,-0.0144143588840961,-0.0075836172327399,0.0252387765794992
1768731776115,0.201080322265625,-0.2617950439453125,-0.928558349609375,-0.0269517228007316,-0.0119261676445603,0.0222906582057476
1768731776125,0.19879150390625,-0.266326904296875,-0.92926025390625,-0.0362168587744236,-0.0217218063771724,0.0174189377576112
1768731776135,0.202301025390625,-0.2672576904296875,-0.936370849609375,-0.0408443696796894,-0.0217953100800514,0.0164945535361766
1768731776145,0.20281982421875,-0.2646484375,-0.943084716796875,-0.0416843295097351,-0.0146495159715414,0.0135094169527292
1768731776155,0.202117919921875,-0.261077880859375,-0.9492645263671876,-0.0422686263918876,-0.0057859835214912,0.0178271997720003
1768731776165,0.2040557861328125,-0.257537841796875,-0.955352783203125,-0.0348911397159099,0.0042858249507844,0.0200165845453739
1768731776175,0.2049407958984375,-0.2561798095703125,-0.95941162109375,-0.0221732128411531,0.0102592958137393,0.0247575435787439
1768731776186,0.2046661376953125,-0.2531585693359375,-0.95941162109375,-0.0065865297801792,0.0151323471218347,0.0278018042445182
1768731776195,0.201385498046875,-0.2520294189453125,-0.957550048828125,0.0082374233752489,0.0082986764609813,0.0269716959446668
1768731776206,0.203369140625,-0.253662109375,-0.958770751953125,0.0284207221120595,0.0013126720441505,0.0314055941998958
1768731776216,0.2039031982421875,-0.2546844482421875,-0.9638519287109376,0.0416148230433464,0.0107277454808354,0.0288409683853387
1768731776226,0.2019805908203125,-0.25506591796875,-0.963623046875,0.0485030859708786,0.0354722402989864,0.0283336378633976
1768731776236,0.1967620849609375,-0.2580413818359375,-0.9575042724609376,0.0502477250993251,0.0438135266304016,0.0259817987680435
1768731776246,0.1951751708984375,-0.259796142578125,-0.9481658935546876,0.0528680086135864,0.04063531011343,0.0233487319201231
1768731776256,0.1969451904296875,-0.26025390625,-0.94195556640625,0.0533159524202346,0.0369111448526382,0.0207609385251998
1768731776266,0.1990966796875,-0.25848388671875,-0.9372406005859376,0.0514647886157035,0.0212347153574228,0.0185539759695529
1768731776276,0.1978759765625,-0.261138916015625,-0.9345855712890624,0.0477472804486751,0.0132628083229064,0.016039153560996
1768731776286,0.1977386474609375,-0.26019287109375,-0.9381866455078124,0.0488623492419719,0.0180165506899356,0.0158093236386775
1768731776296,0.2011871337890625,-0.2534637451171875,-0.9424896240234376,0.0525441691279411,0.0239945482462644,0.0222171545028686
1768731776306,0.2040252685546875,-0.2528228759765625,-0.9379730224609376,0.0458311364054679,0.019331619143486,0.022192919626832
1768731776316,0.2005462646484375,-0.260040283203125,-0.9318084716796876,0.0352799594402313,0.0133895752951502,0.016514528542757
1768731776326,0.2001953125,-0.26312255859375,-0.931732177734375,0.0348101779818534,0.0075316857546567,0.0145541755482554
1768731776337,0.2009735107421875,-0.262542724609375,-0.9352569580078124,0.0327622070908546,0.0224328711628913,0.0129426969215273
1768731776346,0.1998291015625,-0.2617340087890625,-0.93798828125,0.0291608143597841,0.0332812592387199,0.0123453494161367
1768731776356,0.1971893310546875,-0.264068603515625,-0.9373321533203124,0.0252829864621162,0.0315174460411071,0.0109570436179637
1768731776366,0.1968536376953125,-0.2668304443359375,-0.932830810546875,0.0185523796826601,0.023364445194602,0.0065130265429615
1768731776376,0.1966705322265625,-0.2661895751953125,-0.9341583251953124,0.0217313934117555,0.0204821061342954,0.004872253164649
1768731776386,0.1988067626953125,-0.265380859375,-0.936492919921875,0.0209803823381662,0.0192179027944803,0.0042978092096745
1768731776396,0.198638916015625,-0.2649383544921875,-0.9373779296875,0.0230272877961397,0.0194554571062326,0.0013382384786382
1768731776407,0.1984100341796875,-0.263946533203125,-0.93670654296875,0.0220469795167446,0.0264023132622241,0.0018604843644425
1768731776417,0.1969451904296875,-0.26495361328125,-0.939453125,0.0218099579215049,0.0290361791849136,0.0003800330741796
1768731776427,0.197021484375,-0.266448974609375,-0.937652587890625,0.0166599359363317,0.0372182093560695,-0.0030621027108281
1768731776437,0.1974334716796875,-0.2681884765625,-0.933563232421875,0.0067774783819913,0.0377931855618953,-0.0067929248325526
1768731776447,0.19677734375,-0.2698822021484375,-0.9263763427734376,-0.003672232851386,0.0231764260679483,-0.0122939506545662
1768731776457,0.19793701171875,-0.2712554931640625,-0.925201416015625,-0.0108433263376355,0.010561297647655,-0.0158290304243564
1768731776467,0.200775146484375,-0.2683868408203125,-0.92938232421875,-0.0102201467379927,0.0051404335536062,-0.0151091776788234
1768731776477,0.2009735107421875,-0.26629638671875,-0.9359130859375,-0.0089476881548762,0.0094491615891456,-0.0176868513226509
1768731776487,0.1996612548828125,-0.2680511474609375,-0.941253662109375,-0.0078778965398669,0.0192232299596071,-0.016432236880064
1768731776497,0.2006988525390625,-0.2667083740234375,-0.9404449462890624,-0.0038557245861738,0.0185158941894769,-0.0154042560607194
1768731776507,0.2017364501953125,-0.267364501953125,-0.9414215087890624,0.0004436826275195,0.0136801255866885,-0.0158050619065761
1768731776517,0.200439453125,-0.2700958251953125,-0.941558837890625,0.0052197957411408,0.0139512354508042,-0.0179299972951412
1768731776527,0.1992645263671875,-0.2703857421875,-0.9409637451171876,0.004882373381406,0.0188666321337223,-0.0177196078002452
1768731776537,0.2025604248046875,-0.2697601318359375,-0.938812255859375,0.0072728265076875,0.0136012965813279,-0.015329155139625
1768731776547,0.2064971923828125,-0.268402099609375,-0.9396514892578124,0.0070113041438162,0.0093141393736004,-0.0146271456032991
1768731776557,0.2054595947265625,-0.2679901123046875,-0.9396820068359376,0.00477558048442,0.0180849935859441,-0.0163336992263793
1768731776567,0.205078125,-0.2650604248046875,-0.9391937255859376,0.0065873288549482,0.0154535248875617,-0.016553409397602
1768731776577,0.2062225341796875,-0.2656402587890625,-0.937835693359375,0.0081894863396883,0.0081780347973108,-0.018173411488533
1768731776587,0.20855712890625,-0.26422119140625,-0.94061279296875,0.0138721400871872,0.0124132595956325,-0.0198256354779005
1768731776597,0.2089080810546875,-0.26239013671875,-0.943817138671875,0.0223633628338575,0.0128577416762709,-0.0147515153512358
1768731776608,0.2093505859375,-0.265899658203125,-0.9461517333984376,0.0236872192472219,0.022434202954173,-0.0129360388964414
1768731776618,0.2035064697265625,-0.2717437744140625,-0.9425048828125,0.0225657634437084,0.0331217348575592,-0.0162905566394329
1768731776628,0.2005767822265625,-0.27667236328125,-0.9353790283203124,0.0197007339447736,0.0320831015706062,-0.0201862286776304
1768731776638,0.2025604248046875,-0.27783203125,-0.9290313720703124,0.0150002548471093,0.0137839894741773,-0.0150652360171079
1768731776648,0.2048492431640625,-0.2732391357421875,-0.92694091796875,0.0097668766975402,-0.001291633117944,-0.015140869654715
1768731776658,0.201904296875,-0.2781829833984375,-0.92828369140625,0.0097492998465895,0.0168016161769628,-0.0190453305840492
1768731776668,0.2035369873046875,-0.264984130859375,-0.933074951171875,0.0108097707852721,0.0128928953781723,-0.0116878151893615
1768731776678,0.2119903564453125,-0.2625274658203125,-0.9324798583984376,0.0082171838730573,0.004734834190458,-0.0105282748118042
1768731776688,0.2120361328125,-0.2593231201171875,-0.93548583984375,0.0217391178011894,0.0232595168054103,-0.0080411480739712
1768731776698,0.2129669189453125,-0.25738525390625,-0.941009521484375,0.0243029426783323,0.0188415981829166,-0.0054653389379382
1768731776708,0.2122955322265625,-0.2648773193359375,-0.9368896484375,0.0240201149135828,0.0260670203715562,-0.0084355622529983
1768731776718,0.206207275390625,-0.2620697021484375,-0.9345245361328124,0.0261181537061929,0.0355822294950485,-0.0048850364983081
1768731776728,0.2062835693359375,-0.2673492431640625,-0.928680419921875,0.0194655768573284,0.0286846421658992,-0.0029377329628914
1768731776738,0.204559326171875,-0.2697601318359375,-0.9195556640625,0.0067785438150167,0.0131940990686416,-0.0001922802330227
1768731776748,0.2068634033203125,-0.274322509765625,-0.9172210693359376,-0.0060147494077682,0.0082866922020912,0.0026336000300943
1768731776758,0.2050628662109375,-0.2783966064453125,-0.9153900146484376,-0.0271242950111627,0.0107889985665678,-0.00341949891299
1768731776768,0.203033447265625,-0.2801055908203125,-0.9132232666015624,-0.0485574156045913,0.0072347433306276,-0.0084145236760377
1768731776778,0.2065277099609375,-0.2782745361328125,-0.9159393310546876,-0.064206950366497,-0.0041638524271547,-0.0125362984836101
1768731776788,0.2071533203125,-0.2736358642578125,-0.9228057861328124,-0.0678024813532829,-0.0072978604584932,-0.0119434781372547
1768731776798,0.21051025390625,-0.2676239013671875,-0.9346923828125,-0.0657164305448532,-0.0014418354257941,-0.0082310317084193
1768731776809,0.2090911865234375,-0.265045166015625,-0.9432220458984376,-0.0570313297212123,-0.0010122675448656,-0.0058725364506244
1768731776819,0.2095184326171875,-0.26416015625,-0.9482574462890624,-0.0436782389879226,-0.0043598609045147,-0.0023443805985152
1768731776829,0.2057342529296875,-0.2642059326171875,-0.9481658935546876,-0.025720277801156,-0.0103945843875408,-0.0008902947301976
1768731776839,0.2076263427734375,-0.2672882080078125,-0.9531402587890624,-0.00473323604092,-0.0118601210415363,-0.0009470200748182
1768731776849,0.206878662109375,-0.27032470703125,-0.9566650390625,0.0092076128348708,0.0047446875832974,-0.0019361181184649
1768731776859,0.2030181884765625,-0.2726593017578125,-0.9525146484375,0.0160894878208637,0.0180780701339244,-0.0003595267480704
1768731776869,0.2033843994140625,-0.27227783203125,-0.9467010498046876,0.0172812528908252,0.0177363865077495,-0.0013270531781017
1768731776879,0.2042236328125,-0.2724151611328125,-0.93719482421875,0.0136753320693969,0.0151451304554939,-0.0076587186194956
1768731776889,0.2039337158203125,-0.27008056640625,-0.92926025390625,0.0042322957888245,0.0061452439986169,-0.0118816932663321
1768731776899,0.20526123046875,-0.267303466796875,-0.9279937744140624,0.0009464874165132,-0.0014522217679768,-0.0159478075802326
1768731776909,0.2086334228515625,-0.268707275390625,-0.9317779541015624,0.0002676477015484,-0.0024860608391463,-0.0189497228711843
1768731776919,0.20745849609375,-0.268280029296875,-0.9374542236328124,0.0039007319137454,0.0123088639229536,-0.0191854126751422
1768731776929,0.205291748046875,-0.2661895751953125,-0.941070556640625,0.0059260660782456,0.0226619020104408,-0.0151762897148728
1768731776939,0.2098388671875,-0.2663116455078125,-0.940948486328125,0.0104806041345,0.0252113472670316,-0.0128569426015019
1768731776949,0.209869384765625,-0.2660064697265625,-0.93951416015625,0.0123466812074184,0.0262904595583677,-0.0086680566892027
1768731776959,0.2090301513671875,-0.270172119140625,-0.93389892578125,0.0063990433700382,0.0139837265014648,-0.0106539754197001
1768731776969,0.2065582275390625,-0.2745361328125,-0.92730712890625,0.0009989517275243,0.0024189492687582,-0.0140220755711197
1768731776979,0.20684814453125,-0.275604248046875,-0.930816650390625,-8.415588672505692e-05,0.0027494474779814,-0.0147997187450528
1768731776989,0.20849609375,-0.2736358642578125,-0.9355621337890624,0.0005044027348048,0.0105666238814592,-0.0148367369547486
1768731776999,0.210784912109375,-0.2691802978515625,-0.9387054443359376,0.0002601908345241,0.0145086348056793,-0.0117599871009588
1768731777009,0.2124481201171875,-0.2674407958984375,-0.9405670166015624,-0.0007371630053967,0.023201460018754,-0.0136625487357378
1768731777020,0.2113800048828125,-0.266937255859375,-0.9385986328125,-0.0033433323260396,0.0278049986809492,-0.0130391027778387
1768731777030,0.2099761962890625,-0.26983642578125,-0.93548583984375,-0.0018370485631749,0.0240203812718391,-0.0137349870055913
1768731777040,0.2095947265625,-0.2696533203125,-0.9366455078125,0.0012229235144332,0.0196618512272834,-0.0135882468894124
1768731777050,0.2120513916015625,-0.268798828125,-0.9351806640625,0.0045175203122198,0.0198818296194076,-0.0136889144778251
1768731777060,0.21295166015625,-0.26824951171875,-0.93505859375,0.0053327139467,0.0248238574713468,-0.009212139993906
1768731777070,0.2119598388671875,-0.268310546875,-0.9349212646484376,0.0055505600757896,0.0270971320569515,-0.0064072990790009
1768731777080,0.2118377685546875,-0.2671661376953125,-0.9310302734375,0.0007744472241029,0.0313517972826957,-0.0029587720055133
1768731777090,0.211639404296875,-0.2646484375,-0.922393798828125,-0.0039931437931954,0.0216483045369386,-0.0011102718999609
1768731777100,0.21630859375,-0.263153076171875,-0.9206085205078124,-0.0116081861779093,0.0126918265596032,0.0038783615455031
1768731777110,0.217071533203125,-0.2603912353515625,-0.9180755615234376,-0.0216962397098541,0.0148031804710626,0.0065369950607419
1768731777120,0.2136688232421875,-0.2592926025390625,-0.916656494140625,-0.0296247377991676,0.0141973113641142,0.0056951697915792
1768731777130,0.2134552001953125,-0.2621307373046875,-0.9228668212890624,-0.0348964631557464,0.0062746736221015,0.0076083848252892
1768731777140,0.2145538330078125,-0.26556396484375,-0.9277496337890624,-0.0411152131855487,0.0063383234664797,0.0038671761285513
1768731777150,0.21453857421875,-0.2642822265625,-0.9300689697265624,-0.0444673337042331,0.0069199576973915,0.0019331886433064
1768731777160,0.211761474609375,-0.2668609619140625,-0.9347991943359376,-0.0476024076342582,0.013708621263504,-0.0010652644559741
1768731777170,0.2108917236328125,-0.2667694091796875,-0.9387969970703124,-0.0472380854189395,0.0217521674931049,-0.0020647486671805
1768731777180,0.20947265625,-0.2671356201171875,-0.9416351318359376,-0.0430846214294433,0.0198991391807794,-0.0045593315735459
1768731777190,0.2079620361328125,-0.2689361572265625,-0.9437408447265624,-0.0336836613714695,0.0144713511690497,-0.0059236693195998
1768731777200,0.2075653076171875,-0.2678680419921875,-0.94989013671875,-0.0199811644852161,0.0152018563821911,-0.009246495552361
1768731777210,0.2103424072265625,-0.2659454345703125,-0.9537200927734376,-0.0032895365729928,0.0134308543056249,-0.0098132155835628
1768731777221,0.2094573974609375,-0.26507568359375,-0.953582763671875,0.0064198160544037,0.0187329407781362,-0.0138649493455886
1768731777231,0.206298828125,-0.26507568359375,-0.947662353515625,0.0100283995270729,0.021067202091217,-0.0160183813422918
1768731777241,0.2062530517578125,-0.2649993896484375,-0.942230224609375,0.0154601829126477,0.0132095450535416,-0.0153334159404039
1768731777251,0.2076263427734375,-0.2689056396484375,-0.940185546875,0.0212778579443693,0.0109234880656003,-0.021282386034727
1768731777261,0.20477294921875,-0.2734527587890625,-0.940643310546875,0.0230704322457313,0.0137016978114843,-0.028180506080389
1768731777271,0.2046661376953125,-0.2728118896484375,-0.9362335205078124,0.0236107874661684,0.0029574404470622,-0.0269171018153429
1768731777281,0.209442138671875,-0.26885986328125,-0.9314117431640624,0.01766874268651,-0.0077798925340175,-0.0206512156873941
1768731777291,0.2120208740234375,-0.2680206298828125,-0.9275054931640624,0.0122934179380536,-0.0069921296089887,-0.0270326826721429
1768731777301,0.2114715576171875,-0.2660064697265625,-0.9259796142578124,0.0063998424448072,-0.0083522060886025,-0.0258856602013111
1768731777311,0.2177734375,-0.2624664306640625,-0.9271087646484376,0.0025137576740235,-0.0173132102936506,-0.0221977140754461
1768731777321,0.2219085693359375,-0.257965087890625,-0.931884765625,0.0097026946023106,-0.0065822689794003,-0.0139648178592324
1768731777331,0.2259521484375,-0.25299072265625,-0.93756103515625,0.0107700899243354,-0.0130596095696091,-0.0069548450410366
1768731777341,0.2241058349609375,-0.2554473876953125,-0.9351806640625,0.0105945877730846,-0.0083860279992222,-0.003458114573732
1768731777351,0.223388671875,-0.2549896240234375,-0.9339752197265624,0.0162732452154159,0.0052323127165436,0.0058541605249047
1768731777361,0.224395751953125,-0.2557373046875,-0.9303741455078124,0.0087309069931507,0.0052405684255063,0.0150548499077558
1768731777371,0.2224578857421875,-0.2579803466796875,-0.9176177978515624,-0.0067897289991378,-0.0047548078000545,0.0230808183550834
1768731777381,0.221221923828125,-0.2615814208984375,-0.9092559814453124,-0.0248377062380313,-0.0170021522790193,0.0238984078168869
1768731777391,0.2185211181640625,-0.267974853515625,-0.9080047607421876,-0.0448668077588081,-0.0215910449624061,0.0215212702751159
1768731777401,0.216278076171875,-0.2718658447265625,-0.9126434326171876,-0.0605325847864151,-0.0196543950587511,0.0139562953263521
1768731777411,0.215911865234375,-0.2720794677734375,-0.9196929931640624,-0.077765367925167,-0.0170032177120447,0.0074171698652207
1768731777421,0.21160888671875,-0.2705230712890625,-0.928375244140625,-0.0853167623281478,-0.0123900901526212,0.0033531861845403
1768731777432,0.20794677734375,-0.2658233642578125,-0.9367828369140624,-0.0808280035853385,-0.0072949309833347,0.0016016251174733
1768731777442,0.21112060546875,-0.2626190185546875,-0.9474334716796876,-0.0638498216867446,-0.002215217333287,0.0048512141220271
1768731777452,0.2102203369140625,-0.2598876953125,-0.9547576904296876,-0.044423658400774,0.0044133905321359,0.0032514533959329
1768731777462,0.208465576171875,-0.258575439453125,-0.9543914794921876,-0.0241013411432504,-0.0006258428329601,0.0041409493423998
1768731777472,0.2073974609375,-0.2619781494140625,-0.9540252685546876,-0.0078595206141471,-0.0084920218214392,0.0021073594689369
1768731777482,0.2066802978515625,-0.2627716064453125,-0.9514923095703124,0.0017486315919086,-0.010358365252614,-0.0024333302862942
1768731777492,0.2090911865234375,-0.2612762451171875,-0.9489898681640624,0.005029113497585,-0.0172136072069406,-0.0051441621035337
1768731777502,0.2078704833984375,-0.26446533203125,-0.9471435546875,-0.0001496696495451,-0.0107554420828819,-0.0100683467462658
1768731777512,0.20556640625,-0.26483154296875,-0.9414520263671876,-0.0067034428939223,-0.0100513026118278,-0.0134937046095728
1768731777522,0.2071685791015625,-0.2677001953125,-0.93951416015625,-0.011714712716639,-0.0073375413194298,-0.0187156312167644
1768731777532,0.210357666015625,-0.2642059326171875,-0.9388885498046876,-0.0166237168014049,-0.0031364047899842,-0.0202469490468502
1768731777542,0.213134765625,-0.262054443359375,-0.940216064453125,-0.0162727124989032,-0.0107964547351002,-0.0213332511484622
1768731777552,0.2095184326171875,-0.2624664306640625,-0.9437713623046876,-0.0079122511669993,-0.0097535606473684,-0.0241170544177293
1768731777562,0.2104949951171875,-0.2607879638671875,-0.95318603515625,0.0079687107354402,-0.0054815844632685,-0.020535634830594
1768731777572,0.2129058837890625,-0.2603912353515625,-0.9567108154296876,0.0267482567578554,0.0016112125013023,-0.0166692584753036
1768731777582,0.2140045166015625,-0.2574005126953125,-0.9561614990234376,0.0446108765900135,0.0102305328473448,-0.0075404741801321
1768731777592,0.2169189453125,-0.2573394775390625,-0.9526214599609376,0.0572142861783504,0.0051886364817619,-0.0026293389964848
1768731777602,0.2167816162109375,-0.26104736328125,-0.941375732421875,0.0564363785088062,-0.0014402375090867,-0.003271160647273
1768731777612,0.2173004150390625,-0.261749267578125,-0.9325408935546876,0.0534914545714855,-0.0014919028617441,-0.0015904398169368
1768731777623,0.2150726318359375,-0.26116943359375,-0.92572021484375,0.0419027097523212,-0.0024040355347096,0.0014516890514642
1768731777632,0.2148284912109375,-0.261199951171875,-0.9222259521484376,0.0246448926627635,-0.0056163403205573,0.0039539951831102
1768731777643,0.215667724609375,-0.2609405517578125,-0.915435791015625,0.0065369950607419,-0.0015917713753879,0.0040413467213511
1768731777653,0.2146759033203125,-0.2592315673828125,-0.9160614013671876,-0.0089309103786945,-0.0034565166570246,0.0033883398864418
1768731777663,0.214141845703125,-0.2611541748046875,-0.918365478515625,-0.020429641008377,-0.0073367422446608,0.0033111080992966
1768731777673,0.2153167724609375,-0.26251220703125,-0.9215240478515624,-0.0277101900428533,-0.0097519634291529,0.0043201800435781
1768731777683,0.213653564453125,-0.260833740234375,-0.9240570068359376,-0.0388232953846454,-0.0027483822777867,0.0035172367934137
1768731777693,0.209808349609375,-0.2619171142578125,-0.9241943359375,-0.0488077513873577,-0.0073340791277587,0.0026229473296552
1768731777703,0.20758056640625,-0.2647552490234375,-0.9244384765625,-0.0597956888377666,-0.0093176020309329,-0.002895921235904
1768731777713,0.205596923828125,-0.26458740234375,-0.9225616455078124,-0.0686075538396835,-0.0117437411099672,-0.0096672745421528
1768731777723,0.2021636962890625,-0.2644805908203125,-0.924407958984375,-0.0760777220129966,-0.0185931250452995,-0.0153094474226236
1768731777733,0.2023162841796875,-0.2657623291015625,-0.9279937744140624,-0.0788897573947906,-0.0213657431304454,-0.0189390704035758
1768731777743,0.2056427001953125,-0.26129150390625,-0.932403564453125,-0.0821241661906242,-0.0267535839229822,-0.0171427670866251
1768731777753,0.208770751953125,-0.25750732421875,-0.9358367919921876,-0.0827556028962135,-0.0331789925694465,-0.0191225614398717
1768731777763,0.2091827392578125,-0.2569122314453125,-0.9424285888671876,-0.0790852308273315,-0.0292548239231109,-0.0224128980189561
1768731777773,0.2097320556640625,-0.2552642822265625,-0.95123291015625,-0.0686530992388725,-0.0133312512189149,-0.0219460446387529
1768731777785,0.210113525390625,-0.2554168701171875,-0.956024169921875,-0.0591650530695915,-0.0017441042000427,-0.0206506829708814
1768731777793,0.20843505859375,-0.2563934326171875,-0.9541778564453124,-0.0490620844066143,0.0013619405217468,-0.0253857839852571
1768731777803,0.2056427001953125,-0.25689697265625,-0.95343017578125,-0.0355577282607555,-0.0040514669381082,-0.0256164129823446
1768731777813,0.2097930908203125,-0.2578582763671875,-0.9571380615234376,-0.0169779174029827,-0.0040290965698659,-0.0232435371726751
1768731777823,0.2110443115234375,-0.2595977783203125,-0.95782470703125,-0.0012085424968972,0.0003981425834354,-0.0223295409232378
1768731777833,0.20965576171875,-0.2570343017578125,-0.9563446044921876,0.0066326027736067,0.0071601746603846,-0.0186096373945474
1768731777843,0.213897705078125,-0.2557830810546875,-0.9527587890625,0.0129861058667302,0.0108297448605299,-0.0163384936749935
1768731777853,0.2126617431640625,-0.2557373046875,-0.9478759765625,0.0144260767847299,0.0085996137931942,-0.0161414183676242
1768731777864,0.211700439453125,-0.25732421875,-0.94384765625,0.0209180656820535,0.0023435817565768,-0.0109650334343314
1768731777874,0.2158203125,-0.25360107421875,-0.9452056884765624,0.0286646671593189,-0.0031854070257395,-0.0093610109761357
1768731777885,0.2161865234375,-0.2555084228515625,-0.9465179443359376,0.0329933688044548,0.0018559569725766,-0.0084885591641068
1768731777894,0.2121429443359375,-0.259368896484375,-0.94415283203125,0.0282721184194087,0.0154979992657899,-0.010293117724359
1768731777904,0.209930419921875,-0.2633056640625,-0.9402313232421876,0.0282260458916425,0.0185718201100826,-0.0099642174318432
1768731777914,0.2112884521484375,-0.2614898681640625,-0.9334259033203124,0.0277943462133407,0.0101237408816814,-0.0015379755059257
1768731777924,0.2131805419921875,-0.2549896240234375,-0.9266357421875,0.0172314513474702,0.0002066612942144,0.0021145499777048
1768731777934,0.21142578125,-0.26165771484375,-0.922210693359375,0.0060379188507795,-0.0026386599056422,-0.0043657198548316
1768731777944,0.2090606689453125,-0.261383056640625,-0.92413330078125,-0.0009001484140753,-0.0005845638806931,0.0004719121498055
1768731777954,0.2143707275390625,-0.2510223388671875,-0.9243927001953124,-0.0057114153169095,-0.0036701022181659,0.0076350164599716
1768731777964,0.2173309326171875,-0.2433013916015625,-0.927734375,-0.0106145609170198,0.0019755328539758,0.0066895941272377
1768731777974,0.214141845703125,-0.247650146484375,-0.93353271484375,-0.0094536887481808,0.0022021678742021,0.0044733118265867
1768731777984,0.2121429443359375,-0.2508544921875,-0.937652587890625,-0.0112992599606513,0.0134186036884784,0.0023723437916487
1768731777994,0.21038818359375,-0.249755859375,-0.9379425048828124,-0.0130990240722894,0.0245825741440057,0.0023049658630043
1768731778004,0.2108612060546875,-0.24835205078125,-0.933990478515625,-0.0204639956355094,0.0223039742559194,0.0078089209273457
1768731778014,0.211669921875,-0.2520904541015625,-0.9276275634765624,-0.031711857765913,0.0080667147412896,0.006223274860531
1768731778024,0.2111053466796875,-0.25933837890625,-0.9232025146484376,-0.0431948751211166,-0.0028146950062364,0.003287672298029
1768731778034,0.2069549560546875,-0.2620391845703125,-0.9253997802734376,-0.0559825748205184,-0.0033582460600882,-0.0039302930235862
1768731778044,0.205413818359375,-0.26580810546875,-0.92742919921875,-0.0679537504911422,-0.0003792341449297,-0.0076991985552012
1768731778055,0.206695556640625,-0.26385498046875,-0.9327545166015624,-0.0715897679328918,-0.0023478427901864,-0.013170663267374
1768731778065,0.2083740234375,-0.2595367431640625,-0.9403839111328124,-0.0691239461302757,-0.0030075078830122,-0.0124609302729368
1768731778075,0.2088470458984375,-0.2574005126953125,-0.944061279296875,-0.0653923228383064,0.0026208166964352,-0.0134963672608137
1768731778085,0.209259033203125,-0.254486083984375,-0.9477691650390624,-0.0515521392226219,-0.0057620154693722,-0.0068879998289048
1768731778095,0.2125396728515625,-0.2523345947265625,-0.9576263427734376,-0.0290564186871051,-0.0070254188030958,-0.0026378610637038
1768731778105,0.2109527587890625,-0.2521820068359375,-0.960205078125,-0.0095418393611907,-0.0038514635525643,0.0007523429812863
1768731778115,0.20928955078125,-0.2530364990234375,-0.9574127197265624,0.0048695900477468,-0.0049542784690856,0.002494316548109
1768731778125,0.2098236083984375,-0.2535247802734375,-0.9540557861328124,0.01592836715281,-0.0087836375460028,0.0038003309164196
1768731778135,0.209014892578125,-0.254974365234375,-0.954681396484375,0.0246193259954452,-0.006509032100439,0.0012133361306041
1768731778145,0.20684814453125,-0.2581024169921875,-0.9514923095703124,0.029284119606018,0.0042408178560435,-0.0031643679831176
1768731778155,0.2073211669921875,-0.25653076171875,-0.950042724609375,0.0309270229190588,0.0059071574360132,-0.0048397625796496
1768731778165,0.2110137939453125,-0.25823974609375,-0.94439697265625,0.0240483451634645,-0.0012354403734207,-0.0055950349196791
1768731778175,0.2087860107421875,-0.2611083984375,-0.93353271484375,0.014037256129086,0.000280164531432,-0.0112699652090668
1768731778185,0.208404541015625,-0.255126953125,-0.92657470703125,0.0072904033586382,-0.0093724625185132,-0.0050735883414745
1768731778195,0.2137603759765625,-0.25146484375,-0.9280853271484376,0.006507433950901,-0.0423690266907215,0.0009731190511956
1768731778205,0.210693359375,-0.25543212890625,-0.93072509765625,0.0196304265409708,-0.0673153921961784,0.0039859530515968
1768731778215,0.209320068359375,-0.2533416748046875,-0.9403076171875,0.0327342450618743,-0.0597107335925102,0.0028929917607456
1768731778225,0.212921142578125,-0.24908447265625,-0.945404052734375,0.0399205163121223,-0.0580108389258384,0.0025214808993041
1768731778235,0.2135467529296875,-0.25213623046875,-0.9486083984375,0.0344599708914756,-0.0463022515177726,-0.0007914914749562
1768731778245,0.2098236083984375,-0.2529754638671875,-0.947967529296875,0.0324729867279529,-0.0179070942103862,-0.0018461032304912
1768731778257,0.2087554931640625,-0.255035400390625,-0.9505615234375,0.0322143957018852,0.014968030154705,0.0035582494456321
1768731778265,0.2087554931640625,-0.2529296875,-0.94500732421875,0.0359119288623333,0.018042916432023,0.0094369109719991
1768731778276,0.2086639404296875,-0.25860595703125,-0.9382171630859376,0.0335449092090129,0.0125472173094749,0.0099895168095827
1768731778286,0.2104644775390625,-0.2572479248046875,-0.929046630859375,0.0251468978822231,0.0018229337874799,0.0097162770107388
1768731778296,0.2110443115234375,-0.2581939697265625,-0.9228515625,0.0113799534738063,-0.0062437811866402,0.0132353780791163
1768731778306,0.2136383056640625,-0.2592926025390625,-0.9219512939453124,-0.002633333671838,-0.0146748162806034,0.0112332133576273
1768731778316,0.2090606689453125,-0.2587127685546875,-0.9243927001953124,-0.0161520726978778,-0.0062475097365677,0.0116595858708024
1768731778326,0.2081451416015625,-0.2567596435546875,-0.929595947265625,-0.0267911348491907,-0.0059297946281731,0.0124305710196495
1768731778336,0.2103271484375,-0.2566680908203125,-0.9336090087890624,-0.0322058722376823,-0.0066246129572391,0.01011947914958
1768731778346,0.20697021484375,-0.2552947998046875,-0.9390106201171876,-0.0343017801642417,0.0039603868499398,0.0099250683560967
1768731778356,0.2063140869140625,-0.2571258544921875,-0.943572998046875,-0.0299938507378101,0.0103844637051224,0.0090054795145988
1768731778366,0.2045745849609375,-0.2598724365234375,-0.9457855224609376,-0.0243127960711717,0.0097157442942261,0.0079993372783064
1768731778376,0.204803466796875,-0.2596588134765625,-0.9459228515625,-0.0163198504596948,0.0071380706503987,0.0067519121803343
1768731778386,0.2037811279296875,-0.259002685546875,-0.9464111328125,-0.0114792892709374,0.0030136329587548,0.0103005748242139
1768731778396,0.202301025390625,-0.2597198486328125,-0.9468994140625,-0.0031534489244222,-0.000253799255006,0.0100100236013531
1768731778406,0.20343017578125,-0.258880615234375,-0.9469757080078124,0.0060850568115711,-0.0033467945177108,0.0090134683996438
1768731778416,0.204803466796875,-0.258331298828125,-0.94903564453125,0.0128335068002343,0.0006189186242409,0.007669371087104
1768731778426,0.2041473388671875,-0.2585601806640625,-0.946136474609375,0.0173499621450901,0.0047076698392629,0.0080462088808417
1768731778436,0.2043914794921875,-0.259033203125,-0.9417266845703124,0.015058577992022,7.084008393576369e-05,0.0097301248461008
1768731778446,0.20587158203125,-0.2597198486328125,-0.9358673095703124,0.008591890335083,-0.0041031320579349,0.0067079700529575
1768731778456,0.20501708984375,-0.260284423828125,-0.931182861328125,-0.0001259675191249,-0.0060712085105478,0.0039254995062947
1768731778466,0.2043609619140625,-0.2597198486328125,-0.92730712890625,-0.0088001498952507,-0.019541211426258,0.0032743564806878
1768731778477,0.2054290771484375,-0.2593841552734375,-0.927337646484375,-0.0104917893186211,-0.0273461360484361,0.0035542547702789
1768731778487,0.210296630859375,-0.25665283203125,-0.9342498779296876,-0.0073186331428587,-0.0288010220974683,0.0065721487626433
1768731778497,0.2100677490234375,-0.255218505859375,-0.9412384033203124,-0.005976399872452,-0.016410132870078,0.0086163915693759
1768731778507,0.2073974609375,-0.2539215087890625,-0.9433746337890624,-0.0060240705497562,0.0014436995843425,0.0098568918183445
1768731778517,0.2088775634765625,-0.2520294189453125,-0.940948486328125,-0.0067204870283603,0.0116867497563362,0.0136231342330574
1768731778527,0.2100830078125,-0.2535400390625,-0.9396514892578124,-0.0113051189109683,0.0145645616576075,0.0157952085137367
1768731778537,0.2060089111328125,-0.25885009765625,-0.9314117431640624,-0.0248704627156257,0.0126340361312031,0.0137831903994083
1768731778547,0.2029571533203125,-0.26104736328125,-0.924774169921875,-0.0379404574632644,0.0002753708686213,0.0087663270533084
1768731778557,0.19989013671875,-0.264556884765625,-0.9263153076171876,-0.0414792671799659,-0.0091373054310679,0.0031372036319226
1768731778567,0.2000579833984375,-0.264251708984375,-0.9314117431640624,-0.0473344922065734,-0.0083151878789067,0.0002202434261562
1768731778577,0.199737548828125,-0.2586669921875,-0.9346160888671876,-0.0573130920529365,-0.0072541842237114,0.0002450108295306
1768731778587,0.1984405517578125,-0.262420654296875,-0.93524169921875,-0.0610316619277,-0.0056248623877763,-0.0126841031014919
1768731778597,0.20025634765625,-0.2622528076171875,-0.9425506591796876,-0.0548123829066753,0.0074075823649764,-0.0079316925257444
1768731778607,0.20574951171875,-0.2472991943359375,-0.9483489990234376,-0.0447727963328361,0.0090757869184017,0.0048291101120412
1768731778618,0.2111663818359375,-0.2403411865234375,-0.9518585205078124,-0.0299576334655284,0.0134172718971967,0.0101873902603983
1768731778628,0.20916748046875,-0.24609375,-0.9528656005859376,-0.0219582952558994,0.0199702456593513,0.0020993698853999
1768731778637,0.20245361328125,-0.2540283203125,-0.952972412109375,-0.0094089480116963,0.0286215245723724,-0.0040647825226187
1768731778647,0.2022705078125,-0.2492828369140625,-0.95037841796875,-0.0012855078093707,0.0244643297046422,-0.0046916906721889
1768731778657,0.2038726806640625,-0.24774169921875,-0.944580078125,0.0092877745628356,0.0121671836823225,-0.0003107908996753
1768731778668,0.2093963623046875,-0.2484588623046875,-0.9458465576171876,0.0167377013713121,0.001365668955259,0.0021009678021073
1768731778677,0.2095947265625,-0.2541351318359375,-0.946044921875,0.0196370836347341,0.010032127611339,0.0010740528814494
1768731778688,0.2077178955078125,-0.2576904296875,-0.944610595703125,0.0195161774754524,0.0173382442444562,0.0023923176340758
1768731778698,0.2063446044921875,-0.2618255615234375,-0.940185546875,0.0129874376580119,0.0157067906111478,0.0044690505601465
1768731778708,0.2058258056640625,-0.2617950439453125,-0.9350128173828124,0.0092179989442229,0.0073543190956115,0.0030509172938764
1768731778718,0.2066650390625,-0.26055908203125,-0.93548583984375,0.0058770640753209,-0.0046301716938614,0.0015851134667173
1768731778728,0.2079315185546875,-0.257598876953125,-0.93524169921875,0.0019329222850501,-0.0108265485614538,0.0058661447837948
1768731778738,0.209320068359375,-0.256591796875,-0.9341888427734376,-0.0024090954102575,-0.0159179791808128,0.0092448974028229
1768731778748,0.2075653076171875,-0.2576141357421875,-0.9402313232421876,-0.0022109562996774,-0.0074286214075982,0.0091293165460228
1768731778758,0.2064056396484375,-0.2542724609375,-0.9452056884765624,0.0051305796951055,-0.0003097256412729,0.0128201907500624
1768731778768,0.2044830322265625,-0.25286865234375,-0.9518280029296876,0.0157155804336071,0.009687514975667,0.0138463070616126
1768731778778,0.2046661376953125,-0.252960205078125,-0.954132080078125,0.0275887511670589,0.0169568788260221,0.0127853034064173
1768731778788,0.204681396484375,-0.25543212890625,-0.95452880859375,0.0337989777326583,0.0226975884288549,0.0123272398486733
1768731778798,0.2022857666015625,-0.2586517333984375,-0.947265625,0.0322548747062683,0.0222411230206489,0.0067175575532019
1768731778808,0.2000579833984375,-0.2613983154296875,-0.9356842041015624,0.0280018076300621,0.0155941396951675,0.002250104676932
1768731778818,0.19952392578125,-0.264129638671875,-0.9309539794921876,0.0221529733389616,0.0053854444995522,-0.004104730207473
1768731778828,0.199859619140625,-0.265106201171875,-0.928863525390625,0.0161139890551567,0.0072176991961896,-0.0068666944280266
1768731778838,0.2006683349609375,-0.2602691650390625,-0.9278717041015624,0.0070520504377782,0.010725081898272,-0.0063995760865509
1768731778848,0.2041015625,-0.254486083984375,-0.926361083984375,-0.002690591616556,-0.0031838091090321,-0.003466104157269
1768731778858,0.20556640625,-0.2553253173828125,-0.9228057861328124,-0.0135451033711433,-0.0036751623265445,-0.006613427773118
1768731778868,0.2067413330078125,-0.251922607421875,-0.925079345703125,-0.0263799428939819,-0.0019648801535367,-0.0087852356955409
1768731778879,0.20916748046875,-0.252685546875,-0.9254150390625,-0.0408960357308387,-0.0016519587952643,-0.0081759048625826
1768731778889,0.20941162109375,-0.252655029296875,-0.9279937744140624,-0.0511510670185089,-0.0038464034441858,-0.0076496638357639
1768731778899,0.2108612060546875,-0.2530364990234375,-0.9344329833984376,-0.0514506734907627,-0.0025278725661337,-0.0066315373405814
1768731778909,0.2127838134765625,-0.2537078857421875,-0.9409332275390624,-0.0479896292090415,-0.0034040524624288,-0.0042916839011013
1768731778919,0.2098236083984375,-0.2553253173828125,-0.94378662109375,-0.0406273193657398,-0.0128620024770498,0.001195226679556
1768731778929,0.2085723876953125,-0.257232666015625,-0.9464263916015624,-0.0329214632511138,-0.0107916612178087,0.0032695627305656
1768731778939,0.20806884765625,-0.25750732421875,-0.9512939453125,-0.022752983495593,0.0021129520609974,0.0065487129613757
1768731778949,0.20782470703125,-0.259002685546875,-0.9515838623046876,-0.0158948097378015,0.008266451768577,0.0074267573654651
1768731778959,0.205169677734375,-0.26007080078125,-0.9473419189453124,-0.0127999512478709,0.0086379628628492,0.0068941251374781
1768731778969,0.2056884765625,-0.2581329345703125,-0.9445037841796876,-0.0085450187325477,0.0017744642682373,0.0065782740712165
1768731778979,0.2084808349609375,-0.2574462890625,-0.9459075927734376,0.0036615801509469,-0.0077545922249555,0.0093562174588441
1768731778989,0.2112884521484375,-0.256134033203125,-0.951690673828125,0.0130670657381415,-0.0072366073727607,0.0118627846240997
1768731778999,0.210662841796875,-0.256317138671875,-0.95233154296875,0.0184735488146543,0.0094504933804273,0.0169907007366418
1768731779009,0.2097625732421875,-0.2542724609375,-0.9485015869140624,0.0167571417987346,0.0239125229418277,0.0193462669849395
1768731779019,0.2069244384765625,-0.2570343017578125,-0.944244384765625,0.0148910647258162,0.0230632405728101,0.0201350953429937
1768731779029,0.20574951171875,-0.2576904296875,-0.940765380859375,0.0139634860679507,0.018010426312685,0.0187268164008855
1768731779039,0.2058868408203125,-0.2587432861328125,-0.9387969970703124,0.0169547479599714,0.0080241039395332,0.0169843100011348
1768731779049,0.2045135498046875,-0.260162353515625,-0.938629150390625,0.0157848224043846,0.0049835732206702,0.0147579070180654
1768731779059,0.205230712890625,-0.257659912109375,-0.9373779296875,0.0138343228027224,0.0016993631143122,0.0132420361042022
1768731779070,0.2044830322265625,-0.2560882568359375,-0.937347412109375,0.0097210705280303,0.0050650658085942,0.0107535785064101
1768731779079,0.20391845703125,-0.2548675537109375,-0.9389801025390624,0.0037223002873361,0.0144505780190229,0.0077308900654315
1768731779090,0.2049713134765625,-0.254180908203125,-0.93768310546875,0.0019805929623544,0.0176538284868001,0.0084566017612814
1768731779100,0.203460693359375,-0.256561279296875,-0.9371490478515624,-4.181162876193411e-05,0.0245500840246677,0.0074054519645869
1768731779110,0.202911376953125,-0.2590179443359375,-0.9356231689453124,-0.0058994344435632,0.0210267212241888,0.0032722260802984
1768731779120,0.2009429931640625,-0.2598876953125,-0.932403564453125,-0.0081783011555671,0.009706157259643,-0.0017145430902019
1768731779130,0.20135498046875,-0.2598114013671875,-0.9349517822265624,-0.0035129757598042,0.0033281524665653,-0.0025558357592672
1768731779140,0.2047119140625,-0.2607269287109375,-0.941070556640625,0.0014186658663675,0.0025976472534239,-0.002339054364711
1768731779150,0.2062530517578125,-0.2584381103515625,-0.94342041015625,0.0024407871533185,0.0097873834893107,0.0008580705034546
1768731779160,0.2061920166015625,-0.2555999755859375,-0.9398345947265624,-0.0018471685471013,0.0158308949321508,0.0028013791888952
1768731779170,0.206298828125,-0.2534332275390625,-0.9373321533203124,-0.0040991376154124,0.0139107555150985,0.0051492219790816
1768731779180,0.2061004638671875,-0.2580718994140625,-0.937713623046875,-0.0011763182701542,0.0092603433877229,0.0056877131573855
1768731779190,0.2057342529296875,-0.261322021484375,-0.9380950927734376,-0.0044504082761704,0.0056488309055566,0.003548395819962
1768731779200,0.2025299072265625,-0.2643585205078125,-0.935089111328125,-0.0142689505591988,0.0100678140297532,-0.0045553371310234
1768731779210,0.201385498046875,-0.26568603515625,-0.934722900390625,-0.0173148084431886,0.0107170930132269,-0.0114867463707923
1768731779220,0.203704833984375,-0.2646942138671875,-0.9376983642578124,-0.0170165337622165,0.0044402885250747,-0.0084398239850997
1768731779230,0.205780029296875,-0.2597198486328125,-0.9380645751953124,-0.0198605228215456,-0.0052610747516155,-0.0052205948159098
1768731779240,0.202880859375,-0.25823974609375,-0.937774658203125,-0.0239623244851827,-0.0003195793251506,-0.0138460407033562
1768731779250,0.1993560791015625,-0.2680511474609375,-0.94329833984375,-0.0187939275056123,0.0175140127539634,-0.0274990014731884
1768731779260,0.2021942138671875,-0.259521484375,-0.94720458984375,-0.0099756689742207,0.0173502285033464,-0.0157078560441732
1768731779270,0.2088623046875,-0.24664306640625,-0.9447021484375,-0.0017819210188463,0.0145634962245821,-0.0070251524448394
1768731779281,0.21197509765625,-0.2426910400390625,-0.94305419921875,0.0079338233917951,0.0107682254165411,-0.0050096721388399
1768731779290,0.2117462158203125,-0.25091552734375,-0.94732666015625,0.0200504064559936,0.013161608017981,-0.0107754161581397
1768731779301,0.2087249755859375,-0.2567901611328125,-0.9502105712890624,0.0245772488415241,0.0277014020830392,-0.0097919106483459
1768731779311,0.207550048828125,-0.25201416015625,-0.942718505859375,0.0222312696278095,0.0280236452817916,-0.0023337281309068
