timestamp_ms,acc_x,acc_y,acc_z,gyro_x,gyro_y,gyro_z
1769252609962,-0.0948944091796875,-0.98663330078125,-0.1247711181640625,0.0180668849498033,0.0012748552253469,0.0008969526388682
1769252609970,-0.0950775146484375,-0.9853668212890624,-0.124969482421875,0.0114390756934881,0.0035673042293637,-0.0016977651976048
1769252609980,-0.0955352783203125,-0.98431396484375,-0.1208648681640625,-0.0040109870024025,-0.0086150597780942,-0.0059292619116604
1769252609990,-0.0983734130859375,-0.985321044921875,-0.119720458984375,-0.0160828288644552,-0.011192999780178,-0.0085740471258759
1769252610008,-0.0977020263671875,-0.9885711669921876,-0.123504638671875,-0.028406873345375,-0.0073178340680897,-0.0047604003921151
1769252610010,-0.09344482421875,-0.9876708984375,-0.123016357421875,-0.028406873345375,-0.0073178340680897,-0.0047604003921151
1769252610020,-0.0917816162109375,-0.9852294921875,-0.12322998046875,-0.0536592341959476,-0.0040346891619265,-0.0006980145117267
1769252610030,-0.087554931640625,-0.9840850830078124,-0.1241607666015625,-0.066054381430149,0.0102395880967378,0.0038434739690274
1769252610040,-0.0875396728515625,-0.9868011474609376,-0.1287384033203125,-0.0760830491781234,0.0190269537270069,0.0025659557431936
1769252610050,-0.0886383056640625,-0.985595703125,-0.1297607421875,-0.08079444617033,0.0237066615372896,0.0057755974121391
1769252610060,-0.0923919677734375,-0.9825592041015624,-0.13226318359375,-0.0861841514706611,0.0240712482482194,0.0036991306114941
1769252610070,-0.0956878662109375,-0.9849853515625,-0.1337432861328125,-0.0856011882424354,0.0191976632922887,0.002412024885416
1769252610080,-0.0966033935546875,-0.981597900390625,-0.1396331787109375,-0.0767784044146537,0.0179872568696737,-0.0005406216951087
1769252610090,-0.0957794189453125,-0.9795074462890624,-0.1469879150390625,-0.06767039000988,0.0151453968137502,-0.0037342845462262
1769252610101,-0.0967864990234375,-0.977691650390625,-0.1502685546875,-0.0500996522605419,0.0122020710259675,-0.0088012143969535
1769252610110,-0.0937652587890625,-0.9825286865234376,-0.1553802490234375,-0.0289024878293275,0.0048405616544187,-0.0074904067441821
1769252610120,-0.08984375,-0.983673095703125,-0.1529388427734375,-0.0106955207884311,0.0017065536230802,-0.0074914721772074
1769252610130,-0.0886993408203125,-0.9893646240234376,-0.1486053466796875,0.0032234902027994,-0.0005395564367063,-0.0075322184711694
1769252610140,-0.087249755859375,-0.993377685546875,-0.14495849609375,0.0096334526315331,-0.0023534353822469,-0.0050546796992421
1769252610151,-0.0803680419921875,-0.997650146484375,-0.1428985595703125,0.0121064642444252,0.0037734329234808,-0.0044016726315021
1769252610161,-0.0767974853515625,-0.9873046875,-0.14178466796875,0.0143525740131735,0.0163267757743597,-0.0004892227007076
1769252610171,-0.077423095703125,-0.98553466796875,-0.1381988525390625,0.0196898151189088,0.0198006033897399,0.0009392969077453
1769252610181,-0.082489013671875,-0.985443115234375,-0.1353607177734375,0.0337907187640666,0.0200173836201429,0.0053263222798705
1769252610191,-0.087127685546875,-0.9736785888671876,-0.13336181640625,0.0466215647757053,0.0116523951292037,0.0052134040743112
1769252610201,-0.0914764404296875,-0.976318359375,-0.1313018798828125,0.0521119385957717,0.0044658547267317,0.0011789813870564
1769252610211,-0.091400146484375,-0.988006591796875,-0.132415771484375,0.0635976195335388,0.0046719834208488,0.0005099953268654
1769252610221,-0.0841827392578125,-0.9900665283203124,-0.1350250244140625,0.0693934559822082,0.0007062703371047,0.0022069616243243
1769252610231,-0.0836639404296875,-0.98486328125,-0.132568359375,0.0737836733460426,-0.004931641742587,0.0030541131272912
1769252610241,-0.0903778076171875,-0.9816131591796876,-0.1285858154296875,0.0734079033136367,-0.0157427433878183,0.004954544827342
1769252610251,-0.0925140380859375,-0.9757080078125,-0.1258087158203125,0.0700677707791328,-0.0176572911441326,0.0093277217820286
1769252610261,-0.0926361083984375,-0.982391357421875,-0.1251678466796875,0.0616599023342132,-0.0139491045847535,0.0121863586828112
1769252610271,-0.0911102294921875,-0.9875946044921876,-0.124664306640625,0.0557263791561126,-0.0136734675616025,0.0169491562992334
1769252610281,-0.0902099609375,-0.9904022216796876,-0.1235198974609375,0.0439362972974777,-0.0184967182576656,0.0182117614895105
1769252610291,-0.0888214111328125,-0.99053955078125,-0.1190643310546875,0.0232001282274723,-0.0096869822591543,0.0236880183219909
1769252610301,-0.0885772705078125,-0.9880218505859376,-0.1143798828125,0.001931590726599,0.0045153894461691,0.0262513104826211
1769252610311,-0.0913848876953125,-0.9852752685546876,-0.110931396484375,-0.0185513142496347,0.0141531033441424,0.0292183384299278
1769252610321,-0.0958709716796875,-0.982086181640625,-0.11236572265625,-0.0340879298746585,0.0186104364693164,0.0272358823567628
1769252610331,-0.097869873046875,-0.98040771484375,-0.115692138671875,-0.0472529977560043,0.0157062578946352,0.026340527459979
1769252610341,-0.1009063720703125,-0.9820556640625,-0.117462158203125,-0.0552390217781066,0.0106169581413269,0.0227154325693845
1769252610351,-0.1023101806640625,-0.984619140625,-0.1213836669921875,-0.0629360899329185,0.011902998201549,0.017029583454132
1769252610361,-0.105316162109375,-0.9855499267578124,-0.11981201171875,-0.0739290863275528,0.0248321127146482,0.0071157002821564
1769252610371,-0.1040802001953125,-0.9856719970703124,-0.1177978515625,-0.0893431976437568,0.0347838141024112,0.0067045078612864
1769252610382,-0.0995941162109375,-0.9870758056640624,-0.1173553466796875,-0.0951374322175979,0.041708830744028,0.0021060276776552
1769252610392,-0.0949859619140625,-0.9922332763671876,-0.126556396484375,-0.0879122763872146,0.0408539548516273,-0.0038394792936742
1769252610402,-0.093292236328125,-0.9934844970703124,-0.1351318359375,-0.0757325813174247,0.0410963036119937,-0.0043646548874676
1769252610412,-0.08349609375,-0.9838714599609376,-0.1373291015625,-0.0648242682218551,0.0149009190499782,0.0013116068439558
1769252610422,-0.07861328125,-0.9878082275390624,-0.1425323486328125,-0.0467960014939308,0.0013696637470275,0.0095176054164767
1769252610432,-0.0771484375,-0.9838104248046876,-0.146209716796875,-0.0289379078894853,0.0091849761083722,0.014797587879002
1769252610442,-0.0793914794921875,-0.98101806640625,-0.1417083740234375,-0.0210179332643747,0.0167587399482727,0.0186780802905559
1769252610452,-0.0841522216796875,-0.9875030517578124,-0.137725830078125,-0.0160247720777988,0.020395552739501,0.0216584242880344
1769252610462,-0.08587646484375,-0.9837646484375,-0.13604736328125,-0.0155549915507435,0.0160492733120918,0.0177102871239185
1769252610472,-0.0898895263671875,-0.9838104248046876,-0.134765625,-0.0143302036449313,0.0129666645079851,0.0224142279475927
1769252610482,-0.087799072265625,-0.98291015625,-0.137115478515625,-0.0112222945317626,0.0110049806535243,0.0217383187264204
1769252610492,-0.088134765625,-0.986724853515625,-0.1417694091796875,-0.0098808603361248,0.0111133707687258,0.0229828134179115
1769252610502,-0.093292236328125,-0.987823486328125,-0.1410064697265625,-0.0085330344736576,0.0168050788342952,0.0181957818567752
1769252610512,-0.0982818603515625,-0.98486328125,-0.13836669921875,-0.0115767614915966,0.0184636954218149,0.0148002514615654
1769252610522,-0.0987548828125,-0.983734130859375,-0.1375274658203125,-0.0139190116897225,0.0175270624458789,0.0120851583778858
1769252610532,-0.100616455078125,-0.983612060546875,-0.1380767822265625,-0.0133392410352826,0.0183470491319894,0.0074981302022933
1769252610542,-0.1052703857421875,-0.9859771728515624,-0.1410064697265625,-0.0049998187460005,0.014642059803009,-0.0006370281334966
1769252610552,-0.10723876953125,-0.9850311279296876,-0.1467742919921875,0.0080683128908276,0.0019275959348306,-0.0056363139301538
1769252610562,-0.1001129150390625,-0.978271484375,-0.150848388671875,0.0176485013216733,-0.0133680030703544,-0.0085141258314251
1769252610572,-0.0980987548828125,-0.9802093505859376,-0.1489105224609375,0.0260081645101308,-0.0126521456986665,-0.0070437947288155
1769252610583,-0.0948486328125,-0.979522705078125,-0.1405029296875,0.0230294186621904,-0.003507649526,-0.0066166236065328
1769252610593,-0.0956573486328125,-0.980804443359375,-0.13671875,0.0247024167329072,0.0067215519957244,-0.009033708833158
1769252610603,-0.099334716796875,-0.9856109619140624,-0.1349639892578125,0.024735439568758,0.0106129627674818,-0.0031433289404958
1769252610613,-0.0955963134765625,-0.98175048828125,-0.1361541748046875,0.0309866778552532,0.0057745319791138,-0.0047039412893354
1769252610623,-0.09674072265625,-0.9847259521484376,-0.13885498046875,0.0381013117730617,-0.0041249701753258,-0.0038165762089192
1769252610633,-0.0948486328125,-0.9821624755859376,-0.1382293701171875,0.0412174761295318,-0.013153619132936,-0.0046629286371171
1769252610643,-0.0952606201171875,-0.985137939453125,-0.135101318359375,0.0444952957332134,-0.0180415846407413,-0.007848335430026
1769252610653,-0.0952911376953125,-0.984344482421875,-0.1298675537109375,0.0354946106672287,-0.0148433949798345,0.0015092133544385
1769252610663,-0.088134765625,-0.9835968017578124,-0.124908447265625,0.0270212311297655,-0.0051590758375823,0.0039252331480383
1769252610673,-0.0871429443359375,-0.9948577880859376,-0.1227264404296875,0.0146921267732977,0.0025957829784601,0.0038839541375637
1769252610683,-0.087921142578125,-0.99993896484375,-0.1215057373046875,0.0035222969017922,0.0074062510393559,0.0018458369886502
1769252610693,-0.0878753662109375,-0.9893646240234376,-0.12518310546875,-0.0032011196017265,0.0140164829790592,0.0014772554859519
1769252610703,-0.0894012451171875,-0.9808197021484376,-0.12835693359375,-0.0058147460222244,0.0076158419251441,-0.0019212043844163
1769252610713,-0.0958709716796875,-0.9846954345703124,-0.1304931640625,0.0009920274605974,0.0055489623919129,-0.0046509443782269
1769252610723,-0.0998992919921875,-0.9714813232421876,-0.12567138671875,0.0084073329344391,0.0037766287568956,-0.0087412940338253
1769252610733,-0.10296630859375,-0.9717864990234376,-0.12432861328125,0.0106624979525804,0.0001280980504816,-0.0158506017178297
1769252610743,-0.1027374267578125,-0.9864349365234376,-0.124481201171875,0.0099402489140629,0.006330067757517,-0.0234496649354696
1769252610753,-0.0965576171875,-0.990753173828125,-0.1257171630859375,0.013776266016066,0.0057915765792131,-0.0221095625311136
1769252610764,-0.0892333984375,-0.9873809814453124,-0.1295013427734375,0.0241005420684814,-0.0068773473612964,-0.0194919425994157
1769252610773,-0.0909271240234375,-0.9847259521484376,-0.1329803466796875,0.0291285905987024,-0.0230741593986749,-0.0174655430018901
1769252610784,-0.094879150390625,-0.9756927490234376,-0.12890625,0.0259610265493392,-0.03080371953547,-0.01590146869421
1769252610794,-0.0987396240234375,-0.979248046875,-0.12896728515625,0.0222283396869897,-0.0205942243337631,-0.0101019022986292
1769252610805,-0.093109130859375,-0.9857330322265624,-0.130126953125,0.0165555402636528,-0.0164847001433372,-0.0028828717768192
1769252610814,-0.0863800048828125,-0.985504150390625,-0.1275482177734375,0.0087418258190155,-0.018933743238449,0.0057734670117497
1769252610824,-0.0867767333984375,-0.990386962890625,-0.1258544921875,-0.0015347796725109,-0.0095556881278753,0.01011947914958
1769252610834,-0.08734130859375,-0.9913330078125,-0.1261444091796875,-0.0150242233648896,0.003123888047412,0.0137389814481139
1769252610844,-0.08819580078125,-0.98681640625,-0.121337890625,-0.0289003569632768,0.0040959417819976,0.0132244592532515
1769252610854,-0.096771240234375,-0.9830322265625,-0.1212615966796875,-0.0385471247136592,0.0036615801509469,0.0107426587492227
1769252610864,-0.1022491455078125,-0.98150634765625,-0.1223907470703125,-0.0468836203217506,0.0032953955233097,0.0064206151291728
1769252610874,-0.103302001953125,-0.9824066162109376,-0.12347412109375,-0.0524749271571636,0.0068480521440505,0.0031587753910571
1769252610884,-0.102325439453125,-0.984649658203125,-0.128570556640625,-0.054664310067892,0.0088004153221845,0.0017534252256155
1769252610894,-0.098419189453125,-0.9838714599609376,-0.1300048828125,-0.0615773424506187,0.0139853237196803,-0.0015534218400716
1769252610904,-0.0991973876953125,-0.9893646240234376,-0.12542724609375,-0.0626468658447265,0.0224350020289421,-0.0081788338720798
1769252610914,-0.0999603271484375,-0.991546630859375,-0.128814697265625,-0.0649060308933258,0.0202056691050529,-0.0119799636304378
1769252610924,-0.0942535400390625,-0.989837646484375,-0.131011962890625,-0.0552496723830699,0.0103285377845168,-0.0114278905093669
1769252610934,-0.0916595458984375,-0.99169921875,-0.1390533447265625,-0.0386493913829326,0.0018346516881138,-0.0107085704803466
1769252610944,-0.0862579345703125,-0.9819183349609376,-0.1482696533203125,-0.0198240391910076,-0.0107844704762101,-0.0067484499886631
1769252610954,-0.082977294921875,-0.986907958984375,-0.1488037109375,-0.0012415656819939,-0.0112872757017612,-0.0038472025189548
1769252610964,-0.0833587646484375,-0.98468017578125,-0.1456146240234375,0.0112204300239682,-0.0032344090286642,0.0012671320000663
1769252610974,-0.0803375244140625,-0.9762420654296876,-0.1370086669921875,0.0185712873935699,-0.0063891895115375,0.006164685357362
1769252610984,-0.083099365234375,-0.9835662841796876,-0.131378173828125,0.0189553145319223,-0.0070943948812782,0.0059686764143407
1769252610994,-0.0871734619140625,-0.9867706298828124,-0.13092041015625,0.0164026748389005,-0.0031353395897895,0.0024913870729506
1769252611005,-0.090484619140625,-0.98431396484375,-0.1324005126953125,0.0164016094058752,-0.0065154237672686,0.0045838328078389
1769252611015,-0.0894317626953125,-0.98358154296875,-0.1344451904296875,0.0151826813817024,-0.0107708889991045,0.0059630838222801
1769252611025,-0.09185791015625,-0.985626220703125,-0.13494873046875,0.0107543766498565,-0.011813249439001,0.0027510453946888
1769252611035,-0.0969085693359375,-0.985382080078125,-0.1304779052734375,0.0055899750441312,-0.0084262415766716,-0.002845321316272
1769252611045,-0.100921630859375,-0.985321044921875,-0.1298675537109375,-0.003132942598313,-0.0027848675381392,-0.0054970309138298
1769252611066,-0.097625732421875,-0.9848175048828124,-0.1327362060546875,-0.0077681746333837,0.0016929714474827,-0.0076597840525209
1769252611107,-0.0936126708984375,-0.98114013671875,-0.136260986328125,-0.0194237660616636,0.003067961661145,-0.011151454411447
1769252611115,-0.094512939453125,-0.9852142333984376,-0.1380462646484375,-0.013545636087656,-0.0014676681021228,-0.0122563997283577
1769252611125,-0.0966339111328125,-0.985382080078125,-0.1392364501953125,-0.0028394623659551,-0.0099831251427531,-0.0151818823069334
1769252611135,-0.099853515625,-0.98614501953125,-0.141204833984375,0.0013369068037718,-0.0165129303932189,-0.0139589589089155
1769252611145,-0.0955810546875,-0.9801483154296876,-0.1395111083984375,0.008756473660469,-0.0159249044954776,-0.0131008885800838
1769252611155,-0.0962982177734375,-0.9818115234375,-0.1415863037109375,0.0129522839561104,-0.0064126253128051,-0.0093966973945498
1769252611165,-0.0890045166015625,-0.979522705078125,-0.13800048828125,0.01323511172086,-0.0023294670972973,-0.0030567762441933
1769252611175,-0.088653564453125,-0.9809417724609376,-0.132049560546875,0.0176202729344367,-0.0073705646209418,0.0002170476218452
1769252611185,-0.0908355712890625,-0.9822845458984376,-0.1287384033203125,0.0191297531127929,-0.0078837554901838,0.0029499835800379
1769252611195,-0.0880279541015625,-0.985748291015625,-0.12896728515625,0.0190565157681703,-0.0031662322580814,0.0067196879535913
1769252611205,-0.0873565673828125,-0.9962615966796876,-0.1293792724609375,0.0150109073147177,0.0017302557826042,0.0093514239415526
1769252611215,-0.0824737548828125,-0.998504638671875,-0.129302978515625,0.0112944664433598,0.0054349792189896,0.0094558196142315
1769252611225,-0.083526611328125,-0.989349365234375,-0.130767822265625,0.0092907035723328,0.0113607784733176,0.0036751623265445
1769252611236,-0.0907745361328125,-0.98486328125,-0.130126953125,0.0050733219832181,0.0100105563178658,0.0044794371351599
1769252611246,-0.0960235595703125,-0.9800262451171876,-0.1236114501953125,0.0036264264490455,0.0109818112105131,0.0009443568997085
1769252611256,-0.1019287109375,-0.96868896484375,-0.11981201171875,0.0068973209708929,0.0079751024022698,-0.0042136535048484
1769252611266,-0.1078338623046875,-0.9754486083984376,-0.1188812255859375,0.0089109372347593,0.0030360035598278,-0.0136276613920927
1769252611276,-0.10284423828125,-0.985198974609375,-0.1251373291015625,0.0120830284431576,0.0057915765792131,-0.0187153648585081
1769252611286,-0.094085693359375,-0.9858551025390624,-0.128204345703125,0.014723552390933,0.0058520301245152,-0.0190938003361225
1769252611296,-0.089691162109375,-0.98773193359375,-0.1314239501953125,0.0233007948845624,-0.0054413708858191,-0.019489012658596
1769252611306,-0.0905914306640625,-0.9835357666015624,-0.130859375,0.0244523454457521,-0.021711952984333,-0.0192938037216663
1769252611316,-0.0928192138671875,-0.9772186279296876,-0.124420166015625,0.014642059803009,-0.0346189625561237,-0.0173635445535182
1769252611326,-0.0937652587890625,-0.981231689453125,-0.1242218017578125,0.004228567238897,-0.0224483180791139,-0.0119551960378885
1769252611336,-0.090606689453125,-0.9868927001953124,-0.1268768310546875,-0.0040812944062054,-0.0085825687274336,-0.0041958102956414
1769252611346,-0.0858612060546875,-0.9923248291015624,-0.12646484375,-0.0157581903040409,-0.0054996940307319,0.0028213527984917
1769252611356,-0.0819549560546875,-0.9911956787109376,-0.1240997314453125,-0.0276683792471885,-0.0073633738793432,0.0092092109844088
1769252611366,-0.085205078125,-0.9909820556640624,-0.12261962890625,-0.0442649312317371,-0.0024698155466467,0.0076254289597272
1769252611376,-0.093902587890625,-0.987884521484375,-0.121795654296875,-0.0625203698873519,0.0006085322820581,0.0104446513578295
1769252611386,-0.09613037109375,-0.9814453125,-0.1198272705078125,-0.0763749331235885,-0.0005619269795715,0.0067995828576385
1769252611396,-0.1022186279296875,-0.979888916015625,-0.1238555908203125,-0.0836831778287887,0.0019006980583071,-0.0005067995516583
1769252611406,-0.1060638427734375,-0.980865478515625,-0.128753662109375,-0.0882422477006912,0.0057116816751658,-0.0073537868447601
1769252611416,-0.1069793701171875,-0.9828643798828124,-0.133087158203125,-0.0872624665498733,0.0104678208008408,-0.0167206563055515
1769252611427,-0.1061859130859375,-0.9825897216796876,-0.13525390625,-0.0864267647266388,0.0091048153117299,-0.0224547088146209
1769252611437,-0.1002197265625,-0.981414794921875,-0.136077880859375,-0.0861604511737823,0.0075481976382434,-0.0237532667815685
1769252611447,-0.094512939453125,-0.9851837158203124,-0.1379852294921875,-0.0818509235978126,0.0121200457215309,-0.0239785704761743
1769252611457,-0.0866851806640625,-0.9913482666015624,-0.1414031982421875,-0.068439245223999,0.0125727830454707,-0.0202541388571262
1769252611467,-0.0824432373046875,-0.9906768798828124,-0.14239501953125,-0.0548904128372669,0.0080265011638402,-0.0197257678955793
1769252611477,-0.0804443359375,-0.9834136962890624,-0.141693115234375,-0.0426454655826091,-0.0002197107824031,-0.0144718838855624
1769252611487,-0.078887939453125,-0.98876953125,-0.1428985595703125,-0.0272574536502361,-0.0063817328773438,-0.0078209051862359
1769252611497,-0.0766143798828125,-0.98565673828125,-0.147430419921875,-0.0073154373094439,-0.0040549291297793,-0.0013701963471248
1769252611507,-0.0781097412109375,-0.9765472412109376,-0.1471099853515625,0.0062019694596529,-0.0120811639353632,0.0047335023991763
1769252611517,-0.0813446044921875,-0.9828643798828124,-0.1407012939453125,0.0082550002261996,-0.0121685154736042,0.0102284029126167
1769252611527,-0.0842132568359375,-0.98272705078125,-0.1372833251953125,0.0046536074951291,-0.0050709252245724,0.0099999038502573
1769252611537,-0.086822509765625,-0.9840545654296876,-0.13629150390625,0.0052456283010542,-0.0010982876410707,0.0110619720071554
1769252611547,-0.08984375,-0.9867095947265624,-0.138824462890625,0.0039534624665975,-0.0055867792107164,0.0144167561084032
1769252611557,-0.0897674560546875,-0.98541259765625,-0.1423187255859375,0.0054613444954156,-0.0084440847858786,0.0101413177326321
1769252611567,-0.0924835205078125,-0.98748779296875,-0.14337158203125,0.0030975225381553,-0.0084440847858786,0.0045870286412537
1769252611577,-0.09564208984375,-0.9845733642578124,-0.141021728515625,-0.0005392901366576,-0.0004604605492204,0.005657619331032
1769252611587,-0.09490966796875,-0.983856201171875,-0.137115478515625,-0.0066264774650335,0.0058413776569068,0.0049838395789265
1769252611597,-0.0959014892578125,-0.9831390380859376,-0.1385040283203125,-0.0078360848128795,0.0071511198766529,0.0009262474486604
1769252611608,-0.097259521484375,-0.9856719970703124,-0.14251708984375,-0.0090177301317453,0.007267233915627,-0.0017608820926398
1769252611617,-0.0967254638671875,-0.9838409423828124,-0.14215087890625,-0.0093519566580653,0.0060304617509245,-0.003165166825056
1769252611627,-0.094940185546875,-0.9822540283203124,-0.14117431640625,-0.012262525036931,0.0130814472213387,-0.0021470405627042
1769252611638,-0.0908050537109375,-0.9813385009765624,-0.142181396484375,-0.0105743473395705,0.01678909920156,-0.0008886968716979
1769252611648,-0.0904388427734375,-0.985137939453125,-0.1448516845703125,-0.0032895365729928,0.0111613078042864,-0.0012373046483844
1769252611658,-0.0929718017578125,-0.9857025146484376,-0.147552490234375,0.0114542553201317,-0.0041223070584237,-0.0044008735567331
1769252611668,-0.097137451171875,-0.9862213134765624,-0.148834228515625,0.0224400609731674,-0.018043715506792,-0.0058917114511132
1769252611678,-0.0971832275390625,-0.984283447265625,-0.1490020751953125,0.0307528525590896,-0.0213529597967863,-0.0068456553854048
1769252611688,-0.0944976806640625,-0.9824676513671876,-0.1434173583984375,0.0344740860164165,-0.0114385429769754,-0.0102518387138843
1769252611698,-0.095855712890625,-0.9854583740234376,-0.1425933837890625,0.0369444340467453,-0.0070547135546803,-0.0111328121274709
1769252611708,-0.0966796875,-0.9814453125,-0.1365814208984375,0.0353755690157413,0.0024019049014896,-0.0101961782202124
1769252611718,-0.0906524658203125,-0.98138427734375,-0.1339111328125,0.0299610942602157,0.0068595041520893,0.0008796420879662
1769252611728,-0.07916259765625,-0.9840240478515624,-0.1317901611328125,0.0233279597014188,0.0162812359631061,0.0134633444249629
1769252611738,-0.0730743408203125,-0.997467041015625,-0.13409423828125,0.0188384018838405,0.0224030427634716,0.0213825199753046
1769252611748,-0.0717620849609375,-0.9975738525390624,-0.13580322265625,0.0191987287253141,0.0253559574484825,0.0192232299596071
1769252611758,-0.0793609619140625,-0.9837799072265624,-0.1301422119140625,0.0152085134759545,0.0233617816120386,0.0193878132849931
1769252611768,-0.0854339599609375,-0.9844512939453124,-0.1252593994140625,0.0157563257962465,0.0193041898310184,0.0201966147869825
1769252611778,-0.091064453125,-0.97265625,-0.1254425048828125,0.0224294085055589,0.0152979958802461,0.0192043203860521
1769252611788,-0.0980987548828125,-0.9691925048828124,-0.124237060546875,0.0251069515943527,0.0104140248149633,0.0127426935359835
1769252611798,-0.099884033203125,-0.9763336181640624,-0.12115478515625,0.0239615254104137,0.0089495526626706,0.0062491074204444
1769252611808,-0.0972442626953125,-0.98419189453125,-0.1251983642578125,0.0245197247713804,0.0106457201763987,-0.0015233281301334
1769252611818,-0.0953826904296875,-0.9866180419921876,-0.1282958984375,0.0261101629585027,0.0048597361892461,-0.0082616582512855
1769252611828,-0.0941925048828125,-0.9805755615234376,-0.130767822265625,0.0267277508974075,-0.0003608583356253,-0.0120223080739378
1769252611839,-0.1009674072265625,-0.9758148193359376,-0.1295928955078125,0.0158969406038522,-0.0064072990790009,-0.0140484413132071
1769252611848,-0.0994110107421875,-0.9740753173828124,-0.1236572265625,0.0035968653392046,-0.0139264678582549,-0.0126894302666187
1769252611858,-0.096405029296875,-0.9879150390625,-0.1266021728515625,0.0007084008539095,-0.0107866013422608,-0.0123384250327944
1769252611870,-0.08770751953125,-0.9958648681640624,-0.1324005126953125,-0.0063132895156741,-0.0116345519199967,-0.0062323296442627
1769252611879,-0.0837860107421875,-0.99462890625,-0.1283111572265625,-0.0173912402242422,-0.0156460721045732,-0.0047465520910918
1769252611889,-0.085174560546875,-0.9909515380859376,-0.1207122802734375,-0.0357963480055332,-0.0070493873208761,4.740426811622456e-05
1769252611899,-0.0887451171875,-0.986968994140625,-0.1169281005859375,-0.0556110627949237,0.007301322184503,0.0009291769238188
1769252611909,-0.09368896484375,-0.985198974609375,-0.1210174560546875,-0.0733426585793495,0.0102995093911886,0.0029249498620629
1769252611919,-0.0992584228515625,-0.9796600341796876,-0.121612548828125,-0.0850070342421531,0.008864065632224,0.0026397253386676
1769252611929,-0.103515625,-0.9773406982421876,-0.1244354248046875,-0.0947153270244598,0.0108523815870285,-0.000438888935605
1769252611939,-0.1045684814453125,-0.9789276123046876,-0.1295013427734375,-0.0983473435044288,0.0133711993694305,-0.0045066010206937
1769252611949,-0.1042327880859375,-0.9840545654296876,-0.134246826171875,-0.1002341955900192,0.0093652717769145,-0.0123765086755156
1769252611959,-0.1014251708984375,-0.983673095703125,-0.13482666015625,-0.1057605147361755,0.0117346867918968,-0.0153680369257926
1769252611969,-0.09869384765625,-0.988433837890625,-0.1384735107421875,-0.1044643595814704,0.0168234556913375,-0.014960840344429
1769252611979,-0.093658447265625,-0.9923553466796876,-0.1468353271484375,-0.0918630808591842,0.0216174107044935,-0.0118835577741265
1769252611989,-0.0871124267578125,-0.9937744140625,-0.153350830078125,-0.0712150558829307,0.0135150095447897,-0.0086976177990436
1769252611999,-0.08514404296875,-0.9892578125,-0.1568450927734375,-0.0483640693128109,0.0053255232051014,-0.0099554285407066
1769252612009,-0.08404541015625,-0.9840087890625,-0.15655517578125,-0.0330522246658802,0.0007028082036413,-0.002248773118481
1769252612019,-0.0792083740234375,-0.9876708984375,-0.1587066650390625,-0.0123346969485282,0.0033294840250164,0.0069607039913535
1769252612029,-0.078338623046875,-0.9786529541015624,-0.159576416015625,0.0105559714138507,-0.0022849922534078,0.0111378720030188
1769252612039,-0.0833282470703125,-0.9801025390625,-0.1556396484375,0.0262395925819873,-0.0125432219356298,0.0126992836594581
1769252612049,-0.086883544921875,-0.98297119140625,-0.1503753662109375,0.0319707170128822,-0.0152122424915432,0.0130446953698992
1769252612060,-0.08868408203125,-0.980743408203125,-0.142486572265625,0.0320889614522457,-0.0048384312540292,0.0111208278685808
1769252612070,-0.0897369384765625,-0.982269287109375,-0.14080810546875,0.0251383762806653,0.0024077638518065,0.0156830884516239
1769252612080,-0.0868377685546875,-0.98095703125,-0.138031005859375,0.0207689274102449,-0.0030964573379606,0.0115988655015826
1769252612090,-0.0936126708984375,-0.9848480224609376,-0.139495849609375,0.0227348729968071,-0.0013635384384542,0.0070363376289606
1769252612100,-0.096771240234375,-0.984466552734375,-0.1406707763671875,0.0228696297854185,-0.0045129926875233,0.0050866375677287
1769252612110,-0.0955963134765625,-0.984710693359375,-0.1407318115234375,0.0233242306858301,-0.0099527658894658,0.0046056709252297
1769252612120,-0.093017578125,-0.9822998046875,-0.1391143798828125,0.0188413318246603,-0.0108957905322313,0.0036898097023367
1769252612130,-0.0908355712890625,-0.985382080078125,-0.139801025390625,0.0183153580874204,-0.0017145430902019,0.0028964539524167
1769252612140,-0.091796875,-0.98468017578125,-0.139862060546875,0.0138945104554295,0.0041659828275442,0.0044440170750021
1769252612150,-0.0903472900390625,-0.9822235107421876,-0.137847900390625,0.0113541204482316,0.0015001586871221,0.0031084415968507
1769252612160,-0.0919647216796875,-0.98699951171875,-0.136962890625,0.0094211986288428,-0.004187820944935,0.0024559672456234
1769252612170,-0.0912933349609375,-0.985382080078125,-0.1364898681640625,0.0059532304294407,-0.003917243797332,0.002944124629721
1769252612180,-0.092193603515625,-0.9831085205078124,-0.1362762451171875,0.0018487664638087,7.98948312876746e-05,0.0054000918753445
1769252612190,-0.0915679931640625,-0.9859619140625,-0.1351318359375,-0.0030647658277302,0.0093799196183681,0.0050325756892561
1769252612200,-0.0947723388671875,-0.98443603515625,-0.1347198486328125,-0.0043124565854668,0.0122899552807211,0.002510828198865
1769252612210,-0.0970916748046875,-0.9837493896484376,-0.1338653564453125,-0.0032115059439092,0.0082962792366743,0.0006982808117754
1769252612220,-0.093902587890625,-0.979217529296875,-0.1347503662109375,-0.0066158245317637,0.0010261159623041,0.0024671524297446
1769252612230,-0.08807373046875,-0.97467041015625,-0.13299560546875,-0.0086520779877901,-0.002943325554952,0.0046320362016558
1769252612240,-0.088653564453125,-0.979827880859375,-0.1354217529296875,-0.0049236523918807,0.0011930961627513,0.0049380334094166
1769252612250,-0.0905303955078125,-0.989471435546875,-0.1372222900390625,-0.005551625508815,0.0036373452749103,0.0015989618841558
1769252612260,-0.0872650146484375,-0.998565673828125,-0.134124755859375,-0.0147842727601528,0.0003874899412039,0.0035100462846457
1769252612271,-0.081787109375,-0.9958648681640624,-0.1311492919921875,-0.0216634832322597,0.0024346618447452,0.0056403088383376
1769252612280,-0.08154296875,-0.9810028076171876,-0.136383056640625,-0.0234360843896865,0.002780872862786,-0.0036977990530431
1769252612291,-0.092437744140625,-0.9798431396484376,-0.1380767822265625,-0.0256739370524883,0.0076818880625069,-0.0055361790582537
1769252612301,-0.0967254638671875,-0.9799957275390624,-0.1345977783203125,-0.0209284517914056,0.0087663270533084,-0.0070880032144486
1769252612311,-0.0978240966796875,-0.9699554443359376,-0.13238525390625,-0.0185353346168994,0.0052919671870768,-0.00847923848778
1769252612321,-0.1026611328125,-0.9743804931640624,-0.1363067626953125,-0.0100856572389602,0.0034117756877094,-0.0169116053730249
1769252612331,-0.102203369140625,-0.9824981689453124,-0.1454315185546875,-0.004538026638329,0.0058520301245152,-0.0216717403382062
1769252612341,-0.0976715087890625,-0.985565185546875,-0.1467742919921875,-0.0003147856332361,0.0031076427549123,-0.0197550617158412
1769252612351,-0.0947418212890625,-0.9853363037109376,-0.150054931640625,0.0126612000167369,-0.0029358686879277,-0.0179323945194482
1769252612361,-0.0968780517578125,-0.9803619384765624,-0.1504058837890625,0.0185494497418403,-0.0143392579630017,-0.0139091573655605
1769252612371,-0.1000823974609375,-0.9799041748046876,-0.1438446044921875,0.0153043875470757,-0.0151299508288502,-0.0117173762992024
1769252612381,-0.097564697265625,-0.982513427734375,-0.143157958984375,0.0101298661902546,-0.0085748462006449,-0.0058954395353794
1769252612391,-0.0903472900390625,-0.9906158447265624,-0.1461334228515625,0.0101647535338997,-0.0052030179649591,-0.0011403656098991
1769252612401,-0.0870208740234375,-0.9904022216796876,-0.1465911865234375,0.0091769862920045,-0.0065335328690707,0.0087402286008
1769252612411,-0.0836181640625,-0.985565185546875,-0.141815185546875,0.0073199644684791,0.0013182647526264,0.013006879016757
1769252612421,-0.0867919921875,-0.988067626953125,-0.142242431640625,0.0074933362193405,0.0094121443107724,0.0206570755690336
1769252612431,-0.0892486572265625,-0.9834442138671876,-0.13665771484375,0.0075580510310828,0.0010860371403396,0.0219188816845417
1769252612441,-0.092529296875,-0.9803619384765624,-0.13006591796875,0.0096507631242275,-0.0032059133518487,0.0211377758532762
1769252612451,-0.097259521484375,-0.9803924560546876,-0.1327972412109375,0.0089258505031466,-0.0017270599491894,0.0209944974631071
1769252612461,-0.0971221923828125,-0.9802093505859376,-0.1321258544921875,0.0065963836386799,0.0035486621782183,0.018262093886733
1769252612472,-0.0994415283203125,-0.981964111328125,-0.129730224609375,-0.0001427454262739,0.0073223612271249,0.0142348622903227
1769252612481,-0.1004486083984375,-0.986907958984375,-0.127197265625,-0.0053415023721754,0.0072440644726157,0.0080526005476713
1769252612492,-0.1008148193359375,-0.989959716796875,-0.128326416015625,-0.0097455717623233,0.006425941362977,0.00145621644333
1769252612502,-0.09893798828125,-0.99053955078125,-0.13128662109375,-0.0121914185583591,0.0028791434597223,-0.0020248014479875
1769252612512,-0.092987060546875,-0.9932403564453124,-0.13238525390625,-0.018386997282505,-0.0018935075495392,0.002053297124803
1769252612522,-0.086761474609375,-0.9886322021484376,-0.1298675537109375,-0.0201627928763628,-0.0004037352045997,0.00355771696195
1769252612532,-0.085662841796875,-0.9832305908203124,-0.1297454833984375,-0.029153624549508,-0.0030083067249506,0.0076952041126787
1769252612542,-0.082855224609375,-0.995819091796875,-0.1316680908203125,-0.0322239808738231,0.0011243865592405,0.0104792723432183
1769252612552,-0.0819549560546875,-0.9828643798828124,-0.13311767578125,-0.0328096114099025,0.0098395813256502,0.0124825024977326
1769252612562,-0.085479736328125,-0.972686767578125,-0.1316070556640625,-0.0360775776207447,0.0039111184887588,0.0126665262505412
1769252612572,-0.090057373046875,-0.9829559326171876,-0.13043212890625,-0.0442462898790836,0.0038133803755044,0.0116768963634967
1769252612582,-0.0903167724609375,-0.9878692626953124,-0.1314849853515625,-0.0545564517378807,0.0085684545338153,0.0070469905622303
1769252612592,-0.0926361083984375,-0.9873809814453124,-0.1363067626953125,-0.0591011382639408,0.008021974004805,0.0048983520828187
1769252612602,-0.0936737060546875,-0.984039306640625,-0.141204833984375,-0.0610231384634971,0.0059428438544273,0.0007632619817741
1769252612612,-0.094940185546875,-0.9825286865234376,-0.1425018310546875,-0.0648112222552299,0.0039662458002567,-0.0025403893087059
1769252612622,-0.0996856689453125,-0.9820404052734376,-0.1435699462890625,-0.0625523254275322,0.0025228124577552,-0.0062666842713952
1769252612632,-0.099853515625,-0.979095458984375,-0.1448974609375,-0.0628615170717239,0.0025427863001823,-0.0101082939654588
1769252612642,-0.09942626953125,-0.9799346923828124,-0.14697265625,-0.0565953701734542,0.0054861116223037,-0.0103895235806703
1769252612653,-0.093963623046875,-0.98455810546875,-0.154449462890625,-0.045965626835823,0.0049942261539399,-0.0083713801577687
1769252612663,-0.088165283203125,-0.984375,-0.156890869140625,-0.0342349372804164,-0.0051156659610569,-0.0058658784255385
1769252612672,-0.087921142578125,-0.98248291015625,-0.1566162109375,-0.0221303366124629,-0.0124856978654861,-0.0039582564495503
1769252612682,-0.090576171875,-0.9828033447265624,-0.1591033935546875,-0.0108483862131834,-0.0061380537226796,-0.0008612662786617
1769252612692,-0.0889739990234375,-0.981536865234375,-0.155731201171875,-0.0037848844658583,-0.001874332781881,0.0018247979460284
1769252612703,-0.0926361083984375,-0.9833221435546876,-0.1538543701171875,0.0033414682839065,0.0008309062686748,0.0067700217477977
1769252612712,-0.0921783447265625,-0.9828948974609376,-0.152069091796875,0.0156540609896183,0.0013363742036744,0.0070869377814233
1769252612723,-0.0966339111328125,-0.98504638671875,-0.15380859375,0.0256049614399671,-0.0005137237603776,0.0071801487356424
1769252612733,-0.0991668701171875,-0.98260498046875,-0.1537628173828125,0.0372272618114948,-0.0040994039736688,0.0051201935857534
1769252612743,-0.099395751953125,-0.979034423828125,-0.151947021484375,0.0425067134201526,-0.0053188651800155,0.0063465791754424
1769252612753,-0.096466064453125,-0.9788055419921876,-0.1477813720703125,0.04453045129776,-0.0069726882502436,0.006330067757517
1769252612763,-0.09600830078125,-0.9800567626953124,-0.1443939208984375,0.0519449561834335,-0.0043537355959415,0.0070581757463514
1769252612773,-0.096343994140625,-0.9834442138671876,-0.1448516845703125,0.0550930798053741,-0.0054807853884994,0.0091809816658496
1769252612783,-0.0918731689453125,-0.992889404296875,-0.141143798828125,0.0543303489685058,-0.0103192161768674,0.0137283289805054
1769252612793,-0.0867919921875,-0.993316650390625,-0.1392364501953125,0.0516325682401657,-0.0116409435868263,0.0175054911524057
1769252612803,-0.0867767333984375,-0.984283447265625,-0.1385040283203125,0.0505752936005592,-0.0074957329779863,0.0148756187409162
1769252612813,-0.09130859375,-0.9811553955078124,-0.134674072265625,0.048508945852518,-0.007128216791898,0.0152993276715278
1769252612823,-0.0933990478515625,-0.9801788330078124,-0.1295318603515625,0.0511143170297145,-0.0066006449051201,0.01817580871284
1769252612833,-0.097320556640625,-0.977508544921875,-0.1260833740234375,0.0529942438006401,-0.0102545013651251,0.0154071860015392
1769252612843,-0.09893798828125,-0.97967529296875,-0.1288299560546875,0.0558962896466255,-0.0053428336977958,0.0081660505384206
1769252612853,-0.09747314453125,-0.9746856689453124,-0.128814697265625,0.0463493876159191,-0.0073961308225989,0.0064531057141721
1769252612863,-0.0977325439453125,-0.9887542724609376,-0.1252899169921875,0.0377617590129375,-0.0073623089119791,0.0082534020766615
1769252612873,-0.0984344482421875,-0.9865570068359376,-0.1265716552734375,0.0323869697749614,-0.006140184123069,0.0090606063604354
1769252612883,-0.1036376953125,-0.9744415283203124,-0.1229095458984375,0.0236219726502895,-0.0118665127083659,0.0035499937366694
1769252612894,-0.1102142333984375,-0.971832275390625,-0.12152099609375,0.0129466913640499,-0.0156585872173309,-0.0079772323369979
1769252612904,-0.1114044189453125,-0.9775390625,-0.122344970703125,-0.00579743552953,-0.0173068176954984,-0.0139416484162211
1769252612913,-0.1031341552734375,-0.9869384765625,-0.1285858154296875,-0.0236209072172641,-0.0137757332995533,-0.0153467319905757
1769252612924,-0.0940704345703125,-0.9914703369140624,-0.13299560546875,-0.0362405627965927,-0.0128044784069061,-0.0089157307520508
1769252612934,-0.086212158203125,-0.9863433837890624,-0.1323699951171875,-0.0514964796602726,-0.0075109130702912,0.0002008023438975
1769252612944,-0.0831756591796875,-0.9897613525390624,-0.1299285888671875,-0.061969093978405,0.0053433664143085,0.0071561802178621
1769252612954,-0.0848388671875,-0.9881744384765624,-0.1295318603515625,-0.069556176662445,0.0063164853490889,0.0108925951644778
1769252612964,-0.0944671630859375,-0.983367919921875,-0.12969970703125,-0.0732643604278564,0.0017212009988725,0.0096675409004092
1769252612974,-0.0998382568359375,-0.98193359375,-0.13531494140625,-0.0742787569761276,0.0055803875438869,0.0068294103257358
1769252612984,-0.10302734375,-0.9841461181640624,-0.1377105712890625,-0.0747474730014801,0.0081759048625826,-0.0007480819476768
1769252612994,-0.1068572998046875,-0.9837493896484376,-0.1421966552734375,-0.07478529214859,0.0072057149372994,-0.0048075383529067
1769252613004,-0.1016082763671875,-0.981292724609375,-0.1421966552734375,-0.0746758356690406,0.0087112002074718,-0.000844222086016
1769252613014,-0.0969696044921875,-0.9874725341796876,-0.14373779296875,-0.0715697929263114,0.0084986798465251,-0.0014370416756719
1769252613024,-0.0962677001953125,-0.9929656982421876,-0.1478118896484375,-0.0601083450019359,0.0065034395083785,0.0010109359864145
1769252613034,-0.092559814453125,-0.9926910400390624,-0.1522064208984375,-0.0471725724637508,-0.0018572885310277,0.0040128510445356
1769252613044,-0.0886993408203125,-0.9892120361328124,-0.154876708984375,-0.026954386383295,0.0015094797126948,0.0059819924645125
1769252613054,-0.0877227783203125,-0.9823150634765624,-0.152130126953125,-0.0135296573862433,-0.003115099389106,0.0065833339467644
1769252613064,-0.0858917236328125,-0.9917144775390624,-0.1490478515625,-0.0047904942184686,0.0026450515724718,0.0112523883581161
1769252613074,-0.0822296142578125,-0.986328125,-0.1505279541015625,0.0098286624997854,-0.0011350392596796,0.0191273558884859
1769252613084,-0.08392333984375,-0.96832275390625,-0.148529052734375,0.024413464590907,4.314320904086344e-05,0.0200426839292049
1769252613094,-0.086761474609375,-0.9771881103515624,-0.14306640625,0.0275013986974954,-0.0033265545498579,0.0222019758075475
1769252613104,-0.08966064453125,-0.9849700927734376,-0.1407012939453125,0.0288753230124712,0.0042016692459583,0.0218762699514627
1769252613115,-0.0927886962890625,-0.9837493896484376,-0.141998291015625,0.0263112317770719,0.0027683558873832,0.0198021996766328
1769252613125,-0.0982208251953125,-0.9819183349609376,-0.144012451171875,0.0260433182120323,-2.3169501218944788e-05,0.0132433669641613
1769252613135,-0.10467529296875,-0.9817352294921876,-0.1389617919921875,0.0237543322145938,-6.258428766159341e-05,0.0087676588445901
1769252613145,-0.1068878173828125,-0.9820709228515624,-0.138397216796875,0.0182868614792823,-0.0019845876377075,0.0013518205378204
1769252613155,-0.1052093505859375,-0.9834442138671876,-0.1384735107421875,0.0137168774381279,-0.0069425944238901,-0.0018908443162217
1769252613165,-0.1014862060546875,-0.98541259765625,-0.138641357421875,0.0067351344041526,-0.0148668307811021,-0.0013534184545278
1769252613175,-0.097747802734375,-0.98291015625,-0.1373748779296875,-0.0010602044640108,-0.0094877779483795,-0.0012167983222752
1769252613185,-0.09600830078125,-0.986297607421875,-0.1364288330078125,-0.0082158520817756,-0.0013438310706987,-0.0023414511233568
1769252613195,-0.0973052978515625,-0.9859771728515624,-0.14013671875,-0.0081119881942868,0.0023614249657839,-0.0022498385515064
1769252613205,-0.0963287353515625,-0.9823150634765624,-0.1426239013671875,-0.0071167652495205,-0.0025422535836696,0.0007446198142133
1769252613215,-0.095794677734375,-0.9796905517578124,-0.1422271728515625,-0.0081237060949206,-0.0025164207909256,0.0036224317736923
1769252613225,-0.09600830078125,-0.9830322265625,-0.142852783203125,-0.0095828520134091,-0.0004367584188003,0.0076025258749723
1769252613235,-0.0956573486328125,-0.9850616455078124,-0.1438446044921875,-0.0104747451841831,0.0028626318089663,0.0100931143388152
1769252613245,-0.0965423583984375,-0.9824371337890624,-0.13897705078125,-0.0136846527457237,0.0042642536573112,0.0115943383425474
1769252613255,-0.1015472412109375,-0.980072021484375,-0.1368255615234375,-0.0097889807075262,0.0107850031927227,0.0074384752660989
1769252613265,-0.10400390625,-0.981170654296875,-0.1423797607421875,-0.0004133225884288,0.0065788067877292,0.0044775726273655
1769252613275,-0.1023712158203125,-0.980682373046875,-0.1464080810546875,0.011077950708568,-0.004375307355076,-0.0014277206500992
1769252613285,-0.10113525390625,-0.980865478515625,-0.144500732421875,0.021825935691595,-0.0092172008007764,-0.002674879040569
1769252613296,-0.0979766845703125,-0.9811553955078124,-0.1413421630859375,0.0215375162661075,-0.0112039186060428,-0.0038725025951862
1769252613305,-0.096160888671875,-0.9929962158203124,-0.13946533203125,0.0215431079268455,-0.0043840957805514,-0.0033332123421132
1769252613315,-0.0928955078125,-0.9944610595703124,-0.13916015625,0.0224485844373703,0.0019078885670751,-0.0017033577896654
1769252613325,-0.0932769775390625,-0.97918701171875,-0.1391754150390625,0.0271610468626022,-0.0032463932875543,-0.0070267505943775
1769252613336,-0.098724365234375,-0.9802703857421876,-0.1400909423828125,0.0316865555942058,-0.0084504764527082,-0.0053769219666719
1769252613346,-0.09967041015625,-0.976104736328125,-0.136962890625,0.0356176495552063,-0.011248392984271,0.0004609931784216
1769252613356,-0.09869384765625,-0.97747802734375,-0.1327667236328125,0.0347353443503379,-0.0116803580895066,0.0024498419370502
1769252613366,-0.1022186279296875,-0.985107421875,-0.1322174072265625,0.0352341532707214,0.0019699402619153,-0.0041388184763491
1769252613376,-0.1050262451171875,-0.9737548828125,-0.1330718994140625,0.0298489760607481,-0.0021070931106805,-0.0065796058624982
1769252613386,-0.1036376953125,-0.9902496337890624,-0.1294403076171875,0.0243151932954788,-0.0042525357566773,0.000499875342939
1769252613396,-0.098419189453125,-0.9774322509765624,-0.129302978515625,0.0259445160627365,-0.0110872723162174,0.0050645335577428
1769252613406,-0.10101318359375,-0.9730072021484376,-0.1273956298828125,0.0157909467816352,-0.0124217821285128,0.0045771747827529
1769252613416,-0.1049041748046875,-0.9752655029296876,-0.1222076416015625,0.0018753979820758,-0.0047066044062376,-0.0024415859952569
1769252613426,-0.1058502197265625,-0.9800872802734376,-0.1210784912109375,-0.0177294630557298,0.0054205982014536,-0.0063218115828931
1769252613436,-0.1041717529296875,-0.987091064453125,-0.1270294189453125,-0.0330349169671535,0.0099354553967714,-0.0074858795851469
1769252613446,-0.09619140625,-0.9888763427734376,-0.1326751708984375,-0.0442140661180019,0.0035878105554729,-0.0030719563364982
1769252613456,-0.0932464599609375,-0.9911956787109376,-0.134613037109375,-0.0515982136130332,-0.0004745752958115,0.0014378406340256
1769252613466,-0.091552734375,-0.986968994140625,-0.1358795166015625,-0.0574654228985309,-0.0028088360559195,0.0050746533088386
1769252613476,-0.09423828125,-0.9867706298828124,-0.1390228271484375,-0.0586364157497882,-0.0052986252121627,0.0083466134965419
1769252613486,-0.09564208984375,-0.9805755615234376,-0.1378326416015625,-0.060831394046545,-0.0103375921025872,0.0088928276672959
1769252613496,-0.0986175537109375,-0.978973388671875,-0.1391448974609375,-0.0569943115115165,-0.0154135776683688,0.0068171597085893
1769252613506,-0.100006103515625,-0.979583740234375,-0.1434326171875,-0.0581980571150779,-0.0134881120175123,0.0101650198921561
1769252613516,-0.1012420654296875,-0.97991943359375,-0.138641357421875,-0.0579722225666046,-0.0058195395395159,0.0076206354424357
1769252613526,-0.10357666015625,-0.9849700927734376,-0.1360626220703125,-0.0580119043588638,0.0024993766564875,0.0019675435032695
1769252613537,-0.1078948974609375,-0.9897613525390624,-0.139801025390625,-0.0488610155880451,0.0098204063251614,-0.0048264469951391
1769252613546,-0.1045989990234375,-0.9941864013671876,-0.1452484130859375,-0.0447890423238277,0.0079245017841458,-0.0030684941448271
1769252613557,-0.095916748046875,-0.9913787841796876,-0.146759033203125,-0.0347678326070308,-0.0040874197147786,-0.0012876383261755
1769252613567,-0.093475341796875,-0.98797607421875,-0.1467742919921875,-0.0223870649933815,-0.0061218081973493,0.0016935041639953
1769252613577,-0.09124755859375,-0.98382568359375,-0.1477813720703125,-0.0208083428442478,-0.0029736857395619,-0.0023896545171737
1769252613587,-0.090240478515625,-0.992645263671875,-0.14495849609375,-0.018874354660511,0.0018844527658075,0.0007741809240542
1769252613597,-0.087799072265625,-0.986907958984375,-0.1432037353515625,-0.0095346495509147,0.0109959254041314,0.0056546898558735
1769252613607,-0.087188720703125,-0.9701385498046876,-0.1430816650390625,-0.0014660701854154,0.0013459615875035,0.0051862397231161
1769252613617,-0.09197998046875,-0.9796905517578124,-0.1423797607421875,0.0008085357258096,-0.0073652383871376,0.0059846555814146
1769252613627,-0.092620849609375,-0.9868011474609376,-0.1410064697265625,-0.0010636665392667,-0.0045004757121205,0.0039300266653299
1769252613637,-0.0948944091796875,-0.98028564453125,-0.1419525146484375,-0.0042045987211167,3.941478280466981e-05,0.0024921861477196
1769252613647,-0.095367431640625,-0.978759765625,-0.143157958984375,-0.0030740867368876,0.0044059338979423,0.001848233747296
1769252613657,-0.0987091064453125,-0.981719970703125,-0.14373779296875,-0.004097273107618,0.0047910269349813,-0.001212004572153
1769252613667,-0.0986175537109375,-0.9780426025390624,-0.1443939208984375,-0.0049928943626582,0.0011233213590458,-0.0073756244964897
1769252613677,-0.1017303466796875,-0.982666015625,-0.143585205078125,-0.0106774112209677,-0.0038868836127221,-0.0074139740318059
1769252613688,-0.0996246337890625,-0.9824981689453124,-0.1416168212890625,-0.0165387634187936,0.0004633900243788,-0.0076597840525209
1769252613697,-0.1012115478515625,-0.9837188720703124,-0.1418304443359375,-0.0182724799960851,0.0035942022223025,-0.011232946999371
1769252613707,-0.102874755859375,-0.9857635498046876,-0.145721435546875,-0.0220661535859107,0.0014711301773786,-0.0103240106254816
1769252613717,-0.0997772216796875,-0.9841766357421876,-0.1448974609375,-0.0230914708226919,0.0014666027855128,-0.0111525198444724
1769252613727,-0.0979766845703125,-0.9821014404296876,-0.148040771484375,-0.01827940531075,0.0006343649583868,-0.0089634014293551
1769252613737,-0.0994873046875,-0.9835968017578124,-0.1515045166015625,-0.0113991284742951,-0.0023939155507832,-0.0080656493082642
1769252613747,-0.100067138671875,-0.9819488525390624,-0.15374755859375,-0.0024945829063653,-0.0036101811565458,-0.0048996838741004
1769252613758,-0.0995025634765625,-0.9818572998046876,-0.151580810546875,0.0069268820807337,-0.0013712616637349,-0.0060970410704612
1769252613768,-0.1016845703125,-0.9805755615234376,-0.1490478515625,0.0114214988425374,-4.394215648062527e-05,-0.0050259176641702
1769252613778,-0.1012420654296875,-0.980804443359375,-0.1461029052734375,0.012091283686459,0.0018287927377969,-0.0022642195690423
1769252613788,-0.0975341796875,-0.97845458984375,-0.1430511474609375,0.0168016161769628,0.0042520030401647,-0.0055833170190453
1769252613798,-0.097991943359375,-0.9783782958984376,-0.1432037353515625,0.0220046341419219,0.0033302828669548,-0.0039798277430236
1769252613808,-0.09710693359375,-0.977386474609375,-0.14337158203125,0.0289008896797895,0.0033185649663209,-0.0031326764728873
1769252613818,-0.094696044921875,-0.9842681884765624,-0.1440887451171875,0.0292417742311954,0.0003616572648752,0.0024770060554146
1769252613828,-0.091156005859375,-0.9930267333984376,-0.1393585205078125,0.0203721169382333,0.0003249056462664,0.0076384786516427
1769252613838,-0.0890350341796875,-0.9920196533203124,-0.134765625,0.0106896618381142,0.0058786617591977,0.0079253008589148
1769252613848,-0.0916290283203125,-0.979827880859375,-0.13232421875,0.0075468658469617,0.0123711824417114,0.0025089641567319
1769252613858,-0.0966949462890625,-0.98150634765625,-0.13275146484375,0.0079793632030487,0.0042781019583344,0.0001877528557088
1769252613868,-0.095428466796875,-0.9731597900390624,-0.1375732421875,0.0150351421907544,-0.0006735134520567,-0.0048285773955285
1769252613878,-0.1011199951171875,-0.9749603271484376,-0.13946533203125,0.0100281331688165,-0.0079900156706571,-0.0076259616762399
1769252613888,-0.09979248046875,-0.9918060302734376,-0.134765625,-0.0030937942210584,0.0085231810808181,-0.0127410953864455
1769252613898,-0.095703125,-0.98248291015625,-0.127716064453125,-0.0263557080179452,0.0069039785303175,-0.0163520760834217
1769252613908,-0.0985870361328125,-0.992950439453125,-0.123260498046875,-0.0420736856758594,0.0094536887481808,-0.0235782973468303
1769252613918,-0.1019439697265625,-0.9796905517578124,-0.12890625,-0.0530208721756935,0.0063697486184537,-0.0288766548037529
1769252613928,-0.103851318359375,-0.974578857421875,-0.1348724365234375,-0.0549910813570022,0.0034892736002802,-0.0331931076943874
1769252613938,-0.103515625,-0.9722442626953124,-0.1421966552734375,-0.0545905418694019,0.0041156490333378,-0.0389838851988315
1769252613948,-0.098876953125,-0.9809417724609376,-0.152801513671875,-0.0546446032822132,0.0044288369826972,-0.0408608801662921
1769252613958,-0.09454345703125,-0.990692138671875,-0.156707763671875,-0.0497814044356346,0.0051659997552633,-0.0391942746937274
1769252613969,-0.09033203125,-0.9921875,-0.1583099365234375,-0.0448183380067348,-0.0011092065833508,-0.0354938134551048
1769252613979,-0.0883636474609375,-0.9884796142578124,-0.1541748046875,-0.0398531407117843,-0.0034631746821105,-0.0325286500155925
1769252613989,-0.0908355712890625,-0.985870361328125,-0.150360107421875,-0.0355486720800399,0.0006753776688128,-0.0265117678791284
1769252613999,-0.08953857421875,-0.9824676513671876,-0.1493988037109375,-0.0312210358679294,0.009549562819302,-0.0184810068458318
1769252614009,-0.08880615234375,-0.980377197265625,-0.1502532958984375,-0.0194567888975143,0.0149613721296191,-0.0112459966912865
1769252614019,-0.087677001953125,-0.9762115478515624,-0.1521453857421875,-0.002437058603391,0.0147230196744203,-0.0051809134893119
1769252614029,-0.092681884765625,-0.9825439453125,-0.1544036865234375,0.0139485727995634,0.0072949309833347,-0.0044354945421218
1769252614039,-0.095977783203125,-0.9839630126953124,-0.1508026123046875,0.0262425225228071,0.000110521184979,-0.0016490293201059
1769252614049,-0.099029541015625,-0.9840850830078124,-0.145843505859375,0.0354573279619216,0.0002335592289455,0.000582699663937
1769252614059,-0.1017608642578125,-0.9876861572265624,-0.145355224609375,0.0405162684619426,-0.0015345134306699,-0.0003944141499232
1769252614069,-0.105804443359375,-0.990875244140625,-0.1453857421875,0.0485627427697181,-0.0031060448382049,-0.0001177117228507
1769252614079,-0.1020660400390625,-0.987884521484375,-0.1445465087890625,0.053938865661621,-0.0071284831501543,0.0059750680811703
1769252614089,-0.101318359375,-0.9853057861328124,-0.1424102783203125,0.0604151412844657,-0.0122569324448704,0.0095514273270964
1769252614099,-0.09588623046875,-0.9801177978515624,-0.1414337158203125,0.0537630952894687,-0.0156652461737394,0.0131517546251416
1769252614109,-0.091705322265625,-0.990447998046875,-0.13958740234375,0.050224021077156,-0.0036570527590811,0.0195659771561622
1769252614119,-0.0923614501953125,-0.9798583984375,-0.13494873046875,0.0474335625767707,-0.0005182511522434,0.0212522912770509
1769252614129,-0.0956878662109375,-0.9791412353515624,-0.1286163330078125,0.0406129397451877,-0.0051153996028006,0.0191848799586296
1769252614139,-0.0981292724609375,-0.988555908203125,-0.1260528564453125,0.0290747955441474,-0.0083713801577687,0.0177624858915805
1769252614149,-0.100006103515625,-0.9834747314453124,-0.1278076171875,0.0150798829272389,-0.0114428037777543,0.0175166763365268
1769252614159,-0.097442626953125,-0.9778900146484376,-0.1295166015625,0.0008301073103211,-0.0151073141023516,0.0146396625787019
1769252614169,-0.0994110107421875,-0.978851318359375,-0.1267852783203125,-0.0193784907460212,-0.0128052774816751,0.0094286557286977
1769252614180,-0.10369873046875,-0.97955322265625,-0.1234130859375,-0.0397101268172264,-0.003736681304872,0.0029979203827679
1769252614190,-0.104034423828125,-0.9801025390625,-0.123870849609375,-0.0569583587348461,0.0035206989850848,-0.0041103227995336
1769252614200,-0.1035919189453125,-0.9830474853515624,-0.1287078857421875,-0.0683891773223877,-5.459480235003866e-05,-0.0093399723991751
1769252614210,-0.100311279296875,-0.9823760986328124,-0.1338348388671875,-0.0777523219585418,-0.0052296495996415,-0.0125402929261326
1769252614220,-0.0948028564453125,-0.980865478515625,-0.134185791015625,-0.0836355090141296,-0.000230629753787,-0.0160977430641651
1769252614230,-0.092010498046875,-0.9824371337890624,-0.13934326171875,-0.0882997661828994,0.0062206117436289,-0.0184554401785135
1769252614240,-0.0888671875,-0.982421875,-0.1420135498046875,-0.0912311077117919,0.0076001291163265,-0.0201223120093345
1769252614250,-0.0872802734375,-0.98455810546875,-0.143341064453125,-0.0933563113212585,0.0150141036137938,-0.0186788793653249
1769252614260,-0.0887603759765625,-0.9856719970703124,-0.14532470703125,-0.0885937809944152,0.0188945960253477,-0.0209284517914056
1769252614270,-0.0902557373046875,-0.9831085205078124,-0.1525421142578125,-0.0801576897501945,0.01520611718297,-0.016622120514512
1769252614280,-0.0886688232421875,-0.9837799072265624,-0.158935546875,-0.0685612186789512,0.0072464612312614,-0.0164929572492837
1769252614290,-0.0909881591796875,-0.983184814453125,-0.1654815673828125,-0.0546203665435314,0.0065353973768651,-0.01488733664155
1769252614300,-0.091827392578125,-0.9813232421875,-0.1641082763671875,-0.0421839393675327,0.0060102217830717,-0.0146303419023752
1769252614310,-0.091827392578125,-0.9852294921875,-0.16259765625,-0.0309930704534053,0.0057561565190553,-0.0126454876735806
1769252614320,-0.089202880859375,-0.982269287109375,-0.1597747802734375,-0.0189577117562294,0.0007978830835781,-0.0110760871320962
1769252614330,-0.0884857177734375,-0.9811859130859376,-0.1571197509765625,-0.0101604918017983,-0.0043835630640387,-0.0060967747122049
1769252614340,-0.0866241455078125,-0.98284912109375,-0.15740966796875,0.0010455570882186,-0.0192083157598972,-0.0056573529727756
1769252614350,-0.0869293212890625,-0.9947357177734376,-0.1581878662109375,0.0087612671777606,-0.0071295485831797,-0.0032274848781526
1769252614360,-0.0868377685546875,-0.9903106689453124,-0.1608123779296875,0.0103735448792576,0.0066555058583617,0.0003600593772716
1769252614370,-0.0850830078125,-0.9723663330078124,-0.1558074951171875,0.0218640193343162,-0.0014836470363661,-0.0049548111855983
1769252614380,-0.09149169921875,-0.978057861328125,-0.15423583984375,0.0357356257736682,-0.0086776437237858,-0.0003472761891316
1769252614391,-0.094879150390625,-0.973541259765625,-0.1572723388671875,0.0639068111777305,-0.0119352228939533,-0.0035100462846457
1769252614401,-0.1045989990234375,-0.9669036865234376,-0.15771484375,0.0743296220898628,-0.0206402968615293,-0.0078179752454161
1769252614411,-0.1060791015625,-0.9857635498046876,-0.148834228515625,0.0810375958681106,-0.0106782102957367,-0.0099921803921461
1769252614422,-0.099761962890625,-0.981903076171875,-0.149169921875,0.0790471509099006,-0.005888249259442,-0.0081591261550784
1769252614431,-0.092529296875,-0.9905242919921876,-0.1455535888671875,0.0783776268362999,-0.0038298920262604,-0.0088419606909155
1769252614441,-0.0921783447265625,-0.98046875,-0.1425323486328125,0.0788271725177764,-0.0140439132228493,-0.007242732681334
1769252614451,-0.09722900390625,-0.974212646484375,-0.13800048828125,0.0787688493728637,-0.0228126384317874,-0.0102837961167097
1769252614461,-0.10577392578125,-0.9732818603515624,-0.138427734375,0.080472208559513,-0.0305941272526979,-0.0165211856365203
1769252614471,-0.1086883544921875,-0.979705810546875,-0.1426544189453125,0.0727074965834617,-0.0335228070616722,-0.0182032380253076
1769252614481,-0.0996856689453125,-0.9849090576171876,-0.1394805908203125,0.0610013008117675,-0.0285837072879076,-0.0164412911981344
1769252614491,-0.093017578125,-0.99371337890625,-0.13720703125,0.0518000796437263,-0.0195278953760862,-0.0124854315072298
1769252614501,-0.0880889892578125,-0.99151611328125,-0.133758544921875,0.0385157018899917,-0.015474297106266,-0.0062664179131388
1769252614511,-0.086090087890625,-0.98797607421875,-0.1300201416015625,0.0290098134428262,-0.0211713314056396,1.4647385796706658e-05
1769252614521,-0.0895538330078125,-0.9869842529296876,-0.1309356689453125,0.0214626807719469,-0.0224472526460886,0.0046445527113974
1769252614531,-0.0896453857421875,-0.982757568359375,-0.134857177734375,0.0121490741148591,-0.0223782770335674,0.0110566457733511
1769252614541,-0.09393310546875,-0.9835357666015624,-0.131256103515625,0.0031489215325564,-0.0131128728389739,0.007611580658704
1769252614551,-0.0988616943359375,-0.986297607421875,-0.1280670166015625,-0.0099261337891221,-0.0041372207924723,0.0072901370003819
1769252614561,-0.0984954833984375,-0.983551025390625,-0.1244659423828125,-0.0222877282649278,0.0013518205378204,0.0060235378332436
1769252614571,-0.09783935546875,-0.986968994140625,-0.1242218017578125,-0.036539901047945,0.0077727017924189,0.0035172367934137
1769252614581,-0.0958099365234375,-0.986724853515625,-0.122222900390625,-0.0468071848154068,0.0076893451623618,-0.0001752359967213
1769252614591,-0.0966949462890625,-0.990386962890625,-0.1279449462890625,-0.0477262437343597,0.004512726329267,-0.0055713327601552
1769252614601,-0.0958099365234375,-0.98919677734375,-0.13763427734375,-0.0417538397014141,0.0044291033409535,-0.0057047572918236
1769252614611,-0.0922393798828125,-0.9827117919921876,-0.1411285400390625,-0.035989161580801,0.0032170985359698,-0.0061447117477655
1769252614622,-0.0870819091796875,-0.982147216796875,-0.1422119140625,-0.0336823314428329,-0.0055803875438869,0.0006996124284341
1769252614632,-0.080810546875,-0.9832916259765624,-0.1426239013671875,-0.0211468301713466,-0.0009044095058925,0.0022700785193592
1769252614642,-0.084716796875,-0.978759765625,-0.14447021484375,-0.0110577112063765,0.0036416065413504,0.0018546254141256
1769252614652,-0.0874786376953125,-0.9793548583984376,-0.141082763671875,-0.0006692523602396,-0.0026378610637038,0.0048608016222715
1769252614662,-0.088623046875,-0.9842681884765624,-0.1436309814453125,0.0029427930712699,-0.0080936131998896,0.0008048072922974
1769252614672,-0.0909423828125,-0.982086181640625,-0.1431121826171875,0.0077623156830668,-0.0129315108060836,-0.0005709817050956
1769252614682,-0.0921630859375,-0.981353759765625,-0.1403961181640625,0.0061111557297408,-0.0112870093435049,-0.0009318400407209
1769252614692,-0.0926971435546875,-0.9812469482421876,-0.138275146484375,-0.0005965480813756,-0.0036575854755938,-0.0042240396142005
1769252614702,-0.09539794921875,-0.984161376953125,-0.140350341796875,-0.0023228090722113,0.0047265784814953,-0.008012119680643
1769252614712,-0.098663330078125,-0.983917236328125,-0.1422119140625,-0.00735724857077,0.0079679116606712,-0.0112787531688809
1769252614723,-0.09747314453125,-0.9820098876953124,-0.141845703125,-0.0099554285407066,0.0032368060201406,-0.0148814776912331
1769252614732,-0.100341796875,-0.9874114990234376,-0.1452484130859375,-0.0096113486215472,-0.0074110445566475,-0.0124718500301241
1769252614742,-0.0949859619140625,-0.983642578125,-0.1448974609375,-0.0063138222321867,-0.0071109062992036,-0.013229252770543
1769252614752,-0.095123291015625,-0.985565185546875,-0.146881103515625,-0.0023859259672462,-0.0056514940224587,-0.0141448471695184
1769252614762,-0.09222412109375,-0.9842681884765624,-0.148651123046875,0.0026988473255187,-0.0011736550368368,-0.0117919445037841
1769252614772,-0.09088134765625,-0.9841766357421876,-0.14898681640625,0.0073601780459284,-0.0012527509825304,-0.0091998903080821
1769252614782,-0.09320068359375,-0.9844512939453124,-0.147125244140625,0.0156940072774887,-0.0048432247713208,-0.0068653631024062
1769252614792,-0.0902099609375,-0.981475830078125,-0.1461639404296875,0.0209958292543888,-0.0100062955170869,-0.0017076188232749
1769252614802,-0.090789794921875,-0.9830780029296876,-0.142608642578125,0.0231940019875764,-0.0102047007530927,-0.0013731258222833
1769252614812,-0.09332275390625,-0.980682373046875,-0.1416015625,0.0235490016639232,-0.0031710257753729,-0.0008383630774915
1769252614823,-0.0964202880859375,-0.98236083984375,-0.1425323486328125,0.0265138987451791,0.0062280683778226,-0.0047127297148108
1769252614833,-0.09576416015625,-0.9822235107421876,-0.1414031982421875,0.0314324907958507,0.004798483569175,-0.0016969662392511
1769252614843,-0.09417724609375,-0.980926513671875,-0.1387481689453125,0.0375497713685035,-0.0024125576019287,-0.0018951054662466
1769252614853,-0.09368896484375,-0.98333740234375,-0.1394500732421875,0.0419173575937747,-0.0096491649746894,-0.0031678301747888
1769252614863,-0.0944671630859375,-0.9853057861328124,-0.1397552490234375,0.0395556651055812,-0.0121442805975675,0.0001864212681539
1769252614873,-0.0919342041015625,-0.9928436279296876,-0.13507080078125,0.0312932096421718,-0.0102992430329322,0.0004743089957628
1769252614883,-0.0896759033203125,-0.9955596923828124,-0.13494873046875,0.0284356363117694,0.0004253068182151,-0.0015422365395352
1769252614893,-0.0897216796875,-0.9798583984375,-0.13519287109375,0.0261048376560211,-0.002305498579517,-0.003663710784167
1769252614903,-0.0942230224609375,-0.983856201171875,-0.132904052734375,0.0259192157536745,-0.0086092008277773,-0.0045257760211825
1769252614913,-0.095367431640625,-0.978607177734375,-0.1290283203125,0.02905242331326,-0.0090291816741228,-0.0048983520828187
1769252614923,-0.098846435546875,-0.96453857421875,-0.1265411376953125,0.0259011052548885,-0.0091980258002877,-0.0052466937340795
1769252614933,-0.101104736328125,-0.9834442138671876,-0.1249237060546875,0.0215947739779949,0.0019185412675142,-0.0103349294513463
1769252614943,-0.09417724609375,-0.9899749755859376,-0.1251983642578125,0.0146548431366682,0.0065465825609862,-0.0129474904388189
1769252614953,-0.091278076171875,-0.99365234375,-0.125946044921875,0.0092816492542624,0.0070123695768415,-0.0126460203900933
1769252614963,-0.0874481201171875,-0.98345947265625,-0.1270904541015625,0.0079247681424021,-0.0020085561554878,-0.0076424730941653
1769252614973,-0.0897674560546875,-0.9785308837890624,-0.1295013427734375,0.0056901099160313,-0.0109879365190863,-0.0074706994928419
1769252614983,-0.096343994140625,-0.973724365234375,-0.1288909912109375,-0.0008567389450035,-0.0112390723079442,-0.0108438590541481
1769252614993,-0.097625732421875,-0.981231689453125,-0.12939453125,-0.0118270982056856,-0.0063865263946354,-0.0097983023151755
1769252615003,-0.095062255859375,-0.989776611328125,-0.1331024169921875,-0.0168820451945066,-0.0002921487612184,-0.0052426988258957
1769252615013,-0.0884552001953125,-0.9933319091796876,-0.1336517333984375,-0.0190615747123956,-0.0029007149860262,-0.0042083272710442
1769252615024,-0.0859222412109375,-0.9904632568359376,-0.1337432861328125,-0.0257112216204404,-0.0086366310715675,0.0017558221006765
1769252615033,-0.085968017578125,-0.983367919921875,-0.133575439453125,-0.0297786686569452,-0.0081798993051052,0.0088622011244297
1769252615044,-0.0904388427734375,-0.9833526611328124,-0.13751220703125,-0.034103374928236,-0.0050879693590104,0.0067801419645547
1769252615054,-0.096099853515625,-0.9829254150390624,-0.1380157470703125,-0.0371843874454498,0.0003914846747647,0.0053036850877106
1769252615064,-0.09942626953125,-0.9823760986328124,-0.1338653564453125,-0.0423541143536567,0.0024104269687086,0.0006010754732415
1769252615074,-0.0994415283203125,-0.9869384765625,-0.129150390625,-0.0462681613862514,0.0004111920716241,-0.0024322650860995
1769252615084,-0.097137451171875,-0.9860076904296876,-0.130706787109375,-0.0479153282940387,0.0037763623986393,-0.0056235310621559
1769252615094,-0.09442138671875,-0.9828643798828124,-0.13299560546875,-0.047636229544878,0.0110787497833371,-0.0065705510787665
1769252615104,-0.0924224853515625,-0.9839324951171876,-0.1362457275390625,-0.0410339869558811,0.0171704646199941,-0.0131261879578232
1769252615114,-0.09521484375,-0.988494873046875,-0.142730712890625,-0.029616480693221,0.0145722851157188,-0.0096406433731317
1769252615124,-0.0904693603515625,-0.9872283935546876,-0.14788818359375,-0.0157712399959564,0.0032828785479068,-0.0065369950607419
1769252615134,-0.083892822265625,-0.982818603515625,-0.150665283203125,0.0020522319246083,-0.0053116749040782,-0.0051859733648598
1769252615144,-0.0818939208984375,-0.9869232177734376,-0.149017333984375,0.0162154547870159,-0.0139730731025338,0.0019648801535367
1769252615154,-0.078643798828125,-0.984405517578125,-0.14520263671875,0.0308569818735122,-0.0133064845576882,0.0056903762742877
1769252615164,-0.0823974609375,-0.9798431396484376,-0.14141845703125,0.0420965887606143,-0.01029231864959,0.0094534223899245
1769252615174,-0.08349609375,-0.9801788330078124,-0.135711669921875,0.0421767495572567,-0.0081689804792404,0.0115756960585713
1769252615184,-0.084228515625,-0.98260498046875,-0.1337890625,0.0419913940131664,-0.0064962487667799,0.0097389137372374
1769252615194,-0.091766357421875,-0.982666015625,-0.134307861328125,0.0421048440039157,-0.0042701126076281,0.0071066454984247
1769252615205,-0.095458984375,-0.98260498046875,-0.13641357421875,0.0367119424045085,-0.0089010829105973,0.0039856866933405
1769252615214,-0.0985565185546875,-0.985321044921875,-0.1333770751953125,0.0249215941876173,-0.0138484379276633,-0.0017843178939074
1769252615224,-0.1005706787109375,-0.9865875244140624,-0.1328125,0.0150913344696164,-0.010178068652749,-0.0059407134540379
1769252615234,-0.1007843017578125,-0.9840545654296876,-0.1330413818359375,0.0008074704091995,-0.0048075383529067,-0.0086949542164802
1769252615245,-0.0995941162109375,-0.982177734375,-0.1306610107421875,-0.006026467308402,-0.0049731871113181,-0.0090584764257073
1769252615255,-0.0994110107421875,-0.9852142333984376,-0.1336669921875,-0.0131016876548528,-0.0046810382045805,-0.0102140214294195
1769252615265,-0.0977630615234375,-0.9830474853515624,-0.132843017578125,-0.0174050889909267,-0.0067548416554927,-0.0099785979837179
1769252615275,-0.0955352783203125,-0.9842529296875,-0.1349639892578125,-0.021385183557868,-0.001923334901221,-0.0065100970678031
1769252615285,-0.0915679931640625,-0.9822845458984376,-0.1361846923828125,-0.0244350358843803,-0.0006103964988142,-0.0060701430775225
1769252615295,-0.092529296875,-0.9830322265625,-0.1354522705078125,-0.028458273038268,0.003482615808025,-0.0040376186370849
1769252615305,-0.0940093994140625,-0.9829864501953124,-0.1337890625,-0.029659891501069,0.0049881008453667,-0.0012993563432246
1769252615315,-0.09259033203125,-0.9809112548828124,-0.1368255615234375,-0.0295634847134351,0.0047313719987869,-0.0013787185307592
1769252615325,-0.0943450927734375,-0.983489990234375,-0.137786865234375,-0.0263652950525283,0.0035140409599989,-0.0052642705850303
1769252615335,-0.0968170166015625,-0.9844207763671876,-0.139312744140625,-0.0198296308517456,0.0056030247360467,-0.0058139469474554
1769252615345,-0.09539794921875,-0.9842681884765624,-0.143096923828125,-0.0133525570854544,0.0056762616150081,-0.0085713835433125
1769252615355,-0.09393310546875,-0.9849395751953124,-0.14422607421875,-0.0039939428679645,0.002068477217108,-0.0090124029666185
1769252615365,-0.09112548828125,-0.9805450439453124,-0.14312744140625,0.0083093289285898,-0.0023116238880902,-0.0073862774297595
1769252615375,-0.089569091796875,-0.98193359375,-0.1453094482421875,0.0227324757725,-0.0064616277813911,-0.0062815980054438
1769252615385,-0.0905303955078125,-0.9884490966796876,-0.144866943359375,0.0303395297378301,-0.0091839106753468,-0.0038983351550996
1769252615395,-0.08734130859375,-0.994384765625,-0.139007568359375,0.0240062661468982,-0.0071814800612628,-0.0013462279457598
1769252615405,-0.0832977294921875,-0.996612548828125,-0.13421630859375,0.0218549650162458,0.0020924457348883,-0.0022668826859444
1769252615415,-0.084930419921875,-0.9868011474609376,-0.1355438232421875,0.0212919730693101,0.0099221393465995,-0.0009680590592324
1769252615425,-0.0861053466796875,-0.985137939453125,-0.1321258544921875,0.0204584039747715,0.0057039582170546,0.0057638795115053
1769252615435,-0.0846405029296875,-0.9792327880859376,-0.1275787353515625,0.0240334309637546,0.0062413844279944,0.0058680092915892
1769252615445,-0.0929718017578125,-0.9709014892578124,-0.125823974609375,0.0307760220021009,0.0037270938046276,0.002389121800661
1769252615456,-0.09869384765625,-0.9803619384765624,-0.123443603515625,0.0260592978447675,0.0020655477419495,-0.0031957933679223
1769252615465,-0.09442138671875,-0.98956298828125,-0.1221466064453125,0.0228126384317874,0.0059375176206231,-0.0056911753490567
1769252615476,-0.0896759033203125,-0.9915771484375,-0.1229705810546875,0.014617558568716,0.0034397388808429,-0.0041247038170695
1769252615486,-0.084747314453125,-0.9846038818359376,-0.12359619140625,0.0092646051198244,-0.003525492735207,4.101268132217229e-05
1769252615496,-0.08721923828125,-0.979278564453125,-0.123321533203125,0.0017214673571288,-0.0104944529011845,0.0013544837711378
1769252615506,-0.0923309326171875,-0.9783782958984376,-0.12176513671875,-0.0073737604543566,-0.0048022121191024,-0.0071228905580937
1769252615516,-0.1017608642578125,-0.9842681884765624,-0.1250457763671875,-0.018523883074522,0.0123890256509184,-0.0036479979753494
1769252615526,-0.091064453125,-0.9887237548828124,-0.1321258544921875,-0.0252281241118907,0.0043159187771379,0.0057833204045891
1769252615536,-0.0814056396484375,-0.989410400390625,-0.1337432861328125,-0.0285152643918991,-0.016176838427782,0.0031558459158986
1769252615546,-0.0885009765625,-0.9916534423828124,-0.13311767578125,-0.0377726778388023,-0.0159304961562156,0.004701011814177
1769252615556,-0.0915679931640625,-0.9864654541015624,-0.130767822265625,-0.0554579310119152,0.0029174929950386,0.0033547841012477
1769252615566,-0.0928802490234375,-0.98406982421875,-0.1278839111328125,-0.0713386312127113,0.0173353143036365,0.0039401468820869
1769252615576,-0.0961151123046875,-0.981475830078125,-0.128082275390625,-0.0762921050190925,0.0108483862131834,-0.0008743157959543
1769252615586,-0.101715087890625,-0.9798431396484376,-0.1326141357421875,-0.0769421830773353,-0.0010157296201214,-0.0026937874499708
1769252615596,-0.1023712158203125,-0.9793701171875,-0.1365966796875,-0.0786079913377761,-0.0030048445332795,-0.0100835263729095
1769252615606,-0.10516357421875,-0.9833831787109376,-0.1393280029296875,-0.0791880264878273,0.0057612163946032,-0.0154356816783547
1769252615616,-0.102996826171875,-0.983978271484375,-0.1423492431640625,-0.075460135936737,0.0130934314802289,-0.0168077424168586
1769252615626,-0.0977325439453125,-0.9818572998046876,-0.1453094482421875,-0.0682293847203254,0.0178391840308904,-0.0184565056115388
1769252615636,-0.0934906005859375,-0.9871826171875,-0.1482391357421875,-0.0558448880910873,0.0188810136169195,-0.015868978574872
1769252615646,-0.0887908935546875,-0.9911651611328124,-0.15411376953125,-0.034907117486,0.0154543239623308,-0.010456102900207
1769252615656,-0.0838623046875,-0.9871368408203124,-0.1543121337890625,-0.015925969928503,0.0073340791277587,-0.0064650899730622
1769252615667,-0.0782928466796875,-0.9884185791015624,-0.151947021484375,0.0078597869724035,0.000826911535114,0.0038200381677597
1769252615676,-0.0757293701171875,-0.98583984375,-0.1554107666015625,0.0336208119988441,-0.007603058591485,0.0139248706400394
1769252615687,-0.0778045654296875,-0.9809112548828124,-0.1566314697265625,0.0544733628630638,-0.014722753316164,0.0172434356063604
1769252615697,-0.085113525390625,-0.9831390380859376,-0.1492156982421875,0.0622969307005405,-0.0102180168032646,0.0189475920051336
1769252615707,-0.0879974365234375,-0.98040771484375,-0.14080810546875,0.0626252964138984,-0.0033047166652977,0.0189057812094688
1769252615717,-0.0913238525390625,-0.97979736328125,-0.13555908203125,0.0586470663547515,0.0022623552940785,0.0202304366976022
1769252615727,-0.0928802490234375,-0.9851531982421876,-0.133392333984375,0.0531561635434627,-0.0057393782772123,0.0196328237652778
1769252615737,-0.0919952392578125,-0.9859466552734376,-0.130279541015625,0.0473225079476833,-0.0084121264517307,0.0177433099597692
1769252615747,-0.094696044921875,-0.9849853515625,-0.130462646484375,0.0373899824917316,-0.0097250649705529,0.0104028396308422
1769252615758,-0.0998077392578125,-0.98724365234375,-0.129730224609375,0.0272417403757572,-0.0079652480781078,0.0052898367866873
1769252615767,-0.1007080078125,-0.984771728515625,-0.1271820068359375,0.0131123401224613,-0.0034810178913176,0.001594168250449
1769252615777,-0.0992889404296875,-0.984222412109375,-0.1251068115234375,0.0019694075454026,-0.0045928875915706,0.0012056130217388
1769252615787,-0.09619140625,-0.9845123291015624,-0.124847412109375,-0.0131251234561204,-0.0036735644098371,0.0011100055417045
1769252615797,-0.094879150390625,-0.9840545654296876,-0.12408447265625,-0.0240861605852842,0.0050456249155104,-0.0020232035312801
1769252615807,-0.0964202880859375,-0.9849090576171876,-0.12628173828125,-0.0373756028711795,0.0140010369941592,-0.0034171019215136
1769252615817,-0.0941619873046875,-0.9829559326171876,-0.1255950927734375,-0.050041064620018,0.0181166864931583,-0.0071234232746064
1769252615827,-0.0951080322265625,-0.98162841796875,-0.1271209716796875,-0.0579261519014835,0.0158878862857818,-0.0079673789441585
1769252615837,-0.094573974609375,-0.98297119140625,-0.1302947998046875,-0.0602771900594234,0.0125775774940848,-0.0081138527020812
1769252615847,-0.09466552734375,-0.9835052490234376,-0.1372833251953125,-0.0586289577186107,0.0079101212322711,-0.0088637992739677
1769252615857,-0.0957489013671875,-0.98443603515625,-0.1398468017578125,-0.0591442808508873,0.0082235746085643,-0.0118539966642856
1769252615867,-0.0941925048828125,-0.981689453125,-0.1399688720703125,-0.0578470528125762,0.0131288515403866,-0.0097897797822952
1769252615877,-0.0916748046875,-0.9816436767578124,-0.13885498046875,-0.0556645952165126,0.0162793714553117,-0.0101117566227912
1769252615888,-0.0916900634765625,-0.9814453125,-0.1408843994140625,-0.050330813974142,0.0166655294597148,-0.0131911691278219
1769252615898,-0.0916748046875,-0.982696533203125,-0.14410400390625,-0.0421863347291946,0.0125328358262777,-0.0081772357225418
1769252615908,-0.0878143310546875,-0.9853515625,-0.1463470458984375,-0.0332990996539592,0.0099434442818164,-0.0065194182097911
1769252615918,-0.0841827392578125,-0.995147705078125,-0.14825439453125,-0.0334698110818862,0.0076280920766294,0.0001043959127855
1769252615928,-0.079376220703125,-0.9932098388671876,-0.1446075439453125,-0.040029440075159,0.0101178819313645,0.0031806132756173
1769252615938,-0.0825653076171875,-0.981475830078125,-0.1415863037109375,-0.04449263215065,0.0288423001766204,0.0010799118317663
1769252615948,-0.0895538330078125,-0.983428955078125,-0.1387786865234375,-0.047221839427948,0.0331789925694465,0.0050165965221822
1769252615958,-0.0910797119140625,-0.9802398681640624,-0.1352691650390625,-0.0414859242737293,0.0294369850307703,0.008829710073769
1769252615968,-0.0929718017578125,-0.9671783447265624,-0.1368865966796875,-0.0261562373489141,0.0246158633381128,0.0066999807022511
1769252615978,-0.098419189453125,-0.9788055419921876,-0.1458892822265625,-0.0094744618982076,0.0197593234479427,0.0035015242174267
1769252615989,-0.093963623046875,-0.9900054931640624,-0.152099609375,0.0019731360953301,0.018517492339015,0.0060477722436189
1769252615998,-0.0872039794921875,-0.9862823486328124,-0.1483154296875,0.0127107352018356,0.0166620668023824,0.0050618704408407
1769252616008,-0.089630126953125,-0.9832000732421876,-0.1479644775390625,0.0218941140919923,0.0134662743657827,0.0079271653667092
1769252616018,-0.0958099365234375,-0.97857666015625,-0.1448211669921875,0.029814887791872,0.006573480553925,0.0040336237289011
1769252616028,-0.101898193359375,-0.9792022705078124,-0.1450653076171875,0.0347782187163829,-0.0048256479203701,-0.0029662288725376
1769252616038,-0.1036224365234375,-0.985504150390625,-0.146331787109375,0.0366171337664127,-0.0147941261529922,-0.0049995523877441
1769252616048,-0.097747802734375,-0.986785888671875,-0.1493988037109375,0.0346613079309463,-0.0176058914512395,0.0014578143600374
1769252616058,-0.0879669189453125,-0.9850921630859376,-0.1440277099609375,0.0340575687587261,-0.015311311930418,0.0021952437236905
1769252616068,-0.0889892578125,-0.9860382080078124,-0.1392669677734375,0.027606327086687,-0.0032349417451769,0.0071923988871276
1769252616078,-0.0889434814453125,-0.984222412109375,-0.130157470703125,0.0172737948596477,0.0079173119738698,0.0118686435744166
1769252616088,-0.088043212890625,-0.980712890625,-0.1275482177734375,0.0063551012426614,0.0060640177689492,0.0176543612033128
1769252616098,-0.088531494140625,-0.9794921875,-0.125640869140625,-0.0108702247962355,0.0056949034333229,0.0243455525487661
1769252616109,-0.089752197265625,-0.9813690185546876,-0.118255615234375,-0.0337118916213512,0.0058693406172096,0.0278976783156394
1769252616119,-0.0912322998046875,-0.982818603515625,-0.1112518310546875,-0.0647310614585876,0.0130518861114978,0.0283871665596961
1769252616129,-0.0933380126953125,-0.9837493896484376,-0.109405517578125,-0.0942127853631973,0.0235367510467767,0.0250864438712596
1769252616139,-0.0966949462890625,-0.986663818359375,-0.1146087646484375,-0.1131723597645759,0.0331480987370014,0.0198650509119033
1769252616149,-0.100494384765625,-0.9904327392578124,-0.1270294189453125,-0.1188534200191497,0.0332873836159706,0.0094398409128189
1769252616159,-0.0977325439453125,-0.994232177734375,-0.1405792236328125,-0.1200198829174041,0.0209734588861465,0.0095788575708866
1769252616169,-0.0904998779296875,-0.994140625,-0.150634765625,-0.1059930101037025,0.0082808332517743,0.0038027276750653
1769252616179,-0.08905029296875,-0.988494873046875,-0.159912109375,-0.0938671082258224,0.0005970807396806,-0.0042104576714336
1769252616189,-0.08758544921875,-0.9899749755859376,-0.15972900390625,-0.0817079097032547,0.0036258937325328,-0.0067191552370786
1769252616199,-0.0898590087890625,-0.9841766357421876,-0.16058349609375,-0.0629427433013916,0.0134337833151221,-0.0101109575480222
1769252616209,-0.0940093994140625,-0.9731292724609376,-0.1641998291015625,-0.0446660034358501,0.0159366223961114,-0.0154639109969139
1769252616219,-0.092041015625,-0.9764862060546876,-0.16595458984375,-0.0242574028670787,0.008529040031135,-0.019732691347599
1769252616229,-0.0900115966796875,-0.980194091796875,-0.1676177978515625,-0.0088864360004663,-0.0001826928491936,-0.0171760581433773
1769252616239,-0.0868988037109375,-0.976470947265625,-0.1636962890625,0.0004351605311967,-0.0018836538074538,-0.0128159299492836
1769252616249,-0.0877227783203125,-0.97967529296875,-0.16229248046875,0.0056512276642024,0.0013235911028459,-0.0068653631024062
1769252616259,-0.0911712646484375,-0.9752349853515624,-0.15618896484375,0.0039076562970876,0.0032738239970058,-0.0001177117228507
1769252616269,-0.0934906005859375,-0.9761810302734376,-0.1490020751953125,-0.0012498215073719,0.0113884760066866,0.001005609636195
1769252616279,-0.0975341796875,-0.9823455810546876,-0.1480865478515625,-0.0007597998483106,0.0142393894493579,0.005069060716778
1769252616290,-0.1002044677734375,-0.9860076904296876,-0.1500396728515625,0.0011496866354718,0.0054565505124628,0.0073977289721369
1769252616299,-0.098480224609375,-0.98382568359375,-0.1510467529296875,0.0056243296712636,-1.304948909819359e-05,0.0106057729572057
1769252616310,-0.0971832275390625,-0.984039306640625,-0.1539764404296875,0.0025081650819629,0.0062578958459198,0.0128289796411991
1769252616319,-0.095184326171875,-0.984283447265625,-0.15191650390625,-0.0047854343429207,0.0091751227155327,0.0158300958573818
1769252616330,-0.0963134765625,-0.985382080078125,-0.145477294921875,-0.0108369346708059,0.0167664624750614,0.0162085313349962
1769252616340,-0.1001739501953125,-0.9863739013671876,-0.1476287841796875,-0.0097887152805924,0.0152995940297842,0.0128180608153343
1769252616350,-0.1004638671875,-0.984619140625,-0.1533050537109375,-0.0076991985552012,0.0064914552494883,0.0138287302106618
1769252616360,-0.0977783203125,-0.980804443359375,-0.1558074951171875,-0.0022535668686032,0.0003326288133393,0.0140822632238268
1769252616370,-0.0969390869140625,-0.9818572998046876,-0.1577301025390625,0.0019987022969871,-0.0048845037817955,0.0143310027197003
1769252616380,-0.0958251953125,-0.978546142578125,-0.1557159423828125,0.0043683829717338,-0.0011992214713245,0.013620470650494
1769252616390,-0.0936279296875,-0.9801788330078124,-0.1493377685546875,0.0010831075487658,0.0077495323494076,0.012915532104671
1769252616400,-0.093963623046875,-0.978179931640625,-0.1428375244140625,-0.002412024885416,0.0117517309263348,0.0104779405519366
1769252616410,-0.091644287109375,-0.9787139892578124,-0.1414642333984375,-0.0049284459091722,0.0057111489586532,0.0122571988031268
1769252616420,-0.091400146484375,-0.9808807373046876,-0.141937255859375,-0.0048829056322574,0.0040221721865236,0.0124039389193058
1769252616430,-0.08831787109375,-0.9839630126953124,-0.1420745849609375,-0.0092784529551863,-0.0001579254458192,0.0089173289015889
1769252616440,-0.0875244140625,-0.991729736328125,-0.142669677734375,-0.0175987016409635,0.0078454064205288,0.0093413041904568
1769252616450,-0.0857391357421875,-0.98687744140625,-0.1426239013671875,-0.0194740984588861,0.0213721338659524,0.005846703890711
1769252616460,-0.0875244140625,-0.9784393310546876,-0.142578125,-0.0234190393239259,0.0214981008321046,0.0019228023011237
1769252616470,-0.0894317626953125,-0.978729248046875,-0.138031005859375,-0.0177435763180255,0.014682806096971,0.0031212246976792
1769252616480,-0.09332275390625,-0.9745941162109376,-0.1409454345703125,-0.0064456486143171,0.0068975873291492,-0.0018024274613708
1769252616491,-0.099273681640625,-0.974884033203125,-0.142791748046875,0.0026075011119246,0.0061990399844944,-0.010242517106235
1769252616500,-0.101959228515625,-0.97845458984375,-0.1443939208984375,0.0070232884027063,0.0095269260928034,-0.0190067142248153
1769252616511,-0.101531982421875,-0.9874420166015624,-0.149749755859375,0.0108731538057327,0.008714928291738,-0.0214946400374174
1769252616521,-0.09686279296875,-0.9874725341796876,-0.1518402099609375,0.0126135293394327,0.0028242822736501,-0.0177020318806171
1769252616531,-0.0920562744140625,-0.9803924560546876,-0.1499786376953125,0.0167006831616163,-0.0040594562888145,-0.0110127041116356
1769252616541,-0.0945892333984375,-0.97601318359375,-0.1479949951171875,0.015255119651556,-0.0142590971663594,-0.0103210806846618
1769252616551,-0.097930908203125,-0.97430419921875,-0.1472625732421875,0.0109969908371567,-0.0134790567681193,-0.0117895472794771
1769252616561,-0.099578857421875,-0.9871368408203124,-0.1515960693359375,0.0052909022197127,-0.0076419408433139,-0.0107442568987607
1769252616571,-0.0958404541015625,-0.990814208984375,-0.1528167724609375,0.0027252128347754,-0.0078912125900387,-0.0063556339591741
1769252616581,-0.0911865234375,-0.9871368408203124,-0.15155029296875,-0.0060525662265717,-0.0096752643585205,0.0001525991247035
1769252616591,-0.0899200439453125,-0.983734130859375,-0.1476593017578125,-0.0132337799295783,-0.003836017102003,0.0051287156529724
1769252616601,-0.093994140625,-0.985443115234375,-0.1458740234375,-0.0227069109678268,0.0076366141438484,0.0104411896318197
1769252616611,-0.0959014892578125,-0.9834136962890624,-0.145111083984375,-0.0300543047487735,0.0112694324925541,0.0101085603237152
1769252616621,-0.1005706787109375,-0.9825286865234376,-0.14288330078125,-0.0309805534780025,0.003556385403499,0.0125141935423016
1769252616631,-0.1040496826171875,-0.9803619384765624,-0.1498565673828125,-0.024411866441369,0.0028189560398459,0.0085562039166688
1769252616641,-0.1048431396484375,-0.9824981689453124,-0.1556396484375,-0.0198530666530132,0.001431182725355,0.0056562880054116
1769252616651,-0.1076812744140625,-0.98138427734375,-0.1514434814453125,-0.0200639888644218,0.0020764668006449,0.0021755362395197
1769252616661,-0.105865478515625,-0.9793243408203124,-0.1482086181640625,-0.0205689240247011,0.0053271208889782,-0.0011326423846185
1769252616671,-0.1051025390625,-0.985687255859375,-0.149688720703125,-0.0157145150005817,0.0084155891090631,-0.0004836300504393
1769252616681,-0.0943603515625,-0.985015869140625,-0.1505279541015625,-0.0108617022633552,0.0058120829053223,0.0086384955793619
1769252616691,-0.0854034423828125,-0.98541259765625,-0.1495361328125,0.0014178669080138,0.0006900250446051,0.0091223921626806
1769252616701,-0.08685302734375,-0.9822998046875,-0.1530609130859375,0.0105884624645113,-0.0029840720817446,0.0134018259122967
1769252616711,-0.0856781005859375,-0.99090576171875,-0.1534423828125,0.0191084463149309,-0.0021941782906651,0.0219353921711444
1769252616721,-0.080841064453125,-0.9787750244140624,-0.15130615234375,0.0226669628173112,-0.0039755669422447,0.0242773760110139
1769252616731,-0.0866546630859375,-0.976104736328125,-0.14630126953125,0.0252361148595809,-0.0075551215559244,0.0222672224044799
1769252616742,-0.0925140380859375,-0.984771728515625,-0.14202880859375,0.0221098288893699,-0.0093074813485145,0.0176905803382396
1769252616751,-0.094329833984375,-0.9846954345703124,-0.139495849609375,0.0058243330568075,-0.0103940516710281,0.0184314716607332
1769252616762,-0.090972900390625,-0.979156494140625,-0.1346893310546875,-0.0081577952951192,-5.832322858623229e-05,0.0145629635080695
1769252616772,-0.096099853515625,-0.9857330322265624,-0.1403656005859375,-0.0167182590812444,0.0043561323545873,0.0107778124511241
1769252616782,-0.0989532470703125,-0.9854736328125,-0.1418304443359375,-0.028023911640048,0.0007004113867878,0.0045798378996551
1769252616792,-0.09893798828125,-0.980560302734375,-0.1381072998046875,-0.0367641411721706,-9.853696246864274e-05,-0.0014769891276955
1769252616802,-0.1024932861328125,-0.9816436767578124,-0.1417083740234375,-0.0430308245122432,0.0051686628721654,-0.0015017564874142
1769252616812,-0.0917205810546875,-0.98089599609375,-0.1480560302734375,-0.0495172180235385,0.0002942793071269,0.0008410262526012
1769252616822,-0.0850982666015625,-0.98529052734375,-0.1486358642578125,-0.053384393453598,-0.0033678335603326,0.0024144218768924
1769252616832,-0.088653564453125,-0.9855804443359376,-0.14678955078125,-0.0552403517067432,-0.0001786981010809,0.0017241304740309
1769252616842,-0.09271240234375,-0.9814910888671876,-0.1491851806640625,-0.0580103062093257,0.0059447083622217,-0.0001720402069622
1769252616852,-0.0953826904296875,-0.980743408203125,-0.1536407470703125,-0.0557154603302478,0.0058869174681603,-0.0026700852904468
1769252616862,-0.095855712890625,-0.977142333984375,-0.1592864990234375,-0.053114615380764,0.0044040693901479,-0.0001331580569967
1769252616872,-0.0917816162109375,-0.974029541015625,-0.1602783203125,-0.0505491942167282,0.0049598710611462,-0.0003483414766378
1769252616882,-0.096160888671875,-0.978485107421875,-0.1613922119140625,-0.0399530082941055,0.0099682118743658,-0.0012508867075666
1769252616892,-0.09906005859375,-0.9782562255859376,-0.1651611328125,-0.025668878108263,0.0120705114677548,-0.0076182386837899
1769252616902,-0.0998687744140625,-0.9781951904296876,-0.1681365966796875,-0.0112515892833471,0.0040618530474603,-0.0092851109802722
1769252616912,-0.0990142822265625,-0.977142333984375,-0.17083740234375,0.0038701056037098,-8.468852320220321e-05,-0.0104611627757549
1769252616922,-0.095855712890625,-0.9779205322265624,-0.1693267822265625,0.0155288921669125,-0.0011219898005947,-0.0080486051738262
1769252616932,-0.0910797119140625,-0.9757232666015624,-0.1655120849609375,0.0201228447258472,0.0008173241512849,0.0026146916206926
1769252616943,-0.088165283203125,-0.9791107177734376,-0.1563720703125,0.0194149762392044,0.0065963836386799,0.0039515984244644
1769252616953,-0.089569091796875,-0.99456787109375,-0.1528778076171875,0.0127602703869342,0.0136985015124082,0.0100052300840616
1769252616963,-0.0844879150390625,-0.99554443359375,-0.1540374755859375,0.0122904879972338,0.0130652021616697,0.0078227696940302
1769252616973,-0.0874176025390625,-0.98223876953125,-0.1566619873046875,0.0147054428234696,0.009508017450571,0.0075607141479849
1769252616983,-0.08990478515625,-0.98284912109375,-0.15966796875,0.0223042406141757,0.0007382282637991,0.0096720680594444
1769252616993,-0.0850982666015625,-0.9822235107421876,-0.159576416015625,0.0374757349491119,-0.0014610101934522,0.0143243446946144
1769252617003,-0.0883026123046875,-0.97119140625,-0.1543426513671875,0.0428079180419445,-0.0095788575708866,0.0111591778695583
1769252617013,-0.095916748046875,-0.9860992431640624,-0.1522216796875,0.0476889573037624,0.0023939155507832,0.0010769823566079
1769252617023,-0.099578857421875,-0.9833831787109376,-0.151336669921875,0.0445328466594219,0.0070166303776204,-0.0069694924168288
1769252617033,-0.0962677001953125,-0.9872589111328124,-0.148834228515625,0.0455786697566509,0.0091245220974087,-0.0124257765710353
1769252617043,-0.09698486328125,-0.9819183349609376,-0.1526947021484375,0.05514607578516,0.0048458878882229,-0.0153501937165856
1769252617053,-0.098236083984375,-0.9774169921875,-0.153564453125,0.0677436292171478,-0.0044346959330141,-0.0184157583862543
1769252617063,-0.1016387939453125,-0.96881103515625,-0.15216064453125,0.0732491835951805,-0.0058554923161864,-0.0250211972743272
1769252617073,-0.106658935546875,-0.9730072021484376,-0.1544952392578125,0.0819212347269058,-0.0095338504761457,-0.0278500076383352
1769252617083,-0.10357666015625,-0.9788818359375,-0.153564453125,0.0862472727894783,-0.0125416247174143,-0.0253983009606599
1769252617093,-0.096588134765625,-0.9799652099609376,-0.150482177734375,0.0957185328006744,-0.0135770617052912,-0.0249596778303384
1769252617103,-0.099639892578125,-0.9824371337890624,-0.1488494873046875,0.1100793629884719,-0.0099218729883432,-0.0280646570026874
1769252617113,-0.105377197265625,-0.9787750244140624,-0.1476898193359375,0.1300714462995529,-0.0123272398486733,-0.0293746665120124
1769252617123,-0.1108856201171875,-0.9765472412109376,-0.1484375,0.153968259692192,-0.0143978474661707,-0.0289959646761417
1769252617133,-0.1152191162109375,-0.9733734130859376,-0.148681640625,0.1797487288713455,-0.0219854600727558,-0.030969101935625
1769252617143,-0.119659423828125,-0.975311279296875,-0.1475677490234375,0.2052951008081436,-0.0334855206310749,-0.0333137474954128
1769252617153,-0.1217193603515625,-0.978851318359375,-0.14117431640625,0.2209779173135757,-0.0381612330675125,-0.0330154746770858
1769252617164,-0.1210174560546875,-0.9832611083984376,-0.12701416015625,0.2204591333866119,-0.0410233326256275,-0.0311632454395294
1769252617174,-0.1223602294921875,-0.9877471923828124,-0.1107025146484375,0.20644211769104,-0.0402310416102409,-0.0264310743659734
1769252617184,-0.118988037109375,-0.990509033203125,-0.09454345703125,0.1713712215423584,-0.0319459475576877,-0.0132327144965529
1769252617194,-0.1123809814453125,-0.993743896484375,-0.083892822265625,0.1252905428409576,-0.031236482784152,0.0094211986288428
1769252617204,-0.0993499755859375,-0.993682861328125,-0.076416015625,0.0752590671181678,-0.0277887545526027,0.0350807569921016
1769252617214,-0.0947265625,-0.9939727783203124,-0.0751190185546875,0.0255410466343164,-0.0219210106879472,0.0562315806746482
1769252617224,-0.0941162109375,-0.99737548828125,-0.07440185546875,-0.034048780798912,-0.0158676467835903,0.0804903134703636
1769252617234,-0.089813232421875,-0.998443603515625,-0.076507568359375,-0.089888609945774,-0.0039262985810637,0.1010693609714508
1769252617244,-0.09014892578125,-0.98919677734375,-0.082489013671875,-0.1382516175508499,0.0055883773602545,0.1135222986340522
1769252617254,-0.095123291015625,-0.98760986328125,-0.08843994140625,-0.1819293200969696,0.0126164592802524,0.1148986220359802
1769252617264,-0.1004486083984375,-0.99310302734375,-0.090240478515625,-0.2242607921361923,0.0419210828840732,0.1054856777191162
1769252617275,-0.101806640625,-0.990386962890625,-0.0972747802734375,-0.2640303075313568,0.0587213709950447,0.0939504653215408
1769252617284,-0.0980377197265625,-0.9837493896484376,-0.1049957275390625,-0.2988330423831939,0.0496098957955837,0.0769198164343833
1769252617294,-0.0986328125,-0.9803009033203124,-0.1134796142578125,-0.3266849219799042,0.0492109544575214,0.057162620127201
1769252617304,-0.0972137451171875,-0.9756011962890624,-0.12249755859375,-0.3435395359992981,0.0514757074415683,0.0345055125653743
1769252617314,-0.09881591796875,-0.9741973876953124,-0.1353759765625,-0.3523702919483185,0.0495853945612907,0.0090153329074382
1769252617325,-0.09930419921875,-0.97100830078125,-0.1480255126953125,-0.3473379909992218,0.029126726090908,-0.0177342556416988
1769252617334,-0.095367431640625,-0.970611572265625,-0.159271240234375,-0.3361061215400696,0.0136471027508378,-0.037148967385292
1769252617344,-0.089263916015625,-0.9721832275390624,-0.1681671142578125,-0.3168914020061493,0.0132862441241741,-0.0573596954345703
1769252617354,-0.084808349609375,-0.9744720458984376,-0.1753692626953125,-0.2964961230754852,0.0175891127437353,-0.0708619207143783
1769252617364,-0.076904296875,-0.969757080078125,-0.1766204833984375,-0.2773096263408661,0.0221444498747587,-0.082646407186985
1769252617375,-0.0760955810546875,-0.9745635986328124,-0.181884765625,-0.2538793981075287,0.0253490321338176,-0.0920047610998153
1769252617384,-0.07550048828125,-0.9822998046875,-0.1864166259765625,-0.2260544449090957,0.0334887169301509,-0.0979113802313804
1769252617395,-0.074859619140625,-0.98394775390625,-0.191650390625,-0.189629316329956,0.0352578572928905,-0.1011087745428085
1769252617405,-0.07196044921875,-0.985198974609375,-0.2003936767578125,-0.1501066833734512,0.0261373277753591,-0.0992996916174888
1769252617415,-0.070526123046875,-0.9854888916015624,-0.206939697265625,-0.1087150275707244,0.013244698755443,-0.0947779044508934
1769252617425,-0.068115234375,-0.98602294921875,-0.20855712890625,-0.0736550465226173,0.0072491243481636,-0.0861500650644302
1769252617435,-0.070159912109375,-0.987945556640625,-0.2041473388671875,-0.042400985956192,0.0149456597864627,-0.0805033668875694
1769252617445,-0.0756072998046875,-0.9903717041015624,-0.20111083984375,-0.0198559965938329,0.0193798225373029,-0.0677508190274238
1769252617455,-0.0787200927734375,-0.988189697265625,-0.19879150390625,0.0022943131625652,0.0204956866800785,-0.0544203631579875
1769252617465,-0.08203125,-0.99298095703125,-0.20245361328125,0.0191558506339788,0.0192916728556156,-0.0415636897087097
1769252617475,-0.0828704833984375,-0.9932098388671876,-0.205291748046875,0.0375604256987571,0.0209044832736253,-0.0284212548285722
1769252617485,-0.0861663818359375,-0.9756317138671876,-0.2047576904296875,0.054381750524044,0.0193236302584409,-0.0175270624458789
1769252617495,-0.0914459228515625,-0.9683685302734376,-0.200408935546875,0.0734214857220649,0.0079724388197064,-0.0050432281568646
1769252617505,-0.0971527099609375,-0.97528076171875,-0.198974609375,0.1043184176087379,0.0064349961467087,0.0041950112208724
1769252617515,-0.1044769287109375,-0.9584808349609376,-0.197601318359375,0.1319202184677124,-0.0036061864811927,0.0117426756769418
1769252617525,-0.1131744384765625,-0.96771240234375,-0.1950225830078125,0.1561962664127349,-0.0110238892957568,0.0112481275573372
1769252617535,-0.115081787109375,-0.9731597900390624,-0.1899871826171875,0.1733555346727371,-0.0198514685034751,0.0113040534779429
1769252617545,-0.1136322021484375,-0.975982666015625,-0.183990478515625,0.1868457794189453,-0.0325030833482742,0.008970059454441
1769252617555,-0.115234375,-0.9710235595703124,-0.17633056640625,0.1939604133367538,-0.0382097028195858,0.0149339418858289
1769252617565,-0.1113433837890625,-0.962005615234375,-0.167572021484375,0.1997621208429336,-0.0379236787557601,0.0186479855328798
1769252617576,-0.119293212890625,-0.9591827392578124,-0.16131591796875,0.2027672231197357,-0.0345273502171039,0.0157925449311733
1769252617586,-0.123291015625,-0.965545654296875,-0.1587371826171875,0.2016995698213577,-0.0277248378843069,0.0167038794606924
1769252617596,-0.1174774169921875,-0.9758148193359376,-0.1562347412109375,0.1969940215349197,-0.0268316138535738,0.0209484249353408
1769252617606,-0.108245849609375,-0.9837646484375,-0.1502838134765625,0.1872854679822921,-0.0311773605644702,0.0260566342622041
1769252617616,-0.1024017333984375,-0.9839630126953124,-0.1427001953125,0.1739014834165573,-0.0380440540611743,0.0313619188964366
1769252617626,-0.100982666015625,-0.9854888916015624,-0.133148193359375,0.1580168008804321,-0.0361971519887447,0.031524371355772
1769252617636,-0.102569580078125,-0.98809814453125,-0.1248626708984375,0.1333484649658203,-0.023182550445199,0.0329941697418689
1769252617646,-0.104034423828125,-0.9878997802734376,-0.1158905029296875,0.1046113669872284,-0.0086419573053717,0.0344290807843208
1769252617656,-0.09954833984375,-0.988494873046875,-0.1103057861328125,0.0695777460932731,-0.0037920749746263,0.0347238928079605
1769252617666,-0.0963897705078125,-0.988922119140625,-0.10577392578125,0.0383287481963634,0.0001350222592009,0.0303099695593118
1769252617676,-0.097198486328125,-0.992401123046875,-0.1051788330078125,0.00663872808218,0.002060487633571,0.0285647995769977
1769252617686,-0.0921630859375,-0.99237060546875,-0.101898193359375,-0.0276838261634111,0.0071055800653994,0.0191675685346126
1769252617697,-0.0908050537109375,-0.9944305419921876,-0.101409912109375,-0.0639321133494377,0.012942430563271,0.0161685831844806
1769252617706,-0.0869598388671875,-0.99365234375,-0.1042327880859375,-0.0960881859064102,0.0197388175874948,0.0158575270324945
1769252617716,-0.08331298828125,-0.9933013916015624,-0.1093292236328125,-0.1229128763079643,0.023798806592822,0.0108838062733411
1769252617726,-0.0832366943359375,-0.9895782470703124,-0.1157379150390625,-0.141754999756813,0.0289251245558261,0.0063306000083684
1769252617736,-0.0780181884765625,-0.98614501953125,-0.1215972900390625,-0.1576844304800033,0.0226240865886211,0.0038075214251875
1769252617746,-0.0765838623046875,-0.98822021484375,-0.129669189453125,-0.163381740450859,0.01959740370512,0.0004801679460797
1769252617757,-0.0780487060546875,-0.9766998291015624,-0.13873291015625,-0.164528489112854,0.01967010833323,-0.0056493636220693
1769252617766,-0.081634521484375,-0.974273681640625,-0.144287109375,-0.1672065705060959,0.0157398153096437,-0.012852681800723
1769252617776,-0.083984375,-0.97503662109375,-0.147552490234375,-0.1731858998537063,0.0209271200001239,-0.0202842317521572
1769252617786,-0.0873260498046875,-0.9763336181640624,-0.1524505615234375,-0.1746841967105865,0.0233673732727766,-0.0308825485408306
1769252617797,-0.093353271484375,-0.974395751953125,-0.161651611328125,-0.1707166135311126,0.0170237254351377,-0.037536721676588
1769252617807,-0.094329833984375,-0.9739532470703124,-0.1696929931640625,-0.168374091386795,0.0102313319221138,-0.0424774177372455
1769252617817,-0.0961151123046875,-0.9739990234375,-0.1750335693359375,-0.1600093692541122,0.0090938964858651,-0.0493441149592399
1769252617827,-0.096954345703125,-0.9734344482421876,-0.1842193603515625,-0.1516204178333282,0.0127482861280441,-0.0516789071261882
1769252617837,-0.0973358154296875,-0.9733734130859376,-0.1881103515625,-0.1396854668855667,0.0156061239540576,-0.0537862665951252
1769252617847,-0.0980682373046875,-0.980560302734375,-0.193389892578125,-0.1230151355266571,0.0155187724158167,-0.0505084469914436
1769252617857,-0.0939178466796875,-0.982879638671875,-0.1977386474609375,-0.099631518125534,0.0120060630142688,-0.0495052337646484
1769252617867,-0.0889892578125,-0.9815521240234376,-0.1991119384765625,-0.0766713395714759,0.0045992792584002,-0.041939727962017
1769252617877,-0.087310791015625,-0.9803619384765624,-0.2010955810546875,-0.0502535812556743,-0.0029153623618185,-0.0356573313474655
1769252617887,-0.0882415771484375,-0.9819183349609376,-0.200469970703125,-0.0232760272920131,-0.0041257692500948,-0.0293701384216547
1769252617897,-0.0892486572265625,-0.982208251953125,-0.1979522705078125,0.0008881642133928,-0.0052296495996415,-0.0266374703496694
1769252617907,-0.08782958984375,-0.981781005859375,-0.1940155029296875,0.0241836328059434,-0.0031438616570085,-0.0158617869019508
1769252617917,-0.087158203125,-0.98272705078125,-0.19378662109375,0.0457762777805328,0.0023241406306624,-0.0044362936168909
1769252617927,-0.0836334228515625,-0.9830169677734376,-0.1907958984375,0.0690581649541854,0.0057364488020539,0.0059305932372808
1769252617937,-0.0826873779296875,-0.9832916259765624,-0.18756103515625,0.09315737336874,0.0047920919023454,0.0165901612490415
1769252617947,-0.08270263671875,-0.9829559326171876,-0.1840362548828125,0.1225754469633102,-1.0386328540334944e-05,0.0228307470679283
1769252617957,-0.0858917236328125,-0.9817352294921876,-0.1830902099609375,0.1500153243541717,-0.006630206014961,0.0296612232923507
1769252617967,-0.090423583984375,-0.9794464111328124,-0.180328369140625,0.1717065125703811,-0.0157776307314634,0.0337766073644161
1769252617977,-0.0905609130859375,-0.982818603515625,-0.1708221435546875,0.1800978630781173,-0.0203201845288276,0.0376096926629543
1769252617987,-0.0890350341796875,-0.9858856201171876,-0.1567535400390625,0.1688342988491058,-0.0215465705841779,0.0386198312044143
1769252617998,-0.089385986328125,-0.98272705078125,-0.1424407958984375,0.1550079584121704,-0.0086795082315802,0.0351814217865467
1769252618008,-0.0950469970703125,-0.9716949462890624,-0.1328582763671875,0.130360409617424,-0.0012407667236402,0.0321536734700202
1769252618018,-0.0965728759765625,-0.9794769287109376,-0.1212158203125,0.1077866479754448,0.0015387744642794,0.0293594859540462
1769252618028,-0.10113525390625,-0.9685516357421876,-0.11724853515625,0.0914079472422599,-0.0042980755679309,0.0239743087440729
1769252618038,-0.1097869873046875,-0.9615478515625,-0.117279052734375,0.0664551928639411,-0.0177406482398509,0.0130574787035584
1769252618048,-0.112823486328125,-0.980621337890625,-0.1229248046875,0.0355667807161808,-0.0085540730506181,0.0013081447687
1769252618058,-0.1058197021484375,-0.98211669921875,-0.122039794921875,0.0018698053900152,-0.0013041499769315,-0.0005366269615478
1769252618068,-0.1021881103515625,-0.985198974609375,-0.125152587890625,-0.0281783752143383,0.0076816217042505,-0.0039489353075623
1769252618078,-0.10076904296875,-0.9792022705078124,-0.1297760009765625,-0.0541710928082466,0.0057662762701511,-0.0071748220361769
1769252618088,-0.1054534912109375,-0.9739532470703124,-0.1373443603515625,-0.0738625079393386,0.0011512845521792,-0.0147219542413949
1769252618098,-0.1155853271484375,-0.9765472412109376,-0.145660400390625,-0.0937912091612815,0.0023206786718219,-0.0239777714014053
1769252618108,-0.112091064453125,-0.98211669921875,-0.151214599609375,-0.1096500679850578,-0.0064096958376467,-0.0247767195105552
1769252618118,-0.1019439697265625,-0.98675537109375,-0.1581573486328125,-0.1210523918271064,-0.0101114902645349,-0.0207201912999153
1769252618128,-0.0905914306640625,-0.987762451171875,-0.162017822265625,-0.1340454220771789,-0.0035942022223025,-0.0152412708848714
1769252618138,-0.0890960693359375,-0.987579345703125,-0.159149169921875,-0.1476091593503952,0.0115258945152163,-0.0093655381351709
1769252618148,-0.086578369140625,-0.983551025390625,-0.156524658203125,-0.1556308716535568,0.024434769526124,-0.0079679116606712
1769252618158,-0.0882720947265625,-0.9831695556640624,-0.15997314453125,-0.156513974070549,0.0317528694868087,-0.0011395666515454
1769252618168,-0.0854949951171875,-0.978515625,-0.16217041015625,-0.1538055390119552,0.038457378745079,-6.897587445564568e-05
1769252618178,-0.086883544921875,-0.97918701171875,-0.1651153564453125,-0.1414580643177032,0.0356240421533584,0.0040109870024025
1769252618188,-0.085205078125,-0.978271484375,-0.1691436767578125,-0.1285174936056137,0.0296095572412014,0.0047729173675179
1769252618198,-0.082305908203125,-0.9784393310546876,-0.1709136962890625,-0.1104894950985908,0.0255287960171699,0.0030221552588045
1769252618209,-0.086273193359375,-0.9828643798828124,-0.1743011474609375,-0.0902249664068222,0.027002589777112,-0.0007195860962383
1769252618219,-0.085693359375,-0.9843902587890624,-0.17779541015625,-0.0679074078798294,0.0255080237984657,-0.0057042245753109
1769252618229,-0.0853118896484375,-0.986358642578125,-0.182159423828125,-0.0447666719555854,0.0199545323848724,-0.0058762650005519
1769252618239,-0.0826568603515625,-0.9833984375,-0.185272216796875,-0.0145017113536596,0.0084962826222181,-0.0061348578892648
1769252618249,-0.082977294921875,-0.97802734375,-0.191070556640625,0.0127064744010567,-0.0080302292481064,-0.0062001054175198
1769252618259,-0.08331298828125,-0.9831085205078124,-0.1908721923828125,0.042213499546051,-0.010430802591145,-0.00331936404109
1769252618269,-0.0826568603515625,-0.978179931640625,-0.192352294921875,0.0667603909969329,-0.0111740911379456,-0.0018506306223571
1769252618279,-0.082061767578125,-0.9742279052734376,-0.184356689453125,0.0766436457633972,-0.0098166782408952,0.0021049624774605
1769252618289,-0.0814971923828125,-0.9765777587890624,-0.1719970703125,0.079272449016571,-0.0073226275853812,0.0047569382004439
1769252618299,-0.086700439453125,-0.9817352294921876,-0.1674957275390625,0.077338732779026,-0.0084552699699997,0.0027401263359934
1769252618309,-0.092620849609375,-0.97943115234375,-0.1667938232421875,0.0747799649834632,-0.0139749376103281,0.0010958907660096
1769252618319,-0.0981903076171875,-0.9778289794921876,-0.168548583984375,0.0672522708773613,-0.0214147437363863,0.003458913648501
1769252618329,-0.0997772216796875,-0.9761810302734376,-0.1658172607421875,0.0557423569262027,-0.0223172903060913,0.0031414648983627
1769252618339,-0.10162353515625,-0.978057861328125,-0.1627960205078125,0.0421501174569129,-0.0115458685904741,-0.0020881847012788
1769252618349,-0.099822998046875,-0.9810333251953124,-0.15899658203125,0.0299270059913396,0.0043787695467472,-0.0018740664236247
1769252618359,-0.0970001220703125,-0.9809417724609376,-0.1553955078125,0.016365922987461,0.0075798891484737,-0.0004583300324156
1769252618369,-0.0956573486328125,-0.98046875,-0.15338134765625,0.0056648100726306,0.0023201459553092,-0.0007922904333099
1769252618379,-0.098388671875,-0.9781341552734376,-0.1575469970703125,0.0013385047204792,-0.001980326604098,-0.0014743260107934
1769252618389,-0.0976715087890625,-0.9753875732421876,-0.1605377197265625,-0.0015678029740229,-0.0028104339726269,-0.0023803333751857
1769252618399,-0.0980682373046875,-0.9770355224609376,-0.1644287109375,-0.0010458233300596,0.0002013349730987,-0.0018263958627358
1769252618410,-0.09765625,-0.9781494140625,-0.166961669921875,0.0009113337146118,0.00056485645473,-0.0036125779151916
1769252618419,-0.09820556640625,-0.9792633056640624,-0.1632080078125,-0.0017536915838718,0.0060222060419619,-0.0061114220879971
1769252618430,-0.0977020263671875,-0.9802703857421876,-0.1593780517578125,-0.0037622477393597,0.0076504629105329,-0.0034466630313545
1769252618440,-0.095123291015625,-0.978118896484375,-0.157196044921875,-0.006237655878067,0.0051553472876548,-0.004464257042855
1769252618450,-0.0941619873046875,-0.97894287109375,-0.158843994140625,-0.0038424087688326,0.0016820525052025,-0.0015411713393405
1769252618460,-0.0928192138671875,-0.9794158935546876,-0.162689208984375,-0.00247807148844,0.0026346652302891,-0.0010623349808156
1769252618470,-0.0921783447265625,-0.9793243408203124,-0.1617889404296875,-9.986854274757206e-05,0.0065966499969363,-0.0009667274425737
1769252618480,-0.0933380126953125,-0.9784393310546876,-0.1602325439453125,-0.0001818939053919,0.0048096687532961,0.0030804784037172
1769252618490,-0.0892181396484375,-0.9813079833984376,-0.1583404541015625,-0.0057798586785793,0.0047015445306897,0.0059084892272949
1769252618500,-0.08612060546875,-0.990020751953125,-0.1556854248046875,-0.0178405158221721,0.0051172641105949,0.0100060291588306
1769252618510,-0.0820465087890625,-0.991546630859375,-0.1552581787109375,-0.0298875905573368,0.0158490035682916,0.0122018046677112
1769252618520,-0.08251953125,-0.9835052490234376,-0.15655517578125,-0.0389181040227413,0.0252760611474514,0.0118808941915631
1769252618530,-0.088226318359375,-0.9823455810546876,-0.15362548828125,-0.0481550134718418,0.0232999958097934,0.0114638432860374
1769252618540,-0.0900421142578125,-0.980377197265625,-0.1520843505859375,-0.0420529097318649,0.0169065445661544,0.0118396151810884
1769252618550,-0.09576416015625,-0.96728515625,-0.1566925048828125,-0.0379862636327743,0.0051516187377274,0.003295661881566
1769252618560,-0.1004638671875,-0.9712677001953124,-0.1559906005859375,-0.0397040024399757,0.0037009948864579,-0.0054719969630241
1769252618570,-0.0973358154296875,-0.9812164306640624,-0.157012939453125,-0.0461927950382232,0.0162239763885736,-0.012157330289483
1769252618580,-0.093658447265625,-0.9846343994140624,-0.1630401611328125,-0.0462359376251697,0.0211068838834762,-0.014527010731399
1769252618590,-0.088958740234375,-0.9766845703125,-0.16961669921875,-0.0431109853088855,0.0148676289245486,-0.0137187419459223
1769252618600,-0.090850830078125,-0.9701690673828124,-0.171875,-0.0385993234813213,0.0047966195270419,-0.0150354085490107
1769252618611,-0.0956573486328125,-0.969085693359375,-0.17156982421875,-0.0398733802139759,-0.0035420041531324,-0.0122747756540775
1769252618620,-0.0955963134765625,-0.9784393310546876,-0.1732940673828125,-0.0454638861119747,-0.0019196064677089,-0.0098973717540502
1769252618630,-0.088531494140625,-0.9879913330078124,-0.1759185791015625,-0.0509492009878158,0.0006815029191784,-0.0050514838658273
1769252618641,-0.0797576904296875,-0.989105224609375,-0.1761627197265625,-0.0576246790587902,0.0039502666331827,0.0009856359101831
1769252618650,-0.07977294921875,-0.9866180419921876,-0.1727447509765625,-0.0662735626101493,0.0119884861633181,0.0009544769418425
1769252618661,-0.086273193359375,-0.98223876953125,-0.1717376708984375,-0.0719567462801933,0.0153603143990039,0.0058549595996737
1769252618671,-0.0894317626953125,-0.9727325439453124,-0.174285888671875,-0.0821017920970916,0.0156276952475309,0.0096313217654824
1769252618681,-0.09027099609375,-0.970367431640625,-0.1739349365234375,-0.0830077975988388,0.0155123807489871,0.0088398307561874
1769252618691,-0.0967254638671875,-0.97698974609375,-0.1793670654296875,-0.0834062099456787,0.0173020251095294,0.0059353872202336
1769252618702,-0.0973358154296875,-0.9762115478515624,-0.1764984130859375,-0.0794596746563911,0.0227947942912578,-0.0029585056472569
1769252618711,-0.1022491455078125,-0.9787750244140624,-0.1788482666015625,-0.0697468593716621,0.0285283140838146,-0.0116982012987136
1769252618721,-0.1083984375,-0.9825286865234376,-0.1883087158203125,-0.0438742488622665,0.0281504113227128,-0.0226376671344041
1769252618731,-0.10711669921875,-0.984527587890625,-0.20001220703125,-0.0058190068230032,0.0155669758096337,-0.0269597116857767
1769252618741,-0.1002655029296875,-0.985992431640625,-0.2109375,0.0438777096569538,-0.0005161206354387,-0.0265229530632495
1769252618751,-0.0930328369140625,-0.993682861328125,-0.2170562744140625,0.0987140610814094,-0.0080222403630614,-0.0257490389049053
1769252618761,-0.082000732421875,-0.98419189453125,-0.2071380615234375,0.1375211030244827,-0.0121155185624957,-0.0166500825434923
1769252618771,-0.0745697021484375,-0.9857940673828124,-0.1891632080078125,0.1710055619478225,-0.0110939303413033,-0.0069303442724049
1769252618781,-0.072052001953125,-0.9861602783203124,-0.174896240234375,0.1989604979753494,-0.0151307499036192,0.0052211270667612
1769252618792,-0.0702056884765625,-0.973785400390625,-0.1586456298828125,0.2122350335121154,-0.0329267904162406,0.0173891093581914
1769252618801,-0.0752716064453125,-0.972412109375,-0.143218994140625,0.2112142443656921,-0.04160762950778,0.0243412926793098
1769252618811,-0.081634521484375,-0.9749908447265624,-0.1322021484375,0.199627086520195,-0.0357484109699726,0.0269956644624471
1769252618821,-0.0865325927734375,-0.97528076171875,-0.1282806396484375,0.1795588433742523,-0.0210163351148366,0.0308343451470136
1769252618831,-0.091033935546875,-0.97930908203125,-0.1236572265625,0.1526758223772049,-0.0140835950151085,0.0371351167559623
1769252618841,-0.093597412109375,-0.978912353515625,-0.12152099609375,0.122363731265068,-0.0155613832175731,0.0425434671342372
1769252618851,-0.0950164794921875,-0.98016357421875,-0.1217803955078125,0.0912641361355781,-0.0184626299887895,0.0440327040851116
1769252618862,-0.1038665771484375,-0.98455810546875,-0.124053955078125,0.0619645677506923,-0.0175616834312677,0.038871232420206
1769252618872,-0.1115875244140625,-0.987030029296875,-0.125030517578125,0.0274156462401151,-0.0179273355752229,0.0312910787761211
1769252618882,-0.116455078125,-0.988250732421875,-0.1240997314453125,-0.0130449617281556,-0.0099658146500587,0.0242962855845689
1769252618892,-0.1150054931640625,-0.98333740234375,-0.1217041015625,-0.0532051660120487,-0.001489505986683,0.0131355095654726
1769252618902,-0.114105224609375,-0.9850311279296876,-0.12445068359375,-0.0881205350160598,-0.0013382384786382,0.0053175338543951
1769252618912,-0.1078948974609375,-0.979522705078125,-0.1268157958984375,-0.1247754842042923,-0.0008498146780766,-0.0066693541593849
1769252618922,-0.104644775390625,-0.9796142578125,-0.1297454833984375,-0.1539711952209472,0.0030991204548627,-0.0150737576186656
1769252618932,-0.101593017578125,-0.978363037109375,-0.1343231201171875,-0.185405284166336,0.011666509322822,-0.0202035382390022
1769252618942,-0.095855712890625,-0.9720001220703124,-0.13739013671875,-0.2121998816728592,0.0237002689391374,-0.0209657363593578
1769252618952,-0.091552734375,-0.971343994140625,-0.1448822021484375,-0.2335563004016876,0.0293227341026067,-0.022801985964179
1769252618962,-0.0889129638671875,-0.969940185546875,-0.1528472900390625,-0.2471029907464981,0.03083461150527,-0.0264806095510721
1769252618972,-0.094024658203125,-0.9687347412109376,-0.1615447998046875,-0.257324755191803,0.0313616506755352,-0.02858716994524
1769252618982,-0.0967254638671875,-0.966888427734375,-0.17181396484375,-0.2592124044895172,0.0337188132107257,-0.0306868068873882
1769252618992,-0.0943603515625,-0.9688568115234376,-0.1816558837890625,-0.2527830004692077,0.033728402107954,-0.0295509677380323
1769252619002,-0.0928802490234375,-0.9717864990234376,-0.1908416748046875,-0.2467202991247177,0.0305794812738895,-0.0279093962162733
1769252619012,-0.0918426513671875,-0.9817352294921876,-0.19854736328125,-0.2364285141229629,0.03108068741858,-0.0293336547911167
1769252619022,-0.0929107666015625,-0.9917144775390624,-0.2089691162109375,-0.2185017168521881,0.0364871695637702,-0.0278532020747661
1769252619032,-0.09002685546875,-0.9879608154296876,-0.2189178466796875,-0.1962059885263443,0.0339305363595485,-0.0288827810436487
1769252619042,-0.0906219482421875,-0.977294921875,-0.2205810546875,-0.1670228093862533,0.0217819940298795,-0.0295493695884943
1769252619052,-0.090911865234375,-0.98974609375,-0.2232666015625,-0.122689701616764,0.0136545598506927,-0.026660107076168
1769252619063,-0.0852203369140625,-0.978515625,-0.2279205322265625,-0.0745208412408828,0.0078446073457598,-0.0221732128411531
1769252619072,-0.0865020751953125,-0.973052978515625,-0.225921630859375,-0.0279783718287944,0.0044810348190367,-0.0188799481838941
1769252619083,-0.083770751953125,-0.98260498046875,-0.22515869140625,0.017560351639986,0.0009994843276217,-0.0146939912810921
1769252619093,-0.0745086669921875,-0.98651123046875,-0.2231292724609375,0.0542445965111255,-0.0036836843937635,-0.000434361572843
1769252619103,-0.06622314453125,-0.9808502197265624,-0.2183074951171875,0.0936681702733039,-0.001348891062662,0.0146114332601428
1769252619113,-0.065765380859375,-0.9727783203125,-0.2097320556640625,0.1293483972549438,-0.0036376116331666,0.0261453166604042
1769252619123,-0.074615478515625,-0.97027587890625,-0.1983642578125,0.1536353677511215,-0.0073617761954665,0.0295672137290239
1769252619133,-0.082763671875,-0.9670562744140624,-0.1884002685546875,0.1733081340789795,-0.0100936470553278,0.0301275420933961
1769252619143,-0.087554931640625,-0.97491455078125,-0.187103271484375,0.190863162279129,-0.0102023035287857,0.0332884490489959
1769252619153,-0.08453369140625,-0.97674560546875,-0.1846923828125,0.2022260725498199,-0.0182221475988626,0.0349164381623268
1769252619163,-0.0828704833984375,-0.977996826171875,-0.17852783203125,0.2086589336395263,-0.0301043726503849,0.032582975924015
1769252619173,-0.0887298583984375,-0.97845458984375,-0.1691741943359375,0.2064471840858459,-0.0343840718269348,0.0281522758305072
1769252619183,-0.09722900390625,-0.97509765625,-0.156280517578125,0.1970299780368805,-0.0327502228319644,0.0198954101651906
1769252619193,-0.1072998046875,-0.97576904296875,-0.1488800048828125,0.1769713163375854,-0.0225034449249506,0.0138068925589323
1769252619203,-0.1091766357421875,-0.972259521484375,-0.1425628662109375,0.1480342000722885,-0.0192887429147958,0.0114742293953895
1769252619213,-0.1063079833984375,-0.9720916748046876,-0.137115478515625,0.1129084452986717,-0.011085407808423,0.0106976516544818
1769252619223,-0.1078033447265625,-0.9775848388671876,-0.13311767578125,0.0774684250354766,-0.0028751487843692,0.0055553540587425
1769252619233,-0.109893798828125,-0.9820404052734376,-0.1316680908203125,0.0406694002449512,-0.0005504753789864,0.0028282769490033
1769252619243,-0.1085205078125,-0.98297119140625,-0.1313018798828125,0.0018839201657101,-0.0048424256965518,-0.0011358382180333
1769252619254,-0.1073455810546875,-0.985504150390625,-0.13214111328125,-0.0362200550734996,-0.0086464853957295,-0.0027214842848479
1769252619264,-0.101348876953125,-0.98785400390625,-0.1344757080078125,-0.0711239799857139,-0.0077687073498964,-0.0017145430902019
1769252619273,-0.0946197509765625,-0.9871063232421876,-0.139556884765625,-0.0975366756319999,0.0004759068833664,-0.0029305424541234
1769252619284,-0.0930633544921875,-0.981658935546875,-0.14501953125,-0.1222241818904876,0.0022085595410317,-0.0010820423485711
1769252619294,-0.0859222412109375,-0.986602783203125,-0.148773193359375,-0.1399517804384231,0.006982275750488,0.0063247410580515
1769252619304,-0.080841064453125,-0.977142333984375,-0.1542205810546875,-0.1514286696910858,0.0057135457172989,0.011430287733674
1769252619314,-0.0810089111328125,-0.9733734130859376,-0.156585693359375,-0.1654179841279983,0.0078704403713345,0.0113075152039527
