timestamp_ms,acc_x,acc_y,acc_z,gyro_x,gyro_y,gyro_z
1768730271879,0.0888824462890625,-0.4681396484375,-0.86248779296875,-0.0460891984403133,-0.0185273457318544,-0.0037316211964935
1768730271886,0.0876007080078125,-0.470428466796875,-0.86370849609375,-0.0550145171582698,-0.0256936457008123,-9.53411654336378e-05
1768730271896,0.0805511474609375,-0.472412109375,-0.862274169921875,-0.0546560548245906,-0.0205886326730251,-0.0011427623685449
1768730271906,0.0767822265625,-0.47271728515625,-0.8693084716796875,-0.0480069406330585,-0.018280204385519,0.0021339908707886
1768730271917,0.075653076171875,-0.471282958984375,-0.8744964599609375,-0.0407953672111034,-0.0156953390687704,0.0010626012226566
1768730271926,0.073486328125,-0.469970703125,-0.8783721923828125,-0.0364738553762435,-0.0126393623650074,0.0001930791768245
1768730271939,0.0713043212890625,-0.46917724609375,-0.877166748046875,-0.0310010593384504,-0.0120974089950323,-0.002305498579517
1768730271948,0.071807861328125,-0.4708251953125,-0.875030517578125,-0.0335497036576271,-0.0140761379152536,-0.0077282269485294
1768730271957,0.07177734375,-0.4727935791015625,-0.8715362548828125,-0.038337267935276,-0.0113698337227106,-0.0096941730007529
1768730271967,0.07745361328125,-0.475128173828125,-0.8722991943359375,-0.0350903421640396,-0.0039790291339159,-0.0082989428192377
1768730271977,0.0837554931640625,-0.4732818603515625,-0.877288818359375,-0.0371633470058441,-0.0047750477679073,-0.0082456795498728
1768730271987,0.0872650146484375,-0.4702301025390625,-0.879425048828125,-0.0279048681259155,-0.0049204565584659,-0.006868558935821
1768730271997,0.0887603759765625,-0.4751129150390625,-0.885009765625,-0.0220267381519079,0.0078584561124444,-0.007873635739088
1768730272007,0.086639404296875,-0.472900390625,-0.8800811767578125,-0.020723920315504,0.0238946806639432,-0.0109850065782666
1768730272017,0.082000732421875,-0.4720001220703125,-0.88043212890625,-0.0223609656095504,0.0230073146522045,-0.0133405728265643
1768730272027,0.0833740234375,-0.4683990478515625,-0.884124755859375,-0.0152034536004066,0.0098712723702192,-0.0084126591682434
1768730272037,0.0872802734375,-0.466766357421875,-0.890045166015625,-0.0095034902915358,-0.0013062804937362,-0.0015954998089
1768730272048,0.0850677490234375,-0.4712982177734375,-0.887603759765625,-0.0077455374412238,-0.0027401263359934,-0.0046647931449115
1768730272057,0.0797882080078125,-0.4734954833984375,-0.8756866455078125,-0.0148021159693598,0.0040416130796074,-0.0074355457909405
1768730272067,0.0788421630859375,-0.4752197265625,-0.8701934814453125,-0.0231665726751089,0.0057606836780905,-0.0053058159537613
1768730272077,0.0812835693359375,-0.4718780517578125,-0.8704681396484375,-0.0259399879723787,0.0050000851042568,0.0010705908061936
1768730272087,0.08154296875,-0.4683074951171875,-0.871612548828125,-0.0305395331233739,0.0045281727798283,0.0045303031802177
1768730272097,0.0786895751953125,-0.4679718017578125,-0.8690338134765625,-0.038833949714899,0.0050642671994864,0.0015917713753879
1768730272107,0.0719146728515625,-0.4664459228515625,-0.8668975830078125,-0.040116261690855,0.0080877542495727,-0.0023148194886744
1768730272117,0.0716400146484375,-0.4653167724609375,-0.8693084716796875,-0.0394195765256881,0.0068302094005048,-0.007563377264887
1768730272127,0.069000244140625,-0.4651031494140625,-0.866729736328125,-0.0437783747911453,0.0087186563760042,-0.0147784138098359
1768730272138,0.07177734375,-0.4677581787109375,-0.86724853515625,-0.0429959371685981,0.0082701807841658,-0.0104252099990844
1768730272148,0.0783843994140625,-0.470489501953125,-0.8734893798828125,-0.0454407185316085,-0.0006343649583868,-0.0089769829064607
1768730272158,0.0768890380859375,-0.4691925048828125,-0.87677001953125,-0.0441317744553089,-0.009867544285953,-0.0124947531148791
1768730272168,0.073974609375,-0.467315673828125,-0.8848876953125,-0.033810693770647,-0.0118478713557124,-0.0178306624293327
1768730272178,0.0755767822265625,-0.4654388427734375,-0.893035888671875,-0.0222847983241081,-0.0095192026346921,-0.0245857704430818
1768730272188,0.0752410888671875,-0.467071533203125,-0.8937530517578125,-0.0139717422425746,-0.0038506644777953,-0.0274249669164419
1768730272198,0.075592041015625,-0.4672393798828125,-0.891143798828125,-0.0061281998641788,0.0002095907693728,-0.0255892500281333
1768730272208,0.0810394287109375,-0.466094970703125,-0.8889617919921875,0.0020351877901703,0.0040032635442912,-0.0205220524221658
1768730272218,0.084259033203125,-0.464996337890625,-0.8831939697265625,0.0085490131750702,0.0063460464589297,-0.0165805742144584
1768730272228,0.08673095703125,-0.4650421142578125,-0.8779754638671875,0.0054003582336008,0.0074544539675116,-0.0117312241345644
1768730272238,0.0844268798828125,-0.4659423828125,-0.8698883056640625,-0.0022591594606637,0.0069425944238901,-0.0025968484114855
1768730272248,0.0862884521484375,-0.466583251953125,-0.8656463623046875,-0.007219829596579,-0.000146473859786,0.0033057818654924
1768730272258,0.086212158203125,-0.4671478271484375,-0.867584228515625,-0.0132867768406867,-0.0008303736103698,0.0103170862421393
1768730272268,0.0812835693359375,-0.4679412841796875,-0.871429443359375,-0.0152359446510672,0.0021824603900313,0.0127179259434342
1768730272279,0.077911376953125,-0.4691314697265625,-0.8741912841796875,-0.0142303351312875,0.0020349214319139,0.0126023441553115
1768730272288,0.0790252685546875,-0.469635009765625,-0.879150390625,-0.0124276410788297,-0.0061540324240922,0.0151842795312404
1768730272298,0.082916259765625,-0.466583251953125,-0.8794097900390625,-0.012141884304583,-0.0095538236200809,0.0188112389296293
1768730272308,0.0833282470703125,-0.465728759765625,-0.882171630859375,-0.0134582845494151,-0.008944759145379,0.0194341521710157
1768730272318,0.075531005859375,-0.463836669921875,-0.8834991455078125,-0.0071236896328628,0.0052091432735323,0.0126947565004229
1768730272328,0.0701904296875,-0.45758056640625,-0.8914642333984375,0.001620533526875,0.0151762897148728,0.0046581351198256
1768730272338,0.075653076171875,-0.4541473388671875,-0.894195556640625,0.0103594306856393,0.0186727531254291,0.0005107942852191
1768730272349,0.080322265625,-0.45751953125,-0.8903045654296875,0.0125096663832664,0.0117671769112348,-4.900216299574822e-05
1768730272359,0.084442138671875,-0.4609527587890625,-0.8827362060546875,0.008526642806828,0.0090534156188368,0.0024711471050977
1768730272369,0.08966064453125,-0.4666290283203125,-0.8782806396484375,0.0081247715279459,0.0064586983062326,0.0061788000166416
1768730272379,0.0915985107421875,-0.4688873291015625,-0.8755645751953125,0.0058104847557842,0.0035886096302419,0.0119069935753941
1768730272389,0.0905914306640625,-0.471435546875,-0.8738250732421875,0.0053968960419297,0.0086121298372745,0.0158751029521226
1768730272399,0.08563232421875,-0.47442626953125,-0.872894287109375,0.0006641923682764,0.0124356308951973,0.0162133239209651
1768730272409,0.0798492431640625,-0.4751434326171875,-0.874847412109375,0.003269829088822,0.0181220117956399,0.0190400034189224
1768730272419,0.0777130126953125,-0.4730224609375,-0.8779144287109375,0.0021145499777048,0.0183912571519613,0.016114255413413
1768730272429,0.07598876953125,-0.4733123779296875,-0.8782958984375,0.0041992724873125,0.0138273984193801,0.0156255643814802
1768730272439,0.079315185546875,-0.4721527099609375,-0.8804473876953125,0.0112417358905076,0.0004769721417687,0.0170958954840898
1768730272449,0.0798492431640625,-0.472503662109375,-0.8824310302734375,0.01282818056643,-0.0063135558739304,0.014108894392848
1768730272459,0.077606201171875,-0.4741363525390625,-0.8790740966796875,0.0171281211078166,-0.0025142903905361,0.010833472944796
1768730272469,0.0772552490234375,-0.4733123779296875,-0.8822784423828125,0.0285719893872737,0.0092459628358483,0.0111932661384344
1768730272479,0.07916259765625,-0.4695892333984375,-0.8833465576171875,0.035432294011116,0.0157488696277141,0.0133285885676741
1768730272489,0.078948974609375,-0.4677276611328125,-0.8791656494140625,0.0361052751541137,0.0184831358492374,0.0080760363489389
1768730272499,0.0762939453125,-0.46649169921875,-0.8762969970703125,0.0310191679745912,0.0156846866011619,0.0041081923991441
1768730272509,0.072906494140625,-0.4659576416015625,-0.8680419921875,0.0231484621763229,0.0100465090945363,0.0007560714147984
1768730272519,0.075042724609375,-0.4657745361328125,-0.8636474609375,0.0064389910548925,0.0074499268084764,-0.0011036139912903
1768730272529,0.0758209228515625,-0.4682159423828125,-0.8580322265625,-0.0098568918183445,0.0036671727430075,-0.0019632822368294
1768730272539,0.07696533203125,-0.468414306640625,-0.8601531982421875,-0.0184652935713529,-0.0057244645431637,-0.0070640346966683
1768730272550,0.0774993896484375,-0.4673614501953125,-0.8681640625,-0.0206746514886617,-0.0062413844279944,-0.0107450559735298
1768730272560,0.0823822021484375,-0.469024658203125,-0.8777618408203125,-0.0112670352682471,-0.0135696046054363,-0.0075423386879265
1768730272570,0.088623046875,-0.467437744140625,-0.8893280029296875,0.0017092167399823,-0.0135658765211701,-0.0016825852217152
1768730272580,0.0897216796875,-0.4677276611328125,-0.8954010009765625,0.0162018723785877,-0.0156796276569366,0.0005552690709009
1768730272590,0.0829315185546875,-0.465057373046875,-0.8973846435546875,0.0353260338306427,-0.0100576942786574,0.0037878139410167
1768730272601,0.0802154541015625,-0.46588134765625,-0.8956756591796875,0.0474444814026355,-0.0023923176340758,0.0090965591371059
1768730272610,0.0795440673828125,-0.46875,-0.8884735107421875,0.0497670248150825,0.0064563015475869,0.0071402010507881
1768730272620,0.07342529296875,-0.4708251953125,-0.8811187744140625,0.0621011890470981,0.0304769482463598,0.0108787463977932
1768730272630,0.076812744140625,-0.4700164794921875,-0.8777923583984375,0.0401623323559761,0.0100204097107052,0.0034179009962826
1768730272640,0.0593109130859375,-0.476104736328125,-0.8498077392578125,0.0235466044396162,0.0361763797700405,-0.0100030992180109
1768730272650,0.0653228759765625,-0.47900390625,-0.8536224365234375,0.0093682017177343,0.0382443256676197,-0.0071005201898515
1768730272660,0.0777587890625,-0.4784088134765625,-0.8526458740234375,-0.0077239661477506,0.0296305958181619,-0.0020961740519851
1768730272670,0.0873565673828125,-0.475860595703125,-0.8552093505859375,-0.0169883053749799,0.0102869924157857,0.006590524688363
1768730272680,0.0890045166015625,-0.47686767578125,-0.8668060302734375,-0.0186399966478347,-0.0017406421247869,0.0068248827010393
1768730272690,0.0833740234375,-0.4727783203125,-0.8711395263671875,-0.0166519470512866,-0.0007408913807012,0.0053359093144536
1768730272700,0.08123779296875,-0.46771240234375,-0.880279541015625,-0.0097074881196022,-0.0050853062421083,0.0061082262545824
1768730272710,0.079345703125,-0.4664764404296875,-0.88458251953125,-0.0041718417778611,-0.0119048627093434,0.0088715218007564
1768730272720,0.078460693359375,-0.4662628173828125,-0.88818359375,0.0051321778446435,-0.0051550809293985,0.0058837216347455
1768730272730,0.0753173828125,-0.4688720703125,-0.8892059326171875,0.0185992512851953,0.0001099885557778,0.0029968551825731
1768730272740,0.0753326416015625,-0.46966552734375,-0.887542724609375,0.0308961309492588,0.0036195022985339,-0.0021433120127767
1768730272750,0.0849761962890625,-0.469085693359375,-0.8840484619140625,0.035688754171133,-0.000333427771693,0.0008900284301489
1768730272761,0.0888214111328125,-0.4681854248046875,-0.87738037109375,0.0316484719514846,-0.001718271523714,0.0023110911715775
1768730272771,0.074859619140625,-0.467803955078125,-0.869140625,0.0228576455265283,0.0105317365378141,-0.0064709489233791
1768730272781,0.059600830078125,-0.4650421142578125,-0.8624420166015625,0.0078003988601267,0.0291408412158489,-0.0155531270429492
1768730272790,0.059661865234375,-0.46630859375,-0.8625030517578125,0.0005637911963276,0.0268923342227935,-0.0189878065139055
1768730272801,0.071014404296875,-0.4674835205078125,-0.86871337890625,-0.0047329696826636,0.0142638906836509,-0.0145299406722188
1768730272811,0.079559326171875,-0.469512939453125,-0.869781494140625,-0.0141557659953832,0.0039119170978665,-0.0172165371477603
1768730272821,0.080291748046875,-0.4759063720703125,-0.865570068359375,-0.0206837076693773,0.0032245554029941,-0.0149219576269388
1768730272831,0.0853729248046875,-0.47833251953125,-0.86724853515625,-0.0212155394256114,-0.0016144082183018,-0.0087263798341155
1768730272841,0.091888427734375,-0.4805450439453125,-0.8731536865234375,-0.0149440616369247,0.003369963960722,-0.0017776599852368
1768730272851,0.092864990234375,-0.47906494140625,-0.8810882568359375,-0.0027052389923483,0.0048671932891011,-0.0002423476544208
1768730272861,0.0889739990234375,-0.4761199951171875,-0.8895111083984375,0.0112878084182739,0.008902414701879,0.0044770399108529
1768730272871,0.0874176025390625,-0.4750213623046875,-0.8936614990234375,0.0250707324594259,0.0108886007219553,-0.001635979861021
1768730272881,0.078033447265625,-0.4728546142578125,-0.892486572265625,0.0323446244001388,0.0231673698872327,-0.0098374504595994
1768730272891,0.0716552734375,-0.4709930419921875,-0.8881683349609375,0.0400568731129169,0.0309081152081489,-0.0134668061509728
1768730272901,0.074188232421875,-0.4715728759765625,-0.8824615478515625,0.0369039550423622,0.034877024590969,-0.0162095967680215
1768730272911,0.076446533203125,-0.472991943359375,-0.8692474365234375,0.0275562610477209,0.025162611156702,-0.0182389244437217
1768730272921,0.0755157470703125,-0.4708404541015625,-0.863922119140625,0.0233665760606527,0.0157371517270803,-0.0197497364133596
1768730272931,0.07940673828125,-0.467681884765625,-0.862457275390625,0.019462913274765,0.016940101981163,-0.0177933778613805
1768730272941,0.08331298828125,-0.4714508056640625,-0.8600616455078125,0.0092315813526511,0.0250448994338512,-0.017160078510642
1768730272951,0.0834808349609375,-0.4781341552734375,-0.853790283203125,-0.0041950112208724,0.0323073379695415,-0.0132388398051261
1768730272961,0.084197998046875,-0.4834136962890625,-0.8527679443359375,-0.0122068654745817,0.0228935983031988,-0.0056214001961052
1768730272971,0.0908355712890625,-0.4833984375,-0.857391357421875,-0.0238520689308643,0.0114382766187191,-0.0026256104465574
1768730272982,0.0889129638671875,-0.483795166015625,-0.8601531982421875,-0.0324157290160656,0.0132383070886135,-0.0057265954092144
1768730272992,0.0815277099609375,-0.477447509765625,-0.861358642578125,-0.0329648740589618,0.0152250258252024,-0.0034895399585366
1768730273002,0.0793609619140625,-0.47027587890625,-0.87689208984375,-0.0166167933493852,0.0092334458604455,-0.0003882888704538
1768730273012,0.0806884765625,-0.466461181640625,-0.8898162841796875,-0.0059287291951477,-0.0013233247445896,-0.0036346821580082
1768730273022,0.07720947265625,-0.46636962890625,-0.8888092041015625,-0.0001565938728163,-0.0027816717047244,-0.0083692502230405
1768730273032,0.073944091796875,-0.467529296875,-0.8873443603515625,0.006525277160108,-0.0001328917423961,-0.0178016331046819
1768730273042,0.0720672607421875,-0.46881103515625,-0.88299560546875,0.0037385455798357,0.0189233571290969,-0.0210323147475719
1768730273052,0.076934814453125,-0.474517822265625,-0.872955322265625,0.0044701159931719,0.0276761017739772,-0.0157802943140268
1768730273062,0.085845947265625,-0.47601318359375,-0.8720245361328125,0.0032466596458107,0.0295877195894718,-0.0103889917954802
1768730273072,0.088470458984375,-0.4766082763671875,-0.8695526123046875,0.0027790085878223,0.0310093145817518,-0.0086781764402985
1768730273082,0.088836669921875,-0.4768524169921875,-0.8658294677734375,-0.0044373590499162,0.0308380741626024,-0.0111746238544583
1768730273092,0.086578369140625,-0.477020263671875,-0.8620758056640625,-0.0064325993880629,0.0248640701174736,-0.0095114801079034
1768730273102,0.090423583984375,-0.4762725830078125,-0.8665924072265625,-0.0082512721419334,0.0100595578551292,-0.0030482541769742
1768730273112,0.092254638671875,-0.4774627685546875,-0.868408203125,-0.0077873491682112,-0.0074275564402341,-0.0017006946727633
1768730273122,0.089569091796875,-0.4766845703125,-0.872344970703125,-0.0052000884898006,-0.0160047989338636,-0.0024296017363667
1768730273132,0.0865936279296875,-0.4781951904296875,-0.8772430419921875,-0.0002063949796138,-0.013424995355308,-0.0030322752427309
1768730273142,0.0849456787109375,-0.4808197021484375,-0.878509521484375,0.0019060244085267,-0.0054855793714523,0.0028554413001984
1768730273152,0.08349609375,-0.48126220703125,-0.876678466796875,0.0072845444083213,-0.0012620720081031,0.0014620753936469
1768730273162,0.082366943359375,-0.47882080078125,-0.87664794921875,0.0072070462629199,0.006695719435811,0.006197708658874
1768730273172,0.0848388671875,-0.4789886474609375,-0.8750152587890625,0.0073481942526996,0.018767561763525,0.0075958678498864
1768730273183,0.083221435546875,-0.4777679443359375,-0.8737640380859375,0.0118265654891729,0.027174362912774,0.0056179384700953
1768730273192,0.0847015380859375,-0.47216796875,-0.8751373291015625,0.0168772507458925,0.0310503281652927,0.0062951799482107
1768730273203,0.090362548828125,-0.4723052978515625,-0.8715667724609375,0.0162348970770835,0.0236041285097599,0.0094997622072696
1768730273213,0.0928497314453125,-0.47662353515625,-0.864044189453125,0.0056773265823721,0.0130849089473485,0.0094973649829626
1768730273223,0.091705322265625,-0.4783935546875,-0.8594818115234375,-0.0053934338502585,-0.0012149340473115,0.0087876329198479
1768730273233,0.0864410400390625,-0.4793701171875,-0.85845947265625,-0.0139368548989295,-0.0049609364941716,0.0035947347059845
1768730273243,0.0857086181640625,-0.477935791015625,-0.8595123291015625,-0.0170357078313827,0.0170564819127321,0.0058317901566624
1768730273253,0.082977294921875,-0.4772491455078125,-0.86614990234375,-0.0279400218278169,-0.0060051619075238,3.2490566809428856e-05
1768730273263,0.0712127685546875,-0.47119140625,-0.8645172119140625,-0.0268143042922019,0.0010532801970839,-0.0083926860243082
1768730273273,0.075714111328125,-0.466888427734375,-0.8809814453125,-0.0155938733369112,-0.0022591594606637,-0.0122737102210521
1768730273283,0.0805511474609375,-0.4646759033203125,-0.887481689453125,-0.0052525526843965,-0.0001057274930644,-0.0152497924864292
1768730273293,0.0802154541015625,-0.466522216796875,-0.885589599609375,0.0016010924009606,0.007538610137999,-0.0180402528494596
1768730273303,0.075592041015625,-0.4716339111328125,-0.8768768310546875,0.0046046054922044,0.017166469246149,-0.0270276218652725
1768730273313,0.0750579833984375,-0.4722137451171875,-0.8707275390625,0.0015406386228278,0.0099293300881981,-0.0309821497648954
1768730273323,0.0854034423828125,-0.4759674072265625,-0.86767578125,-0.0034354778472334,0.004171042703092,-0.0257295984774827
1768730273333,0.0949859619140625,-0.4814453125,-0.8626251220703125,-0.0199659839272499,-0.009049154818058,-0.0226989202201366
1768730273343,0.092437744140625,-0.479156494140625,-0.851593017578125,-0.0398358292877674,-0.0151211619377136,-0.0231202319264411
1768730273353,0.087554931640625,-0.476531982421875,-0.851318359375,-0.0494889877736568,-4.900216299574822e-05,-0.0218182131648063
1768730273363,0.0894317626953125,-0.478302001953125,-0.853240966796875,-0.0543798841536045,0.0107714217156171,-0.0192884765565395
1768730273373,0.0947418212890625,-0.46832275390625,-0.863677978515625,-0.0451150126755237,0.0070746871642768,-0.010855576954782
1768730273383,0.1002960205078125,-0.464569091796875,-0.8798370361328125,-0.0366506874561309,-0.0085237128660082,0.0012804478174075
1768730273393,0.096923828125,-0.4624481201171875,-0.8867340087890625,-0.0248824469745159,-0.0164759121835231,0.0034866104833781
1768730273404,0.0843505859375,-0.46270751953125,-0.889007568359375,-0.0119224395602941,-0.0101445131003856,-0.0029798108153045
1768730273416,0.0769805908203125,-0.466766357421875,-0.88348388671875,-0.0073228939436376,0.0080659156665205,-0.009411877952516
1768730273424,0.0831451416015625,-0.47393798828125,-0.873382568359375,-0.0085167894139885,0.0168631356209516,-0.0097343865782022
1768730273434,0.0941162109375,-0.4748382568359375,-0.8710784912109375,-0.0071529843844473,0.0106369312852621,-0.0036328181158751
1768730273444,0.0967254638671875,-0.4730682373046875,-0.874664306640625,-0.0102718118578195,0.0113442670553922,0.00300058349967
1768730273454,0.089141845703125,-0.4745025634765625,-0.8721466064453125,-0.0152838816866278,0.0132335135713219,0.0021478394046425
1768730273464,0.081085205078125,-0.4757537841796875,-0.87005615234375,-0.025815350934863,0.0098779303953051,-0.0006628608098253
1768730273474,0.082427978515625,-0.4749603271484375,-0.8723602294921875,-0.0267967265099287,-0.0056597497314214,-0.0045809033326804
1768730273484,0.0822296142578125,-0.473480224609375,-0.8792877197265625,-0.0237383525818586,-0.0109013831242918,-0.0085969502106308
1768730273494,0.0801544189453125,-0.4753265380859375,-0.8813018798828125,-0.0201063342392444,-0.0079263662919402,-0.0127573404461145
1768730273504,0.0789031982421875,-0.475311279296875,-0.8807830810546875,-0.010106430388987,0.0050501525402069,-0.0129863722249865
1768730273514,0.0848846435546875,-0.4749603271484375,-0.883880615234375,0.0028674255590885,0.0089346393942832,-0.0082850940525531
1768730273524,0.0906524658203125,-0.4749755859375,-0.8845367431640625,0.0082685826346278,0.0099969739094376,-0.0095357149839401
1768730273534,0.09002685546875,-0.4743194580078125,-0.8794097900390625,0.0072957295924425,0.0127176595851778,-0.0107170930132269
1768730273544,0.08697509765625,-0.473480224609375,-0.875213623046875,0.0080190440639853,0.0101825967431068,-0.0088997520506381
1768730273554,0.086883544921875,-0.4671173095703125,-0.8747711181640625,0.0075154406949877,0.002813629573211,-0.0105871306732296
1768730273564,0.08245849609375,-0.4683380126953125,-0.8720245361328125,0.0053170011378824,-0.0061833271756768,-0.0142242098227143
1768730273574,0.07977294921875,-0.4652252197265625,-0.87017822265625,0.0013859090395271,-0.0103325322270393,-0.016384033486247
1768730273584,0.077545166015625,-0.4666900634765625,-0.8688201904296875,-0.0062610916793346,-0.0062823970802128,-0.0170303825289011
1768730273594,0.078521728515625,-0.470489501953125,-0.8669891357421875,-0.0077513963915407,-0.0048432247713208,-0.013767210766673
1768730273605,0.082000732421875,-0.4707794189453125,-0.8694000244140625,-0.0102574313059449,-0.0046775760129094,-0.0081889536231756
1768730273615,0.087921142578125,-0.4737548828125,-0.8679046630859375,-0.0117432083934545,-0.0046621295623481,-0.003975034225732
1768730273624,0.0912933349609375,-0.47705078125,-0.8678741455078125,-0.0113530559465289,-0.0095996307209134,0.0036954022943973
1768730273635,0.0942840576171875,-0.4771881103515625,-0.870849609375,-0.0036783581599593,-0.0176397133618593,0.0095567535609006
1768730273645,0.097747802734375,-0.4776458740234375,-0.87261962890625,-0.0083135897293686,-0.0269202981144189,0.0117488009855151
1768730273655,0.0948486328125,-0.478515625,-0.865936279296875,-0.0150013202801346,-0.0215641483664512,0.0121536022052168
1768730273665,0.091888427734375,-0.4749603271484375,-0.8699188232421875,-0.0113330818712711,-0.0096337189897894,0.010440656915307
1768730273675,0.0844573974609375,-0.4651336669921875,-0.877197265625,-0.006614226847887,0.0066576362587511,0.0003041329910047
1768730273685,0.073638916015625,-0.4604339599609375,-0.8829803466796875,-0.0030312100425362,0.0209691971540451,-0.0113360118120908
1768730273695,0.0740509033203125,-0.457427978515625,-0.8825531005859375,-0.0012258529895916,0.0228999890387058,-0.0172138735651969
1768730273705,0.08251953125,-0.457855224609375,-0.8816070556640625,-0.0004785700584761,0.0131296506151556,-0.0172610115259885
1768730273715,0.0933380126953125,-0.4588470458984375,-0.882080078125,-0.0014639396686106,0.003966512158513,-0.0123991454020142
1768730273725,0.0962371826171875,-0.46209716796875,-0.876434326171875,-0.0010207896120846,-0.0006974819116294,-0.0080512687563896
1768730273735,0.0926361083984375,-0.4669036865234375,-0.8716278076171875,-0.0008964200387708,0.0009736517095007,-0.0043979440815746
1768730273745,0.095184326171875,-0.4683990478515625,-0.8707427978515625,-0.0005707154050469,0.0054110107012093,-0.0019515644526109
1768730273755,0.097412109375,-0.472503662109375,-0.870025634765625,-0.0013318468118086,0.0091695301234722,0.0046717170625925
1768730273765,0.097900390625,-0.478363037109375,-0.8674163818359375,-0.0079455412924289,0.0110902013257145,0.0134588172659277
1768730273775,0.09716796875,-0.4798431396484375,-0.864471435546875,-0.0185475852340459,0.0077213030308485,0.0239202473312616
1768730273785,0.09161376953125,-0.480926513671875,-0.862152099609375,-0.0252225324511528,0.0040831584483385,0.0271922051906585
1768730273795,0.0859222412109375,-0.476898193359375,-0.8657073974609375,-0.0297600254416465,0.0032535837963223,0.0238970760256052
1768730273805,0.0785675048828125,-0.474761962890625,-0.8696746826171875,-0.0287349745631217,-0.0022429141681641,0.0215915776789188
1768730273815,0.073028564453125,-0.4712066650390625,-0.8737030029296875,-0.0265224203467369,-0.0060831923037767,0.0172141399234533
1768730273825,0.0735015869140625,-0.472381591796875,-0.8786773681640625,-0.0182168204337358,-0.0088283792138099,0.0106142945587635
1768730273836,0.0738983154296875,-0.4707794189453125,-0.8840484619140625,-0.0103557016700506,-0.0018927085911855,0.0049169943667948
1768730273846,0.075225830078125,-0.4711151123046875,-0.8893890380859375,0.0086544742807745,0.0301792081445455,0.0101660843938589
1768730273856,0.0818023681640625,-0.4711456298828125,-0.890411376953125,0.0058578890748322,0.0047207195311784,0.0005885586142539
1768730273866,0.0717620849609375,-0.469757080078125,-0.8702545166015625,0.0024272049777209,0.0207385681569576,-0.0073689664714038
1768730273876,0.0763397216796875,-0.471282958984375,-0.8732757568359375,-0.0047324374318122,0.0157752353698015,-0.0130436299368739
1768730273886,0.079345703125,-0.4716644287109375,-0.8691864013671875,-0.009011604823172,0.0083024045452475,-0.0166804436594247
1768730273896,0.0858001708984375,-0.4700927734375,-0.87384033203125,-0.0101306643337011,-0.0030320088844746,-0.0167318414896726
1768730273906,0.0915679931640625,-0.4698944091796875,-0.8756256103515625,-0.0141272703185677,-0.0093735279515385,-0.0189633052796125
1768730273916,0.0904083251953125,-0.4725494384765625,-0.875396728515625,-0.0162945501506328,-0.0061633535660803,-0.0208426974713802
1768730273926,0.08709716796875,-0.472381591796875,-0.8744354248046875,-0.0173907075077295,-0.0002519350382499,-0.0199918169528245
1768730273936,0.088470458984375,-0.47064208984375,-0.87457275390625,-0.0142684178426861,0.0048725195229053,-0.0177499689161777
1768730273947,0.0907440185546875,-0.4671478271484375,-0.877044677734375,-0.0117591880261898,-0.0030442595016211,-0.0150018529966473
1768730273956,0.0900726318359375,-0.4656524658203125,-0.8791656494140625,-0.0105842007324099,-0.0019337212434038,-0.0150820137932896
1768730273966,0.08673095703125,-0.46612548828125,-0.874755859375,-0.0171582140028476,0.0034429347142577,-0.0175805911421775
1768730273976,0.0816802978515625,-0.4652099609375,-0.866058349609375,-0.0215795934200286,0.0082190474495291,-0.0213708020746707
1768730273986,0.0858917236328125,-0.4664154052734375,-0.8666534423828125,-0.0264377333223819,0.0096105495467782,-0.0123272398486733
1768730273996,0.093841552734375,-0.46905517578125,-0.8667449951171875,-0.0302551072090864,0.005518602207303,-0.0061034327372908
1768730274006,0.096343994140625,-0.4731597900390625,-0.865814208984375,-0.0302836038172245,0.0020823257509618,0.0008516788948327
1768730274016,0.0983123779296875,-0.4746551513671875,-0.86724853515625,-0.034069288522005,-0.008207063190639,0.0040658479556441
1768730274026,0.097930908203125,-0.4701385498046875,-0.871826171875,-0.0251114778220653,-0.0186493173241615,0.0048176585696637
1768730274037,0.0914306640625,-0.4747314453125,-0.8783721923828125,-0.0161046683788299,-0.0128675950691103,0.0060927798040211
1768730274047,0.0879669189453125,-0.4743804931640625,-0.8819580078125,-0.0077415429987013,-0.0026019082870334,0.00323121342808
1768730274057,0.0827789306640625,-0.4702301025390625,-0.88140869140625,-0.0049012815579771,0.0033593112602829,0.0005595301627181
1768730274067,0.079559326171875,-0.468048095703125,-0.8822021484375,-0.0006940197781659,0.0012053466634824,0.0015100123127922
1768730274077,0.0738067626953125,-0.4644775390625,-0.885955810546875,0.0021414477378129,0.0039915456436574,-0.0061084926128387
1768730274087,0.06982421875,-0.464324951171875,-0.88323974609375,0.0003616572648752,0.0100017674267292,-0.0176913794130086
1768730274097,0.0721893310546875,-0.466949462890625,-0.876190185546875,-0.004479703027755,0.0105250785127282,-0.0187270827591419
1768730274107,0.0853271484375,-0.468017578125,-0.870574951171875,-0.0095034902915358,0.0030378678347915,-0.0186013802886009
1768730274117,0.088134765625,-0.46356201171875,-0.8751068115234375,-0.0092262551188468,-0.0028871328104287,-0.0177449081093072
1768730274127,0.087860107421875,-0.4581146240234375,-0.8813323974609375,-0.0064464476890861,0.0019036275334656,-0.0188093744218349
1768730274137,0.0839691162109375,-0.4589080810546875,-0.8797454833984375,-0.0064120930619537,0.005641374271363,-0.0217708088457584
1768730274147,0.082977294921875,-0.4592132568359375,-0.876434326171875,-0.0101969772949814,0.0020636834669858,-0.0217732060700655
1768730274157,0.08282470703125,-0.4617156982421875,-0.872802734375,-0.016176838427782,-0.0002780340146273,-0.0264925938099622
1768730274167,0.0841522216796875,-0.46673583984375,-0.8697357177734375,-0.0207612048834562,0.0030871361959725,-0.0297962445765733
1768730274177,0.0849761962890625,-0.469451904296875,-0.8710784912109375,-0.0238962788134813,0.0109325423836708,-0.0289235264062881
1768730274187,0.08953857421875,-0.4756011962890625,-0.8728485107421875,-0.0209020860493183,0.0096670081838965,-0.0231705661863088
1768730274197,0.095062255859375,-0.476898193359375,-0.875885009765625,-0.0201902221888303,0.0135714691132307,-0.0129157984629273
1768730274207,0.09979248046875,-0.4765167236328125,-0.8756561279296875,-0.021416874602437,0.0118430769070982,-0.0070621706545352
1768730274217,0.09722900390625,-0.4756622314453125,-0.8787994384765625,-0.0152196995913982,0.0042765042744576,-0.0013576794881373
1768730274227,0.095550537109375,-0.470672607421875,-0.8861083984375,-0.000258326617768,-0.005879727192223,-0.0032655680552124
1768730274237,0.090606689453125,-0.4643096923828125,-0.8928680419921875,0.0166359674185514,-0.005773733370006,-0.0063625583425164
1768730274248,0.0871429443359375,-0.4619140625,-0.894073486328125,0.031880434602499,-0.0033366745337843,-0.0076054553501307
1768730274257,0.0841522216796875,-0.4623870849609375,-0.888916015625,0.037762027233839,0.0041465419344604,-0.0075327511876821
1768730274268,0.0807342529296875,-0.463165283203125,-0.8817596435546875,0.0387841463088989,0.0159872230142354,-0.0153334159404039
1768730274279,0.0772552490234375,-0.4641265869140625,-0.872406005859375,0.0354203097522258,0.0233567208051681,-0.0183907244354486
1768730274288,0.079833984375,-0.4651641845703125,-0.8692474365234375,0.0283203218132257,0.0227745547890663,-0.0163933541625738
1768730274298,0.08966064453125,-0.4662322998046875,-0.8686370849609375,0.0176578238606452,0.0070443274453282,-0.0130667993798851
1768730274308,0.091796875,-0.4695281982421875,-0.8607635498046875,-0.0003211772127542,-0.0009864348685368,-0.0122412201017141
1768730274318,0.0907440185546875,-0.474273681640625,-0.8555145263671875,-0.0154945375397801,-0.0009155947482213,-0.012663597241044
1768730274328,0.09161376953125,-0.476287841796875,-0.8494873046875,-0.031193871051073,-0.0029664952307939,-0.0159824285656213
1768730274338,0.0937347412109375,-0.475372314453125,-0.85565185546875,-0.0402382314205169,-0.0006170544074848,-0.0113916713744401
1768730274349,0.09576416015625,-0.4721527099609375,-0.865020751953125,-0.0403146669268608,0.0038602519780397,-0.0049140648916363
1768730274358,0.091522216796875,-0.468963623046875,-0.8758697509765625,-0.0318476781249046,0.0087426248937845,-0.0062429821118712
1768730274368,0.087799072265625,-0.4637908935546875,-0.88861083984375,-0.0153946690261363,0.0051702610217034,-0.012689696624875
1768730274379,0.0836944580078125,-0.458770751953125,-0.9005889892578125,0.0030455910600721,0.0031923311762511,-0.0159177128225564
1768730274388,0.0866546630859375,-0.459136962890625,-0.90289306640625,0.016808807849884,0.0052552158012986,-0.012155732139945
1768730274398,0.0929412841796875,-0.466094970703125,-0.89703369140625,0.0259913876652717,0.0037649108562618,-0.0043156524188816
1768730274408,0.093994140625,-0.468963623046875,-0.8881072998046875,0.0292494986206293,0.0006410228670574,0.0016437029698863
1768730274418,0.0930023193359375,-0.471588134765625,-0.8789825439453125,0.0276824943721294,0.0085346326231956,0.0024961808230727
1768730274428,0.0897216796875,-0.473907470703125,-0.871856689453125,0.0223108977079391,0.0123219136148691,0.002160090021789
1768730274438,0.08685302734375,-0.4779510498046875,-0.8628997802734375,0.0127802435308694,0.0126846358180046,0.0002130528882844
1768730274449,0.0844573974609375,-0.4789276123046875,-0.8560943603515625,-0.0026447852142155,0.0095956353470683,0.0011329087428748
1768730274458,0.086700439453125,-0.4780426025390625,-0.855316162109375,-0.0140473758801817,0.0061833271756768,0.0018301242962479
1768730274469,0.0882110595703125,-0.475433349609375,-0.8572845458984375,-0.0196594558656215,0.0006450176006183,0.003795270808041
1768730274479,0.0883941650390625,-0.470794677734375,-0.86529541015625,-0.0259106922894716,-0.0028682244010269,0.0074054519645869
1768730274489,0.08636474609375,-0.4669647216796875,-0.8709716796875,-0.0252614151686429,-0.00547093199566,0.0027936559636145
1768730274499,0.083953857421875,-0.4654083251953125,-0.8772125244140625,-0.018718559294939,-0.0002103897277265,-0.0039060583803802
1768730274509,0.08355712890625,-0.4651031494140625,-0.8860931396484375,-0.0120310960337519,0.0008428904693573,-0.0066792080178856
1768730274519,0.0851898193359375,-0.46514892578125,-0.8885040283203125,-0.0001488707057433,0.0015566176734864,-0.0086515452712774
1768730274529,0.08837890625,-0.46875,-0.889556884765625,0.0032381375785917,0.0059977052733302,-0.0127693247050046
1768730274539,0.0851593017578125,-0.4705963134765625,-0.8827972412109375,0.0057098171673715,0.0125986160710453,-0.017617342993617
1768730274549,0.0876007080078125,-0.4695587158203125,-0.8791961669921875,0.0053921020589768,0.0141086280345916,-0.0216155461966991
1768730274559,0.093170166015625,-0.4708099365234375,-0.873016357421875,0.0011486213188618,0.0135783925652503,-0.0170452967286109
1768730274569,0.1000213623046875,-0.4721527099609375,-0.8700103759765625,-0.0062523032538592,0.0024604944046586,-0.0100470418110489
1768730274579,0.0973968505859375,-0.4717559814453125,-0.86767578125,-0.0128694595769047,0.0013174657942727,-0.0099722063168883
1768730274589,0.097625732421875,-0.470977783203125,-0.8661956787109375,-0.0142590971663594,0.0076563218608498,-0.0035707664210349
1768730274599,0.1004638671875,-0.472869873046875,-0.868133544921875,-0.0180892553180456,0.0107346698641777,0.0032937976066023
1768730274609,0.099517822265625,-0.472259521484375,-0.870025634765625,-0.0191851463168859,0.0087082702666521,0.0104971155524253
1768730274619,0.0975799560546875,-0.4693756103515625,-0.8715362548828125,-0.0189475920051336,0.0033478597179055,0.0108377337455749
1768730274630,0.09197998046875,-0.467437744140625,-0.8759002685546875,-0.0129759861156344,0.0032506543211638,0.0048139300197362
1768730274639,0.0856170654296875,-0.4652862548828125,-0.879638671875,-0.0083591295406222,0.0091218594461679,0.0016229304019361
1768730274649,0.0794525146484375,-0.4635009765625,-0.880126953125,-0.0038240330759435,0.0151099767535924,-0.0026477146893739
1768730274659,0.078155517578125,-0.46295166015625,-0.8786163330078125,-0.0042117894627153,0.0163922887295484,-0.0084880273789167
1768730274669,0.078094482421875,-0.4628143310546875,-0.8755950927734375,-0.0007307713967747,0.0147837400436401,-0.0111602423712611
1768730274680,0.0851898193359375,-0.4661712646484375,-0.8735198974609375,-0.0041755703277885,0.0047377636656165,-0.0082680499181151
1768730274690,0.089019775390625,-0.46893310546875,-0.87152099609375,-0.0085969502106308,-0.0024477113038301,-0.0072938655503094
1768730274700,0.088714599609375,-0.4724273681640625,-0.8671417236328125,-0.0155139788985252,-0.0007736482657492,-0.0054083475843071
1768730274710,0.091278076171875,-0.4718475341796875,-0.8665618896484375,-0.0185161605477333,-0.0046650590375065,-0.0095168063417077
1768730274720,0.08856201171875,-0.469696044921875,-0.8722686767578125,-0.0118079232051968,-0.0005986785981804,-0.0094749946147203
1768730274730,0.093597412109375,-0.4747467041015625,-0.8798980712890625,-0.0102020371705293,0.0163811035454273,-0.0074736289680004
1768730274740,0.094482421875,-0.4731597900390625,-0.8768463134765625,-0.0093929693102836,0.0236411467194557,-0.0052485577762126
1768730274750,0.0925140380859375,-0.4723968505859375,-0.874847412109375,-0.0073955981060862,0.0113474633544683,-6.125270738266408e-05
1768730274760,0.095977783203125,-0.46612548828125,-0.8828582763671875,0.0017022925894707,-0.0018373148050159,0.006442186422646
1768730274770,0.09283447265625,-0.46429443359375,-0.888397216796875,0.0027601001784205,-0.0110782170668244,0.0070280819199979
1768730274781,0.085235595703125,-0.464752197265625,-0.8795166015625,-0.003074353095144,-0.0038088529836386,0.0007329019135795
1768730274790,0.0814971923828125,-0.4667816162109375,-0.870758056640625,-0.0071063791401684,0.0033752904273569,-0.0027742148377001
1768730274800,0.084381103515625,-0.462188720703125,-0.87298583984375,-0.0095306541770696,0.0005496764206327,-0.005592371802777
1768730274810,0.0865478515625,-0.4562835693359375,-0.8790130615234375,-0.0071087758988142,0.0027238810434937,-0.0091921668499708
1768730274820,0.0831756591796875,-0.4532318115234375,-0.882781982421875,-0.0043952809646725,0.009008408524096,-0.0137059586122632
1768730274830,0.082244873046875,-0.4545135498046875,-0.8795166015625,-0.0062267370522022,0.0083604613319039,-0.0197643842548131
1768730274840,0.083892822265625,-0.4554443359375,-0.8755950927734375,-0.0107037769630551,0.0054424358531832,-0.0251349136233329
1768730274850,0.0893402099609375,-0.4586181640625,-0.874755859375,-0.0119229722768068,-0.0032615733798593,-0.0267240218818187
1768730274860,0.0941619873046875,-0.4647979736328125,-0.87066650390625,-0.0173579510301351,-0.0013603427214547,-0.0256856549531221
1768730274871,0.0988922119140625,-0.4726715087890625,-0.866241455078125,-0.0245815087109804,0.0069066421128809,-0.0198791660368442
1768730274881,0.1025238037109375,-0.4767303466796875,-0.8648681640625,-0.024817731231451,0.011764514259994,-0.0112542519345879
1768730274891,0.1039581298828125,-0.4776611328125,-0.8717803955078125,-0.0218163486570119,0.0120183136314153,-0.0047476170584559
1768730274901,0.10260009765625,-0.473236083984375,-0.8811187744140625,-0.0125224497169256,0.0108502507209777,-0.002094842493534
1768730274911,0.0996856689453125,-0.4698333740234375,-0.8899383544921875,0.0015108112711459,0.0086337020620703,0.0032597091048955
1768730274921,0.0951385498046875,-0.4677276611328125,-0.8959808349609375,0.019625898450613,0.021999042481184,0.005870406050235
1768730274931,0.0968017578125,-0.46484375,-0.9066009521484376,0.0397921539843082,0.0143890595063567,0.012353072874248
1768730274941,0.0947265625,-0.464569091796875,-0.8959197998046875,0.0461509823799133,0.006394516211003,0.0080797644332051
1768730274951,0.0822906494140625,-0.466064453125,-0.885528564453125,0.0497009754180908,0.0207825098186731,-0.0013515542959794
1768730274961,0.0842437744140625,-0.4678802490234375,-0.8749847412109375,0.0447490960359573,0.0201209802180528,-0.0026754115242511
1768730274971,0.085540771484375,-0.468475341796875,-0.8618927001953125,0.0283509474247694,0.0228339433670043,-0.0021917815320193
1768730274981,0.0847320556640625,-0.4707183837890625,-0.8493804931640625,0.0078059914521873,0.0202163215726614,-0.0075567197054624
1768730274991,0.0822601318359375,-0.4695281982421875,-0.8416900634765625,-0.0108414627611637,0.0195486675947904,-0.0109575763344764
1768730275001,0.0843353271484375,-0.4697265625,-0.840606689453125,-0.0291738640516996,0.0169715266674757,-0.0062485747039318
1768730275012,0.0898895263671875,-0.47491455078125,-0.8477020263671875,-0.0437402911484241,0.0120675815269351,-0.0052389702759683
1768730275021,0.0955810546875,-0.47637939453125,-0.856414794921875,-0.0502554476261138,0.0015164038632065,0.0013108078856021
1768730275031,0.1027374267578125,-0.4758148193359375,-0.8709564208984375,-0.0530051626265049,-0.0051803807727992,0.0096094841137528
1768730275041,0.0952301025390625,-0.4722137451171875,-0.884765625,-0.0360480174422264,-0.0035691685043275,0.0045516085810959
1768730275051,0.0849609375,-0.4632110595703125,-0.901031494140625,-0.0141464453190565,0.009883789345622,-0.0049494849517941
1768730275061,0.0784454345703125,-0.458526611328125,-0.910675048828125,0.0072946646250784,0.0241000093519687,-0.0134939709678292
1768730275071,0.07720947265625,-0.4605865478515625,-0.9051055908203124,0.0158420801162719,0.0315174460411071,-0.0206719897687435
1768730275082,0.0835418701171875,-0.4609222412109375,-0.896881103515625,0.0229495242238044,0.0329568833112716,-0.0265977885574102
1768730275091,0.092071533203125,-0.46307373046875,-0.8888397216796875,0.0278848949819803,0.0278598610311746,-0.0267029833048582
1768730275102,0.10003662109375,-0.4649200439453125,-0.881622314453125,0.0340855307877063,0.0214629471302032,-0.0246582087129354
1768730275112,0.104339599609375,-0.4664154052734375,-0.8750457763671875,0.0255354531109333,0.0299099627882242,-0.0240075979381799
1768730275122,0.10406494140625,-0.473785400390625,-0.863739013671875,0.0168775171041488,0.0356962122023105,-0.0196432098746299
1768730275132,0.1059112548828125,-0.474761962890625,-0.859405517578125,0.0098118847236037,0.0396129228174686,-0.0113250920549035
1768730275142,0.1094970703125,-0.4744873046875,-0.8646392822265625,0.0019755328539758,0.0343310758471488,-0.0008820389630272
1768730275152,0.1131439208984375,-0.475555419921875,-0.8647308349609375,-0.003630687482655,0.0331457033753395,0.0084129255264997
1768730275162,0.1080780029296875,-0.47332763671875,-0.8651885986328125,-0.0123320333659648,0.0384009182453155,0.0135677400976419
1768730275172,0.100616455078125,-0.47186279296875,-0.863372802734375,-0.0198746379464864,0.0491909831762313,0.0157150477170944
1768730275182,0.091064453125,-0.470489501953125,-0.8607940673828125,-0.0258379895240068,0.0591477416455745,0.0151206292212009
1768730275192,0.0890960693359375,-0.4677581787109375,-0.865509033203125,-0.0240579321980476,0.0551173128187656,0.0103623596951365
1768730275202,0.09246826171875,-0.464630126953125,-0.872222900390625,-0.0227356720715761,0.0619749538600444,0.0084107955917716
1768730275212,0.0947265625,-0.4667205810546875,-0.875274658203125,-0.0190602429211139,0.0481651313602924,0.0023347933311015
1768730275222,0.088287353515625,-0.46551513671875,-0.875335693359375,-0.0143437851220369,0.0359553359448909,-0.006206230726093
1768730275232,0.09368896484375,-0.4644775390625,-0.88238525390625,-0.009540774859488,0.0448311194777488,-0.0047217844985425
1768730275242,0.1005706787109375,-0.4694061279296875,-0.8814544677734375,-0.0066147595643997,0.0436049997806549,-0.0012471582740545
1768730275252,0.1060791015625,-0.46905517578125,-0.8814849853515625,-0.0038911446463316,0.0208714604377746,0.0046155243180692
1768730275262,0.1072845458984375,-0.4683837890625,-0.88177490234375,0.0008644621120765,-0.0015150723047554,-0.0013366405619308
1768730275272,0.104095458984375,-0.469635009765625,-0.8834075927734375,0.0067226174287498,-0.0067726848646998,-0.0048267133533954
1768730275282,0.104248046875,-0.4709320068359375,-0.8826446533203125,0.0078062578104436,-0.0071370052173733,-0.0069836070761084
1768730275292,0.0963897705078125,-0.473968505859375,-0.8765411376953125,0.0100145507603883,0.0023755396250635,-0.0091911014169454
1768730275302,0.0953826904296875,-0.473876953125,-0.8767242431640625,0.0172247923910617,0.0063156862743198,-0.0135813225060701
1768730275313,0.0960845947265625,-0.470703125,-0.8787689208984375,0.0216216724365949,0.0048213866539299,-0.0141669511795043
1768730275323,0.0989990234375,-0.47015380859375,-0.8783111572265625,0.0204344354569911,0.0087855020537972,-0.011847604997456
1768730275333,0.0979766845703125,-0.4710540771484375,-0.8715972900390625,0.0142026375979185,0.0152194332331418,-0.0097421091049909
1768730275343,0.094757080078125,-0.47021484375,-0.866546630859375,0.0056805224157869,0.0200075302273035,-0.0118779642507433
1768730275353,0.0910186767578125,-0.4687957763671875,-0.8635406494140625,0.0052975597791373,0.0224166251718997,-0.0168636683374643
1768730275363,0.0917205810546875,-0.4673004150390625,-0.8689727783203125,0.0031643679831176,0.0243543423712253,-0.0144069027155637
1768730275373,0.0971221923828125,-0.47064208984375,-0.8673553466796875,-0.0013467605458572,0.0218933150172233,-0.0112688997760415
1768730275383,0.099945068359375,-0.4756927490234375,-0.85980224609375,-0.0165518131107091,0.0176535621285438,-0.0087612671777606
1768730275393,0.1018218994140625,-0.4762725830078125,-0.8533172607421875,-0.0268747564405202,0.0067519121803343,-0.0039606532081961
1768730275403,0.1082000732421875,-0.469818115234375,-0.8596343994140625,-0.0290257930755615,-0.0106912599876523,0.0032767534721642
1768730275413,0.11077880859375,-0.4699249267578125,-0.869842529296875,-0.0212530903518199,-0.0221481788903474,0.0051377704367041
1768730275423,0.109344482421875,-0.4634246826171875,-0.8758544921875,-0.0155866825953125,-0.0207918304949998,0.0059598879888653
1768730275433,0.1043243408203125,-0.4625701904296875,-0.8778076171875,-0.0141709465533494,-0.0126944901421666,0.0093098785728216
1768730275443,0.1005401611328125,-0.4650421142578125,-0.8782196044921875,-0.0138910477980971,-0.0078278295695781,0.016168849542737
1768730275453,0.0984954833984375,-0.465057373046875,-0.877532958984375,-0.0142151545733213,-0.0096992328763008,0.0132460305467247
1768730275463,0.0980072021484375,-0.466552734375,-0.880706787109375,-0.009011604823172,-0.0153270242735743,0.0108079062774777
1768730275473,0.10174560546875,-0.4628753662109375,-0.88458251953125,-0.0006964165950194,-0.0168032143265008,0.0056759952567517
1768730275483,0.1062469482421875,-0.4613189697265625,-0.886260986328125,0.0074467309750616,-0.0135592184960842,0.0096558229997754
1768730275493,0.1069183349609375,-0.4581756591796875,-0.887542724609375,0.0162215810269117,0.0023542344570159,0.0119986059144139
1768730275503,0.101715087890625,-0.457916259765625,-0.883392333984375,0.0191406719386577,0.0185308065265417,0.0149158323183655
1768730275514,0.0967254638671875,-0.4599151611328125,-0.87322998046875,0.0114891435950994,0.0184130948036909,0.0140034332871437
1768730275523,0.097198486328125,-0.4613800048828125,-0.8624725341796875,0.0005968143814243,0.0119280321523547,0.0102630238980054
1768730275534,0.10308837890625,-0.466552734375,-0.853179931640625,-0.0222232807427644,0.0089359702542424,0.0114838164299726
1768730275544,0.1025543212890625,-0.4736175537109375,-0.8450469970703125,-0.0459240823984146,0.0039041941054165,0.0143014416098594
1768730275554,0.1040496826171875,-0.4775390625,-0.8483428955078125,-0.0561290495097637,-0.0013518205378204,0.0207894351333379
1768730275564,0.108673095703125,-0.4756622314453125,-0.86541748046875,-0.0569777972996234,-0.0083846962079405,0.0266614388674497
1768730275574,0.1088409423828125,-0.4740142822265625,-0.878875732421875,-0.0455781370401382,-0.0108257494866848,0.0355364233255386
1768730275584,0.1075286865234375,-0.4729156494140625,-0.8954010009765625,-0.028192488476634,-0.0130412336438894,0.0396728441119194
1768730275594,0.0991973876953125,-0.4677734375,-0.9038848876953124,-0.0103106945753097,-0.0072374064475297,0.0368930362164974
1768730275604,0.0892181396484375,-0.4670867919921875,-0.9026641845703124,0.011258247308433,0.0159131865948438,0.0270404051989316
1768730275614,0.083709716796875,-0.4651641845703125,-0.8993988037109375,0.0244046747684478,0.0342072397470474,0.0180024355649948
1768730275624,0.0826873779296875,-0.4653472900390625,-0.8908843994140625,0.03345463052392,0.0377372577786445,0.0086238477379083
1768730275634,0.087493896484375,-0.466033935546875,-0.88177490234375,0.0347175002098083,0.0282902270555496,0.0046805054880678
1768730275644,0.0951080322265625,-0.4674072265625,-0.8734893798828125,0.0269509237259626,0.0275914147496223,0.0035305526107549
1768730275654,0.0987548828125,-0.4717864990234375,-0.85955810546875,0.0175148118287324,0.0543375387787818,0.0025257419329136
1768730275664,0.099578857421875,-0.471954345703125,-0.85479736328125,-0.0025252092164009,0.0419533103704452,0.0118497349321842
1768730275674,0.1027984619140625,-0.470245361328125,-0.84033203125,-0.0317874923348426,0.0168823115527629,0.0119970077648758
1768730275684,0.1020965576171875,-0.4678955078125,-0.8487548828125,-0.0428627766668796,-0.002976881340146,0.0154213001951575
1768730275694,0.10845947265625,-0.4638671875,-0.86773681640625,-0.0397008061408996,-0.0232254285365343,0.0154524594545364
1768730275704,0.10687255859375,-0.46429443359375,-0.88214111328125,-0.029898777604103,-0.0221820008009672,0.0167643334716558
1768730275715,0.1085052490234375,-0.4633026123046875,-0.8898162841796875,-0.0203713178634643,-0.0175949726253747,0.0192410722374916
1768730275725,0.1017303466796875,-0.4620819091796875,-0.89208984375,-0.0124910240992903,-0.0068981195800006,0.0180077627301216
1768730275735,0.0919342041015625,-0.463134765625,-0.893890380859375,-0.0083359600976109,0.0023278691805899,0.0075942701660096
1768730275745,0.0857086181640625,-0.4658050537109375,-0.8917694091796875,-0.0083375582471489,0.0066688214428722,0.0022556975018233
1768730275755,0.096649169921875,-0.4664764404296875,-0.8889312744140625,-0.0165198538452386,-0.0016141419764608,-0.0021217404864728
1768730275765,0.1030731201171875,-0.4668121337890625,-0.88275146484375,-0.0277139190584421,-0.0158798974007368,-0.0010681939311325
1768730275775,0.1094970703125,-0.467681884765625,-0.8798828125,-0.0404129363596439,-0.0201939512044191,0.0082848276942968
1768730275785,0.1169281005859375,-0.4712371826171875,-0.8749847412109375,-0.0548930764198303,-0.0190186984837055,0.0153264915570616
1768730275795,0.116180419921875,-0.469085693359375,-0.8668365478515625,-0.0636154636740684,-0.0188509188592433,0.0172791220247745
1768730275805,0.118499755859375,-0.4682464599609375,-0.8735809326171875,-0.0682312548160553,-0.0086704539135098,0.0192503929138183
1768730275815,0.12445068359375,-0.4731597900390625,-0.8691558837890625,-0.0696621686220169,-0.0044685178436338,0.0280212480574846
1768730275825,0.127349853515625,-0.4717559814453125,-0.8729248046875,-0.0600196607410907,0.0135805234313011,0.0358663871884346
1768730275835,0.1239166259765625,-0.47137451171875,-0.87701416015625,-0.0504551827907562,0.0188386682420969,0.041975412517786
1768730275847,0.1212158203125,-0.4698944091796875,-0.8790283203125,-0.036779586225748,0.0173462331295013,0.0474447458982467
1768730275855,0.1145172119140625,-0.4639739990234375,-0.882781982421875,-0.0279701147228479,0.0205319058150053,0.0495060347020626
1768730275865,0.09808349609375,-0.4636993408203125,-0.8785858154296875,-0.0233817547559738,0.0364890359342098,0.0543218292295932
1768730275875,0.0850372314453125,-0.461212158203125,-0.874420166015625,-0.0144606987014412,0.0270614456385374,0.0598803758621215
1768730275885,0.0800323486328125,-0.4560699462890625,-0.878997802734375,0.0002942793071269,0.0175781939178705,0.0639986917376518
1768730275895,0.073516845703125,-0.4553985595703125,-0.8883209228515625,0.0172849800437688,0.0020703414920717,0.0681412369012832
1768730275905,0.0677642822265625,-0.458953857421875,-0.8858489990234375,0.030016753822565,-0.0139344576746225,0.0672219172120094
1768730275915,0.059356689453125,-0.4652862548828125,-0.8785552978515625,0.0270987283438444,-0.0157627183943986,0.0675127282738685
1768730275925,0.0508575439453125,-0.4725189208984375,-0.865020751953125,0.0182884596288204,-0.0263437237590551,0.0597959570586681
1768730275936,0.0400390625,-0.4734954833984375,-0.85430908203125,0.0108523815870285,-0.0425714291632175,0.0490439757704734
1768730275946,0.0373687744140625,-0.471588134765625,-0.856292724609375,0.0073066488839685,-0.0508232340216636,0.0339337326586246
1768730275956,0.037872314453125,-0.46795654296875,-0.8615264892578125,0.0023747407831251,-0.0527769289910793,0.0159978754818439
1768730275966,0.0401763916015625,-0.462158203125,-0.8660888671875,0.0072262212634086,-0.0509768985211849,1.0918960470007733e-05
1768730275976,0.0417938232421875,-0.456329345703125,-0.8785247802734375,0.0212887767702341,-0.0489188060164451,-0.0192226972430944
1768730275986,0.04815673828125,-0.453155517578125,-0.8864593505859375,0.0323536768555641,-0.0481771156191825,-0.0383460558950901
1768730275996,0.05804443359375,-0.4556427001953125,-0.8902740478515625,0.034551054239273,-0.0491728708148002,-0.0577184222638607
1768730276006,0.0761260986328125,-0.456939697265625,-0.893402099609375,0.037523940205574,-0.057524811476469,-0.0729865953326225
1768730276016,0.0957183837890625,-0.4555206298828125,-0.89837646484375,0.047328632324934,-0.0560930967330932,-0.0820155069231987
1768730276026,0.1111907958984375,-0.4579315185546875,-0.9022064208984376,0.0615030415356159,-0.0410986989736557,-0.0775421932339668
1768730276036,0.1268768310546875,-0.4615325927734375,-0.8992462158203125,0.0714712515473365,-0.022302908822894,-0.0710400864481926
1768730276046,0.1333770751953125,-0.46429443359375,-0.889984130859375,0.0784942731261253,0.0078486017882823,-0.056480586528778
1768730276056,0.1374053955078125,-0.4673309326171875,-0.8802642822265625,0.0824565291404724,0.0314521975815296,-0.0366685315966606
1768730276066,0.1400299072265625,-0.472381591796875,-0.866943359375,0.0742550566792488,0.0396941490471363,-0.0156109174713492
1768730276076,0.1372833251953125,-0.475006103515625,-0.85321044921875,0.0572329275310039,0.0420843362808227,-0.0021494373213499
1768730276086,0.1307373046875,-0.4726409912109375,-0.8417205810546875,0.0349896736443042,0.0390640459954738,0.0077447388321161
1768730276096,0.1204071044921875,-0.473846435546875,-0.83831787109375,0.0180130880326032,0.043581299483776,0.0197601225227117
1768730276106,0.1169281005859375,-0.4814910888671875,-0.83966064453125,-0.0040943436324596,0.0501590408384799,0.0337803326547145
1768730276116,0.1170806884765625,-0.4796142578125,-0.8404998779296875,-0.0219646878540515,0.0408451668918132,0.0475589968264102
1768730276126,0.111175537109375,-0.4771881103515625,-0.8489532470703125,-0.037868820130825,0.0211790539324283,0.0611658841371536
1768730276136,0.100311279296875,-0.4717254638671875,-0.8603668212890625,-0.0420089699327945,0.0137032950296998,0.059410061687231
1768730276147,0.0829620361328125,-0.4652557373046875,-0.875274658203125,-0.035690352320671,0.0204602666199207,0.0485150702297687
1768730276156,0.0744781494140625,-0.462127685546875,-0.884979248046875,-0.0273717027157545,0.0322482176125049,0.0363513492047786
1768730276167,0.0781097412109375,-0.4626922607421875,-0.8865509033203125,-0.0247373040765523,0.0330469012260437,0.0280081983655691
1768730276177,0.086151123046875,-0.4595184326171875,-0.8868865966796875,-0.0223993156105279,0.0302351340651512,0.0223913248628377
1768730276187,0.087799072265625,-0.455657958984375,-0.8885650634765625,-0.0135786589235067,0.0286492221057415,0.0106755476444959
1768730276197,0.089813232421875,-0.452880859375,-0.8903045654296875,-0.0043691820465028,0.0295903831720352,-0.0006913566030561
1768730276207,0.091522216796875,-0.454803466796875,-0.882598876953125,-0.0046293730847537,0.0269658379256725,-0.0067511131055653
1768730276217,0.0963134765625,-0.4599151611328125,-0.8715057373046875,-0.0056578856892883,0.0175150781869888,-0.008698683232069
1768730276227,0.1026763916015625,-0.4633941650390625,-0.86224365234375,-0.012834838591516,0.0113317500799894,-0.0119850235059857
1768730276237,0.1002197265625,-0.4705657958984375,-0.85699462890625,-0.0223953202366828,0.0047449539415538,-0.0156737677752971
1768730276247,0.09619140625,-0.47479248046875,-0.8554534912109375,-0.0309062507003545,0.0109136337414383,-0.0189188290387392
1768730276257,0.0909423828125,-0.479095458984375,-0.8546905517578125,-0.0432172454893589,0.0147376665845513,-0.0194250959903001
1768730276267,0.0876922607421875,-0.481475830078125,-0.8592529296875,-0.0488066859543323,0.0023688818328082,-0.0148218227550387
1768730276277,0.088531494140625,-0.4794921875,-0.8709716796875,-0.0481315776705741,-0.014462562277913,-0.013586382381618
1768730276287,0.0882568359375,-0.4805145263671875,-0.87896728515625,-0.0437394902110099,-0.0203132610768079,-0.0120707778260111
1768730276297,0.0824737548828125,-0.478546142578125,-0.88201904296875,-0.0373439081013202,-0.0162998773157596,-0.0131360422819852
1768730276307,0.0780029296875,-0.47576904296875,-0.88720703125,-0.0174839179962873,-0.0136886481195688,-0.0100515689700841
1768730276317,0.0847930908203125,-0.4728546142578125,-0.8946533203125,0.001432248041965,-0.0128649324178695,-0.0018024274613708
1768730276327,0.091827392578125,-0.47393798828125,-0.892120361328125,0.0116787599399685,-0.0225484520196914,0.0075535238720476
1768730276337,0.0936431884765625,-0.474212646484375,-0.884521484375,0.0130508206784725,-0.0236802957952022,0.010382866486907
1768730276348,0.0919189453125,-0.474853515625,-0.874114990234375,0.006655772216618,-0.0189486574381589,0.0118803614750504
1768730276357,0.0895538330078125,-0.4750213623046875,-0.869384765625,-1.25168571685208e-05,-0.0103285377845168,0.0093567501753568
1768730276368,0.0904083251953125,-0.4747772216796875,-0.86846923828125,-0.0063471118919551,-0.004511927254498,0.0056794574484229
1768730276378,0.091552734375,-0.4716796875,-0.8653717041015625,-0.0104819359257817,-0.0042096585966646,0.0009731190511956
1768730276388,0.0932159423828125,-0.472442626953125,-0.8704986572265625,-0.0156183745712041,-0.0031710257753729,-0.0070134345442056
1768730276398,0.0966339111328125,-0.4705657958984375,-0.8690338134765625,-0.0179478414356708,-0.0047811730764806,-0.0087721860036253
1768730276408,0.10211181640625,-0.4692230224609375,-0.8715972900390625,-0.0171667356044054,-0.0057486994192004,-0.0105831362307071
1768730276418,0.104034423828125,-0.466217041015625,-0.8802490234375,-0.0160223767161369,0.0022213426418602,-0.0105567704886198
1768730276428,0.1020050048828125,-0.4669189453125,-0.882354736328125,-0.0163126606494188,0.0117767648771405,-0.0058744004927575
1768730276438,0.10223388671875,-0.469024658203125,-0.8847503662109375,-0.0160191804170608,0.0158655159175395,-0.0021726067643612
1768730276448,0.1009368896484375,-0.4658050537109375,-0.8842620849609375,-0.0085157239809632,0.015475895255804,0.0019504991360008
1768730276458,0.1010284423828125,-0.46405029296875,-0.88580322265625,0.0019486349774524,0.0153893427923321,0.0026788737159222
1768730276468,0.0956268310546875,-0.4640655517578125,-0.88116455078125,0.0075721656903624,0.0068842712789773,0.0005065332516096
1768730276478,0.09185791015625,-0.466033935546875,-0.87237548828125,0.0068286112509667,0.0076840184628963,-0.0004852279380429
1768730276488,0.092254638671875,-0.4719696044921875,-0.86334228515625,-0.0063159526325762,0.0061881211586296,0.0048096687532961
1768730276498,0.0898590087890625,-0.475860595703125,-0.8563079833984375,-0.0175512973219156,0.0041822283528745,0.0098084220662713
1768730276508,0.091400146484375,-0.4744873046875,-0.8602752685546875,-0.0262507777661085,-0.0081681814044713,0.016140354797244
1768730276518,0.0888214111328125,-0.468353271484375,-0.8653564453125,-0.0263735502958297,-0.0198064614087343,0.014560567215085
1768730276529,0.085479736328125,-0.4627227783203125,-0.87506103515625,-0.0212842486798763,-0.026853185147047,0.0110587766394019
1768730276538,0.084381103515625,-0.4614410400390625,-0.88482666015625,-0.0119016664102673,-0.0268097762018442,0.0061018345877528
1768730276549,0.0812530517578125,-0.463623046875,-0.88482666015625,-0.0125277759507298,-0.0246936287730932,0.0017470336752012
1768730276558,0.081085205078125,-0.463836669921875,-0.8799285888671875,-0.0148340733721852,-0.0215388480573892,-0.0010106696281582
1768730276568,0.086700439453125,-0.466644287109375,-0.87982177734375,-0.0121421506628394,-0.0278018042445182,-0.0013382384786382
1768730276579,0.0871429443359375,-0.46368408203125,-0.8797607421875,-0.0134431039914488,-0.0338493101298809,-0.0076206354424357
1768730276589,0.0850067138671875,-0.462188720703125,-0.878875732421875,-0.010898720473051,-0.0276987385004758,-0.0207044798880815
1768730276599,0.0832977294921875,-0.461822509765625,-0.8766326904296875,-0.0137238018214702,-0.0172333158552646,-0.0306716263294219
1768730276609,0.0813751220703125,-0.4640960693359375,-0.867034912109375,-0.0242134612053632,-0.007112770806998,-0.0382379330694675
1768730276619,0.0890045166015625,-0.46466064453125,-0.865264892578125,-0.0315669812262058,-0.0053921020589768,-0.0359121933579444
1768730276629,0.09759521484375,-0.4649200439453125,-0.868408203125,-0.0385812148451805,-0.0088744517415761,-0.0338708832859993
1768730276639,0.10284423828125,-0.4649658203125,-0.8688201904296875,-0.0488431714475154,-0.0090709924697875,-0.0291610807180404
1768730276649,0.1043853759765625,-0.4663238525390625,-0.8704071044921875,-0.0499635636806488,-0.0085873631760478,-0.0214498974382877
1768730276659,0.108551025390625,-0.46636962890625,-0.8809661865234375,-0.041568748652935,-0.0125187216326594,-0.0162298362702131
1768730276669,0.1090087890625,-0.4653778076171875,-0.8918304443359375,-0.0322050750255584,-0.006785468198359,-0.0132534876465797
1768730276679,0.1074066162109375,-0.467864990234375,-0.8925933837890625,-0.0224576387554407,0.0065226140432059,-0.0103043029084801
1768730276689,0.1091461181640625,-0.4718170166015625,-0.889984130859375,-0.0139035647734999,0.018843462690711,-0.0004484763194341
1768730276699,0.111846923828125,-0.4722747802734375,-0.8882293701171875,-0.0036748959682881,0.0240241102874279,0.0130923660472035
1768730276709,0.1103668212890625,-0.4707794189453125,-0.8871307373046875,0.0023379891645163,0.0205857027322053,0.0213958360254764
1768730276719,0.1011505126953125,-0.46649169921875,-0.8847503662109375,0.0055889096111059,0.020583838224411,0.0200956799089908
1768730276729,0.090484619140625,-0.464080810546875,-0.8833465576171875,0.0079332906752824,0.0221495106816291,0.0141621576622128
1768730276739,0.0833587646484375,-0.4661102294921875,-0.880645751953125,0.0088275801390409,0.0224272776395082,0.0118372179567813
1768730276749,0.084136962890625,-0.4634246826171875,-0.8819580078125,0.0094459662213921,0.0158159807324409,0.0095370458438992
1768730276759,0.08258056640625,-0.4656829833984375,-0.878509521484375,0.0048035434447228,0.0077532608993351,0.0052120727486908
1768730276769,0.0839691162109375,-0.4676971435546875,-0.8728790283203125,-0.0056038233451545,-0.001570466090925,0.003697266569361
1768730276780,0.0845794677734375,-0.467926025390625,-0.8678131103515625,-0.0121112577617168,-0.0098507665097713,0.003173156408593
1768730276789,0.0853118896484375,-0.4725341796875,-0.8662109375,-0.0160985421389341,-0.0059116850607097,0.0018154769204556
1768730276800,0.085845947265625,-0.4659271240234375,-0.8671722412109375,-0.0160484742373228,0.0011677960865199,-0.0026016421616077
1768730276810,0.08380126953125,-0.4655914306640625,-0.873138427734375,-0.0201342962682247,-0.0062789348885416,-0.0007299724384211
1768730276820,0.0834503173828125,-0.460174560546875,-0.874664306640625,-0.0254092197865247,-0.0216435100883245,-0.0020311928819864
1768730276830,0.07745361328125,-0.4541473388671875,-0.8787994384765625,-0.0214403104037046,-0.0281842332333326,-0.0144857317209243
1768730276840,0.0751495361328125,-0.453338623046875,-0.8841552734375,-0.0103359948843717,-0.0150029174983501,-0.027475032955408
1768730276850,0.0782318115234375,-0.456329345703125,-0.8874053955078125,0.0009520800667814,-0.0114846155047416,-0.0379588343203067
1768730276860,0.0915679931640625,-0.4560546875,-0.8867645263671875,0.0050352388061583,-0.0056861150078475,-0.0359396263957023
1768730276870,0.1031036376953125,-0.459197998046875,-0.8871307373046875,0.0122936842963099,0.0038775624707341,-0.0229599103331565
1768730276880,0.1062469482421875,-0.4588165283203125,-0.8881378173828125,0.0193300228565931,0.0027827369049191,-0.0147256832569837
1768730276890,0.098388671875,-0.45404052734375,-0.885345458984375,0.0192067176103591,-0.0028341358993202,-0.0175710041075944
1768730276900,0.09136962890625,-0.454254150390625,-0.882598876953125,0.0166476853191852,-0.0077697723172605,-0.0191755592823028
1768730276910,0.090301513671875,-0.456878662109375,-0.8791961669921875,0.0164306387305259,-0.011658520437777,-0.0198796987533569
1768730276920,0.0938262939453125,-0.460540771484375,-0.8794403076171875,0.0182650238275527,-0.0109317433089017,-0.0197111200541257
1768730276930,0.0964813232421875,-0.464996337890625,-0.87860107421875,0.02023895829916,-0.0009108011145144,-0.0156370159238576
1768730276940,0.0933074951171875,-0.468109130859375,-0.87799072265625,0.022276010364294,0.0077564567327499,-0.0150021193549036
1768730276950,0.092742919921875,-0.4696502685546875,-0.882049560546875,0.0290292538702487,0.0068057081662118,-0.0120265688747167
1768730276960,0.0948638916015625,-0.4685516357421875,-0.8846588134765625,0.0340903252363204,0.0073537868447601,-0.0101402522996068
1768730276970,0.0981903076171875,-0.4681854248046875,-0.88385009765625,0.0379598997533321,0.0100859235972166,-0.0028626318089663
1768730276981,0.099273681640625,-0.4697265625,-0.8799896240234375,0.0344527810811996,0.011453989893198,0.0026301378384232
1768730276990,0.096832275390625,-0.46734619140625,-0.87542724609375,0.0350219011306762,0.0058248657733201,0.0053340452723205
1768730277000,0.0939178466796875,-0.46185302734375,-0.8741302490234375,0.0329297184944152,0.0016303871525451,0.0069290124811232
1768730277011,0.09149169921875,-0.458251953125,-0.8712615966796875,0.0298835970461368,-0.0081359567120671,0.0026589001063257
1768730277021,0.085784912109375,-0.456146240234375,-0.867767333984375,0.0245841722935438,-0.0142835984006524,-0.0015182681381702
1768730277031,0.0839691162109375,-0.4570770263671875,-0.86419677734375,0.0188256185501813,-0.0148596400395035,-0.0102150868624448
1768730277041,0.08270263671875,-0.458404541015625,-0.864166259765625,0.0103165535256266,-0.012811136431992,-0.0193116459995508
1768730277051,0.0841064453125,-0.4624481201171875,-0.8618621826171875,0.0021379857789725,-0.0051817125640809,-0.0193265601992607
1768730277061,0.09649658203125,-0.4701385498046875,-0.8634185791015625,-0.0087732514366507,-0.0064602959901094,-0.0106582371518015
1768730277071,0.1037139892578125,-0.476470947265625,-0.861907958984375,-0.0271450672298669,-0.0110348081216216,-0.0045726476237177
1768730277081,0.106689453125,-0.4782562255859375,-0.8601226806640625,-0.0364935621619224,-0.0138313937932252,0.0026133600622415
1768730277091,0.1059417724609375,-0.47381591796875,-0.8706512451171875,-0.0257634203881025,-0.0127895651385188,0.0089950924739241
1768730277101,0.0998687744140625,-0.4646759033203125,-0.889739990234375,-0.0048759817145764,-0.0040690437890589,0.0117874173447489
1768730277111,0.0910797119140625,-0.46197509765625,-0.8972015380859375,0.0090339751914143,0.0082922847941517,0.0074185016565024
1768730277121,0.08624267578125,-0.46142578125,-0.8946533203125,0.0191459972411394,0.0150018529966473,0.0037414750549942
1768730277131,0.0881805419921875,-0.465850830078125,-0.8917694091796875,0.025293106213212,0.0139112882316112,0.0038405444938689
1768730277141,0.0921630859375,-0.4673004150390625,-0.8878631591796875,0.0306026507169008,0.0095642106607556,0.0027702201623469
1768730277151,0.0919342041015625,-0.468719482421875,-0.8815155029296875,0.0349936708807945,0.0073681678622961,0.0052703958936035
1768730277161,0.0930938720703125,-0.471923828125,-0.8759307861328125,0.0329102799296379,0.0064698834903538,0.0093301180750131
1768730277171,0.0960693359375,-0.4759521484375,-0.8658599853515625,0.024196682497859,0.005690642632544,0.01436482463032
1768730277181,0.0911407470703125,-0.4762115478515625,-0.8603363037109375,0.0156495328992605,0.0021065603941679,0.0131789185106754
1768730277191,0.087432861328125,-0.473358154296875,-0.860870361328125,0.0129312444478273,-0.0068251490592956,0.0109415976330637
1768730277201,0.0865936279296875,-0.4676361083984375,-0.8677215576171875,0.0085367625579237,-0.0153315523639321,0.0080624539405107
1768730277213,0.08062744140625,-0.4667510986328125,-0.868499755859375,0.0006040049483999,-0.0163717828691005,-0.0006956176948733
1768730277222,0.075286865234375,-0.4687652587890625,-0.8696441650390625,-0.0048948898911476,-0.020715931430459,-0.0096451705321669
1768730277232,0.0756988525390625,-0.466552734375,-0.87689208984375,-0.0020567593164741,-0.0188993886113166,-0.0190543849021196
1768730277242,0.079986572265625,-0.4672393798828125,-0.8807830810546875,0.0042461440898478,-0.0208783838897943,-0.0221369937062263
1768730277252,0.085968017578125,-0.468231201171875,-0.8832550048828125,0.0101783350110054,-0.0192802213132381,-0.0201745107769966
1768730277262,0.0940704345703125,-0.470733642578125,-0.883209228515625,0.0160689819604158,-0.0171536859124898,-0.0155089180916547
1768730277272,0.098052978515625,-0.47125244140625,-0.879119873046875,0.0200109928846359,-0.0156394131481647,-0.0091018853709101
1768730277282,0.1014862060546875,-0.4708099365234375,-0.8772125244140625,0.0233596507459878,-0.0185973867774009,-0.0057809236459434
1768730277292,0.0998687744140625,-0.4676055908203125,-0.87628173828125,0.0239500738680362,-0.0193145759403705,-0.0058115501888096
1768730277302,0.0946807861328125,-0.4685211181640625,-0.8719024658203125,0.0208842419087886,-0.0048344363458454,-0.0044344295747578
1768730277312,0.0910186767578125,-0.471771240234375,-0.8657989501953125,0.0103429183363914,0.0008833705214783,-0.0024229439441114
1768730277322,0.0953369140625,-0.470001220703125,-0.8619232177734375,0.0022623552940785,0.0011206581257283,0.0025342640001326
1768730277332,0.1015777587890625,-0.471405029296875,-0.863037109375,-0.0062600262463092,-0.0030293457675725,0.0085655245929956
1768730277342,0.10174560546875,-0.4710540771484375,-0.858917236328125,-0.0135743981227278,-0.0059652146883308,0.0136183407157659
1768730277352,0.100738525390625,-0.46978759765625,-0.8643798828125,-0.0115091167390346,-0.0104302698746323,0.0187641009688377
1768730277362,0.0990753173828125,-0.46722412109375,-0.8720855712890625,-0.0035033884923905,-0.0183784738183021,0.0202554706484079
1768730277372,0.0944366455078125,-0.4648895263671875,-0.8773193359375,-0.0020493024494498,-0.0140753388404846,0.0179616902023553
1768730277382,0.0853118896484375,-0.468292236328125,-0.8757171630859375,0.0009225190151482,-0.006286125164479,0.0156271625310182
1768730277392,0.0798187255859375,-0.466461181640625,-0.8764801025390625,0.0054251253604888,-0.0066416575573384,0.0087468866258859
1768730277402,0.079803466796875,-0.46600341796875,-0.87628173828125,0.004939364735037,-0.0040597226470708,0.004882373381406
1768730277412,0.080413818359375,-0.4711456298828125,-0.87457275390625,-0.0017963021527975,-0.0047276434488594,0.00192306865938
1768730277422,0.0797271728515625,-0.4735107421875,-0.86920166015625,-0.0033212280832231,-0.0021845910232514,-0.0001994707708945
1768730277433,0.0831146240234375,-0.4755859375,-0.8694305419921875,-0.0077284933067858,0.0014335796004161,0.0009494169498793
1768730277443,0.084686279296875,-0.4791412353515625,-0.8658447265625,-0.0200520046055316,-0.0013116068439558,-0.0049643986858427
1768730277453,0.0819549560546875,-0.4730072021484375,-0.860076904296875,-0.0247527509927749,-0.0152138406410813,-0.012688098475337
1768730277463,0.08355712890625,-0.4728851318359375,-0.8693695068359375,-0.0188376028090715,-0.0150215597823262,-0.015100922435522
1768730277473,0.0919189453125,-0.472686767578125,-0.876861572265625,-0.0106462528929114,-0.00819081813097,-0.015361113473773
1768730277483,0.0968475341796875,-0.4700927734375,-0.8798065185546875,-0.0029395972378551,-0.0055444352328777,-0.0093024214729666
1768730277493,0.0973968505859375,-0.4721527099609375,-0.8821563720703125,-0.0010282464791089,-0.0075505943968892,-0.0004663194995373
1768730277503,0.097564697265625,-0.4692535400390625,-0.8812103271484375,0.0063066319562494,-0.0098718050867319,0.0025331987999379
1768730277513,0.089324951171875,-0.4701080322265625,-0.8819732666015625,0.0074182352982461,-0.0045545380562543,0.0001398159511154
1768730277523,0.081329345703125,-0.472381591796875,-0.8750457763671875,0.005045358557254,0.0090273171663284,-0.0070677632465958
1768730277533,0.0820159912109375,-0.472625732421875,-0.8638763427734375,0.0012399677652865,0.0115621136501431,-0.0071415328420698
1768730277543,0.0897674560546875,-0.469482421875,-0.8681640625,0.0065178205259144,0.0015925703337416,-0.0051803807727992
1768730277553,0.091064453125,-0.461669921875,-0.8803558349609375,0.0146620329469442,-0.0017006946727633,-0.0052781188860535
1768730277563,0.083953857421875,-0.4609375,-0.88055419921875,0.0150167662650346,-0.0034045851789414,-0.0105647603049874
1768730277573,0.0740966796875,-0.465057373046875,-0.8731536865234375,0.0078930770978331,-0.0083210468292236,-0.0179097577929496
1768730277583,0.07183837890625,-0.4675140380859375,-0.8660736083984375,-0.0058094197884202,-0.0097993677482008,-0.0240238439291715
1768730277593,0.0736541748046875,-0.4703826904296875,-0.86151123046875,-0.0168514177203178,-0.0033143039327114,-0.0319787040352821
1768730277603,0.0795440673828125,-0.475799560546875,-0.8610687255859375,-0.0256015006452798,-0.0010266485624015,-0.0293408446013927
1768730277614,0.0862274169921875,-0.4756622314453125,-0.8612518310546875,-0.0347681008279323,-0.0036823528353124,-0.021150292828679
1768730277623,0.093963623046875,-0.4745025634765625,-0.8668670654296875,-0.0392344892024993,-0.0137483030557632,-0.0136945070698857
1768730277634,0.0961151123046875,-0.473876953125,-0.87371826171875,-0.0381487160921096,-0.0149800144135952,-0.01103001460433
1768730277644,0.09271240234375,-0.4705352783203125,-0.8773651123046875,-0.0348115116357803,-0.017447168007493,-0.0121706463396549
1768730277654,0.0898895263671875,-0.4678497314453125,-0.8834228515625,-0.0222563035786151,-0.016194149851799,-0.0138138160109519
1768730277664,0.0908966064453125,-0.465362548828125,-0.890472412109375,-0.0097514307126402,-0.0121938157826662,-0.0184810068458318
1768730277674,0.08758544921875,-0.4658660888671875,-0.89093017578125,0.0002223739429609,-0.0038879488129168,-0.020485833287239
1768730277684,0.091064453125,-0.46728515625,-0.88970947265625,0.0093018887564539,0.0054980958811938,-0.0182764753699302
1768730277694,0.0913543701171875,-0.46923828125,-0.881805419921875,0.0103170862421393,0.010978614911437,-0.0133845144882798
1768730277704,0.0900726318359375,-0.4701080322265625,-0.8726348876953125,0.0078003988601267,0.0066895941272377,-0.00894396007061
1768730277714,0.0906524658203125,-0.467041015625,-0.86724853515625,0.0020820593927055,-0.0039654467254877,-0.009427323937416
1768730277724,0.0872344970703125,-0.4673004150390625,-0.861785888671875,-0.0066701532341539,-0.0109716905280947,-0.0100502371788024
1768730277734,0.085205078125,-0.4686126708984375,-0.858917236328125,-0.0161826983094215,-0.0162178520113229,-0.0084265079349279
1768730277744,0.0867156982421875,-0.4696044921875,-0.8597869873046875,-0.0212435033172369,-0.0158479381352663,-0.0064560351893305
1768730277754,0.0927581787109375,-0.471038818359375,-0.863861083984375,-0.027141073718667,-0.0205002147704362,-0.0040599890053272
1768730277764,0.094268798828125,-0.4701080322265625,-0.866790771484375,-0.0343643650412559,-0.018468489870429,-0.002503637690097
1768730277774,0.0927734375,-0.4711151123046875,-0.8740234375,-0.0323800444602966,-0.0107796769589185,0.0022836606949567
1768730277784,0.090911865234375,-0.4670257568359375,-0.8834991455078125,-0.0240904223173856,-0.005961219780147,-0.0003866909828502
1768730277794,0.0842742919921875,-0.464569091796875,-0.89019775390625,-0.0145230162888765,0.0009877664269879,-0.0074789552018046
1768730277804,0.0849761962890625,-0.461334228515625,-0.8938446044921875,-0.0020293288398534,0.0067484499886631,-0.0103804692625999
1768730277815,0.0903167724609375,-0.4621124267578125,-0.8955841064453125,0.0082605928182601,0.0064930529333651,-0.0089865708723664
1768730277824,0.0923919677734375,-0.46685791015625,-0.8912506103515625,0.0103604951873421,0.00626215711236,-0.009328787215054
1768730277834,0.0933837890625,-0.4682464599609375,-0.8847503662109375,0.0149765526875853,0.009115201421082,-0.0055223307572305
1768730277844,0.0943145751953125,-0.4663238525390625,-0.8814849853515625,0.0137810595333576,0.0050504184328019,-0.0011667308863252
1768730277855,0.092987060546875,-0.468719482421875,-0.873443603515625,0.0095378449186682,0.0039310920983552,0.0007427555974572
1768730277865,0.0935821533203125,-0.4726104736328125,-0.8675994873046875,-0.0010681939311325,0.0061388527974486,0.0052994242869317
1768730277875,0.0929412841796875,-0.476409912109375,-0.8636932373046875,-0.0111442636698484,0.0053337789140641,0.0082579301670193
1768730277885,0.0903778076171875,-0.4776611328125,-0.864013671875,-0.0139744048938155,-0.0007475492893718,0.0050000851042568
1768730277895,0.09002685546875,-0.474609375,-0.8712158203125,-0.016251940280199,0.00421844702214,0.0085620628669857
1768730277905,0.08740234375,-0.476959228515625,-0.871185302734375,-0.0176586229354143,0.0004159857635386,0.0093245254829525
1768730277915,0.0817718505859375,-0.4735870361328125,-0.876434326171875,-0.0119141833856701,0.0011643340112641,0.0053028864786028
1768730277925,0.0779571533203125,-0.468475341796875,-0.8827667236328125,-0.0019499665359035,0.0073652383871376,0.0018857843242585
1768730277935,0.0758209228515625,-0.4691162109375,-0.88287353515625,0.000998685369268,0.0125054055824875,-0.0013875069562345
1768730277945,0.0755615234375,-0.4709930419921875,-0.879150390625,0.0026703516487032,0.0058759986422955,-0.0028141622897237
1768730277955,0.078765869140625,-0.4685211181640625,-0.8787689208984375,0.002290318487212,0.0004058657505083,-0.0042360238730907
1768730277965,0.0826873779296875,-0.468841552734375,-0.8760528564453125,0.0015544871566817,-0.0021057615522295,-0.0062951799482107
1768730277975,0.0833587646484375,-0.468841552734375,-0.87359619140625,-0.0009025452891364,-0.0059705409221351,-0.0086147934198379
1768730277985,0.0855560302734375,-0.46844482421875,-0.87255859375,0.0009267800487577,-0.0082158520817756,-0.0047540087252855
1768730277995,0.087799072265625,-0.4687042236328125,-0.874053955078125,-0.0017385114915668,-0.0127389645203948,-0.0028189560398459
1768730278005,0.087982177734375,-0.4705352783203125,-0.8716278076171875,-0.0077785607427358,-0.002167280530557,-0.0080320937559008
1768730278015,0.0865478515625,-0.4733123779296875,-0.86956787109375,-0.0133978305384516,0.0060874535702168,-0.0074509922415018
1768730278025,0.08721923828125,-0.47210693359375,-0.866912841796875,-0.0180296003818511,0.0052544167265295,-0.0091777853667736
1768730278035,0.0861663818359375,-0.4688568115234375,-0.8677520751953125,-0.0261469148099422,-0.0012436961987987,-0.0125067373737692
1768730278046,0.0812225341796875,-0.467498779296875,-0.865966796875,-0.0314383506774902,-0.00393428793177,-0.0166298430413007
1768730278056,0.080230712890625,-0.4641876220703125,-0.8699493408203125,-0.0295224711298942,-0.0052469600923359,-0.0172980297356843
1768730278066,0.0835418701171875,-0.4621429443359375,-0.8759918212890625,-0.0277437474578619,-0.0073756244964897,-0.020640030503273
1768730278076,0.0851593017578125,-0.4622039794921875,-0.87908935546875,-0.0229231584817171,-0.0082526039332151,-0.0217745378613472
1768730278086,0.0847015380859375,-0.4639129638671875,-0.88409423828125,-0.0132281873375177,-0.0064629591070115,-0.0232952032238245
1768730278096,0.0877838134765625,-0.4667816162109375,-0.885467529296875,-0.0092270541936159,-0.0041619879193603,-0.0180503726005554
1768730278106,0.089141845703125,-0.4731903076171875,-0.8802490234375,-0.0046629286371171,-0.0051811798475682,-0.0132801188156008
1768730278116,0.0964508056640625,-0.4759368896484375,-0.8812713623046875,0.0025025724899023,-0.0095474328845739,-0.0051556136459112
1768730278126,0.0985107421875,-0.472930908203125,-0.8785247802734375,0.0022985744290053,-0.0162482112646102,-0.005846703890711
1768730278136,0.09295654296875,-0.473358154296875,-0.873931884765625,0.0020218719728291,-0.0129916984587907,-0.0067218183539807
1768730278146,0.08746337890625,-0.4781341552734375,-0.8687744140625,-0.0023228090722113,0.003778226673603,-0.0111490571871399
1768730278156,0.0848846435546875,-0.472900390625,-0.86578369140625,-0.0052043492905795,0.0196157786995172,-0.0152798863127827
1768730278166,0.0873260498046875,-0.472015380859375,-0.8701019287109375,-0.0076893451623618,0.0176394470036029,-0.0044685178436338
1768730278176,0.0944366455078125,-0.4674072265625,-0.876434326171875,-0.0088574076071381,0.0076709692366421,0.0046778423711657
1768730278186,0.0921173095703125,-0.4665985107421875,-0.8768768310546875,-0.0139821283519268,-0.0038298920262604,0.0034956652671098
1768730278196,0.0826263427734375,-0.4649200439453125,-0.8720703125,-0.0116286929696798,-0.0111157679930329,-0.0079985382035374
1768730278206,0.0813751220703125,-0.462310791015625,-0.8770751953125,-0.0102446479722857,0.0030929953791201,-0.0131110083311796
1768730278216,0.08709716796875,-0.462188720703125,-0.87799072265625,-0.0107607683166861,0.0080925477668643,-0.0073247579857707
1768730278226,0.0897216796875,-0.46392822265625,-0.87884521484375,-0.0058405785821378,0.0040203081443905,-0.0019670107867568
1768730278237,0.0899200439453125,-0.4586639404296875,-0.8844146728515625,0.0004330299852881,-0.0064677530899643,-0.0027350664604455
1768730278247,0.0793914794921875,-0.4555816650390625,-0.8826904296875,-0.0021323929540812,-0.0060160807333886,-0.0120361568406224
1768730278256,0.0733489990234375,-0.4613189697265625,-0.877777099609375,-0.0012559468159452,-0.0075804218649864,-0.022063223645091
1768730278267,0.0758514404296875,-0.46435546875,-0.87469482421875,-0.0006676545017398,-0.0112190982326865,-0.0263663604855537
1768730278277,0.081878662109375,-0.466552734375,-0.873626708984375,-0.0036357475910335,-0.0144377946853637,-0.0263367984443902
1768730278287,0.0861968994140625,-0.4734039306640625,-0.8686676025390625,-0.0096294581890106,-0.0172207988798618,-0.027842815965414
1768730278297,0.0877227783203125,-0.477752685546875,-0.864166259765625,-0.0177297294139862,-0.0123077984899282,-0.0267900694161653
1768730278307,0.0895538330078125,-0.4768524169921875,-0.86456298828125,-0.026665698736906,-0.0080249030143022,-0.0208586771041154
1768730278317,0.090484619140625,-0.4763031005859375,-0.8701171875,-0.0312583185732364,-0.0105208177119493,-0.0167853720486164
1768730278327,0.09259033203125,-0.4700164794921875,-0.879669189453125,-0.0225143637508153,-0.0094121443107724,-0.0172061510384082
1768730278337,0.0922393798828125,-0.46466064453125,-0.891265869140625,-0.0057367151603102,-0.0100036319345235,-0.013792511075735
1768730278347,0.0919036865234375,-0.461761474609375,-0.8960418701171875,0.0078944079577922,-0.0079162465408444,-0.0152018563821911
1768730278357,0.0888671875,-0.4622650146484375,-0.8946380615234375,0.0186469219624996,-0.0004338289436418,-0.0155789600685238
1768730278367,0.0861663818359375,-0.4639129638671875,-0.884735107421875,0.019383018836379,0.0128430938348174,-0.0192751605063676
1768730278377,0.0817718505859375,-0.46673583984375,-0.8725433349609375,0.0143376598134636,0.0237620547413826,-0.0244488846510648
1768730278387,0.080108642578125,-0.4669036865234375,-0.8629302978515625,0.0041646515019237,0.0286233890801668,-0.030274549499154
1768730278397,0.081207275390625,-0.4662017822265625,-0.8585052490234375,-0.0063838632777333,0.0226581748574972,-0.0248664673417806
1768730278407,0.0916595458984375,-0.462615966796875,-0.8622283935546875,-0.0090861730277538,0.0005752427969127,-0.0183744803071022
1768730278417,0.095306396484375,-0.4624176025390625,-0.8645172119140625,-0.0182722136378288,-0.0184061713516712,-0.0150109073147177
1768730278427,0.0948638916015625,-0.4661865234375,-0.8630828857421875,-0.0296436455100774,-0.0294516328722238,-0.0154697699472308
1768730278437,0.09197998046875,-0.467620849609375,-0.8608551025390625,-0.0424244217574596,-0.0227639023214578,-0.0157667119055986
1768730278447,0.0869598388671875,-0.4678497314453125,-0.8650054931640625,-0.0488692708313465,-0.0153608471155166,-0.0200283024460077
1768730278457,0.08282470703125,-0.4649810791015625,-0.87347412109375,-0.0463206283748149,-0.000429834210081,-0.0237378198653459
1768730278467,0.0811920166015625,-0.4614105224609375,-0.8842315673828125,-0.043598610907793,0.004800347611308,-0.0310175698250532
1768730278478,0.0835418701171875,-0.4619598388671875,-0.887237548828125,-0.0367976948618888,0.0055899750441312,-0.0315219722688198
1768730278488,0.088409423828125,-0.4602813720703125,-0.8903961181640625,-0.0301160905510187,1.4381069377122913e-05,-0.0270529221743345
1768730278498,0.0973968505859375,-0.4606781005859375,-0.8907928466796875,-0.0215364508330822,-0.0139877209439873,-0.0220906548202037
1768730278508,0.0970916748046875,-0.460418701171875,-0.886688232421875,-0.0193718336522579,-0.0191981960088014,-0.0208014193922281
1768730278518,0.09051513671875,-0.4622344970703125,-0.8800811767578125,-0.0195406787097454,-0.0136755984276533,-0.0262880623340606
1768730278528,0.0863800048828125,-0.4628448486328125,-0.87548828125,-0.0207558777183294,-0.0053289853967726,-0.0306319445371627
1768730278538,0.0866241455078125,-0.4639739990234375,-0.8710174560546875,-0.0258435811847448,-0.0013363742036744,-0.0322873666882514
1768730278548,0.0898895263671875,-0.4667205810546875,-0.8665313720703125,-0.034732412546873,-0.0005054679932072,-0.0294550936669111
1768730278558,0.0953216552734375,-0.46905517578125,-0.86962890625,-0.0383503176271915,-0.0048410943709313,-0.0226706918329
1768730278568,0.0975341796875,-0.4682159423828125,-0.876739501953125,-0.0394382178783416,-0.0016269250772893,-0.0207244530320167
1768730278578,0.0946807861328125,-0.46807861328125,-0.8772735595703125,-0.0415413193404674,0.0049577406607568,-0.0199015364050865
1768730278588,0.0902252197265625,-0.4679412841796875,-0.8799896240234375,-0.0343427918851375,0.0092909699305891,-0.0165187884122133
1768730278599,0.089935302734375,-0.4630889892578125,-0.88616943359375,-0.0258829966187477,0.0017518273089081,-0.0133568178862333
1768730278608,0.088226318359375,-0.4600677490234375,-0.88897705078125,-0.0201334971934556,-0.0032314795535057,-0.0186911299824714
1768730278618,0.0788421630859375,-0.4557647705078125,-0.8832550048828125,-0.0161992106586694,-0.0038445394020527,-0.0277290996164083
1768730278628,0.07183837890625,-0.45404052734375,-0.8814849853515625,-0.0169302467256784,0.0028120318893343,-0.0405908375978469
1768730278638,0.07159423828125,-0.455657958984375,-0.8742523193359375,-0.0244068056344985,0.0032035163603723,-0.047519315034151
1768730278648,0.07635498046875,-0.4591217041015625,-0.86932373046875,-0.0346506536006927,-0.002110555069521,-0.0527018271386623
1768730278658,0.086334228515625,-0.4603424072265625,-0.8668365478515625,-0.0468545891344547,-0.0069987871684134,-0.0511215068399906
1768730278668,0.0929718017578125,-0.462066650390625,-0.8670654296875,-0.0568528957664966,-0.013252155855298,-0.0468561872839927
1768730278678,0.097259521484375,-0.4640960693359375,-0.873931884765625,-0.053824882954359,-0.0159257035702466,-0.0410411767661571
1768730278688,0.0979766845703125,-0.4642181396484375,-0.8813018798828125,-0.04914490878582,-0.0172879099845886,-0.0376600287854671
1768730278699,0.0992279052734375,-0.463653564453125,-0.887542724609375,-0.0373833253979682,-0.0198839586228132,-0.030409038066864
1768730278709,0.103240966796875,-0.463409423828125,-0.896759033203125,-0.0215881168842315,-0.0214235335588455,-0.0192930046468973
1768730278719,0.10272216796875,-0.4638671875,-0.8993988037109375,-0.0139696113765239,-0.0158380847424268,-0.0093905720859766
1768730278729,0.0995941162109375,-0.4647064208984375,-0.89837646484375,-0.0047995490022003,-0.0075814868323504,-0.0027712853625416
1768730278739,0.09405517578125,-0.4608917236328125,-0.898590087890625,0.012076636776328,-0.0001864212681539,0.00164450192824
1768730278749,0.092315673828125,-0.45562744140625,-0.8999481201171875,0.0287557486444711,0.0017395768081769,0.003866909770295
1768730278759,0.092132568359375,-0.4541778564453125,-0.894989013671875,0.0378001108765602,0.003573429537937,0.0028405275661498
1768730278769,0.0868377685546875,-0.45709228515625,-0.8861541748046875,0.0387250259518623,0.0022178804501891,0.0004460794734768
1768730278779,0.087066650390625,-0.4599456787109375,-0.8761138916015625,0.0331480987370014,0.0051809134893119,-0.0012311793398112
1768730278789,0.091400146484375,-0.4644927978515625,-0.86785888671875,0.0264656953513622,0.0117876837030053,-7.163903501350433e-05
1768730278799,0.092681884765625,-0.4672088623046875,-0.8609161376953125,0.0122393555939197,0.0102861933410167,0.0003376888344064
1768730278809,0.0991973876953125,-0.4626312255859375,-0.8602142333984375,-5.326322025211994e-06,0.0003648530691862,0.0024423850700259
1768730278819,0.095489501953125,-0.466888427734375,-0.864471435546875,-0.0083820335566997,-0.0005789712304249,0.0036591833923012
1768730278829,0.0926055908203125,-0.4671478271484375,-0.866485595703125,-0.0174660757184028,0.0055308528244495,0.0013462279457598
1768730278839,0.092681884765625,-0.4634246826171875,-0.868194580078125,-0.0226331409066915,0.0059332563541829,0.0008367652189917
1768730278849,0.0915985107421875,-0.4632110595703125,-0.8730926513671875,-0.0219455119222402,-0.0023885890841484,0.0088936267420649
1768730278859,0.0951385498046875,-0.4582061767578125,-0.8821563720703125,-0.0188983231782913,-0.0135421743616461,0.0133256586268544
1768730278869,0.08935546875,-0.4588775634765625,-0.88555908203125,-0.0094193341210484,-0.0126004805788397,0.0065596322529017
1768730278880,0.0806884765625,-0.458099365234375,-0.8863525390625,-0.0047028763219714,-0.006237655878067,-0.0059585566632449
1768730278889,0.0796661376953125,-0.4576263427734375,-0.8859405517578125,5.1399008953012526e-05,-0.0042823632247745,-0.0137107521295547
1768730278900,0.0823211669921875,-0.4555206298828125,-0.887481689453125,0.0069306101649999,0.0038868836127221,-0.0124990139156579
1768730278910,0.083740234375,-0.45587158203125,-0.8895111083984375,0.0140396524220705,0.0045883604325354,-0.0129293808713555
1768730278920,0.08331298828125,-0.45355224609375,-0.8903045654296875,0.0180035009980201,0.0016737966798245,-0.0128923626616597
1768730278930,0.0828704833984375,-0.454864501953125,-0.8856201171875,0.0166524797677993,-0.0050328415818512,-0.0124779753386974
1768730278940,0.08587646484375,-0.4584808349609375,-0.87579345703125,0.0065186191350221,-0.0080153159797191,-0.0126524120569229
1768730278950,0.0835723876953125,-0.46197509765625,-0.866607666015625,-0.0036277580074965,-0.0152812181040644,-0.0197534654289484
1768730278960,0.078887939453125,-0.4622039794921875,-0.8597869873046875,-0.0138028971850872,-0.0222288724035024,-0.0268894042819738
1768730278970,0.0801544189453125,-0.4633331298828125,-0.86456298828125,-0.0193486642092466,-0.0203364305198192,-0.0308718960732221
1768730278980,0.0864410400390625,-0.4640655517578125,-0.8723297119140625,-0.0201854296028614,-0.0249239914119243,-0.028480377048254
1768730278990,0.0908203125,-0.4664306640625,-0.87896728515625,-0.0167105365544557,-0.0280476137995719,-0.0251176040619611
1768730279000,0.09124755859375,-0.466217041015625,-0.8884735107421875,-0.0127754500135779,-0.0292092841118574,-0.0240664537996053
1768730279010,0.0881500244140625,-0.4649200439453125,-0.89019775390625,-0.0023028354626148,-0.0258566308766603,-0.0226315427571535
1768730279020,0.0873565673828125,-0.460174560546875,-0.8944854736328125,0.0100036319345235,-0.0054642739705741,-0.0207881033420562
1768730279030,0.091278076171875,-0.4584808349609375,-0.899169921875,0.0213470999151468,-0.0032716933637857,-0.012383964844048
1768730279040,0.092803955078125,-0.4603424072265625,-0.8897705078125,0.0221290048211812,-0.0160764381289482,-0.012206332758069
1768730279050,0.0843658447265625,-0.45941162109375,-0.8831634521484375,0.0242486149072647,-0.0073133064433932,-0.0134497620165348
1768730279060,0.0862579345703125,-0.4550323486328125,-0.8832550048828125,0.0259823314845561,-0.0180546343326568,-0.0155547251924872
1768730279070,0.08636474609375,-0.45611572265625,-0.878265380859375,0.0174951031804084,-0.009843842126429,-0.0194770283997058
1768730279080,0.0839080810546875,-0.4610443115234375,-0.8696136474609375,0.0071916002780199,-0.0005203816690482,-0.0198211092501878
1768730279090,0.0832366943359375,-0.4627532958984375,-0.864654541015625,0.0013587448047474,0.0025750105269253,-0.0154929393902421
1768730279100,0.0929107666015625,-0.461517333984375,-0.867584228515625,-0.0043148533441126,-0.0027449200861155,-0.0097807254642248
1768730279110,0.1006011962890625,-0.4650726318359375,-0.8655242919921875,-0.0183284077793359,-0.0156077221035957,-0.0004538026405498
1768730279121,0.10693359375,-0.4667510986328125,-0.86602783203125,-0.024869929999113,-0.0260449163615703,0.012654541991651
1768730279131,0.1058807373046875,-0.460205078125,-0.8752593994140625,-0.0230312831699848,-0.0297158174216747,0.0205540116876363
1768730279141,0.0970916748046875,-0.45489501953125,-0.888702392578125,-0.0091263866052031,-0.0295291300863027,0.0217835921794176
1768730279151,0.0889434814453125,-0.4535064697265625,-0.901031494140625,0.008436094969511,-0.0240110605955123,0.0169060137122869
1768730279161,0.083831787109375,-0.45343017578125,-0.9036102294921876,0.0226653646677732,-0.0205795764923095,0.010765828192234
1768730279171,0.0814666748046875,-0.4561614990234375,-0.8991851806640625,0.0311595164239406,-0.0159406177699565,0.0058770640753209
1768730279181,0.080963134765625,-0.45989990234375,-0.8929901123046875,0.037550039589405,-0.0105043062940239,0.0033619746100157
1768730279191,0.0827789306640625,-0.4624786376953125,-0.8859100341796875,0.0396398194134235,-0.0086403600871562,0.0018021611031144
1768730279201,0.0842437744140625,-0.464874267578125,-0.87823486328125,0.0310039892792701,-0.0043444144539535,0.0024674187880009
1768730279211,0.083648681640625,-0.4689178466796875,-0.865509033203125,0.0136838546022772,-0.0030535804107785,0.0027976506389677
1768730279221,0.0826263427734375,-0.471588134765625,-0.857086181640625,-0.0035859462805092,-0.0022841931786388,0.0030684941448271
1768730279231,0.0858612060546875,-0.4689483642578125,-0.8571929931640625,-0.0165321044623851,-0.0134170055389404,0.0062680160626769
1768730279241,0.0863037109375,-0.46588134765625,-0.8640899658203125,-0.0279160533100366,-0.0226243529468774,0.0049345712177455
1768730279251,0.083892822265625,-0.4649810791015625,-0.871917724609375,-0.0298833306878805,-0.022784674540162,5.9921123465755954e-05
1768730279261,0.07928466796875,-0.4653167724609375,-0.8800048828125,-0.020856013521552,-0.0199438799172639,-0.0007241134881041
1768730279271,0.08026123046875,-0.4623870849609375,-0.888397216796875,-0.0097306575626134,-0.0188887361437082,-0.0043404200114309
1768730279282,0.0798492431640625,-0.4652099609375,-0.8922119140625,0.0024258734192699,-0.014028200879693,-0.00394201092422
1768730279292,0.0821075439453125,-0.4652557373046875,-0.8963470458984375,0.0149078434333205,-0.0168463587760925,0.0004154531343374
1768730279301,0.0827484130859375,-0.4652099609375,-0.893585205078125,0.02697728946805,-0.0224616322666406,-0.0044602621346712
1768730279311,0.077728271484375,-0.464752197265625,-0.88677978515625,0.0302670914679765,-0.0226043779402971,-0.0117916781455278
1768730279321,0.0739898681640625,-0.4645233154296875,-0.8825531005859375,0.0343601033091545,-0.0165382307022809,-0.0163709837943315
1768730279331,0.076873779296875,-0.463043212890625,-0.8791656494140625,0.0288588125258684,-0.0075687039643526,-0.0199313629418611
1768730279342,0.081146240234375,-0.4654998779296875,-0.87255859375,0.0220325980335474,-0.0032261533197015,-0.014913436025381
1768730279352,0.0848236083984375,-0.466461181640625,-0.8693695068359375,0.017372865229845,-0.0093556847423315,-0.0104206828400492
1768730279362,0.08966064453125,-0.4648895263671875,-0.87139892578125,0.0092829801142215,-0.0125573370605707,-0.0077282269485294
1768730279372,0.0895538330078125,-0.467437744140625,-0.8718719482421875,0.0062120896764099,-0.0164886955171823,-0.0087839039042592
1768730279382,0.08709716796875,-0.4651031494140625,-0.875030517578125,0.0056403088383376,-0.0142095619812607,-0.0075125112198293
1768730279392,0.0876922607421875,-0.461944580078125,-0.8802642822265625,0.0057012951001524,-0.013479589484632,-0.0066179553978145
1768730279402,0.0841827392578125,-0.462249755859375,-0.882904052734375,0.0063066319562494,-0.0129869049414992,-0.0070896008983254
1768730279412,0.082611083984375,-0.4613494873046875,-0.8839569091796875,0.0094302529469132,-0.0114087155088782,-0.0080169141292572
1768730279422,0.0808563232421875,-0.459686279296875,-0.883453369140625,0.0110358735546469,-0.0051252534613013,-0.0140103576704859
1768730279432,0.07989501953125,-0.459808349609375,-0.880218505859375,0.0099088232964277,-0.0031622373498976,-0.0210104770958423
1768730279442,0.0812530517578125,-0.4625396728515625,-0.875152587890625,0.006686398293823,-0.0065995794720947,-0.0201089959591627
1768730279452,0.085693359375,-0.4654693603515625,-0.8729400634765625,0.0046070022508502,-0.008610532619059,-0.0210269875824451
1768730279462,0.0912017822265625,-0.468475341796875,-0.8728790283203125,0.0016239956021308,-0.003704457078129,-0.0117192398756742
1768730279472,0.0939178466796875,-0.473907470703125,-0.8692626953125,-0.0062219430692493,-0.001390702673234,-0.0035686357878148
1768730279482,0.092254638671875,-0.4716339111328125,-0.8643646240234375,-0.0118939438834786,-0.0100015010684728,0.0021060276776552
1768730279492,0.085693359375,-0.4703369140625,-0.868927001953125,-0.0107969874516129,-0.0060254018753767,0.0031603733077645
1768730279502,0.08648681640625,-0.4697723388671875,-0.87261962890625,-0.006998520810157,-0.0044733118265867,0.0007115966291166
1768730279512,0.083251953125,-0.4654541015625,-0.8765106201171875,-0.0007675230153836,-0.0056608151644468,0.0007534082396887
1768730279522,0.0814361572265625,-0.463348388671875,-0.882293701171875,0.0009693906176835,-0.0137360524386167,0.0040229712612926
1768730279532,0.0762481689453125,-0.460296630859375,-0.881317138671875,0.0057870489545166,-0.0089034801349043,-0.0005366269615478
1768730279543,0.0665435791015625,-0.46087646484375,-0.8787841796875,0.0012234562309458,0.0005547364708036,-0.0140684144571423
1768730279553,0.064849853515625,-0.466278076171875,-0.8691558837890625,-0.0081167826429009,0.0093018887564539,-0.0260118935257196
1768730279563,0.075897216796875,-0.465301513671875,-0.8664703369140625,-0.0099471732974052,0.0057082194834947,-0.0264539774507284
1768730279573,0.085296630859375,-0.4626312255859375,-0.8738555908203125,-0.0079655144363641,0.0026639599818736,-0.0201177857816219
1768730279583,0.0893707275390625,-0.45941162109375,-0.8794708251953125,-0.0086704539135098,-0.0044211135245859,-0.0141525706276297
1768730279593,0.083099365234375,-0.456878662109375,-0.875640869140625,-0.0179539658129215,-0.0122627913951873,-0.0139017011970281
1768730279603,0.0755615234375,-0.4582061767578125,-0.867523193359375,-0.0324817784130573,-0.0193382780998945,-0.0225985199213027
1768730279613,0.0704193115234375,-0.4579925537109375,-0.863616943359375,-0.0432768985629081,-0.0205028783529996,-0.02949770539999
1768730279623,0.0758209228515625,-0.458221435546875,-0.86669921875,-0.0443189963698387,-0.0283458866178989,-0.0317368917167186
1768730279633,0.0852508544921875,-0.458282470703125,-0.873687744140625,-0.0455499067902565,-0.0333158783614635,-0.0277863573282957
1768730279643,0.09033203125,-0.462890625,-0.877166748046875,-0.0446851812303066,-0.0304670948535203,-0.025163410231471
1768730279653,0.0888214111328125,-0.4652252197265625,-0.8803253173828125,-0.0398845672607421,-0.0274526625871658,-0.0239969454705715
1768730279663,0.0884246826171875,-0.465301513671875,-0.8878326416015625,-0.0280409548431634,-0.0250393059104681,-0.0235468707978725
1768730279673,0.0875396728515625,-0.4635772705078125,-0.8967132568359375,-0.0140132876113057,-0.0168559458106756,-0.025081917643547
1768730279683,0.0876007080078125,-0.4639129638671875,-0.8981475830078125,0.0045524076558649,-0.0159363560378551,-0.0198658499866724
1768730279693,0.0853729248046875,-0.46197509765625,-0.89813232421875,0.0166112016886472,-0.0082725770771503,-0.0184996481984853
1768730279703,0.0832977294921875,-0.461944580078125,-0.8918914794921875,0.0249157361686229,-0.0053279199637472,-0.0158796310424804
1768730279713,0.08148193359375,-0.4611663818359375,-0.8842010498046875,0.0230198316276073,-0.0071013187989592,-0.0143022397533059
1768730279723,0.0818328857421875,-0.462982177734375,-0.874786376953125,0.0168247856199741,-0.0038338867016136,-0.010056628845632
1768730279733,0.0806884765625,-0.4654083251953125,-0.8638916015625,0.0027001791168004,-0.0070256851613521,-0.0090526174753904
1768730279744,0.0838775634765625,-0.466094970703125,-0.860382080078125,-0.0116313556209206,-0.0077439397573471,-0.0068555092439055
1768730279754,0.08416748046875,-0.4666290283203125,-0.85888671875,-0.0226235538721084,-0.0072762886993587,-0.0028482507914304
1768730279764,0.0885467529296875,-0.468170166015625,-0.8632965087890625,-0.0249263886362314,-0.0101335942745208,0.0035542547702789
1768730279774,0.089935302734375,-0.4668731689453125,-0.8724517822265625,-0.0284902304410934,-0.0179816633462905,0.0076174396090209
1768730279784,0.0886383056640625,-0.4655914306640625,-0.8727264404296875,-0.0347185656428337,-0.0320892259478569,0.0045177866704761
1768730279794,0.0854644775390625,-0.460906982421875,-0.875152587890625,-0.0338719449937343,-0.0267738234251737,0.0014618091518059
1768730279804,0.080780029296875,-0.459259033203125,-0.887237548828125,-0.0212203338742256,-0.0200344286859035,-0.0014974954538047
1768730279814,0.0761566162109375,-0.45538330078125,-0.8969268798828125,-0.0080885523930192,-0.0091857751831412,-0.0071314126253128
1768730279824,0.0746917724609375,-0.454254150390625,-0.899139404296875,0.0010159959783777,-0.0054722633212804,-0.0134502947330474
1768730279834,0.0771636962890625,-0.45404052734375,-0.8994140625,0.0126252472400665,-0.0091301146894693,-0.0135893123224377
1768730279844,0.0827484130859375,-0.4547576904296875,-0.8980255126953125,0.0182439852505922,-0.0061095575802028,-0.0120414830744266
1768730279854,0.087677001953125,-0.458343505859375,-0.892486572265625,0.0229465942829847,0.0010833739070221,-0.0139829274266958
1768730279864,0.085174560546875,-0.4617156982421875,-0.88037109375,0.020454941317439,0.0092467619106173,-0.0113732954487204
1768730279874,0.086181640625,-0.46600341796875,-0.8706817626953125,0.0155086517333984,0.0126090021803975,-0.0063649551011621
1768730279884,0.0926055908203125,-0.4662628173828125,-0.8692626953125,0.0081306304782629,0.0066230152733623,0.0013068130938336
1768730279894,0.0963134765625,-0.4658966064453125,-0.867279052734375,0.003466104157269,-0.0017214673571288,0.0123639917001128
1768730279904,0.0967559814453125,-0.4653167724609375,-0.8701934814453125,-0.0024855281226336,-0.0133006256073713,0.0201209802180528
1768730279914,0.089630126953125,-0.46551513671875,-0.8697662353515625,-0.0103242760524153,-0.0159057285636663,0.0186256151646375
1768730279924,0.07904052734375,-0.46319580078125,-0.8699951171875,-0.0134407076984643,-0.0102712800726294,0.0172050856053829
1768730279934,0.0706634521484375,-0.4619140625,-0.87286376953125,-0.0162277054041624,-0.0034719631075859,0.0110803479328751
1768730279945,0.067962646484375,-0.464019775390625,-0.8758544921875,-0.0190216284245252,-8.069378236541525e-05,0.0061905179172754
1768730279954,0.0712432861328125,-0.4660186767578125,-0.8808746337890625,-0.0180996414273977,-0.0008823052630759,0.0061811967752873
1768730279965,0.078277587890625,-0.46722412109375,-0.8822479248046875,-0.0160359572619199,-0.0051404335536062,0.0113067170605063
1768730279975,0.079833984375,-0.466705322265625,-0.8832855224609375,-0.009865946136415,-0.0128769166767597,0.0126412268728017
1768730279985,0.0799713134765625,-0.4628753662109375,-0.89056396484375,0.0045388252474367,-0.0176271963864564,0.0123506756499409
1768730279995,0.0772247314453125,-0.4621124267578125,-0.8943634033203125,0.0128276478499174,-0.0133685357868671,0.0139022329822182
1768730280005,0.075103759765625,-0.4640045166015625,-0.89056396484375,0.0173209328204393,-0.0085032070055603,0.0126670589670538
1768730280015,0.0730743408203125,-0.4645233154296875,-0.885955810546875,0.0186767484992742,-0.00379393924959,0.0109493201598525
1768730280025,0.0718841552734375,-0.46453857421875,-0.8827972412109375,0.0176218710839748,-0.0037816886324435,0.0056118131615221
1768730280035,0.06964111328125,-0.4609527587890625,-0.8776092529296875,0.0087034767493605,-0.0044000749476253,-0.0020615530665963
1768730280045,0.0668182373046875,-0.461273193359375,-0.87139892578125,0.0016250609187409,-0.0062134210020303,-0.0121836960315704
1768730280055,0.067413330078125,-0.4593353271484375,-0.870025634765625,-0.0011193265672773,-0.0056195361539721,-0.0204666592180728
1768730280065,0.0724334716796875,-0.4572296142578125,-0.87451171875,-0.0034069819375872,-0.0027443873696029,-0.0202221814543008
1768730280075,0.078948974609375,-0.4573516845703125,-0.8795166015625,0.0001265001483261,-0.0056834518909454,-0.0197678450495004
1768730280085,0.0797882080078125,-0.457916259765625,-0.883392333984375,-0.0002074602525681,-0.0029752836562693,-0.0214336533099412
1768730280095,0.0789642333984375,-0.45758056640625,-0.8812713623046875,0.0005081311101093,-0.0002639192680362,-0.0161856282502412
1768730280105,0.0817413330078125,-0.4584808349609375,-0.8786163330078125,-0.0046959519386291,-0.0063068978488445,-0.0146511141210794
1768730280116,0.08123779296875,-0.461151123046875,-0.8736419677734375,-0.0104441186413168,-0.0143805369734764,-0.0130593432113528
1768730280125,0.084503173828125,-0.462554931640625,-0.870391845703125,-0.0153339486569166,-0.0179957784712314,-0.0051018176600337
1768730280135,0.088470458984375,-0.46630859375,-0.8704071044921875,-0.0188431963324546,-0.0180128216743469,-0.0020389161072671
1768730280145,0.085601806640625,-0.466156005859375,-0.870697021484375,-0.0228685643523931,-0.0158468727022409,-0.0019132149172946
1768730280155,0.0798797607421875,-0.46453857421875,-0.8762359619140625,-0.0178306624293327,-0.0027553064282983,-0.0046006105840206
1768730280165,0.0813140869140625,-0.4706268310546875,-0.8817291259765625,-0.0145741486921906,0.0104001769796013,-0.0045231129042804
1768730280176,0.0862579345703125,-0.4634246826171875,-0.885284423828125,-0.005519401282072,0.0116004636511206,0.0003632551815826
1768730280186,0.0897979736328125,-0.4615631103515625,-0.8929595947265625,0.0080504696816205,0.003534014802426,0.0127461552619934
1768730280196,0.092803955078125,-0.4571075439453125,-0.8992156982421875,0.0226464569568634,0.000638626050204,0.0223979838192462
1768730280206,0.083953857421875,-0.456512451171875,-0.89996337890625,0.0320945531129837,0.0010183927370235,0.0176141466945409
1768730280216,0.072723388671875,-0.4614410400390625,-0.8859405517578125,0.0288950316607952,0.0140995737165212,0.0110534504055976
1768730280226,0.0753173828125,-0.4654083251953125,-0.87445068359375,0.0242081340402364,0.0209407024085521,0.0128100709989666
1768730280236,0.086151123046875,-0.4642486572265625,-0.873687744140625,0.0192474648356437,0.0159193109720945,0.0239000059664249
1768730280247,0.08599853515625,-0.4591827392578125,-0.8748931884765625,0.0124161895364522,0.0111533189192414,0.0274667777121067
1768730280256,0.071502685546875,-0.455718994140625,-0.87255859375,0.0005233111442066,0.0054544201120734,0.017618941143155
1768730280266,0.059051513671875,-0.4537811279296875,-0.8696136474609375,-0.0062709455378353,0.0069497851654887,0.0035188347101211
1768730280276,0.0587615966796875,-0.45428466796875,-0.87286376953125,-0.0103719467297196,0.0023931164760142,-0.0056211338378489
1768730280286,0.06488037109375,-0.4553985595703125,-0.8748779296875,-0.0129205919802188,-0.0045377602800726,-0.0082904202863574
1768730280296,0.0735321044921875,-0.4621429443359375,-0.875579833984375,-0.0174026917666196,-0.0114776911213994,-0.0079159801825881
1768730280306,0.0756683349609375,-0.467803955078125,-0.8740081787109375,-0.0198301635682582,-0.0133387083187699,-0.0073830815963447
1768730280316,0.0793914794921875,-0.4684295654296875,-0.8780975341796875,-0.020236562937498,-0.0099849896505475,-0.0047779772430658
1768730280326,0.0811309814453125,-0.46820068359375,-0.8814239501953125,-0.0171395726501941,-0.0092371739447116,-0.0064381919801235
1768730280336,0.0785675048828125,-0.465118408203125,-0.8870086669921875,-0.0100856572389602,-0.0060938452370464,-0.0060903830453753
1768730280346,0.08050537109375,-0.4615478515625,-0.8950042724609375,0.0028858012519776,-0.0047731837257742,-0.003482615808025
1768730280357,0.080810546875,-0.4602203369140625,-0.8954010009765625,0.0078264977782964,-0.0025957829784601,-0.001620799768716
1768730280367,0.076141357421875,-0.4618682861328125,-0.8899383544921875,0.0111274858936667,0.0016652746126055,-0.0007664577569812
1768730280376,0.0785064697265625,-0.45843505859375,-0.884765625,0.0170082785189151,0.0044938181526958,-0.0001390170073136
1768730280387,0.0791015625,-0.4574127197265625,-0.8834686279296875,0.0213819872587919,0.0019779296126216,0.0036677054595202
1768730280397,0.080108642578125,-0.4606170654296875,-0.8799591064453125,0.0253852512687444,0.0053857108578085,0.0022085595410317
1768730280407,0.0781707763671875,-0.4639434814453125,-0.87103271484375,0.0144066363573074,0.0121879568323493,0.0022540995851159
1768730280417,0.0790252685546875,-0.466827392578125,-0.8642730712890625,0.0063910540193319,0.0146455215290188,0.0087466202676296
1768730280427,0.08221435546875,-0.46832275390625,-0.86199951171875,-0.0008929579053074,0.0112923355773091,0.0160751063376665
1768730280437,0.082244873046875,-0.4684906005859375,-0.8671722412109375,-0.0088097369298338,0.0064278054051101,0.0182493105530738
1768730280447,0.080596923828125,-0.470489501953125,-0.8673553466796875,-0.0176623500883579,-0.0018863170407712,0.0155701711773872
1768730280457,0.081939697265625,-0.467681884765625,-0.8681182861328125,-0.0200669188052415,-0.0054142065346241,0.0208661332726478
1768730280467,0.08544921875,-0.46533203125,-0.8776702880859375,-0.0143834669142961,-0.0123120602220296,0.0294931773096323
1768730280477,0.08123779296875,-0.462738037109375,-0.8889923095703125,-0.0026346652302891,-0.0145832039415836,0.0278643872588872
1768730280487,0.074554443359375,-0.4600982666015625,-0.89691162109375,0.0165992174297571,0.0166761819273233,0.0249956306070089
1768730280497,0.0761871337890625,-0.458404541015625,-0.9020843505859376,0.0157416779547929,-0.0146825397387146,0.0130015527829527
1768730280507,0.0622406005859375,-0.4665679931640625,-0.8824462890625,0.0180636886507272,0.0073724286630749,0.0027475832030177
1768730280517,0.066986083984375,-0.4635162353515625,-0.8900146484375,0.0239761732518672,0.0059090219438076,-0.0014402375090867
1768730280527,0.073944091796875,-0.4608612060546875,-0.8873291015625,0.0320519432425498,0.0020192086230963,-0.0003901530872099
1768730280537,0.0791473388671875,-0.4590301513671875,-0.8877105712890625,0.0322444885969162,0.0018785938154906,0.0024240091443061
1768730280548,0.0736236572265625,-0.4631195068359375,-0.877105712890625,0.0273637138307094,0.0021241372451186,-0.0047960868105292
1768730280557,0.0681610107421875,-0.4660491943359375,-0.8674163818359375,0.018599784001708,0.0080648502334952,-0.0114241624251008
1768730280567,0.0693817138671875,-0.4695281982421875,-0.8644866943359375,0.0071923988871276,0.0072011873126029,-0.0134617462754249
1768730280577,0.0759124755859375,-0.47174072265625,-0.864044189453125,-0.0016144082183018,-0.0024557008873671,-0.0133853135630488
1768730280587,0.081756591796875,-0.4742584228515625,-0.866973876953125,-0.005803560372442,-0.009304285980761,-0.010433199815452
1768730280598,0.08306884765625,-0.476318359375,-0.8713531494140625,-0.0087772458791732,-0.0082430159673094,-0.0015361113473773
1768730280608,0.0850372314453125,-0.47674560546875,-0.8743438720703125,-0.0063782706856727,6.631271389778703e-05,0.0072232917882502
1768730280618,0.0840911865234375,-0.4748382568359375,-0.87860107421875,-0.0010024138027802,-0.0010993528412654,0.0130705283954739
1768730280628,0.0803375244140625,-0.4711151123046875,-0.8831787109375,0.0082757733762264,-0.0029840720817446,0.0120883546769618
1768730280638,0.07464599609375,-0.46826171875,-0.882781982421875,0.0143286054953932,-0.0020287961233407,0.0101940482854843
1768730280648,0.0702056884765625,-0.467681884765625,-0.8799285888671875,0.0155097171664237,0.0010644654976204,0.0073348782025277
1768730280658,0.070098876953125,-0.465850830078125,-0.8795623779296875,0.0157669782638549,-0.001995506696403,0.0080137178301811
1768730280668,0.0713958740234375,-0.466094970703125,-0.8793182373046875,0.0125062046572566,-0.0061881211586296,0.0016088156262412
1768730280678,0.07098388671875,-0.4672088623046875,-0.879547119140625,0.0081460773944854,0.0012543488992378,-0.0035840822383761
1768730280688,0.0684051513671875,-0.4666900634765625,-0.876800537109375,0.0091317128390073,0.0106784766539931,-0.0079066585749387
1768730280698,0.0699920654296875,-0.4688568115234375,-0.8775787353515625,0.0103596961125731,0.0160585958510637,-0.0115791577845811
1768730280708,0.072296142578125,-0.466552734375,-0.87823486328125,0.0094547541812062,0.0178437121212482,-0.018319085240364
1768730280718,0.07281494140625,-0.467926025390625,-0.8741302490234375,0.0062994412146508,0.0187108367681503,-0.02377350628376
1768730280728,0.07403564453125,-0.46881103515625,-0.8700103759765625,0.0073519223369657,0.0205657295882701,-0.0219558980315923
1768730280738,0.0811767578125,-0.4662628173828125,-0.8727874755859375,0.0042179143056273,0.0165550075471401,-0.0169142689555883
1768730280749,0.0832672119140625,-0.466156005859375,-0.8723297119140625,0.0010277138790115,0.0083037363365292,-0.0099200084805488
1768730280758,0.083099365234375,-0.4649200439453125,-0.8736724853515625,-0.0014423680258914,-0.0036035231314599,-0.0028293423820286
1768730280768,0.0815277099609375,-0.464324951171875,-0.8757476806640625,-0.0038940741214901,-0.0048956889659166,-0.0004484763194341
1768730280779,0.075897216796875,-0.4684600830078125,-0.87127685546875,-0.0121935494244098,0.0027353328187018,-0.0032921996898949
1768730280788,0.0739898681640625,-0.4712066650390625,-0.868072509765625,-0.0155078535899519,0.007226487621665,-0.0009456885163672
1768730280798,0.077362060546875,-0.4741363525390625,-0.870391845703125,-0.0166564751416444,0.0066962521523237,0.0011800467036664
1768730280809,0.078826904296875,-0.474273681640625,-0.87115478515625,-0.0207841079682111,-0.0005954828229732,0.0022224078420549
1768730280819,0.0809478759765625,-0.4704742431640625,-0.873992919921875,-0.0153717659413814,-0.0101764714345335,0.0020109529141336
1768730280829,0.0771636962890625,-0.4759674072265625,-0.8792877197265625,-0.007474161684513,-0.0008902947301976,-7.936220208648592e-05
1768730280839,0.0772247314453125,-0.474945068359375,-0.8824005126953125,-0.0018698053900152,0.006083458662033,-0.0072943982668221
1768730280849,0.07513427734375,-0.470794677734375,-0.8855743408203125,0.0055574844591319,0.010645986534655,-0.006392918061465
1768730280859,0.07745361328125,-0.4697723388671875,-0.8872222900390625,0.013644172810018,0.0059257997199893,0.0033095101825892
1768730280869,0.0767364501953125,-0.466033935546875,-0.88592529296875,0.0186810102313756,0.0100161489099264,0.0068081049248576
1768730280879,0.072906494140625,-0.467864990234375,-0.883270263671875,0.016759006306529,0.0067774783819913,0.0023867250420153
1768730280889,0.0724334716796875,-0.46844482421875,-0.870574951171875,0.0079013323411345,0.0101889874786138,-0.0011960256379097
1768730280899,0.0749969482421875,-0.466888427734375,-0.8653717041015625,-0.0024173513520509,0.0136625487357378,-0.006008624099195
1768730280909,0.0750274658203125,-0.464691162109375,-0.8652801513671875,-0.0113354790955781,0.0192669052630662,-0.0050323093309998
1768730280919,0.074005126953125,-0.4600982666015625,-0.867889404296875,-0.0107064405456185,0.0195044595748186,-0.0090299798175692
1768730280929,0.070281982421875,-0.4556884765625,-0.87225341796875,-0.0168623365461826,0.0116630475968122,-0.0113671701401472
1768730280939,0.069915771484375,-0.4577789306640625,-0.87005615234375,-0.0266928635537624,0.0076528596691787,-0.0109274825081229
1768730280949,0.07464599609375,-0.46282958984375,-0.869964599609375,-0.0333750024437904,-0.0063649551011621,-0.0119658494368195
1768730280959,0.0765380859375,-0.4654693603515625,-0.8736114501953125,-0.0345702283084392,-0.0139981070533394,-0.0136966370046138
1768730280969,0.0793609619140625,-0.4680938720703125,-0.88006591796875,-0.0277956780046224,-0.0102835297584533,-0.0111533189192414
1768730280979,0.08148193359375,-0.473541259765625,-0.883331298828125,-0.0201904885470867,0.0022626216523349,-0.0080424798652529
1768730280989,0.083770751953125,-0.4750518798828125,-0.88531494140625,-0.0117490673437714,0.014593057334423,-0.0025590313598513
1768730281000,0.0850982666015625,-0.4776153564453125,-0.886962890625,-0.004504204262048,0.0222323350608348,0.0017779263434931
1768730281010,0.083221435546875,-0.474761962890625,-0.888031005859375,0.0045108622871339,0.0237167812883853,0.0002322276413906
1768730281020,0.080474853515625,-0.4702911376953125,-0.88720703125,0.0108169615268707,0.0211372431367635,-0.0022881880868226
1768730281030,0.0769805908203125,-0.464874267578125,-0.8838348388671875,0.0142724132165312,0.0207271166145801,-0.0049795787781476
1768730281040,0.0736541748046875,-0.4611358642578125,-0.882537841796875,0.0158066600561141,0.0085234474390745,-0.0065463162027299
1768730281050,0.0771636962890625,-0.4600982666015625,-0.8771514892578125,0.0161850955337286,0.0010157296201214,-0.0095008267089724
1768730281060,0.08184814453125,-0.4610595703125,-0.87554931640625,0.0165632646530866,-0.001269262516871,-0.0038197718095034
1768730281070,0.0830841064453125,-0.46502685546875,-0.8721466064453125,0.0118545284494757,-0.0011470235185697,0.0049620019271969
1768730281080,0.08404541015625,-0.4665069580078125,-0.8690032958984375,0.0093871103599667,-0.0011377023765817,0.0100097572430968
1768730281090,0.08465576171875,-0.466033935546875,-0.86883544921875,0.0044301683083176,0.0030138993170112,0.0150053147226572
1768730281100,0.083160400390625,-0.47064208984375,-0.864837646484375,-0.0041188448667526,0.0122358938679099,0.0170974936336278
1768730281110,0.0786285400390625,-0.47406005859375,-0.861083984375,-0.0186136309057474,0.0138838579878211,0.0149880042299628
1768730281120,0.080841064453125,-0.4753875732421875,-0.8566131591796875,-0.0319161228835582,0.0115927401930093,0.0187491867691278
1768730281130,0.0858612060546875,-0.47528076171875,-0.8622894287109375,-0.0354421474039554,0.0035206989850848,0.0246435608714818
1768730281140,0.0889129638671875,-0.4712371826171875,-0.871337890625,-0.0306167658418416,-0.0021936458069831,0.0294843893498182
1768730281150,0.0839996337890625,-0.46539306640625,-0.88494873046875,-0.0217966418713331,-0.0060118199326097,0.0277908854186534
1768730281160,0.0759429931640625,-0.4627838134765625,-0.892608642578125,-0.0128886345773935,-0.0023481091484427,0.0181779377162456
1768730281170,0.0686798095703125,-0.46026611328125,-0.8946380615234375,-0.0009182579233311,0.0056365802884101,0.0118678444996476
1768730281180,0.0716705322265625,-0.460601806640625,-0.89581298828125,0.0078941415995359,0.0154463341459631,0.0095564872026443
1768730281190,0.0787811279296875,-0.4622039794921875,-0.894500732421875,0.0167193245142698,0.0165683235973119,0.0148708252236247
1768730281201,0.0840301513671875,-0.466094970703125,-0.88671875,0.0180154852569103,0.0142761413007974,0.0153235625475645
1768730281211,0.084197998046875,-0.4686431884765625,-0.878753662109375,0.0172988288104534,0.0185537096112966,0.014389325864613
1768730281221,0.0818023681640625,-0.470611572265625,-0.8681488037109375,0.0088214548304677,0.0247138682752847,0.0142646897584199
1768730281231,0.0811004638671875,-0.474853515625,-0.8612823486328125,-0.0050426954403519,0.0270641073584556,0.0147661631926894
1768730281241,0.0831146240234375,-0.4772491455078125,-0.854248046875,-0.0234818905591964,0.0156945399940013,0.0170442312955856
