timestamp_ms,acc_x,acc_y,acc_z,gyro_x,gyro_y,gyro_z
1768728727859,-0.0825042724609375,-0.9938812255859376,0.0009765625,-0.0656573101878166,-0.0054536210373044,-0.0354333594441413
1768728727867,-0.0812225341796875,-0.9940032958984376,0.0020904541015625,-0.069784939289093,-0.0095074847340583,-0.0376653522253036
1768728727877,-0.080352783203125,-0.9970550537109376,-0.0051727294921875,-0.0710102617740631,-0.0046472162939608,-0.0399700514972209
1768728727887,-0.075103759765625,-0.9939727783203124,-0.012359619140625,-0.0696568414568901,-0.002861033892259,-0.0397506095468997
1768728727898,-0.0674896240234375,-0.99481201171875,-0.016387939453125,-0.0668882206082344,-0.0036919401027262,-0.0320562049746513
1768728727908,-0.061920166015625,-0.9939727783203124,-0.0197601318359375,-0.0668882206082344,-0.0036919401027262,-0.0320562049746513
1768728727917,-0.062713623046875,-0.9891204833984376,-0.023681640625,-0.0612391233444213,-0.0053974287584424,-0.0200232435017824
1768728727927,-0.06317138671875,-0.994873046875,-0.03369140625,-0.0244454219937324,-0.0018157431622967,-0.010742925107479
1768728727937,-0.058441162109375,-0.99481201171875,-0.0348663330078125,-0.0091295829042792,0.0030123014003038,-0.0057929079048335
1768728727948,-0.060943603515625,-0.994110107421875,-0.0353240966796875,0.006196909584105,0.0096494313329458,-0.0043524042703211
1768728727958,-0.061981201171875,-0.994659423828125,-0.0365142822265625,0.0190149694681167,0.0070168967358767,-0.0037172401789575
1768728727968,-0.0622100830078125,-0.9948883056640624,-0.0294036865234375,0.0224302075803279,0.0080539314076304,0.000924116873648
1768728727978,-0.062835693359375,-0.9952850341796876,-0.0224151611328125,0.0258150864392519,0.0052847769111394,0.0083026709035038
1768728727988,-0.06744384765625,-0.994598388671875,-0.0172271728515625,0.0308708306401968,0.0038141792174428,0.0092017538845539
1768728727998,-0.0733795166015625,-0.994293212890625,-0.015655517578125,0.0289823822677135,0.0138196749612689,0.0107083041220903
1768728728008,-0.0750885009765625,-0.9897918701171876,-0.013031005859375,0.0282068699598312,0.016383234411478,0.0113541204482316
1768728728018,-0.0741424560546875,-0.9930267333984376,-0.009918212890625,0.0223929230123758,0.0215926431119442,0.013014068827033
1768728728028,-0.0731964111328125,-0.995758056640625,-0.0037841796875,0.0213580187410116,0.012622850947082,0.0155925415456295
1768728728038,-0.0762939453125,-0.9926605224609376,0.000274658203125,0.0232991967350244,-0.0002231729013146,0.0127480197697877
1768728728049,-0.077301025390625,-0.99609375,-0.0022125244140625,0.0210549514740705,0.0033265545498579,0.0092582134529948
1768728728058,-0.0717620849609375,-1.000885009765625,0.00067138671875,0.0154316872358322,0.0060046291910111,0.0127525469288229
1768728728068,-0.068389892578125,-1.0034637451171875,0.00360107421875,0.0147421946749091,0.0024194817524403,0.0119834262877702
1768728728081,-0.0702667236328125,-1.002777099609375,0.00323486328125,0.0086571378633379,-0.0018058895366266,0.0112310824915766
1768728728088,-0.07220458984375,-0.9951171875,0.0040435791015625,0.004335360135883,-0.0122382901608943,0.0096803242340683
1768728728098,-0.085113525390625,-0.98016357421875,0.0001983642578125,0.0055652079172432,-0.0077127809636294,-0.0097000319510698
1768728728108,-0.105682373046875,-0.9783172607421876,-0.0111541748046875,0.0033763556275516,0.0027369307354092,-0.0351217687129974
1768728728119,-0.1002197265625,-0.9889678955078124,-0.0065155029296875,-0.0079857548698782,0.003679423360154,-0.0427450649440288
1768728728129,-0.07781982421875,-1.0006103515625,0.003173828125,-0.0240494105964899,0.0036296222824603,-0.0400198549032211
1768728728139,-0.064208984375,-1.006439208984375,0.004486083984375,-0.0291672069579362,0.0092086782678961,-0.0279237758368253
1768728728149,-0.0505828857421875,-1.0178680419921875,0.001434326171875,-0.0363438911736011,0.0055569517426192,-0.0145935900509357
1768728728159,-0.0433807373046875,-1.0140838623046875,0.004180908203125,-0.0407857783138752,0.0025278725661337,0.0008479504613205
1768728728169,-0.050079345703125,-1.008148193359375,-0.0003204345703125,-0.0440273806452751,0.0004127899592276,0.006867759861052
1768728728179,-0.065521240234375,-0.9928741455078124,-0.0074462890625,-0.0383729562163353,0.0025262746494263,0.0034511904232203
1768728728189,-0.080230712890625,-0.9827117919921876,-0.0184326171875,-0.0251231957226991,0.0044844970107078,-0.0078081218525767
1768728728199,-0.0874176025390625,-0.9803314208984376,-0.0255126953125,-0.0109695605933666,0.0042394860647618,-0.015623434446752
1768728728209,-0.0838165283203125,-0.9832305908203124,-0.0256195068359375,-0.0074685690924525,0.0139360558241605,-0.0174724664539098
1768728728219,-0.0729827880859375,-0.9919891357421876,-0.0228118896484375,-0.0056693372316658,0.013137106783688,-0.0168689955025911
1768728728229,-0.0665283203125,-0.9984130859375,-0.0197296142578125,-0.0051412326283752,0.0050312438979744,-0.0154460677877068
1768728728239,-0.0668792724609375,-0.998626708984375,-0.0187225341796875,-0.0084355622529983,0.005691441707313,-0.0157483369112014
1768728728249,-0.067596435546875,-0.9973297119140624,-0.0177001953125,-0.0084009412676095,0.0035601137205958,-0.0167347714304924
1768728728259,-0.0664215087890625,-1.00048828125,-0.018402099609375,-0.0043279030360281,-0.0058123492635786,-0.0153975980356335
1768728728269,-0.0617523193359375,-1.001220703125,-0.0177154541015625,-0.0039888825267553,0.0009209210984408,-0.0087823066860437
1768728728279,-0.0592803955078125,-0.9950103759765624,-0.019439697265625,0.0065111625008285,0.0048099351115524,-9.58738019107841e-06
1768728728289,-0.0587921142578125,-0.99359130859375,-0.0241546630859375,0.0210762564092874,0.005967877805233,0.0098265316337347
1768728728299,-0.0620269775390625,-0.9905853271484376,-0.0258026123046875,0.0382898636162281,0.0085572693496942,0.0194871481508016
1768728728310,-0.0677337646484375,-0.987335205078125,-0.0274200439453125,0.0536075681447982,0.0188162978738546,0.0211614780128002
1768728728319,-0.0726318359375,-0.9873046875,-0.0242156982421875,0.0670653209090232,0.0225620344281196,0.0216451082378625
1768728728330,-0.0756072998046875,-0.9897308349609376,-0.0169219970703125,0.0725138783454895,0.0242579355835914,0.0182328000664711
1768728728340,-0.07763671875,-0.9929046630859376,-0.0077362060546875,0.0683004930615425,0.0259586293250322,0.0161946825683116
1768728728350,-0.0761566162109375,-0.9976348876953124,0.004425048828125,0.0559615343809127,0.0279773063957691,0.0120220417156815
1768728728360,-0.0743255615234375,-1.00018310546875,0.0132904052734375,0.0376115590333938,0.0217532329261302,0.0098531637340784
1768728728370,-0.0736846923828125,-1.000701904296875,0.0196380615234375,0.0165076032280921,0.0180658195167779,0.0107591710984706
1768728728380,-0.0727996826171875,-1.0003204345703125,0.0216064453125,-0.0015856460668146,0.0056136772036552,0.0047936900518834
1768728728390,-0.0768890380859375,-0.99932861328125,0.0212249755859375,-0.0218285992741584,0.001782453735359,-0.0045899581164121
1768728728400,-0.078643798828125,-1.0001373291015625,0.018280029296875,-0.0387910716235637,-0.009418268688023,-0.0154316872358322
1768728728410,-0.080352783203125,-0.999969482421875,0.0175323486328125,-0.0547817572951316,-0.0093964310362935,-0.0223399270325899
1768728728420,-0.0790863037109375,-0.9974517822265624,0.013092041015625,-0.0679039508104324,-0.0059827915392816,-0.02639751881361
1768728728430,-0.0751953125,-0.9996185302734376,0.0078125,-0.0748207122087478,-0.0054680025205016,-0.0273951385170221
1768728728440,-0.0712738037109375,-1.00128173828125,0.0016326904296875,-0.0815172269940376,-0.0026162895374,-0.027191674336791
1768728728450,-0.0667266845703125,-0.9996337890625,-0.00347900390625,-0.0827979445457458,-0.0116926087066531,-0.0210509561002254
1768728728460,-0.0675506591796875,-0.9959259033203124,-0.008941650390625,-0.0802977681159973,-0.0176447741687297,-0.0209372397512197
1768728728470,-0.0703125,-0.9936676025390624,-0.017242431640625,-0.0726851224899292,-0.0165195874869823,-0.0203817039728164
1768728728480,-0.0684051513671875,-0.98681640625,-0.0277862548828125,-0.0597363002598285,-0.0095096156001091,-0.0194248296320438
1768728728490,-0.0695953369140625,-0.9881744384765624,-0.0351104736328125,-0.044525921344757,0.0031758195254951,-0.0187478549778461
1768728728500,-0.0660247802734375,-0.9894256591796876,-0.0372314453125,-0.0309350118041038,0.005707686766982,-0.0099216066300868
1768728728510,-0.0559844970703125,-0.9895172119140624,-0.033660888671875,-0.0117157781496644,0.0044794371351599,0.0088257156312465
1768728728520,-0.0556488037109375,-0.9887847900390624,-0.0316162109375,0.009411877952516,0.0044773062691092,0.0185806080698966
1768728728531,-0.0605316162109375,-0.9963836669921876,-0.0334014892578125,0.0200549345463514,0.0142391230911016,0.0209036841988563
1768728728540,-0.062896728515625,-0.99395751953125,-0.0287017822265625,0.0312053225934505,0.0154753625392913,0.0224959887564182
1768728728551,-0.06689453125,-0.9948272705078124,-0.024932861328125,0.0351590514183044,0.0177329238504171,0.0155712366104125
1768728728560,-0.06817626953125,-0.9951324462890624,-0.01873779296875,0.0315715074539184,0.0177499689161777,0.0104265417903661
1768728728571,-0.068115234375,-0.9941864013671876,-0.01348876953125,0.0264326725155115,0.0174162741750478,0.0101122893393039
1768728728584,-0.0684051513671875,-0.99542236328125,-0.008544921875,0.0224722865968942,0.0066437879577279,0.0134473657235503
1768728728591,-0.072845458984375,-0.9916534423828124,-0.0028228759765625,0.0180658195167779,0.0078331558033823,0.0120691796764731
1768728728601,-0.07537841796875,-0.993865966796875,-0.0069427490234375,0.019732691347599,0.0080278329551219,0.0074557857587933
1768728728611,-0.0729217529296875,-0.999298095703125,-0.00640869140625,0.0179861914366483,0.000147805432789,0.0129959592595696
1768728728621,-0.068389892578125,-0.9999542236328124,-0.0041961669921875,0.0161054674535989,0.0059124836698174,0.0138926459476351
1768728728631,-0.0710601806640625,-0.9996490478515624,-0.0051422119140625,0.0142457811161875,0.007105313707143,0.0121133876964449
1768728728641,-0.073822021484375,-0.996856689453125,-0.0055084228515625,0.011691010557115,0.0013680658303201,0.0094321174547076
1768728728651,-0.074493408203125,-0.9957733154296876,-0.0059967041015625,0.0103317331522703,0.0023315974976867,0.0096315881237387
1768728728661,-0.0753936767578125,-0.9913330078125,-0.00799560546875,0.0140500385314226,0.0021526331547647,0.0065939868800342
1768728728671,-0.07757568359375,-0.991180419921875,-0.0089569091796875,0.0127578731626272,0.0028272117488086,0.0003680488734971
1768728728681,-0.074554443359375,-0.9910736083984376,-0.006591796875,0.0072608422487974,0.0068467208184301,0.0006455502589233
1768728728691,-0.0721893310546875,-0.9923858642578124,-0.003936767578125,0.0075343488715589,0.0007134608458727,-0.0019337212434038
1768728728701,-0.0741119384765625,-0.99322509765625,-0.0042724609375,0.0041681132279336,-0.0012231898726895,-0.0060421796515583
1768728728711,-0.0724334716796875,-0.99530029296875,-0.00140380859375,-0.0026152241043746,-0.0025212145410478,-0.0074294204823672
1768728728721,-0.070709228515625,-0.9976348876953124,0.0020904541015625,-0.0111714284867048,-0.0005510080372914,-0.0085756452754139
1768728728732,-0.07122802734375,-0.999847412109375,0.0017242431640625,-0.0160756390541791,0.0001621865085326,-0.0078459391370415
1768728728741,-0.0731048583984375,-0.9996337890625,0.0006103515625,-0.0196815598756074,-0.0021403825376182,-0.0108348047360777
1768728728751,-0.0762481689453125,-0.9974517822265624,0.0013885498046875,-0.0216834582388401,-0.0100161489099264,-0.0126348352059721
1768728728762,-0.0742034912109375,-0.9969635009765624,0.001678466796875,-0.0308556500822305,0.0007723167072981,-0.0124510768800973
1768728728772,-0.071502685546875,-0.9993438720703124,-0.0008087158203125,-0.038440067321062,0.0064219464547932,-0.0075396751053631
1768728728782,-0.0738067626953125,-0.994049072265625,-0.0049896240234375,-0.0386267527937889,0.0057135457172989,-0.0122207133099436
1768728728792,-0.0746612548828125,-0.9924468994140624,-0.0124053955078125,-0.0321344994008541,-0.0028503811918199,-0.0150652360171079
1768728728802,-0.0741119384765625,-0.993988037109375,-0.0150146484375,-0.0309081152081489,-0.0022170816082507,-0.0182351972907781
1768728728812,-0.0688323974609375,-0.9945526123046876,-0.015625,-0.0332716703414917,0.0013387710787355,-0.0139333922415971
1768728728822,-0.0669403076171875,-0.9965972900390624,-0.0117950439453125,-0.0373508334159851,-0.0029494508635252,-0.011102451942861
1768728728832,-0.0692901611328125,-0.994476318359375,-0.01153564453125,-0.0341917909681797,-0.0039116512052714,-0.0125450864434242
1768728728842,-0.0681915283203125,-0.9909820556640624,-0.0183868408203125,-0.0268630385398864,-0.0034181671217083,-0.013252155855298
1768728728852,-0.0658721923828125,-0.9902801513671876,-0.0219879150390625,-0.0155789600685238,-0.0037566549144685,-0.0100933806970715
1768728728862,-0.0627899169921875,-0.9932708740234376,-0.024444580078125,-0.0055633434094488,-0.0047782436013221,-0.0066595007665455
1768728728872,-0.0629119873046875,-0.99395751953125,-0.02288818359375,0.0055841160938143,-0.0051044807769358,-0.0020660804584622
1768728728883,-0.06549072265625,-0.993743896484375,-0.0231475830078125,0.0102688828483223,-0.0022232069168239,0.0004226436722092
1768728728892,-0.064422607421875,-0.994110107421875,-0.0184478759765625,0.0121900867670774,0.0070057115517556,0.005845904815942
1768728728902,-0.06500244140625,-0.9976959228515624,-0.0133819580078125,0.014324877411127,0.0120276343077421,0.0073351445607841
1768728728912,-0.0682220458984375,-0.9990386962890624,-0.0099639892578125,0.0160516705363988,0.0128012830391526,0.0065425876528024
1768728728922,-0.0713653564453125,-0.996307373046875,-0.011871337890625,0.0128790466114878,0.0128201907500624,0.0049164616502821
1768728728932,-0.0709991455078125,-0.994110107421875,-0.0097198486328125,0.0124870296567678,0.0121927503496408,0.0043010050430893
1768728728942,-0.0696258544921875,-0.9953765869140624,-0.0091552734375,0.0140678817406296,0.0106039084494113,0.0068794777616858
1768728728952,-0.0698394775390625,-0.9932098388671876,-0.010650634765625,0.0176133476197719,0.0100318612530827,0.0026897927746176
1768728728962,-0.071136474609375,-0.9943389892578124,-0.011688232421875,0.0160162504762411,0.0107091031968593,-0.0004956142511218
1768728728973,-0.0711212158203125,-0.9924163818359376,-0.0067901611328125,0.0118838232010602,0.0077719027176499,0.0047300402075052
1768728728983,-0.074554443359375,-0.9917144775390624,-0.0044708251953125,0.0162522066384553,-0.0042626555077731,0.0023156185634434
1768728728993,-0.0812835693359375,-0.9922027587890624,-0.0068206787109375,0.0132332472130656,0.0033547841012477,-0.0058621503412723
1768728729003,-0.078948974609375,-0.995452880859375,-0.0073089599609375,0.0099114868789911,0.0060805291868746,-0.0134590836241841
1768728729013,-0.0745849609375,-0.999755859375,-0.003570556640625,0.0031132353469729,0.0035926043055951,-0.0136106172576546
1768728729023,-0.06622314453125,-1.00103759765625,4.57763671875e-05,-0.0069079734385013,0.0046168561093509,-0.016352342441678
1768728729033,-0.061676025390625,-1.0010833740234375,0.00439453125,-0.0248238574713468,0.0022037657909095,-0.0142646897584199
1768728729043,-0.0567626953125,-1.001617431640625,0.0085296630859375,-0.0370653420686721,-0.0163917560130357,-0.0021249363198876
1768728729053,-0.0632171630859375,-0.990447998046875,0.0050506591796875,-0.0346983261406421,-0.025509089231491,0.0034812842495739
1768728729063,-0.0853271484375,-0.97296142578125,-0.0140838623046875,-0.0231527239084243,-0.0002474076754879,-0.0153430039063096
1768728729073,-0.1003875732421875,-0.976409912109375,-0.0294189453125,-0.0089247850701212,0.0108119016513228,-0.027337348088622
1768728729083,-0.084869384765625,-0.99127197265625,-0.024566650390625,-0.0025254755746573,0.0070709590800106,-0.0220906548202037
1768728729093,-0.0651092529296875,-1.001190185546875,-0.0174560546875,0.0019395801937207,0.0093199983239173,-0.0087788440287113
1768728729103,-0.051300048828125,-1.0072021484375,-0.017852783203125,0.0115717016160488,0.0177776645869016,0.0045785065740346
1768728729113,-0.041168212890625,-1.018402099609375,-0.0158843994140625,0.0135086178779602,0.0109490538015961,0.0215151458978652
1768728729123,-0.03741455078125,-1.0128021240234375,-0.0095672607421875,0.0158990714699029,0.0076643112115561,0.0365902334451675
1768728729133,-0.0470123291015625,-1.0023345947265625,-0.0106048583984375,0.0211468301713466,0.0078808264806866,0.0393577925860881
1768728729143,-0.070068359375,-0.98736572265625,-0.015289306640625,0.0281413570046424,0.0135283255949616,0.0268364083021879
1768728729153,-0.086578369140625,-0.979888916015625,-0.0193939208984375,0.036460805684328,0.009574863128364,0.0107839377596974
1768728729163,-0.0918731689453125,-0.9818878173828124,-0.0163116455078125,0.0373143479228019,0.01365402713418,-0.0054429685696959
1768728729173,-0.082794189453125,-0.9871673583984376,-0.0102081298828125,0.0308734942227602,0.0140337934717535,-0.0058634816668927
1768728729184,-0.07037353515625,-0.996002197265625,-0.0004425048828125,0.0221356619149446,0.0085269091650843,0.0001888181141111
1768728729193,-0.067474365234375,-1.00048828125,0.0029449462890625,0.0092962961643934,0.0078613851219415,-0.0032796829473227
1768728729204,-0.0707244873046875,-1.00128173828125,0.002197265625,-0.0027529096696525,0.0098592890426516,-0.0100054964423179
1768728729217,-0.072998046875,-0.99871826171875,0.0017242431640625,-0.0119035309180617,0.006687996443361,-0.0137232691049575
1768728729224,-0.0719146728515625,-0.9990997314453124,-0.001373291015625,-0.0149872051551938,0.0021281319204717,-0.0199667830020189
1768728729234,-0.0711822509765625,-0.996337890625,-0.006988525390625,-0.017590444535017,0.0063156862743198,-0.0192346815019845
1768728729244,-0.0659027099609375,-0.99493408203125,-0.012115478515625,-0.0130340429022908,0.0090984236449003,-0.0114260260015726
1768728729254,-0.0594024658203125,-0.9927520751953124,-0.0178070068359375,0.001104412949644,0.0090419640764594,-0.0008293083519674
1768728729264,-0.0601959228515625,-0.9893646240234376,-0.0237579345703125,0.0242161229252815,0.0105178887024521,0.009949036873877
1768728729274,-0.06439208984375,-0.986602783203125,-0.02801513671875,0.0462449938058853,0.0151312826201319,0.0137411123141646
1768728729284,-0.0689697265625,-0.989227294921875,-0.0276641845703125,0.0625544562935829,0.0117607852444052,0.0157749690115451
1768728729294,-0.070556640625,-0.9910430908203124,-0.0197906494140625,0.0665465369820594,0.0173600818961858,0.0158577933907508
1768728729304,-0.0704345703125,-0.99493408203125,-0.008148193359375,0.0643896386027336,0.0155379464849829,0.0127376327291131
1768728729314,-0.072662353515625,-0.99871826171875,-0.0003204345703125,0.0577397271990776,0.0103711485862731,0.0070299464277923
1768728729324,-0.0716552734375,-1.0006256103515625,0.008056640625,0.0400334373116493,0.0104869958013296,0.0075460667721927
1768728729334,-0.071319580078125,-0.9986724853515624,0.0149078369140625,0.0231330152601003,0.0134622789919376,0.0073199644684791
1768728729344,-0.071441650390625,-1.00115966796875,0.0181732177734375,0.0068653631024062,0.0087018785998225,0.0028826056513935
1768728729354,-0.0743560791015625,-1.000640869140625,0.019805908203125,-0.0118721053004264,0.0076264943927526,-0.0037534593138843
1768728729364,-0.077392578125,-0.999114990234375,0.017181396484375,-0.0252800565212965,0.0066528427414596,-0.0090539483353495
1768728729374,-0.0764617919921875,-0.99755859375,0.014373779296875,-0.0354706421494483,0.0026477146893739,-0.0147240851074457
1768728729384,-0.0743865966796875,-0.9983062744140624,0.0099029541015625,-0.0408148057758808,-0.0038453382439911,-0.0159097239375114
1768728729394,-0.073486328125,-1.000640869140625,0.006072998046875,-0.0460665598511695,-0.0023808660916984,-0.0157352872192859
1768728729405,-0.070587158203125,-0.9987945556640624,0.0017852783203125,-0.0498511791229248,0.0007715177489444,-0.0139949116855859
1768728729417,-0.0678863525390625,-0.9978179931640624,-0.003265380859375,-0.047167245298624,-0.0090387687087059,-0.0114348148927092
1768728729425,-0.0700225830078125,-0.9949798583984376,-0.00665283203125,-0.0447112768888473,-0.0062725432217121,-0.0106313386932015
1768728729435,-0.0695953369140625,-0.988800048828125,-0.014892578125,-0.0392169095575809,-0.0033220271579921,-0.0048975530080497
1768728729445,-0.0682373046875,-0.9839324951171876,-0.0209503173828125,-0.0228983908891677,0.0085679218173027,-0.0012405004817992
1768728729455,-0.0692291259765625,-0.98895263671875,-0.028839111328125,-0.007619303651154,0.0157794952392578,0.0028746160678565
1768728729465,-0.0623321533203125,-0.99066162109375,-0.0252838134765625,0.0075505943968892,0.0088781798258423,0.011420433409512
1768728729475,-0.058929443359375,-0.99322509765625,-0.021331787109375,0.0242888275533914,-0.0013398362789303,0.0157587230205535
1768728729485,-0.062103271484375,-0.99639892578125,-0.01983642578125,0.0311608482152223,0.003917243797332,0.0163193177431821
1768728729495,-0.0646820068359375,-0.99566650390625,-0.0159912109375,0.032326515763998,0.0082536684349179,0.0151315489783883
1768728729505,-0.0689239501953125,-0.996337890625,-0.006591796875,0.0322673916816711,0.0095511609688401,0.0147781474515795
1768728729515,-0.069732666015625,-0.9967803955078124,-0.0047149658203125,0.0292127467691898,0.0081548653542995,0.0127203222364187
1768728729525,-0.071624755859375,-0.9969329833984376,0.0011138916015625,0.0179379880428314,0.0087285107001662,0.0076342173852026
1768728729535,-0.0743255615234375,-0.9980316162109376,0.0061798095703125,0.007979629561305,0.0049414951354265,0.003336408175528
1768728729545,-0.0732574462890625,-0.999237060546875,0.00830078125,-0.0058573563583195,0.002518817782402,-0.0010061422362923
1768728729555,-0.0754547119140625,-0.9978790283203124,0.0065155029296875,-0.0154737643897533,0.0004561994865071,-0.0052437642589211
1768728729566,-0.075592041015625,-0.9958648681640624,0.003387451171875,-0.0187161639332771,-0.0068949242122471,-0.0086709856986999
1768728729575,-0.073883056640625,-0.99627685546875,-0.003082275390625,-0.0192716978490352,-0.0012924320762977,-0.0070584421046078
1768728729585,-0.07080078125,-0.997528076171875,-0.00726318359375,-0.016200540587306,-0.000557133287657,-0.0021582257468253
1768728729595,-0.06634521484375,-0.99725341796875,-0.008453369140625,-0.0105261439457535,0.0001565938728163,0.0019518306944519
1768728729605,-0.0627899169921875,-0.99639892578125,-0.010833740234375,-0.0065372614189982,-0.0007843009079806,0.003948668949306
1768728729616,-0.065582275390625,-0.993408203125,-0.0105133056640625,-0.0018690064316615,0.0007028082036413,0.0079101212322711
1768728729625,-0.0677947998046875,-0.9904022216796876,-0.01019287109375,0.006097839679569,-0.0011787151452153,0.0100422473624348
1768728729636,-0.0738677978515625,-0.9884033203125,-0.008331298828125,0.0093426350504159,0.0053681335411965,0.0050192596390843
1768728729646,-0.075164794921875,-0.9894561767578124,-0.0070953369140625,0.01071123406291,0.0024405207950621,0.0066267438232898
1768728729656,-0.0755157470703125,-0.990936279296875,-0.0053558349609375,0.0152718974277377,-0.0024027039762586,0.0008889631717465
1768728729666,-0.0744781494140625,-0.9928741455078124,-0.0076141357421875,0.0156572572886943,0.0029489181470125,-0.0024197481106966
1768728729676,-0.07159423828125,-0.9937591552734376,-0.003265380859375,0.0145821385085582,0.0034202977549284,0.0005430185701698
1768728729686,-0.071533203125,-0.9946746826171876,0.00018310546875,0.0123003423213958,0.0007366303470917,-0.000222906586714
1768728729696,-0.0717315673828125,-1.00048828125,0.00286865234375,0.0072576464153826,0.000810399884358,-0.0021395836956799
1768728729706,-0.07073974609375,-0.99957275390625,0.002655029296875,-0.0006146575906313,0.0062022358179092,0.0014658038271591
1768728729716,-0.068939208984375,-0.9977264404296876,0.0034332275390625,-0.0053899716585874,0.0038650457281619,0.0036980654112994
1768728729726,-0.0688323974609375,-1.001251220703125,0.003387451171875,-0.0129296472296118,0.0067726848646998,0.0033188313245773
1768728729736,-0.0692901611328125,-0.9988250732421876,0.0020904541015625,-0.0165757816284894,-0.0002439455565763,0.0006359628750942
1768728729746,-0.073974609375,-0.9961090087890624,4.57763671875e-05,-0.0160631220787763,-0.006973753683269,-0.0048136636614799
1768728729756,-0.0755767822265625,-0.9935455322265624,-0.0016326904296875,-0.0212261918932199,-0.0006884271278977,-0.0067013120278716
1768728729766,-0.074798583984375,-0.992706298828125,-0.0040130615234375,-0.0193302892148494,-0.0003179814375471,-0.0099426452070474
1768728729776,-0.0732574462890625,-0.992034912109375,-0.008880615234375,-0.0155651113018393,-0.0047601340338587,-0.0086014773696661
1768728729786,-0.0704345703125,-0.99072265625,-0.011566162109375,-0.0077988007105886,-0.0107008479535579,-0.007105313707143
1768728729796,-0.0682373046875,-0.9902496337890624,-0.0161895751953125,0.0014801849611103,-0.006017945241183,-0.0034229608718305
1768728729806,-0.0647430419921875,-0.99139404296875,-0.01885986328125,0.011068363673985,0.001923334901221,0.0025827335193753
1768728729817,-0.0633087158203125,-0.9920654296875,-0.0182647705078125,0.0239261053502559,0.0069425944238901,0.00808722153306
1768728729826,-0.0623626708984375,-0.9939727783203124,-0.01824951171875,0.0370980985462665,-0.0025936525780707,0.011404987424612
1768728729837,-0.064849853515625,-0.99609375,-0.0148773193359375,0.0410318560898304,0.0003680488734971,0.0125797074288129
1768728729847,-0.0659027099609375,-0.9967498779296876,-0.01019287109375,0.0441237837076187,0.000908670539502,0.015139271505177
1768728729857,-0.0658416748046875,-0.997711181640625,-0.002593994140625,0.0442140661180019,0.0041068606078624,0.0194727666676044
1768728729867,-0.06890869140625,-0.99688720703125,0.0002899169921875,0.0428140424191951,0.0070312777534127,0.0189774185419082
1768728729877,-0.0721435546875,-0.99493408203125,-0.0008087158203125,0.0427583828568458,0.0099277319386601,0.0180293340235948
1768728729887,-0.0711212158203125,-0.9964141845703124,-0.0008087158203125,0.0380733497440815,0.0099365198984742,0.0139256687834858
1768728729897,-0.071868896484375,-0.9980316162109376,0.003387451171875,0.0333752669394016,0.0021294634789228,0.0067146280780434
1768728729907,-0.0747528076171875,-0.9949951171875,0.0054779052734375,0.0288731940090656,-0.0008964200387708,0.0013126720441505
1768728729917,-0.0790557861328125,-0.993621826171875,0.00445556640625,0.0243543423712253,0.0021132184192538,-0.0018168084789067
1768728729927,-0.0748748779296875,-0.99267578125,0.006988525390625,0.0188945960253477,0.0041412152349948,0.0011179950088262
1768728729937,-0.0762481689453125,-0.99298095703125,0.00714111328125,0.0159747060388326,0.0027001791168004,0.0004932174342684
1768728729948,-0.0804443359375,-0.99395751953125,0.0066680908203125,0.0100145507603883,0.0073199644684791,-0.0077178408391773
1768728729957,-0.081146240234375,-0.9952392578125,0.006744384765625,0.0055801211856305,0.0047414917498826,-0.014822888188064
1768728729967,-0.0803070068359375,-0.996307373046875,0.0091705322265625,-0.0009422263829037,-8.708536915946752e-05,-0.0237095896154642
1768728729977,-0.0797882080078125,-0.99951171875,0.007537841796875,-0.0121381552889943,0.0046488139778375,-0.0292673408985137
1768728729987,-0.0725250244140625,-1.0015869140625,0.013397216796875,-0.0266625024378299,0.0092110754922032,-0.0216898489743471
1768728729998,-0.06427001953125,-1.00164794921875,0.0155487060546875,-0.0362421609461307,0.0063013052567839,-0.0181036368012428
1768728730007,-0.0665130615234375,-1.0010833740234375,0.01287841796875,-0.0447466969490051,-0.0036783581599593,-0.0155592523515224
1768728730017,-0.066131591796875,-0.9974365234375,0.0095367431640625,-0.0520357713103294,-0.0165568720549345,-0.0166050754487514
1768728730027,-0.07891845703125,-0.9775543212890624,0.0023651123046875,-0.0410326533019542,-0.0141709465533494,-0.0328737944364547
1768728730038,-0.0993804931640625,-0.9745330810546876,-0.0142364501953125,-0.0294883828610181,-0.0042136535048484,-0.0519614666700363
1768728730048,-0.089874267578125,-0.9882049560546876,-0.014892578125,-0.024543959647417,-0.0047034085728228,-0.0517324358224868
1768728730058,-0.065338134765625,-1.0005035400390625,-0.004180908203125,-0.0248579457402229,-0.0014189322246238,-0.0364328436553478
1768728730068,-0.050262451171875,-1.00152587890625,-0.001983642578125,-0.0198842249810695,0.0135155422613024,-0.0164772439748048
1768728730078,-0.040740966796875,-1.015350341796875,-0.0030364990234375,-0.0133158052340149,0.0120031330734491,0.0076611153781414
1768728730088,-0.032684326171875,-1.01043701171875,0.0018310546875,-0.0082267709076404,0.0113080479204654,0.0301477815955877
1768728730098,-0.04180908203125,-1.00439453125,0.000244140625,-0.0040035299025475,0.0159139856696128,0.0364687964320182
1768728730108,-0.0618743896484375,-0.9920196533203124,-0.0052642822265625,0.0004274373641237,0.024036094546318,0.0316804312169551
1768728730118,-0.081512451171875,-0.9799346923828124,-0.0090484619140625,0.0103053683415055,0.0293666776269674,0.0170213282108306
1768728730128,-0.0910186767578125,-0.978271484375,-0.0121612548828125,0.020184364169836,0.0236078575253486,5.619269722956233e-05
1768728730138,-0.0877227783203125,-0.985107421875,-0.00982666015625,0.0214632134884595,0.0162293035537004,-0.0078531289473176
1768728730148,-0.078155517578125,-0.9951324462890624,-0.0012054443359375,0.0150505881756544,0.0115717016160488,-0.0096390452235937
1768728730158,-0.07275390625,-0.9989776611328124,0.0027923583984375,0.0044842306524515,0.0136356512084603,-0.0131128728389739
1768728730168,-0.0720977783203125,-1.001190185546875,0.0041046142578125,-0.0067921262234449,0.0127070071175694,-0.0170921683311462
1768728730178,-0.0704193115234375,-1.0001983642578125,0.005828857421875,-0.0149493888020515,0.0084414212033152,-0.0198642518371343
1768728730188,-0.0692901611328125,-0.9985504150390624,0.0028839111328125,-0.0179193448275327,0.0065934541635215,-0.0193851497024297
1768728730198,-0.06689453125,-0.9988555908203124,-0.0036468505859375,-0.0178695451468229,0.0039635826833546,-0.0167270489037036
1768728730208,-0.0635986328125,-0.9951629638671876,-0.0074005126953125,-0.0102563658729195,0.0005347627447918,-0.0116643793880939
1768728730218,-0.0596771240234375,-0.9959716796875,-0.0124664306640625,-0.0041753039695322,0.0019395801937207,-0.0076941386796534
1768728730228,-0.0606231689453125,-0.9945068359375,-0.0182647705078125,0.00856738910079,0.0045076664537191,-0.0013230583863332
1768728730238,-0.0633544921875,-0.98858642578125,-0.0204010009765625,0.0225298106670379,0.0093759251758456,0.0030527815688401
1768728730251,-0.0673828125,-0.989501953125,-0.020599365234375,0.035714853554964,0.0143789388239383,0.0074778897687792
1768728730258,-0.068878173828125,-0.9900665283203124,-0.0189208984375,0.0476170517504215,0.0153461992740631,0.0048347027041018
1768728730269,-0.06915283203125,-0.992279052734375,-0.0105438232421875,0.0552177168428897,0.0124904913827776,0.0100012347102165
1768728730279,-0.0680694580078125,-0.9963836669921876,-0.0022430419921875,0.0529332570731639,0.0188575778156518,0.0152545869350433
1768728730289,-0.067138671875,-0.9987335205078124,0.0033416748046875,0.0536789409816265,0.0199769046157598,0.0160767044872045
1768728730299,-0.0646820068359375,-1.0013885498046875,0.0086669921875,0.0518397614359855,0.0081561971455812,0.0165864340960979
1768728730309,-0.0652618408203125,-1.0001678466796875,0.0128631591796875,0.0429717004299163,0.0088214548304677,0.0191412046551704
1768728730319,-0.0695648193359375,-0.998046875,0.016998291015625,0.0321289077401161,0.0076765618287026,0.0182738117873668
1768728730329,-0.0749664306640625,-0.998809814453125,0.019195556640625,0.020182766020298,-0.0004319647268857,0.0123914219439029
1768728730339,-0.080169677734375,-0.9984130859375,0.0217132568359375,0.0076667079702019,0.0010018812026828,0.0052842441946268
1768728730349,-0.07904052734375,-0.99993896484375,0.0204315185546875,-0.0107924602925777,0.0079876193776726,0.000471645820653
1768728730359,-0.0752105712890625,-1.0002899169921875,0.0209808349609375,-0.0228421986103057,0.0072184982709586,-0.0037233654875308
1768728730369,-0.0733184814453125,-1.000274658203125,0.0187530517578125,-0.0373042300343513,0.0040133837610483,-0.0040780985727906
1768728730379,-0.06964111328125,-0.9970245361328124,0.0135040283203125,-0.0440446883440017,0.0030533140525221,-0.0053678676486015
1768728730389,-0.071319580078125,-0.9949493408203124,0.0066986083984375,-0.0452556274831295,0.0008743157959543,-0.0085482141003012
1768728730399,-0.06964111328125,-0.9919586181640624,0.0022125244140625,-0.0400552749633789,-0.0178133510053157,-0.0044445493258535
1768728730409,-0.0736083984375,-0.98583984375,-0.0037689208984375,-0.0324703268706798,-0.0089490199461579,-0.0062315305694937
1768728730419,-0.078155517578125,-0.9843292236328124,-0.0100555419921875,-0.0256869867444038,0.0057835867628455,-0.0086683230474591
1768728730429,-0.0762939453125,-0.988983154296875,-0.011627197265625,-0.0131834466010332,0.000786431482993,-0.0092816492542624
1768728730440,-0.065948486328125,-0.9946441650390624,-0.007171630859375,-0.0074864123016595,-0.0010436928132548,-0.0022865901701152
1768728730449,-0.0583343505859375,-0.995452880859375,-0.0052032470703125,-0.0027521105948835,0.0070443274453282,0.0057500312104821
1768728730459,-0.06036376953125,-0.99578857421875,-0.004791259765625,-0.0009108011145144,0.0139738721773028,0.0102342618629336
1768728730470,-0.0628204345703125,-0.9979705810546876,-0.00140380859375,-0.0003712446487043,0.0090243872255086,0.0113690346479415
1768728730479,-0.0657958984375,-0.9959564208984376,0.000762939453125,-0.0011097391834482,0.0089056110009551,0.0118681108579039
1768728730490,-0.0691070556640625,-0.9968109130859376,0.0008697509765625,-0.0031656995415687,0.0014783206861466,0.007816644385457
1768728730500,-0.0728607177734375,-0.9972991943359376,0.000701904296875,-0.0048011466860771,0.0013427657540887,0.0026322684716433
1768728730510,-0.07293701171875,-0.9968719482421876,-0.00128173828125,-0.0091136032715439,0.0047074034810066,-0.0055731972679495
1768728730520,-0.0741119384765625,-0.9964141845703124,-0.001007080078125,-0.010310161858797,0.0056251287460327,-0.0084033384919166
1768728730530,-0.07220458984375,-0.99658203125,-0.000579833984375,-0.011535482481122,0.0030519824940711,-0.0093535538762807
1768728730540,-0.06982421875,-0.9978485107421876,-0.0016937255859375,-0.0112356105819344,0.0099746035411953,-0.0054123420268297
1768728730550,-0.0667877197265625,-0.9947662353515624,-0.0023040771484375,-0.005355617031455,0.0087279779836535,0.0018588864477351
1768728730560,-0.062896728515625,-0.9967498779296876,-0.00396728515625,0.0005297027528285,0.0058823903091251,0.0071599087677896
1768728730570,-0.0636138916015625,-0.9969482421875,-0.0050811767578125,0.0052030179649591,0.001700428314507,0.0105879297479987
1768728730581,-0.067138671875,-0.992645263671875,-0.0043182373046875,0.0099943112581968,0.0062949135899543,0.0103833982720971
1768728730590,-0.0685272216796875,-0.99127197265625,-0.00445556640625,0.0136183407157659,0.0096275936812162,0.0084880273789167
1768728730600,-0.071685791015625,-0.9908905029296876,-0.0027618408203125,0.0175166763365268,0.0066533754579722,0.0049276468344032
1768728730610,-0.0745086669921875,-0.989715576171875,-0.0018768310546875,0.0175188053399324,0.0038932752795517,0.0031403994653373
1768728730620,-0.074462890625,-0.990264892578125,-0.00067138671875,0.0197654496878385,0.0050493534654378,0.0011403656098991
1768728730631,-0.073822021484375,-0.9900665283203124,0.0021514892578125,0.0164250452071428,0.0091823134571313,0.0016809873050078
1768728730640,-0.07318115234375,-0.994171142578125,0.003997802734375,0.0149512523785233,0.0072525865398347,0.0003800330741796
1768728730651,-0.0722198486328125,-0.99835205078125,0.00640869140625,0.0121099259704351,0.0059124836698174,-0.0032517197541892
1768728730660,-0.0728912353515625,-0.9983367919921876,0.0085601806640625,0.008182561956346,0.0028048411477357,-0.0012887036427855
1768728730671,-0.0719757080078125,-0.9992523193359376,0.0091400146484375,0.0055622784420847,0.0015110776294022,-0.0049183256924152
1768728730681,-0.0719757080078125,-0.9980926513671876,0.01019287109375,0.0006287723081186,0.0044685178436338,0.0001755023113219
1768728730690,-0.0693511962890625,-0.998779296875,0.010223388671875,-0.0050355051644146,0.0046778423711657,0.0024810009635984
1768728730701,-0.0687255859375,-0.996337890625,0.00762939453125,-0.0113037871196866,0.0081580616533756,0.0057545583695173
1768728730711,-0.070220947265625,-0.9953155517578124,0.00567626953125,-0.0154183711856603,0.0103226788341999,0.0029632993973791
1768728730721,-0.07147216796875,-0.995391845703125,0.0048370361328125,-0.0188844744116067,0.0022844595368951,-0.0035646411124616
1768728730731,-0.0756378173828125,-0.994659423828125,0.0054931640625,-0.0173978991806507,-0.0088981539011001,-0.0106007130816578
1768728730741,-0.0761566162109375,-0.9952239990234376,0.003204345703125,-0.0194237660616636,-0.0112515892833471,-0.0133051527664065
1768728730751,-0.0754852294921875,-0.992431640625,0.002655029296875,-0.0165342353284358,-0.0117344204336404,-0.0149613721296191
1768728730761,-0.074951171875,-0.9933929443359376,0.002044677734375,-0.0170972272753715,-0.0078155789524316,-0.0172274559736251
1768728730771,-0.0698699951171875,-0.9941253662109376,0.001312255859375,-0.0183430537581443,-0.0045260423794388,-0.0137874512001872
1768728730782,-0.068115234375,-0.9930267333984376,0.00372314453125,-0.0185553077608346,-0.0054413708858191,-0.0120958108454942
1768728730791,-0.0689697265625,-0.9930267333984376,0.003021240234375,-0.020364660769701,0.0015976303257048,-0.008731173351407
1768728730801,-0.06793212890625,-0.99334716796875,0.0034942626953125,-0.0190999247133731,-0.0002050634066108,-0.0092081455513834
1768728730811,-0.0702362060546875,-0.9935150146484376,0.00140380859375,-0.0186099037528038,-0.0028751487843692,-0.0091495560482144
1768728730821,-0.0694122314453125,-0.994781494140625,-0.002288818359375,-0.0181707479059696,-0.000713194545824,-0.0109535818919539
1768728730832,-0.0683135986328125,-0.994476318359375,-0.0045928955078125,-0.0143621610477566,-0.0017848504940047,-0.0077631142921745
1768728730841,-0.069915771484375,-0.996063232421875,-0.005615234375,-0.010898720473051,-0.00505973957479,-0.0080755036324262
1768728730852,-0.0699310302734375,-0.9978485107421876,-0.0059967041015625,-0.010539193637669,-0.0047406931407749,-0.0108643658459186
1768728730861,-0.06781005859375,-0.9980010986328124,-0.0055084228515625,-0.0103612942621111,-0.0082499403506517,-0.0116452043876051
1768728730871,-0.068756103515625,-0.9954833984375,-0.002471923828125,-0.0069535137154161,-0.0168399661779403,-0.0118119185790419
1768728730881,-0.0687103271484375,-0.9942474365234376,-0.0030975341796875,-0.0063380571082234,-0.0132018215954303,-0.0118497349321842
1768728730892,-0.0683135986328125,-0.9952239990234376,-0.003875732421875,-0.0060115535743534,-0.0176575575023889,-0.0118358870968222
1768728730902,-0.068206787109375,-0.995269775390625,-0.0015411376953125,-0.0061926483176648,-0.0188985895365476,-0.0065678879618644
1768728730912,-0.07037353515625,-0.9950408935546876,-0.0010986328125,-0.0085109304636716,-0.0117746340110898,-0.0034149715211242
1768728730922,-0.07049560546875,-0.99627685546875,-0.0020904541015625,-0.0075604477897286,-0.0053585465066134,-0.0055055529810488
1768728730932,-0.069976806640625,-0.9951324462890624,-0.0029144287109375,-0.0034943337086588,-0.0057873153127729,-0.0041372207924723
1768728730942,-0.0685272216796875,-0.99639892578125,-0.0008544921875,-0.0003249056462664,-0.0036770266015082,-0.0019576896447688
1768728730952,-0.066802978515625,-0.9976654052734376,-0.000885009765625,8.388957212446257e-05,0.0047774445265531,-0.001995506696403
1768728730962,-0.0641632080078125,-0.9984130859375,0.000396728515625,-0.0021339908707886,0.0033337450586259,0.0026067020371556
1768728730972,-0.05963134765625,-1.0009613037109375,0.007049560546875,-0.0071362066082656,-0.0018338527297601,0.0093495594337582
1768728730982,-0.0588836669921875,-0.9995269775390624,0.0110931396484375,-0.0108366683125495,-0.000235157116549,0.0082880239933729
1768728730992,-0.0635833740234375,-0.9974212646484376,0.00701904296875,-0.0117104519158601,-0.0082840286195278,0.0086531424894928
1768728731002,-0.0705108642578125,-0.98651123046875,0.0046234130859375,-0.006214752793312,-0.011029215529561,-0.0012623383663594
1768728731012,-0.090545654296875,-0.9741668701171876,-0.0077056884765625,0.0024088292848318,-0.0002101234131259,-0.0238440800458192
1768728731022,-0.097625732421875,-0.982696533203125,-0.0077972412109375,0.0011696603614836,0.0028850024100393,-0.0354693122208118
1768728731032,-0.0766448974609375,-1.00335693359375,0.0069580078125,-0.0152455316856503,-0.0039518647827208,-0.0275581236928701
1768728731042,-0.0615386962890625,-1.005828857421875,0.0228729248046875,-0.0237665828317403,-0.0021393173374235,-0.017880730330944
1768728731052,-0.0579376220703125,-1.013763427734375,0.014923095703125,-0.0324519500136375,0.0063665527850389,-0.014913436025381
1768728731062,-0.0493011474609375,-1.016571044921875,0.0111083984375,-0.0370525605976581,-0.0040306942537426,-0.0041950112208724
1768728731072,-0.0441741943359375,-1.007781982421875,0.0140380859375,-0.0437693186104297,-0.0002985403698403,0.0088598039001226
1768728731082,-0.0533294677734375,-0.996612548828125,0.0095062255859375,-0.0414600931107997,0.0038501319941133,0.0165757816284894
1768728731092,-0.071441650390625,-0.9830474853515624,-0.0017242431640625,-0.0347167029976844,0.0102992430329322,0.0089301113039255
1768728731102,-0.085418701171875,-0.979339599609375,-0.012664794921875,-0.0255548954010009,0.0089649986475706,-0.0034823494497686
1768728731112,-0.0823516845703125,-0.9849853515625,-0.0118255615234375,-0.020747622475028,-0.0014594122767448,-0.0088994856923818
1768728731123,-0.074676513671875,-0.99310302734375,-0.009246826171875,-0.0266827438026666,-0.0048227184452116,-0.0118494685739278
1768728731133,-0.06781005859375,-0.998382568359375,-0.00701904296875,-0.0302053056657314,-0.0122161861509084,-0.0128039456903934
1768728731143,-0.063629150390625,-0.998748779296875,-0.0092010498046875,-0.0302942562848329,-0.0179318618029356,-0.017052486538887
1768728731153,-0.0635986328125,-0.998016357421875,-0.01348876953125,-0.0276923477649688,-0.0150884054601192,-0.0154817542061209
1768728731163,-0.064483642578125,-0.99517822265625,-0.0139923095703125,-0.02029674872756,-0.0135461688041687,-0.0124878287315368
1768728731173,-0.06396484375,-0.993377685546875,-0.0160064697265625,-0.0093061504885554,-0.0053899716585874,-0.0094462325796484
1768728731183,-0.0594329833984375,-0.9932708740234376,-0.0224609375,0.0052807820029556,0.0035180358681827,0.0003885551996063
1768728731193,-0.0550384521484375,-0.993438720703125,-0.022247314453125,0.0215140804648399,0.0076131783425807,0.0112558500841259
1768728731203,-0.054229736328125,-0.991943359375,-0.019927978515625,0.0414220094680786,0.0108065754175186,0.0202469490468502
1768728731213,-0.0587158203125,-0.991241455078125,-0.01983642578125,0.0572888553142547,0.0201769080013036,0.025883262977004
1768728731223,-0.0619659423828125,-0.9906158447265624,-0.0163421630859375,0.0687598884105682,0.0196104533970356,0.0302838701754808
1768728731233,-0.0627288818359375,-0.9924774169921876,-0.0060882568359375,0.0742204338312149,0.00403016153723,0.03671620413661
1768728731243,-0.06817626953125,-0.995941162109375,0.00152587890625,0.0700139701366424,0.0088526140898466,0.0326183959841728
1768728731253,-0.0742645263671875,-0.998992919921875,0.0087738037109375,0.0593663863837718,0.0135600175708532,0.0244528781622648
1768728731263,-0.0759124755859375,-1.00067138671875,0.015228271484375,0.0448412410914897,0.0088036116212606,0.0205444227904081
1768728731273,-0.07476806640625,-1.000152587890625,0.021026611328125,0.0350482650101184,0.0005632585380226,0.0186719540506601
1768728731283,-0.07464599609375,-0.9997100830078124,0.02545166015625,0.0129807796329259,0.0024264061357825,0.0164580699056386
1768728731293,-0.07171630859375,-1.001220703125,0.0284423828125,-0.0105216167867183,0.0030738206114619,0.0111205615103244
1768728731303,-0.073516845703125,-1.0024566650390625,0.0270233154296875,-0.0289253909140825,-0.0018490327056497,0.0039161783643066
1768728731314,-0.072906494140625,-1.001434326171875,0.023406982421875,-0.0427578501403331,-0.009238239377737,-0.0032357405871152
1768728731324,-0.07080078125,-1.0,0.0186920166015625,-0.048006672412157,-0.0162846967577934,-0.0053939665667712
1768728731333,-0.0703125,-1.0019989013671875,0.0129241943359375,-0.0497057698667049,-0.0271850153803825,-0.0030868700705468
1768728731343,-0.0681915283203125,-1.0026092529296875,0.010467529296875,-0.052289567887783,-0.0241942852735519,-0.0010519486386328
1768728731354,-0.0652313232421875,-1.0009918212890625,0.0032958984375,-0.0524664036929607,-0.0208413656800985,-0.002551042009145
1768728731364,-0.06524658203125,-0.9981231689453124,0.000396728515625,-0.0557812415063381,-0.0257884543389081,-0.0027089675422757
1768728731374,-0.0640716552734375,-0.9988250732421876,-0.0006256103515625,-0.0617147646844387,-0.0254608858376741,-0.0005020058597438
1768728731384,-0.066162109375,-0.9920806884765624,-0.0047760009765625,-0.0655965879559516,-0.0141115579754114,0.0085982820019125
1768728731394,-0.0730438232421875,-0.981719970703125,-0.010009765625,-0.0528429746627807,0.0035316178109496,0.0083032036200165
1768728731404,-0.0765533447265625,-0.9869232177734376,-0.021881103515625,-0.0368445664644241,0.0163648575544357,0.0112870093435049
1768728731414,-0.06158447265625,-0.9917755126953124,-0.025054931640625,-0.0178932473063468,-0.0002817624481394,0.0210221949964761
1768728731424,-0.0512847900390625,-0.992828369140625,-0.022613525390625,0.0012538161827251,0.0025068335235118,0.0334634184837341
1768728731434,-0.05438232421875,-0.993194580078125,-0.024505615234375,0.0197747703641653,0.0064419205300509,0.0390238314867019
1768728731444,-0.0621490478515625,-0.9970703125,-0.0200347900390625,0.0335542298853397,0.0106973852962255,0.0379367284476757
1768728731454,-0.06719970703125,-0.9973297119140624,-0.012298583984375,0.0407985635101795,0.0034216293133795,0.0363904982805252
1768728731464,-0.0706939697265625,-0.9986572265625,-0.00390625,0.0391303598880767,-0.0034959316253662,0.0337723456323146
1768728731474,-0.0720062255859375,-0.996307373046875,0.0044097900390625,0.0257786009460687,0.0056988983415067,0.0310215651988983
1768728731484,-0.0742340087890625,-0.9986572265625,0.010467529296875,0.0100691458210349,0.0124335000291466,0.0261245444416999
1768728731494,-0.0740203857421875,-1.0001373291015625,0.0133056640625,-0.0089575424790382,0.0073255570605397,0.0229785535484552
1768728731504,-0.0757598876953125,-0.9972991943359376,0.0127410888671875,-0.0209289845079183,-0.0053899716585874,0.016275642439723
1768728731514,-0.07745361328125,-0.996856689453125,0.009521484375,-0.0274254996329545,-0.0118169784545898,0.0116539932787418
1768728731524,-0.076995849609375,-0.9969940185546876,0.0062255859375,-0.032483372837305,-0.0152050517499446,0.0073788203299045
1768728731534,-0.0758209228515625,-0.996551513671875,0.0023193359375,-0.0373542979359626,-0.0103178853169083,0.0070677632465958
1768728731544,-0.074249267578125,-0.996002197265625,-0.0006866455078125,-0.0352152436971664,-0.0037830201908946,0.0104811368510127
1768728731555,-0.072479248046875,-0.994232177734375,-0.00152587890625,-0.0282896943390369,-4.793690095539205e-06,0.0149003863334655
1768728731565,-0.0693359375,-0.993377685546875,-0.00372314453125,-0.0207502860575914,-0.0096859168261289,0.020886905491352
1768728731575,-0.0697784423828125,-0.9949798583984376,-0.0061492919921875,-0.0113386744633317,-0.0100747384130954,0.026583407074213
1768728731585,-0.069793701171875,-0.99078369140625,-0.0102081298828125,-0.0029960561078041,-0.0041233724914491,0.0265463888645172
1768728731595,-0.072174072265625,-0.9909210205078124,-0.0104522705078125,0.0035910063888877,0.001023719087243,0.0287389699369668
1768728731605,-0.0721435546875,-0.991790771484375,-0.0081329345703125,0.0037284255959093,0.006223274860531,0.0283722523599863
1768728731615,-0.0746612548828125,-0.9911651611328124,-0.0063018798828125,0.0063447151333093,0.0091532841324806,0.0296817291527986
1768728731625,-0.0767974853515625,-0.9925689697265624,-0.003997802734375,0.0113743608817458,-0.0069633671082556,0.0274848882108926
1768728731635,-0.081298828125,-0.9933624267578124,-0.000946044921875,0.007547132205218,-0.0053790528327226,0.0261125601828098
1768728731645,-0.0770416259765625,-0.99505615234375,0.0015716552734375,-0.0017816547770053,0.0020969731267541,0.019972376525402
1768728731655,-0.07635498046875,-0.9977874755859376,0.0042572021484375,-0.0055718654766678,0.0001920139184221,0.0171813834458589
1768728731665,-0.076141357421875,-0.9972991943359376,0.00433349609375,-0.015974972397089,0.0008482168195769,0.016039952635765
1768728731675,-0.076416015625,-0.9970855712890624,0.0060577392578125,-0.0255676787346601,0.0016546220285817,0.015744874253869
1768728731685,-0.0805511474609375,-0.995849609375,0.0080718994140625,-0.0318721793591976,-0.002936135046184,0.014240188524127
1768728731695,-0.0843048095703125,-0.995269775390625,0.0063934326171875,-0.0379431210458278,-0.0041800974868237,0.009246495552361
1768728731705,-0.0850067138671875,-0.9935302734375,0.0050506591796875,-0.0451051592826843,0.0004450142150744,0.0051883705891668
1768728731715,-0.079498291015625,-0.9952239990234376,0.0024566650390625,-0.0470122508704662,-0.0006615291931666,0.0060070259496569
1768728731725,-0.0759124755859375,-0.995361328125,-0.0021514892578125,-0.040629718452692,-0.0110649019479751,0.0078014638274908
1768728731735,-0.075469970703125,-0.9958038330078124,-0.0070648193359375,-0.0362320393323898,-0.0116231003776192,0.0055702677927911
1768728731746,-0.0769500732421875,-0.99212646484375,-0.009918212890625,-0.032753150910139,-0.007555654272437,0.006860302761197
1768728731755,-0.07562255859375,-0.9908294677734376,-0.0110931396484375,-0.0246954932808876,-0.0064413878135383,0.0093112103641033
1768728731766,-0.0755615234375,-0.9896697998046876,-0.01544189453125,-0.01519067119807,-0.0021574266720563,0.0099682118743658
1768728731776,-0.0753631591796875,-0.9911651611328124,-0.0152740478515625,-0.0061785336583852,-0.0008783105295151,0.0160266365855932
1768728731786,-0.0711212158203125,-0.9915313720703124,-0.0135040283203125,0.0058142133057117,-0.0064325993880629,0.0223367307335138
1768728731796,-0.0731201171875,-0.994354248046875,-0.0142059326171875,0.014340323396027,-0.011485680937767,0.023641413077712
1768728731806,-0.0731658935546875,-0.9938812255859376,-0.0112152099609375,0.0153320841491222,-0.0016351809026673,0.0232451353222131
1768728731816,-0.0733184814453125,-0.9929351806640624,-0.0080413818359375,0.0185561068356037,-0.0001430117554264,0.0265229530632495
1768728731827,-0.0745391845703125,-0.9952239990234376,-0.0072479248046875,0.0187923293560743,0.0017728663515299,0.0248377062380313
1768728731836,-0.073089599609375,-0.9961395263671876,-0.0026702880859375,0.0147698912769556,0.0067891962826251,0.0249572806060314
1768728731846,-0.0764007568359375,-0.9983367919921876,0.00347900390625,0.0091157341375947,0.0068115671165287,0.0243583358824253
1768728731856,-0.0798492431640625,-0.997344970703125,0.0037841796875,0.0014602112350985,0.0083689838647842,0.0252840518951416
1768728731866,-0.0816650390625,-0.99517822265625,0.00494384765625,-0.0052155344747006,0.006163886282593,0.0230126418173313
1768728731876,-0.084136962890625,-0.9962158203125,0.00360107421875,-0.0124356308951973,0.0049367016181349,0.0189846102148294
1768728731886,-0.0843505859375,-0.9938507080078124,0.00201416015625,-0.0153579171746969,0.0040703755803406,0.0139515018090605
1768728731896,-0.08636474609375,-0.99273681640625,-4.57763671875e-05,-0.0169512871652841,0.0018892465159296,0.0099410479888319
1768728731906,-0.087921142578125,-0.9892425537109376,0.0008544921875,-0.0181521065533161,-0.0027465180028229,0.0070501863956451
1768728731916,-0.0906524658203125,-0.9918212890625,-0.003692626953125,-0.0179707445204257,0.0011147991754114,0.0013504889793694
1768728731926,-0.0848846435546875,-0.9979400634765624,-0.00384521484375,-0.019619507715106,-0.0020722055342048,0.0001086569682229
1768728731936,-0.0742034912109375,-1.0026702880859375,-0.000244140625,-0.0270159039646387,-0.0036549223586916,0.0071852086111903
1768728731946,-0.0682830810546875,-1.0005645751953125,0.0023345947265625,-0.030007965862751,-0.013107013888657,0.0189278852194547
1768728731957,-0.06951904296875,-0.9915313720703124,-0.0041046142578125,-0.0215982366353273,-0.0170080121606588,0.0236736368387937
1768728731966,-0.0865936279296875,-0.9677886962890624,-0.0180816650390625,0.0028298748657107,-0.0052605420351028,0.0143571011722087
1768728731977,-0.111236572265625,-0.96148681640625,-0.0328521728515625,0.0265202913433313,0.0117250988259911,-0.0084656560793519
1768728731987,-0.104827880859375,-0.98651123046875,-0.0295867919921875,0.0316255688667297,0.0140721434727311,-0.0164412911981344
1768728731996,-0.0730743408203125,-1.00872802734375,-0.00714111328125,0.0244520790874958,0.0132518894970417,-0.0034621094819158
1768728732007,-0.0505828857421875,-1.017852783203125,0.009246826171875,0.0214490983635187,0.0049702576361596,0.0161829646676778
1768728732017,-0.05487060546875,-1.0162506103515625,0.0071563720703125,0.0177401155233383,-0.0005752427969127,0.0203665234148502
1768728732027,-0.0648345947265625,-1.0083770751953125,0.007965087890625,0.011969044804573,-0.00075314193964,0.0243902951478958
1768728732037,-0.0759429931640625,-0.9948577880859376,0.0084075927734375,0.0041121868416666,0.0089282477274537,0.0255248006433248
1768728732047,-0.0927734375,-0.9810638427734376,0.0030975341796875,0.0046421559527516,0.0159467421472072,0.014485465362668
1768728732057,-0.1079559326171875,-0.9751129150390624,-0.0034637451171875,0.0058344532735645,0.0115535920485854,-0.0013520868960767
1768728732067,-0.106597900390625,-0.981658935546875,-0.00042724609375,-0.004670385736972,0.0071575115434825,-0.0130905015394091
1768728732077,-0.0940704345703125,-0.9899139404296876,0.0046844482421875,-0.0201657228171825,-0.005640575196594,-0.0152276884764432
1768728732087,-0.0825653076171875,-0.999755859375,0.00732421875,-0.0318926870822906,-0.0122595960274338,-0.0176453068852424
1768728732097,-0.0775299072265625,-1.0045623779296875,0.005645751953125,-0.0435349605977535,-0.0144921233877539,-0.0133861126378178
1768728732107,-0.07598876953125,-1.002288818359375,0.002410888671875,-0.0466942675411701,-0.0175680741667747,-0.0127898314967751
1768728732118,-0.078033447265625,-1.00018310546875,-0.00396728515625,-0.0427027232944965,-0.0232842843979597,-0.0181345287710428
1768728732127,-0.0792694091796875,-0.996795654296875,-0.00872802734375,-0.0359675884246826,-0.0226355381309986,-0.0176556929945945
1768728732137,-0.075225830078125,-0.9928436279296876,-0.014801025390625,-0.0281778424978256,-0.0150559144094586,-0.0098635498434305
1768728732147,-0.0718841552734375,-0.9925079345703124,-0.0182342529296875,-0.0141957141458988,-0.0087279779836535,-0.0024687503464519
1768728732157,-0.0730133056640625,-0.98968505859375,-0.022796630859375,0.0010178601369261,0.0024029703345149,0.0053420346230268
1768728732167,-0.074371337890625,-0.9892425537109376,-0.0228729248046875,0.0131203290075063,0.0127797108143568,0.0146521795541048
1768728732178,-0.0733642578125,-0.9942779541015624,-0.01885986328125,0.0241218470036983,0.0118255000561475,0.0170511547476053
1768728732188,-0.0742950439453125,-0.99481201171875,-0.013916015625,0.0313520655035972,0.0139698777347803,0.021601166576147
1768728732198,-0.07611083984375,-0.996429443359375,-0.010009765625,0.0326325111091136,0.014748852699995,0.0236747022718191
1768728732208,-0.07806396484375,-0.994781494140625,-0.0064849853515625,0.0369873121380806,0.0076914755627512,0.0227228887379169
1768728732218,-0.0799102783203125,-0.996124267578125,-0.0030975341796875,0.0327100083231925,0.0132843796163797,0.0213969014585018
1768728732228,-0.08056640625,-0.99786376953125,0.0028228759765625,0.0234872158616781,0.011101652868092,0.0197814274579286
1768728732238,-0.0819549560546875,-0.996917724609375,0.0068359375,0.0146923931315541,0.0047430898994207,0.0183137599378824
1768728732248,-0.0826568603515625,-0.995147705078125,0.0087890625,0.0056877131573855,0.0024756744969636,0.014085192233324
1768728732258,-0.0850067138671875,-0.9952239990234376,0.0088348388671875,-0.0057178069837391,0.000199204441742,0.0106398612260818
1768728732268,-0.083892822265625,-0.9960174560546876,0.009979248046875,-0.0150471264496445,-0.0058746668510138,0.006624347064644
1768728732278,-0.08697509765625,-0.99725341796875,0.0089263916015625,-0.0213521607220172,-0.0036621128674596,0.0047998153604567
1768728732288,-0.085205078125,-0.998504638671875,0.0082550048828125,-0.0321856327354908,-0.0037433390971273,0.0043172505684196
1768728732298,-0.0810089111328125,-1.001373291015625,0.00665283203125,-0.0409836508333683,-0.0023044333793222,0.0086744483560323
1768728732308,-0.076385498046875,-1.0009918212890625,0.00396728515625,-0.0464023873209953,-0.0038368161767721,0.0090163983404636
1768728732319,-0.0783843994140625,-0.9993133544921876,0.0009918212890625,-0.0504967309534549,-0.0077961375936865,0.0095247952267527
1768728732328,-0.080169677734375,-1.001861572265625,-0.0037841796875,-0.0526999644935131,-0.0164388939738273,0.0118055269122123
1768728732339,-0.079559326171875,-0.9962615966796876,-0.005767822265625,-0.050855990499258,-0.0172791220247745,0.0145326033234596
1768728732348,-0.082855224609375,-0.9922332763671876,-0.0116119384765625,-0.0405871085822582,-0.0134297888725996,0.0123565346002578
1768728732358,-0.089141845703125,-0.9839324951171876,-0.018524169921875,-0.0225567072629928,-0.011912852525711,0.0083543360233306
1768728732368,-0.0912322998046875,-0.9792938232421876,-0.0263671875,-0.0036085832398384,0.0011273160343989,0.0047705206088721
1768728732379,-0.08685302734375,-0.985015869140625,-0.0266265869140625,0.0136159434914588,-0.0010447581298649,0.0089657977223396
1768728732388,-0.0743255615234375,-0.9919281005859376,-0.0165863037109375,0.0182471815496683,-0.0017219999572262,0.0216861199587583
1768728732398,-0.0704498291015625,-0.996429443359375,-0.0092926025390625,0.020910607650876,0.0026013758033514,0.0278252400457859
1768728732409,-0.0771942138671875,-0.99774169921875,-0.006744384765625,0.0200573317706584,0.0045241778716444,0.0284612029790878
1768728732419,-0.0830841064453125,-0.9974517822265624,-0.0035247802734375,0.0150226252153515,0.0092784529551863,0.023717314004898
1768728732429,-0.0856475830078125,-0.997467041015625,0.0027008056640625,0.0068720206618309,0.0105796735733747,0.0210562832653522
1768728732439,-0.08856201171875,-0.996551513671875,0.0072021484375,-0.000745951430872,0.0040429448708891,0.014684404246509
1768728732449,-0.090301513671875,-0.9966888427734376,0.003692626953125,-0.0109871374443173,-0.0016311861108988,0.0126002142205834
1768728732459,-0.0863189697265625,-0.993743896484375,0.00628662109375,-0.0178660824894905,-0.0066717509180307,0.0123299034312367
1768728732469,-0.0863189697265625,-0.995025634765625,0.005584716796875,-0.0218144841492176,-0.0050626690499484,0.012614594772458
1768728732479,-0.08502197265625,-0.997100830078125,0.00030517578125,-0.0250350460410118,-0.0075604477897286,0.0095231980085372
1768728732489,-0.08447265625,-0.9969024658203124,-0.0009613037109375,-0.0279828980565071,-0.0082089276984334,0.0083207804709672
1768728732499,-0.08441162109375,-0.9952392578125,-0.0031585693359375,-0.0302987843751907,-0.0094148069620132,0.0106110991910099
1768728732509,-0.0839385986328125,-0.9958038330078124,-0.0049285888671875,-0.0302950553596019,-0.0113799534738063,0.0072853434830904
1768728732519,-0.0873565673828125,-0.9934844970703124,-0.00811767578125,-0.029012743383646,-0.0102459797635674,0.0080206422135233
1768728732529,-0.089202880859375,-0.98907470703125,-0.0102081298828125,-0.020715931430459,-0.0124087324365973,0.0084097301587462
1768728732539,-0.0883331298828125,-0.988525390625,-0.0127716064453125,-0.0120739731937646,-0.0143086314201354,0.0115400096401572
1768728732549,-0.088165283203125,-0.990447998046875,-0.01483154296875,-0.0059079565107822,-0.0102699482813477,0.0107099022716283
1768728732559,-0.087158203125,-0.9920654296875,-0.015625,0.0003025351034011,-0.0049617355689406,0.0120633207261562
1768728732569,-0.0840606689453125,-0.9936981201171876,-0.0128173828125,0.0003499393642414,-0.0041750376112759,0.0148463239893317
1768728732579,-0.0825347900390625,-0.9942169189453124,-0.010223388671875,0.000989097985439,0.0012242551892995,0.0169062782078981
1768728732589,-0.0829620361328125,-0.993804931640625,-0.0094757080078125,0.0014511564513668,0.0044477451592683,0.018475679680705
1768728732599,-0.0843963623046875,-0.993011474609375,-0.0077667236328125,0.0029899310320615,0.00655057746917,0.0209201946854591
1768728732609,-0.083740234375,-0.9933929443359376,-0.004608154296875,0.0031949942931532,0.00091692636488,0.0225258152931928
1768728732620,-0.0856781005859375,-0.9930267333984376,-0.0052947998046875,0.0011121360585093,-0.0029893983155488,0.0196509324014186
1768728732630,-0.08514404296875,-0.9953765869140624,-0.0029449462890625,-0.0038434739690274,0.001014131703414,0.0199468098580837
1768728732640,-0.0881500244140625,-0.99420166015625,-0.0018157958984375,-0.0052533512935042,-0.0027238810434937,0.0201268400996923
1768728732650,-0.0902099609375,-0.9935455322265624,-0.0014190673828125,-0.006443784572184,-0.0013052152935415,0.0151328798383474
1768728732660,-0.0899658203125,-0.9959716796875,-0.0030517578125,-0.0112140383571386,-0.0022176143247634,0.0151430005207657
1768728732670,-0.088043212890625,-0.9941864013671876,-0.0024261474609375,-0.0110228238627314,-0.003361441893503,0.0151499239727854
1768728732680,-0.0913238525390625,-0.995513916015625,-0.00299072265625,-0.0109879365190863,-0.006163886282593,0.0119360219687223
1768728732690,-0.091400146484375,-0.9943389892578124,-0.0040130615234375,-0.0123453494161367,-0.0051739891059696,0.0082456795498728
1768728732700,-0.0910797119140625,-0.9932403564453124,-0.0049591064453125,-0.0155408764258027,-0.0015992282424122,0.0099594239145517
1768728732710,-0.0892486572265625,-0.9922943115234376,-0.004180908203125,-0.0167017485946416,-0.0002969424531329,0.0064355288632214
1768728732720,-0.089569091796875,-0.9920501708984376,-0.0034332275390625,-0.0165142621845006,-0.0043742419220507,0.0048783784732222
1768728732730,-0.0897674560546875,-0.9930877685546876,-0.006378173828125,-0.0177102871239185,-0.0027792749460786,0.0062126219272613
1768728732740,-0.0867156982421875,-0.99420166015625,-0.005706787109375,-0.0191310830414295,-0.001521463971585,0.009540774859488
1768728732750,-0.0865936279296875,-0.9942779541015624,-0.0037384033203125,-0.0204584039747715,-0.000964596925769,0.0102379899471998
1768728732760,-0.0867156982421875,-0.9945526123046876,-0.0075531005859375,-0.0200163181871175,0.001677791471593,0.0095263933762907
1768728732770,-0.088714599609375,-0.992584228515625,-0.0089263916015625,-0.0161510072648525,0.0027846011798828,0.0088976211845874
1768728732780,-0.0885467529296875,-0.9929962158203124,-0.0107879638671875,-0.0129336416721344,-0.0026652915403246,0.0100896516814827
1768728732790,-0.088592529296875,-0.9927520751953124,-0.011077880859375,-0.0079764332622289,-0.0005009406013414,0.0118228374049067
1768728732800,-0.086700439453125,-0.994171142578125,-0.01287841796875,-0.0077330209314823,0.0076579195447266,0.0137120839208364
1768728732810,-0.085205078125,-0.996002197265625,-0.0094146728515625,-0.0027443873696029,0.006100236903876,0.0153384758159518
1768728732820,-0.0858612060546875,-0.9951629638671876,-0.0089111328125,-0.0017640779260545,0.0005723133217543,0.0176378488540649
1768728732831,-0.0858612060546875,-0.9952392578125,-0.0104522705078125,0.0002665824140422,0.0027822044212371,0.018447982147336
1768728732840,-0.08856201171875,-0.9915008544921876,-0.0095672607421875,0.0014682007022202,0.002167280530557,0.0212277900427579
1768728732853,-0.090789794921875,-0.99139404296875,-0.0091094970703125,0.0027718180790543,-0.0020943097770214,0.0213337838649749
1768728732861,-0.093353271484375,-0.99359130859375,-0.0083160400390625,0.0008839031797833,-0.0003696467611007,0.0167448911815881
1768728732872,-0.09649658203125,-0.98944091796875,-0.0064544677734375,0.0015046859625726,0.0012125372886657,0.0133592151105403
1768728732881,-0.098480224609375,-0.9906768798828124,-0.0075531005859375,0.0006841660942882,0.0035529232118278,0.0087610008195042
1768728732891,-0.0931549072265625,-0.994842529296875,-0.004974365234375,-0.0034727619495242,0.005600893869996,0.0123410886153578
1768728732901,-0.0849761962890625,-0.9993133544921876,-0.0012664794921875,-0.0096379797905683,0.0026770094409585,0.0132811842486262
1768728732911,-0.0869293212890625,-0.9966278076171876,-0.0027008056640625,-0.0099615538492798,-0.0007507451227866,0.0100220078602433
1768728732921,-0.0936126708984375,-0.98785400390625,-0.0080413818359375,-0.0075711007229983,-0.0065409899689257,0.0065037058666348
1768728732931,-0.10009765625,-0.9777984619140624,-0.0110626220703125,0.0039784964174032,-0.0132590802386403,0.0011089402250945
1768728732941,-0.114898681640625,-0.9664154052734376,-0.0190582275390625,0.0183339994400739,0.0030415961518883,-0.0139032984152436
1768728732951,-0.117156982421875,-0.978057861328125,-0.022613525390625,0.0205454882234334,0.0101256044581532,-0.0212658736854791
1768728732961,-0.0922088623046875,-1.0049591064453125,-0.0059967041015625,0.0111447963863611,0.0081972097977995,-0.0149448607116937
1768728732971,-0.0688934326171875,-1.0119476318359375,0.00726318359375,0.0068789450451731,0.0082611255347728,-0.0023339942563325
1768728732981,-0.0656280517578125,-1.0174560546875,0.0069122314453125,0.0004095941840205,0.0092595443129539,0.0045321676880121
1768728732991,-0.0706787109375,-1.0101470947265625,0.0052337646484375,-0.001889779116027,-0.0029345371294766,0.0121615910902619
1768728733001,-0.080352783203125,-1.0021209716796875,0.0040740966796875,-0.0041318945586681,-0.0054890410974621,0.0112571818754076
1768728733011,-0.093536376953125,-0.985565185546875,-0.000244140625,-0.0050871702842414,0.0036304211243987,0.0069710905663669
1768728733022,-0.1114044189453125,-0.974456787109375,-0.008392333984375,-0.0003683151735458,0.0136614833027124,-0.0062597598880529
1768728733031,-0.1183624267578125,-0.9766693115234376,-0.012359619140625,0.0006551376427523,0.0202538724988698,-0.0205172598361969
1768728733042,-0.107879638671875,-0.9882354736328124,-0.0063934326171875,-0.0109652997925877,0.0156921446323394,-0.0232997294515371
1768728733052,-0.0928955078125,-0.9962615966796876,0.000396728515625,-0.0232198350131511,0.0059007657691836,-0.0224573723971843
1768728733062,-0.0863037109375,-0.99969482421875,-0.0015106201171875,-0.024710938334465,-0.0022951122373342,-0.0270148403942585
1768728733072,-0.0875244140625,-0.9974212646484376,-0.0067901611328125,-0.0250094793736934,-0.0053007556125521,-0.0303168930113315
1768728733082,-0.0887603759765625,-0.9954833984375,-0.012939453125,-0.0162045359611511,-0.0055383099243044,-0.0346416011452674
1768728733092,-0.087127685546875,-0.9947662353515624,-0.014739990234375,-0.0070318104699254,-0.0031377363484352,-0.0342581048607826
1768728733102,-0.0845794677734375,-0.989501953125,-0.0185089111328125,0.0070533822290599,0.0010511496802791,-0.0290979649871587
1768728733112,-0.08001708984375,-0.988433837890625,-0.0266571044921875,0.0274308249354362,0.0069338059984147,-0.0183720830827951
1768728733122,-0.0766143798828125,-0.98876953125,-0.0290985107421875,0.0480562075972557,0.0086598005145788,-0.0073982612229883
1768728733132,-0.0774078369140625,-0.9891204833984376,-0.02838134765625,0.0607549585402011,0.0148463239893317,0.0015606123488396
1768728733142,-0.0832672119140625,-0.9900054931640624,-0.02203369140625,0.0679657310247421,0.022196115925908,0.0058230017311871
1768728733152,-0.0855560302734375,-0.993896484375,-0.0131988525390625,0.0669279024004936,0.0210616085678339,0.0124880950897932
1768728733162,-0.0865325927734375,-0.9953155517578124,-0.004547119140625,0.0621573813259601,0.0187593065202236,0.0131986262276768
1768728733172,-0.0888519287109375,-0.9966278076171876,0.003326416015625,0.0526403076946735,0.02013536170125,0.0129874376580119
1768728733182,-0.090606689453125,-0.9975128173828124,0.0081329345703125,0.0390501953661441,0.0222837347537279,0.0099836578592658
1768728733192,-0.0922088623046875,-0.996429443359375,0.011566162109375,0.0291339177638292,0.0146628320217132,0.0059894490987062
1768728733202,-0.09246826171875,-0.997314453125,0.01495361328125,0.0164596661925315,0.0074406056664884,-0.0007400924805551
1768728733212,-0.09332275390625,-0.9969940185546876,0.0161285400390625,0.003827495034784,0.0033305492252111,-0.0057630804367363
1768728733222,-0.0958251953125,-0.996917724609375,0.0159149169921875,-0.0099216066300868,0.0021385182626545,-0.0095319859683513
1768728733232,-0.0967254638671875,-0.9976043701171876,0.0134735107421875,-0.0217084903270006,0.006002765148878,-0.0142764076590538
1768728733242,-0.0942535400390625,-0.998291015625,0.00994873046875,-0.0301254112273454,0.004553472623229,-0.0172026883810758
1768728733253,-0.0909271240234375,-0.9993133544921876,0.0060882568359375,-0.0378365963697433,0.0044858283363282,-0.0167688596993684
1768728733262,-0.0878143310546875,-0.99884033203125,0.0027923583984375,-0.0429818220436573,0.0071428641676902,-0.0115887457504868
1768728733273,-0.0841827392578125,-1.000732421875,0.0008392333984375,-0.0426276214420795,0.0054861116223037,-0.0029273466207087
1768728733283,-0.0788726806640625,-1.000457763671875,-0.0037841796875,-0.0431538634002208,0.0073170349933207,0.0055204667150974
1768728733293,-0.0752410888671875,-0.9980316162109376,-0.00714111328125,-0.0345760881900787,0.0080579267814755,0.0129501530900597
1768728733303,-0.0787506103515625,-0.9904327392578124,-0.012969970703125,-0.0224672257900238,0.008650479838252,0.0148279480636119
1768728733313,-0.086181640625,-0.986785888671875,-0.0190277099609375,-0.0094289220869541,0.0032418658956885,0.0129149993881583
1768728733323,-0.0916900634765625,-0.9835662841796876,-0.019439697265625,0.0056810551322996,0.0067891962826251,0.0070885359309613
1768728733333,-0.1010894775390625,-0.973785400390625,-0.023895263671875,0.0233814883977174,0.0249708630144596,-0.0040578586049377
1768728733343,-0.1055145263671875,-0.9778900146484376,-0.0258941650390625,0.0384770855307579,0.0343244187533855,-0.0105477161705493
1768728733353,-0.0887451171875,-0.990447998046875,-0.0160064697265625,0.0427916720509529,0.0261106956750154,-0.0018764632986858
1768728733363,-0.072723388671875,-0.99530029296875,-0.00225830078125,0.0415841937065124,0.0229127723723649,0.0130894370377063
1768728733373,-0.0782012939453125,-0.9959716796875,0.0029144287109375,0.0365801155567169,0.0215369835495948,0.0183465164154768
1768728733385,-0.0891265869140625,-0.99798583984375,0.00439453125,0.0303437914699316,0.0214459039270877,0.0142431184649467
1768728733393,-0.0980072021484375,-0.998291015625,0.0120697021484375,0.0169100072234869,0.0201342962682247,0.0077703050337731
1768728733404,-0.0997467041015625,-0.99884033203125,0.0130157470703125,-0.0006173207075335,0.0237620547413826,-0.0023473100736737
1768728733413,-0.0979156494140625,-1.00048828125,0.0145721435546875,-0.0142071656882762,0.0131309824064373,-0.0093351788818836
1768728733423,-0.0933074951171875,-1.001251220703125,0.0140533447265625,-0.0296939797699451,0.0066365972161293,-0.0158197097480297
1768728733433,-0.089813232421875,-1.00018310546875,0.0102081298828125,-0.0411975048482418,-0.0042581283487379,-0.0191979296505451
1768728733443,-0.0878448486328125,-0.998992919921875,0.00714111328125,-0.0481382347643375,-0.012761334888637,-0.0171962976455688
1768728733453,-0.0870208740234375,-0.99658203125,0.0009918212890625,-0.0484405048191547,-0.0156426094472408,-0.0141509724780917
1768728733463,-0.08349609375,-0.9966278076171876,-0.0068817138671875,-0.0467800237238407,-0.0095476983115077,-0.0109959254041314
1768728733473,-0.081390380859375,-0.994049072265625,-0.013153076171875,-0.0372632145881652,-0.0031119037885218,-0.0007006776868365
1768728733484,-0.08349609375,-0.9889068603515624,-0.0175018310546875,-0.0207313764840364,0.0026980484835803,0.0006748450105078
1768728733494,-0.0849609375,-0.9898681640625,-0.021759033203125,-0.0057026268914341,0.0121757062152028,0.0018993664998561
1768728733504,-0.0831146240234375,-0.9883575439453124,-0.026702880859375,0.0129685290157794,0.0136708049103617,0.0088944248855113
1768728733514,-0.0834503173828125,-0.9845733642578124,-0.0244140625,0.0305509846657514,0.0118127176538109,0.0133946351706981
1768728733524,-0.0867767333984375,-0.9871826171875,-0.0224609375,0.0448734648525714,0.0195265635848045,0.0135600175708532
1768728733534,-0.0879058837890625,-0.9889068603515624,-0.017303466796875,0.0536086335778236,0.0182684864848852,0.0161683168262243
1768728733544,-0.087646484375,-0.991363525390625,-0.009674072265625,0.0580412000417709,0.0138795962557196,0.0177520997822284
1768728733554,-0.089599609375,-0.995025634765625,-9.1552734375e-05,0.0542565807700157,0.0163603313267231,0.0162106622010469
1768728733564,-0.09393310546875,-0.996124267578125,0.0052490234375,0.0498027093708515,0.0221345964819192,0.0113115105777978
1768728733574,-0.095001220703125,-0.9978485107421876,0.007843017578125,0.0408124104142189,0.0239093266427516,0.0073857447132468
1768728733584,-0.0922393798828125,-0.9994049072265624,0.0141754150390625,0.0219590943306684,0.0223183557391166,0.0019497001776471
1768728733594,-0.09320068359375,-0.997467041015625,0.0169219970703125,0.0095208007842302,0.0204253792762756,-0.0020999026019126
1768728733604,-0.097259521484375,-0.994903564453125,0.0194854736328125,-0.0026730147656053,0.0069564431905746,-0.004179298877716
1768728733614,-0.0993499755859375,-0.9935455322265624,0.019378662109375,-0.0152082480490207,0.0111935324966907,-0.0119165806099772
1768728733624,-0.0958404541015625,-0.996795654296875,0.0130767822265625,-0.0260337311774492,0.0106345349922776,-0.014590660110116
1768728733634,-0.0939483642578125,-0.9958343505859376,0.01171875,-0.0322173237800598,0.0093005569651722,-0.015271364711225
1768728733644,-0.0912017822265625,-0.99493408203125,0.0045013427734375,-0.0344940610229969,0.009239038452506,-0.0167944263666868
1768728733654,-0.08709716796875,-0.994903564453125,0.00054931640625,-0.0356791689991951,0.0080978740006685,-0.0153557863086462
1768728733664,-0.08819580078125,-0.9955291748046876,-0.0013580322265625,-0.0326229259371757,0.0013566142879426,-0.0151565819978713
1768728733674,-0.089569091796875,-0.993438720703125,-0.0045928955078125,-0.0299765411764383,-0.0036914076190441,-0.0196296274662017
1768728733685,-0.0913848876953125,-0.991790771484375,-0.0059661865234375,-0.0277589261531829,-0.0023699470330029,-0.0218227412551641
1768728733695,-0.0888824462890625,-0.9893646240234376,-0.0080413818359375,-0.024732245132327,0.0019619506783783,-0.0141235422343015
1768728733705,-0.0862884521484375,-0.9902801513671876,-0.0102386474609375,-0.0113368099555373,0.0067508472129702,-0.0107884658500552
1768728733715,-0.087738037109375,-0.9894561767578124,-0.0161285400390625,-0.0008562062866985,0.0124358972534537,-0.0074784224852919
1768728733725,-0.0842132568359375,-0.991485595703125,-0.0157318115234375,0.0089130671694874,0.0120169818401336,-0.0027374632190912
1768728733735,-0.079437255859375,-0.994049072265625,-0.0126495361328125,0.0137613518163561,0.0117075219750404,0.0025086977984756
1768728733745,-0.0799407958984375,-0.9956207275390624,-0.009033203125,0.0177443753927946,0.0146164931356906,0.0075322184711694
1768728733755,-0.083160400390625,-0.99432373046875,-0.0082550048828125,0.0211303196847438,0.0161009393632411,0.0084097301587462
1768728733765,-0.0849456787109375,-0.9928131103515624,-0.0065155029296875,0.0246371701359748,0.0205497499555349,0.0073820161633193
1768728733775,-0.0854644775390625,-0.9946746826171876,-0.005401611328125,0.0252760611474514,0.0223487149924039,0.0077564567327499
1768728733785,-0.08721923828125,-0.9957733154296876,-0.003387451171875,0.0270137749612331,0.0238073281943798,0.0067844027653336
1768728733795,-0.086761474609375,-0.9968109130859376,-0.000732421875,0.0267836768180131,0.0172391738742589,0.0042141862213611
1768728733805,-0.0877227783203125,-0.997833251953125,0.0071258544921875,0.0185510478913784,0.0078115840442478,0.0032506543211638
1768728733815,-0.0910186767578125,-0.99566650390625,0.0083465576171875,0.0083375582471489,0.0096670081838965,0.0029457225464284
1768728733825,-0.0936737060546875,-0.9934234619140624,0.008514404296875,0.0044269724749028,0.0074746944010257,-0.0004535363405011
1768728733835,-0.09759521484375,-0.988525390625,0.004913330078125,0.0021252024453133,0.0115535920485854,-0.0052168662659823
1768728733845,-0.0999603271484375,-0.9857635498046876,0.00396728515625,-0.0002410160814179,0.0156838875263929,-0.0082954801619052
1768728733855,-0.098663330078125,-0.9906158447265624,0.0019989013671875,-9.614011651137844e-05,0.0172101464122533,-0.0118257664144039
1768728733865,-0.09429931640625,-0.9969024658203124,0.00213623046875,-0.0065825353376567,0.0192410722374916,-0.0071591096930205
1768728733876,-0.083038330078125,-1.0009613037109375,0.0061187744140625,-0.0074581825174391,0.0136388465762138,-0.0016559535870328
1768728733886,-0.079071044921875,-1.001434326171875,0.0057525634765625,-0.0050472230650484,0.0006103964988142,0.0040980721823871
1768728733896,-0.0820465087890625,-0.995208740234375,0.002593994140625,-0.0057777278125286,0.0019837887957692,-0.0009867012267932
1768728733906,-0.08905029296875,-0.9876251220703124,-0.0019378662109375,-0.0036448021419346,0.0012697952333837,-0.0037127127870917
1768728733918,-0.0976104736328125,-0.97552490234375,-0.005706787109375,0.0068174260668456,0.0033949976786971,-0.0195233672857284
1768728733926,-0.111572265625,-0.9725799560546876,-0.0155487060546875,0.0179941803216934,0.0074762920849025,-0.0376938506960868
1768728733936,-0.10595703125,-0.985260009765625,-0.0112457275390625,0.0140529684722423,0.0117376158013939,-0.0331054888665676
1768728733946,-0.08428955078125,-0.99993896484375,0.001434326171875,0.0101477093994617,0.01758405379951,-0.0219977106899023
1768728733956,-0.073028564453125,-1.00299072265625,0.00579833984375,0.0109152318909764,0.0185084361582994,-0.0122334966436028
1768728733966,-0.0726318359375,-1.0108489990234375,0.002716064453125,0.0123781058937311,0.0158529989421367,-0.0096379797905683
1768728733976,-0.0672607421875,-1.012969970703125,0.005859375,0.0102627575397491,0.0128777157515287,0.0045116613619029
1768728733986,-0.0671234130859375,-1.0061187744140625,0.0100860595703125,0.0128521490842103,0.0109509183093905,0.0144340666010975
1768728733996,-0.0791778564453125,-0.9945831298828124,0.003631591796875,0.0151331461966037,0.0159382205456495,0.0131275197491049
1768728734006,-0.0956268310546875,-0.9833526611328124,-0.002044677734375,0.0215361844748258,0.0230264887213706,0.0036203011404722
1768728734016,-0.1055145263671875,-0.98272705078125,-0.002777099609375,0.0220459140837192,0.0287131369113922,-0.006982275750488
1768728734026,-0.1002044677734375,-0.988922119140625,0.0012664794921875,0.0159414149820804,0.0269890073686838,-0.0131765222176909
1768728734036,-0.0915679931640625,-0.99591064453125,0.00885009765625,0.0015219965716823,0.0198852904140949,-0.0114140417426824
1768728734046,-0.0840301513671875,-0.9990692138671876,0.0146484375,-0.0155209023505449,0.0104446513578295,-0.0099612874910235
1768728734056,-0.0853271484375,-0.998199462890625,0.0149383544921875,-0.0218038316816091,-0.0060799969360232,-0.0125994151458144
1768728734066,-0.0919342041015625,-0.9969024658203124,0.008819580078125,-0.0288859773427248,-0.0024730113800615,-0.0228592436760664
1768728734076,-0.0911865234375,-0.99603271484375,0.001068115234375,-0.0327222608029842,0.0008450209861621,-0.0281285736709833
1768728734087,-0.0835418701171875,-0.99664306640625,-0.0005035400390625,-0.0348027199506759,0.0025811356026679,-0.0259248074144125
1768728734096,-0.078521728515625,-0.994415283203125,-0.0048065185546875,-0.0289352443069219,-0.002600310370326,-0.0152881424874067
1768728734107,-0.0798797607421875,-0.9880523681640624,-0.0119171142578125,-0.0109157646074891,0.0079870866611599,-0.0054075485095381
1768728734117,-0.080230712890625,-0.9852142333984376,-0.0214691162109375,0.0107362670823931,0.0269698314368724,0.0028700886759907
1768728734127,-0.077301025390625,-0.990234375,-0.02392578125,0.0331313200294971,0.0284678600728511,0.0099594239145517
1768728734137,-0.0790557861328125,-0.9915771484375,-0.01953125,0.0468119792640209,0.024794029071927,0.0128585407510399
1768728734147,-0.0848388671875,-0.9934539794921876,-0.01409912109375,0.0584952682256698,0.0246406309306621,0.0095245288684964
1768728734157,-0.0867919921875,-0.993621826171875,-0.00909423828125,0.0616191551089286,0.0240749754011631,0.0094065507873892
1768728734167,-0.0844268798828125,-0.9942626953125,0.00201416015625,0.0601357743144035,0.024388164281845,0.0124241793528199
1768728734177,-0.08551025390625,-0.9941864013671876,0.0098724365234375,0.056016132235527,0.0216448418796062,0.0141552332788705
1768728734187,-0.0888824462890625,-0.9973297119140624,0.0128326416015625,0.0480841733515262,0.0208682641386985,0.0150069128721952
1768728734197,-0.086578369140625,-0.9963226318359376,0.0205078125,0.0344051122665405,0.0180556997656822,0.0113671701401472
1768728734207,-0.08953857421875,-0.999114990234375,0.0250701904296875,0.0179470423609018,0.0085567366331815,0.0041979406960308
1768728734217,-0.0943145751953125,-1.00030517578125,0.0267333984375,0.0022919164039194,0.0047793090343475,-0.0035673042293637
1768728734227,-0.0943756103515625,-0.997711181640625,0.026824951171875,-0.0143533730879426,0.0019837887957692,-0.0107367997989058
1768728734237,-0.0944061279296875,-0.9969940185546876,0.02716064453125,-0.0312338192015886,0.0055574844591319,-0.0131126064807176
1768728734248,-0.0916595458984375,-0.9996185302734376,0.0222930908203125,-0.0434065945446491,0.0042709112167358,-0.0157291609793901
1768728734257,-0.091400146484375,-1.0000152587890625,0.0208740234375,-0.0544089116156101,0.0061758705414831,-0.0155432736501097
1768728734267,-0.0865936279296875,-1.000701904296875,0.017730712890625,-0.0615352652966976,0.0026732811238616,-0.0113538550212979
1768728734277,-0.084808349609375,-0.99896240234375,0.01025390625,-0.0614079684019088,-0.0052267201244831,-0.0120979417115449
1768728734287,-0.0869140625,-0.992828369140625,0.0011444091796875,-0.0585306882858276,-0.0061678811907768,-0.0151874748989939
1768728734297,-0.091064453125,-0.9867401123046876,-0.0070953369140625,-0.0494812652468681,-0.0063465791754424,-0.0199500061571598
1768728734308,-0.0926361083984375,-0.9814300537109376,-0.0151824951171875,-0.0356778353452682,0.0026565031148493,-0.0213716011494398
1768728734318,-0.091278076171875,-0.9832305908203124,-0.0204925537109375,-0.022568691521883,0.007506385911256,-0.0206624008715152
1768728734327,-0.0809173583984375,-0.9883575439453124,-0.0179595947265625,-0.0115991318598389,0.0059207398444414,-0.0132036861032247
1768728734338,-0.0721282958984375,-0.9918212890625,-0.0141448974609375,0.0049841059371829,0.0028232170734554,-0.0009515474666841
1768728734348,-0.0732574462890625,-0.99383544921875,-0.0113983154296875,0.0209521539509296,0.0073135728016495,0.0072845444083213
1768728734358,-0.0749664306640625,-0.9957275390625,-0.0130767822265625,0.0317275710403919,0.0151762897148728,0.0109423957765102
1768728734368,-0.078155517578125,-0.996002197265625,-0.006744384765625,0.0350605137646198,0.0218754708766937,0.0156780295073986
1768728734378,-0.0821380615234375,-0.9946136474609376,0.001678466796875,0.0332141444087028,0.0267855413258075,0.0175771284848451
1768728734388,-0.0869293212890625,-0.9967803955078124,0.002532958984375,0.0331718027591705,0.0242619290947914,0.0114800883457064
1768728734398,-0.0886077880859375,-0.997802734375,0.003997802734375,0.0247167982161045,0.0232861470431089,0.0089580751955509
1768728734408,-0.0870513916015625,-0.997314453125,0.0103607177734375,0.0127110015600919,0.0212512258440256,0.0045236456207931
1768728734418,-0.0883941650390625,-0.9971466064453124,0.0123291015625,0.0054427022114396,0.0125871645286679,0.002217347966507
1768728734428,-0.0893402099609375,-0.9940643310546876,0.011474609375,7.430219557136297e-05,0.009106945246458,-0.0032091091852635
1768728734438,-0.0891265869140625,-0.9954833984375,0.0097503662109375,-0.0064038368873298,0.0145632298663258,-0.0010258496040478
1768728734451,-0.0847930908203125,-0.9985198974609376,0.0122833251953125,-0.015220764093101,0.0106244143098592,0.002331863855943
1768728734458,-0.0834503173828125,-0.9972686767578124,0.012298583984375,-0.0163331665098667,0.0067132962867617,0.0039041941054165
1768728734468,-0.0872650146484375,-0.9966583251953124,0.0059356689453125,-0.0134721333160996,-0.0031380027066916,0.0013318468118086
1768728734478,-0.0890960693359375,-0.99462890625,0.004119873046875,-0.0081122545525431,-0.0099999038502573,-0.0045532062649726
1768728734488,-0.091705322265625,-0.9907379150390624,-0.000640869140625,-0.0014245248166844,-0.0065849320963025,-0.0096912430599331
1768728734498,-0.0923004150390625,-0.98870849609375,-0.003204345703125,0.00379393924959,0.0040711741894483,-0.0072166337631642
1768728734508,-0.091064453125,-0.9859619140625,-0.0016632080078125,0.0064592310227453,0.0138939777389168,-0.0068989186547696
1768728734518,-0.08642578125,-0.987335205078125,-0.0037689208984375,0.0085210502147674,0.0169006865471601,-0.0015225291717797
1768728734528,-0.082977294921875,-0.9918975830078124,-0.001007080078125,0.0130902351811528,0.0062704128213226,0.0008311725687235
1768728734539,-0.08343505859375,-0.9944610595703124,0.001708984375,0.0148668307811021,0.0021856562234461,-0.000442084739916
1768728734549,-0.08343505859375,-0.994842529296875,0.00482177734375,0.0115972673520445,0.0060336575843393,4.0746363083599135e-05
1768728734559,-0.0816192626953125,-0.9958038330078124,0.008819580078125,0.0062850601971149,0.0077327545732259,0.0046946201473474
1768728734569,-0.08258056640625,-0.9973602294921876,0.01385498046875,-0.0031672974582761,0.0109075084328651,0.0053862431086599
1768728734579,-0.0883026123046875,-0.9964752197265624,0.0137176513671875,-0.0079239690676331,0.0043121902272105,0.0028839372098445
1768728734589,-0.09222412109375,-0.995880126953125,0.01226806640625,-0.0094180032610893,-0.0009821738349273,-0.002755839144811
1768728734599,-0.091583251953125,-0.9959564208984376,0.0115203857421875,-0.0154993310570716,-0.0035025894176214,-0.0045263087376952
1768728734609,-0.0896148681640625,-0.9959564208984376,0.011444091796875,-0.0230198316276073,-0.0027126958593726,-0.0050227218307554
1768728734619,-0.091766357421875,-0.9935302734375,0.009521484375,-0.0242440868169069,-0.0013507553376257,-0.0098161455243825
1768728734629,-0.0941009521484375,-0.9930267333984376,0.0051116943359375,-0.0234890803694725,-0.0011076086666435,-0.0161334294825792
1768728734639,-0.0914306640625,-0.9936676025390624,0.0034332275390625,-0.0245420951396226,0.0049596047028899,-0.0204402934759855
1768728734649,-0.086822509765625,-0.993743896484375,0.0017852783203125,-0.024014787748456,0.0023331954143941,-0.0184514448046684
1768728734659,-0.083587646484375,-0.9954986572265624,0.0004119873046875,-0.0218578949570655,-0.0017949705943465,-0.0155414091423153
1768728734669,-0.08221435546875,-0.9930877685546876,-0.0002593994140625,-0.0191952660679817,0.0016394419362768,-0.0135525604709982
1768728734679,-0.07977294921875,-0.9930267333984376,-0.00115966796875,-0.0196703746914863,0.0078515317291021,-0.0070917317643761
1768728734689,-0.07867431640625,-0.9952850341796876,-0.002685546875,-0.0132391061633825,0.005183576606214,-0.003548395819962
1768728734699,-0.079742431640625,-0.9940032958984376,-0.0048065185546875,-0.0041105891577899,0.0022327941842377,-0.0031294806394726
1768728734709,-0.0810394287109375,-0.9935150146484376,-0.0052490234375,0.0013307816116139,-0.0018367822049185,-0.0021726067643612
1768728734719,-0.084381103515625,-0.9938201904296876,-0.0021820068359375,0.0054946336895227,0.0001001348573481,-0.0001419464824721
1768728734729,-0.0838775634765625,-0.9934234619140624,-0.0054931640625,0.0094409063458442,0.0040839575231075,0.0015076154377311
1768728734739,-0.084381103515625,-0.9935455322265624,-0.004608154296875,0.015393603593111,0.0057827881537377,0.0040562604553997
1768728734750,-0.0828399658203125,-0.9936981201171876,-0.0056915283203125,0.0190205629914999,0.008419849909842,0.0053044841624796
1768728734759,-0.080902099609375,-0.9940338134765624,-0.0020751953125,0.0200437493622303,0.0067753479816019,0.0083681847900152
1768728734770,-0.0828704833984375,-0.9950408935546876,0.000640869140625,0.0219995751976966,0.0056056878529489,0.005421929527074
1768728734780,-0.08245849609375,-0.995849609375,0.0034332275390625,0.0181398559361696,0.0095652751624584,0.0049228533171117
1768728734790,-0.081024169921875,-0.9947662353515624,0.0070953369140625,0.0193342827260494,0.0019560917280614,0.0117203053086996
1768728734800,-0.0827178955078125,-0.993438720703125,0.009185791015625,0.0184618309140205,0.0036823528353124,0.0133823845535516
1768728734810,-0.086944580078125,-0.992645263671875,0.005706787109375,0.0190027188509702,0.0091953622177243,0.0139182126149535
1768728734820,-0.08837890625,-0.9907989501953124,0.0047607421875,0.0191803518682718,0.0111101754009723,0.0073279538191854
1768728734830,-0.0935821533203125,-0.989349365234375,0.006805419921875,0.0160724427551031,0.0128359040245413,-0.0030458574183285
1768728734840,-0.097259521484375,-0.9904022216796876,0.01031494140625,0.0078275632113218,0.0103186834603548,-0.0067646955139935
1768728734850,-0.098785400390625,-0.992401123046875,0.01605224609375,0.0026517093647271,0.0032392027787864,-0.008823319338262
1768728734860,-0.0950164794921875,-0.99853515625,0.016876220703125,-0.0095298560336232,0.0085663236677646,-0.0125173898413777
1768728734870,-0.084747314453125,-1.00445556640625,0.0195465087890625,-0.0223822705447673,0.0048293764702975,-0.0062853265553712
1768728734880,-0.076263427734375,-1.000885009765625,0.0211181640625,-0.0315382182598114,0.0055460329167544,-0.0060395165346562
1768728734890,-0.0811309814453125,-0.99652099609375,0.0161285400390625,-0.0386267527937889,-0.0016077503096312,-0.0094385091215372
1768728734900,-0.088592529296875,-0.989044189453125,0.01116943359375,-0.0413386523723602,-0.0100843254476785,-0.0148732215166091
1768728734910,-0.1025848388671875,-0.9736328125,0.0032501220703125,-0.0317086614668369,-0.0007246461464092,-0.0266720913350582
1768728734920,-0.116180419921875,-0.9756927490234376,-0.0069732666015625,-0.0180152188986539,0.0024802018888294,-0.0419786088168621
1768728734930,-0.1031951904296875,-0.989501953125,-0.0076904296875,-0.0172807201743125,0.0066858660429716,-0.0373095534741878
1768728734940,-0.0787811279296875,-0.9971466064453124,-0.0014190673828125,-0.0158495362848043,-0.0006852313526906,-0.0248483587056398
1768728734950,-0.069793701171875,-1.0018157958984375,0.000244140625,-0.0065069012343883,-0.0021134845446795,-0.0189244225621223
1768728734960,-0.0670318603515625,-1.0100555419921875,-0.0030059814453125,-0.0031449268572032,-0.0004207794554531,-0.0069575081579387
1768728734971,-0.0567169189453125,-1.0128326416015625,0.0040283203125,-0.004554271697998,-0.0051015513017773,0.0127959558740258
1768728734981,-0.057159423828125,-1.00457763671875,0.006378173828125,-0.0036770266015082,0.0017166736070066,0.0210512224584817
1768728734991,-0.0721588134765625,-0.992462158203125,-0.0020751953125,0.0032551817130297,0.0105032408609986,0.0204072706401348
1768728735001,-0.090484619140625,-0.9830169677734376,-0.0083160400390625,0.0170189309865236,0.0170703306794166,0.0031148332636803
1768728735011,-0.098052978515625,-0.9828643798828124,-0.0074462890625,0.0236992035061121,0.0128161963075399,-0.0042794337496161
1768728735021,-0.0926513671875,-0.98944091796875,0.00299072265625,0.0205135308206081,0.0021739383228123,-0.0049838395789265
1768728735031,-0.0871429443359375,-0.99786376953125,0.0111846923828125,0.0116031263023614,0.0079484703019261,-0.0078318240121006
1768728735041,-0.085906982421875,-0.9986419677734376,0.0125885009765625,0.0017446368001401,0.0016620787791907,-0.0110190948471426
1768728735051,-0.087066650390625,-0.997802734375,0.014373779296875,-0.0030631679110229,-0.0059929112903773,-0.0086968187242746
1768728735061,-0.089691162109375,-0.9927825927734376,0.010650634765625,-0.003402188187465,0.0001270327775273,-0.0137778641656041
1768728735071,-0.08917236328125,-0.9939727783203124,0.0060272216796875,-0.0102744754403829,0.0153840165585279,-0.0116044580936431
1768728735081,-0.07958984375,-1.0000457763671875,0.00897216796875,-0.0191289540380239,0.0156780295073986,-0.0063689495436847
1768728735091,-0.0772247314453125,-0.99737548828125,0.007110595703125,-0.0177329238504171,0.0102076297625899,-0.0060613546520471
1768728735101,-0.0797271728515625,-0.9931488037109376,-0.0038909912109375,-0.0142641570419073,0.0108601041138172,-0.0043577305041253
1768728735111,-0.08160400390625,-0.988433837890625,-0.01123046875,-0.0010037453612312,0.0108302775770425,-0.0028210864402353
1768728735121,-0.0843963623046875,-0.9881591796875,-0.0125885009765625,0.0121743744239211,0.0098656797781586,4.953479583491571e-05
1768728735131,-0.083709716796875,-0.9898834228515624,-0.0143890380859375,0.0283592026680707,0.0132673354819417,0.0006988134700804
1768728735141,-0.083282470703125,-0.98907470703125,-0.012451171875,0.0410334542393684,0.0105386609211564,0.0042325616814196
1768728735152,-0.0802764892578125,-0.991455078125,-0.0077362060546875,0.0514072626829147,0.0079647153615951,0.0097098853439092
1768728735161,-0.0797576904296875,-0.9930877685546876,0.0002593994140625,0.0536405928432941,0.0040104542858898,0.0094329165294766
1768728735171,-0.08349609375,-0.997314453125,0.008056640625,0.0511761009693145,0.0130942305549979,0.010858773253858
1768728735182,-0.0850372314453125,-0.9979095458984376,0.0122528076171875,0.0486287884414196,0.0283227171748876,0.0153677705675363
1768728735192,-0.0828399658203125,-0.995361328125,0.0128173828125,0.0506304204463958,0.0314154475927352,0.0279397554695606
1768728735202,-0.0826263427734375,-0.994354248046875,0.0143585205078125,0.0490791276097297,0.0269903391599655,0.0260547697544097
1768728735212,-0.0838775634765625,-0.9973907470703124,0.014190673828125,0.0407338477671146,0.0328040197491645,0.024498950690031
1768728735222,-0.0841827392578125,-0.9960784912109376,0.01715087890625,0.0299685522913932,0.0315075926482677,0.0219215434044599
1768728735232,-0.0846405029296875,-0.9962921142578124,0.017974853515625,0.0200661197304725,0.0271724984049797,0.0178405158221721
1768728735242,-0.087921142578125,-0.996124267578125,0.0185546875,0.0128606706857681,0.0250132083892822,0.0141618913039565
1768728735252,-0.0885162353515625,-0.9951629638671876,0.016357421875,0.0091295829042792,0.0189968608319759,0.0128140654414892
1768728735262,-0.0867462158203125,-0.9968719482421876,0.0159149169921875,0.0040674461051821,0.0179459769278764,0.0132875759154558
1768728735272,-0.08636474609375,-0.996185302734375,0.015106201171875,-0.0015350460307672,0.0134883783757686,0.0082195801660418
1768728735284,-0.092437744140625,-0.9863433837890624,0.010162353515625,-0.0001885517995106,0.0112760905176401,-0.0032700954470783
1768728735292,-0.0966949462890625,-0.9893341064453124,0.0027618408203125,-0.0008072041091509,0.0068003819324076,-0.0079500684514641
1768728735302,-0.09112548828125,-0.9931640625,0.008514404296875,-0.0033590451348572,-0.0004958806093782,-0.0062733422964811
1768728735312,-0.0859527587890625,-0.9922332763671876,0.0137176513671875,-0.0060546966269612,-0.0005605954211205,-0.0028977855108678
1768728735322,-0.085601806640625,-0.9947509765625,0.00927734375,-0.0025441178586333,-0.0007605988066643,-0.0048786448314785
1768728735332,-0.0840911865234375,-0.9947052001953124,0.0084228515625,0.0013957626651972,0.0003336940717417,-0.0004868258547503
1768728735342,-0.080841064453125,-0.9931182861328124,0.010650634765625,0.00243785767816,0.0020000338554382,0.0050416300073266
1768728735352,-0.07965087890625,-0.9950714111328124,0.0133514404296875,0.000573112280108,0.0117211043834686,0.0076264943927526
1768728735362,-0.08355712890625,-0.99664306640625,0.0125579833984375,-0.0001459412305848,0.0111730257049202,0.0060954429209232
1768728735372,-0.0864715576171875,-0.9949188232421876,0.0111083984375,-0.000213319202885,0.0107517139986157,0.0026567694731056
1768728735383,-0.0885162353515625,-0.9951629638671876,0.0081634521484375,0.000868190487381,0.0103253414854407,-0.003597664181143
1768728735393,-0.09075927734375,-0.9939727783203124,0.0098419189453125,0.004373709205538,-0.003393666120246,-0.0026799389161169
1768728735403,-0.0903778076171875,-0.9916534423828124,0.01019287109375,-0.0004484763194341,0.0054496265947818,-0.0022730079945176
1768728735413,-0.08746337890625,-0.9920196533203124,0.007965087890625,0.0005709817050956,0.0070949275977909,-0.0018855180824175
1768728735423,-0.086090087890625,-0.9936370849609376,0.004364013671875,0.0039406795985996,0.0063678845763206,-0.0031963258516043
1768728735433,-0.0836029052734375,-0.997314453125,0.0037384033203125,0.006589725613594,0.0080283656716346,-0.0014415690675377
1768728735443,-0.0801544189453125,-0.99908447265625,0.0072479248046875,0.0061793327331542,0.0098342550918459,-0.0021142836194485
1768728735453,-0.079193115234375,-0.9978790283203124,0.0114288330078125,0.0033859428949654,0.0077897459268569,0.0061407168395817
1768728735463,-0.0795440673828125,-0.9977569580078124,0.0142974853515625,0.0031598405912518,0.0007371630053967,0.0143456496298313
1768728735473,-0.0836334228515625,-0.9919281005859376,0.012939453125,0.0012583435745909,0.0129016833379864,0.0161193143576383
1768728735483,-0.0872802734375,-0.9904327392578124,0.011688232421875,-0.001105744508095,0.021654162555933,0.0155997322872281
1768728735493,-0.09197998046875,-0.98870849609375,0.011016845703125,0.0035875441972166,0.0097341202199459,0.0108776809647679
1768728735503,-0.095733642578125,-0.9877777099609376,0.0072174072265625,0.0137983700260519,0.0034133736044168,0.0037622477393597
1768728735513,-0.09417724609375,-0.9892578125,0.0021514892578125,0.0172711312770843,0.0095149418339133,0.0008820389630272
1768728735523,-0.09027099609375,-0.988677978515625,0.00714111328125,0.0220941174775362,0.0118020642548799,-0.0005350290448404
1768728735533,-0.0876312255859375,-0.9937286376953124,0.009124755859375,0.0201723799109458,0.0086475498974323,-0.0020437098573893
1768728735543,-0.0866241455078125,-0.9980010986328124,0.01483154296875,0.0137014314532279,0.0074011906981468,-0.0016644756542518
1768728735553,-0.0854949951171875,-0.9962310791015624,0.017791748046875,0.0057873153127729,0.0080920150503516,0.0002753708686213
1768728735563,-0.0860748291015625,-0.99658203125,0.020050048828125,-0.0031878037843853,0.0031182952225208,0.0031201594974845
1768728735573,-0.089385986328125,-0.99749755859375,0.022552490234375,-0.0099602220579981,0.0003605920064728,-0.0011582087026908
1768728735585,-0.0896453857421875,-0.99859619140625,0.019195556640625,-0.0191089790314435,0.0032605081796646,-0.0072533856146037
1768728735593,-0.0895233154296875,-0.9956512451171876,0.0182952880859375,-0.0246795136481523,0.0033795514609664,-0.0063665527850389
1768728735604,-0.087982177734375,-0.99517822265625,0.0147857666015625,-0.0243609994649887,0.0031140341889113,-0.0072922678664326
1768728735614,-0.0874786376953125,-0.9926910400390624,0.0108489990234375,-0.0210248585790395,0.0048586712218821,-0.0081625888124108
1768728735624,-0.08648681640625,-0.99224853515625,0.0077362060546875,-0.0158591233193874,0.0022594258189201,-0.0042581283487379
1768728735634,-0.0840606689453125,-0.9930267333984376,0.004608154296875,-0.0065186191350221,-0.0020122844725847,-0.0036144421901553
1768728735644,-0.085601806640625,-0.9922943115234376,0.00274658203125,-0.0043188482522964,0.0063961138948798,-0.0001821602199925
1768728735654,-0.082916259765625,-0.99139404296875,0.0024261474609375,0.0020780644845217,0.0070621706545352,0.0011387676931917
1768728735664,-0.08203125,-0.9935455322265624,0.0,0.0105610312893986,0.0084379594773054,0.0017393104499205
1768728735674,-0.0807647705078125,-0.9929962158203124,0.001983642578125,0.0117453392595052,0.0097900461405515,0.0073298183269798
1768728735684,-0.0814361572265625,-0.99169921875,0.0064544677734375,0.0156490001827478,0.0110507868230342,0.0080043971538543
1768728735694,-0.086456298828125,-0.9944000244140624,0.0064239501953125,0.0197172462940216,0.0064720138907432,0.0052986252121627
1768728735704,-0.088104248046875,-0.9949951171875,0.008575439453125,0.0208621378988027,0.0066696205176413,0.0056581520475447
1768728735714,-0.0884857177734375,-0.99407958984375,0.0132598876953125,0.0198240391910076,0.0094100134447216,0.0069519155658781
1768728735724,-0.0872802734375,-0.994293212890625,0.0145111083984375,0.0162253081798553,0.0150013202801346,0.0061692125163972
1768728735734,-0.085784912109375,-0.9965362548828124,0.013824462890625,0.0159368887543678,0.0116223013028502,0.0066813384182751
1768728735744,-0.08544921875,-0.9944915771484376,0.01507568359375,0.0130875725299119,0.0071423314511775,0.0066573699004948
1768728735754,-0.0875244140625,-0.9942779541015624,0.0165252685546875,0.0100813964381814,0.0029699571896344,0.0030024477746337
1768728735764,-0.0916595458984375,-0.9942474365234376,0.0158538818359375,0.0056624128483235,0.0057665426284074,-0.0043018041178584
1768728735774,-0.0914764404296875,-0.995147705078125,0.0176239013671875,-0.0012759204255416,0.0029134983196854,-0.0098832566291093
1768728735785,-0.0902862548828125,-0.9954071044921876,0.019317626953125,-0.0045145908370614,-0.0061513693071901,-0.0083202477544546
1768728735794,-0.091400146484375,-0.9924468994140624,0.0187835693359375,-0.0065694856457412,-0.0012096078135073,-0.0065369950607419
1768728735804,-0.0895538330078125,-0.990997314453125,0.0177764892578125,-0.0111879399046301,0.0112686334177851,-0.0045595979318022
1768728735815,-0.0899505615234375,-0.9914703369140624,0.0138397216796875,-0.0105490470305085,0.0116417426615953,-0.0038485340774059
1768728735825,-0.0892791748046875,-0.9906768798828124,0.012969970703125,-0.0046251118183135,0.0045899581164121,-0.0024527714122086
1768728735835,-0.09039306640625,-0.99066162109375,0.01019287109375,0.0027734159957617,-0.0014112089993432,-0.0028463865164667
1768728735845,-0.08941650390625,-0.9925689697265624,0.0083465576171875,0.0046935551799833,0.0074653732590377,-0.0031340080313384
1768728735855,-0.0860748291015625,-0.999114990234375,0.01202392578125,-6.498113361885771e-05,0.0133847808465361,2.9294771593413316e-05
1768728735865,-0.075592041015625,-1.0023956298828125,0.01898193359375,-0.0066501796245574,0.011110708117485,0.0068469871766865
1768728735875,-0.0749359130859375,-0.9976654052734376,0.018890380859375,-0.0098089547827839,0.0094691356644034,0.0096116149798035
1768728735885,-0.0826873779296875,-0.9918975830078124,0.013763427734375,-0.0062304651364684,-0.0084171872586011,0.0060317935422062
1768728735895,-0.0902862548828125,-0.9847564697265624,0.0130767822265625,-0.0053537525236606,-0.0112681007012724,-0.0030543794855475
1768728735905,-0.1063079833984375,-0.9720001220703124,0.00555419921875,0.0028394623659551,0.0026788737159222,-0.0248512867838144
1768728735915,-0.115997314453125,-0.9792022705078124,6.103515625e-05,0.0118542620912194,-0.0004069310089107,-0.0321888290345668
1768728735925,-0.100677490234375,-0.9901123046875,0.008026123046875,0.005593969952315,0.00789893604815,-0.0286966264247894
1768728735935,-0.080291748046875,-0.9996490478515624,0.0157928466796875,0.0010535465553402,0.0143754770979285,-0.0192237626761198
1768728735945,-0.073577880859375,-1.0054473876953125,0.018035888671875,0.0001504685933468,0.0147017147392034,-0.0084233125671744
1768728735955,-0.068084716796875,-1.015625,0.0204010009765625,-0.0035550536122173,0.0019499665359035,-0.0008633967954665
1768728735965,-0.0635833740234375,-1.0124969482421875,0.025543212890625,-0.0127754500135779,-0.0022485069930553,0.0128968898206949
1768728735975,-0.06829833984375,-1.003143310546875,0.025177001953125,-0.0174450371414423,-0.0010564760304987,0.0198730397969484
1768728735985,-0.0839385986328125,-0.9877166748046876,0.015594482421875,-0.0123352296650409,0.0085261100903153,0.0102321309968829
1768728735995,-0.10052490234375,-0.98162841796875,0.0054168701171875,-0.0024983114562928,0.0118292290717363,-0.0014373080339282
1768728736005,-0.1017913818359375,-0.9809417724609376,0.0030059814453125,0.003458913648501,0.0133030219003558,-0.0093927029520273
1768728736015,-0.093017578125,-0.9874267578125,0.007110595703125,0.0030482541769742,0.009786850772798,-0.0133070172742009
1768728736025,-0.085479736328125,-0.99688720703125,0.0124664306640625,-0.0007305050967261,0.0027201527263969,-0.0083870934322476
1768728736036,-0.082244873046875,-0.997406005859375,0.015777587890625,-0.0048056743107736,0.0023433153983205,-0.0057649449445307
1768728736046,-0.0853271484375,-0.99560546875,0.0134124755859375,-0.0092582134529948,0.0033582460600882,-0.009329586289823
1768728736055,-0.08587646484375,-0.9946441650390624,0.01495361328125,-0.0119786318391561,0.0024596955627202,-0.0087333042174577
1768728736066,-0.0846099853515625,-0.994720458984375,0.0098876953125,-0.0135967684909701,0.0017867147689685,-0.0122563997283577
1768728736076,-0.0820465087890625,-0.9965057373046876,0.0084075927734375,-0.0118318917229771,-0.0033393376506865,-0.0122769065201282
1768728736086,-0.0790252685546875,-0.9946746826171876,0.00628662109375,-0.0057130130007863,-0.0025563682429492,-0.0060472399927675
1768728736096,-0.0797576904296875,-0.99261474609375,0.004119873046875,0.0043055326677858,0.0008072041091509,-0.0032418658956885
1768728736106,-0.0825347900390625,-0.991180419921875,0.0011749267578125,0.014788799919188,0.0057388455606997,0.0016274576773867
1768728736116,-0.0838775634765625,-0.9897918701171876,0.0009613037109375,0.0244874991476535,0.0091407680884003,0.0046173888258636
1768728736126,-0.0870513916015625,-0.9882659912109376,0.00299072265625,0.0340285412967205,0.0160553995519876,0.0062507055699825
1768728736136,-0.0879669189453125,-0.9908905029296876,0.004364013671875,0.040223054587841,0.0184850003570318,0.0051164650358259
1768728736146,-0.0863189697265625,-0.9921722412109376,0.01080322265625,0.0406377092003822,0.0177374519407749,0.0094869788736104
1768728736156,-0.084869384765625,-0.993865966796875,0.017974853515625,0.0363313741981983,0.022433403879404,0.0090302461758255
1768728736166,-0.0850982666015625,-0.9972686767578124,0.02301025390625,0.031713455915451,0.0169566124677658,0.0084558026865124
1768728736176,-0.0876617431640625,-0.9976806640625,0.025726318359375,0.0236464738845825,0.0116707710549235,0.0058445734903216
1768728736186,-0.0883636474609375,-0.996826171875,0.0276947021484375,0.0163424871861934,0.0073468624614179,0.0031787490006536
1768728736196,-0.0894622802734375,-0.9960174560546876,0.0316009521484375,0.0034333472140133,0.00183278741315,0.0005118595436215
1768728736206,-0.08795166015625,-0.99957275390625,0.0364990234375,-0.0143650909885764,0.0040456079877913,-0.0068256817758083
1768728736216,-0.0899810791015625,-1.00067138671875,0.036102294921875,-0.030606111511588,-0.0014831144362688,-0.0112087121233344
1768728736226,-0.090667724609375,-0.9981842041015624,0.0312042236328125,-0.0425325483083725,-0.0036200347822159,-0.0141192814335227
1768728736236,-0.090728759765625,-0.9981689453125,0.0283966064453125,-0.0490386486053466,-0.0085543394088745,-0.014054300263524
1768728736247,-0.0880126953125,-0.9978485107421876,0.0247955322265625,-0.0561727248132228,-0.0070565780624747,-0.01187130715698
1768728736257,-0.0840606689453125,-0.99847412109375,0.019500732421875,-0.0583450645208358,-0.0099269328638911,-0.0113171031698584
1768728736267,-0.086669921875,-0.9933013916015624,0.0164947509765625,-0.0584470629692077,-0.007023821119219,-0.0136010302230715
1768728736277,-0.090301513671875,-0.98675537109375,0.008087158203125,-0.0496652908623218,-0.0045287054963409,-0.0160101260989904
1768728736287,-0.090728759765625,-0.9857940673828124,-0.0009307861328125,-0.0384603068232536,0.0016708672046661,-0.0143360625952482
1768728736297,-0.0859375,-0.986114501953125,-0.0037841796875,-0.0256220065057277,0.0059771984815597,-0.0109629025682806
1768728736307,-0.0811004638671875,-0.988433837890625,-0.004730224609375,-0.0064080981537699,0.0014056164072826,-0.0051492219790816
1768728736317,-0.0764923095703125,-0.992279052734375,-0.004364013671875,0.0052781188860535,0.002944657113403,0.0025435851421207
1768728736327,-0.071533203125,-0.9949188232421876,0.0004425048828125,0.0101999072358012,0.0066427225247025,0.0114928716793656
1768728736337,-0.072052001953125,-0.9958648681640624,0.0069580078125,0.0139853237196803,0.010413758456707,0.0151469949632883
1768728736347,-0.076324462890625,-0.9967041015625,0.009735107421875,0.0149302138015627,0.0097311902791261,0.0178333260118961
1768728736357,-0.081939697265625,-0.994384765625,0.0129547119140625,0.0152575159445405,0.0106691559776663,0.0187204238027334
1768728736367,-0.0874786376953125,-0.993621826171875,0.0134124755859375,0.0125488145276904,0.0172796547412872,0.0094022899866104
1768728736377,-0.0903472900390625,-0.994781494140625,0.0142974853515625,0.0081173153594136,0.0120033994317054,0.0038469361606985
1768728736387,-0.091461181640625,-0.9954071044921876,0.0183868408203125,0.0027297399938106,0.0067055732943117,0.0001262338337255
1768728736397,-0.09423828125,-0.99212646484375,0.0172119140625,0.0019070896087214,0.0037345506716519,-0.0062397862784564
1768728736407,-0.0906829833984375,-0.9943084716796876,0.0129547119140625,-4.021373388241045e-05,0.0003845604660455,-0.0097570233047008
1768728736418,-0.0862274169921875,-0.9952850341796876,0.0128173828125,-0.0033989925868809,0.0020788635592907,-0.0108696920797228
1768728736427,-0.0850067138671875,-0.9976043701171876,0.015228271484375,-0.0068475198931992,0.0027031085919588,-0.0086102662608027
1768728736437,-0.0829010009765625,-0.9977874755859376,0.017425537109375,-0.0089588742703199,0.0024402544368058,-0.0052181975916028
1768728736447,-0.08087158203125,-0.99713134765625,0.016845703125,-0.0107093695551157,0.0042903525754809,-0.0016988303977996
1768728736458,-0.079742431640625,-0.996307373046875,0.013580322265625,-0.0093253245577216,0.0051798480562865,0.0031292142812162
1768728736467,-0.081085205078125,-0.99139404296875,0.011260986328125,-0.0081253042444586,0.0062491074204444,0.0078896144405007
1768728736478,-0.0847930908203125,-0.989288330078125,0.01239013671875,0.0004503405361901,0.0043856934644281,0.0108766164630651
1768728736488,-0.08843994140625,-0.9903106689453124,0.010101318359375,0.007579356431961,0.0068158279173076,0.0094331828877329
1768728736498,-0.0863800048828125,-0.9903564453125,0.009735107421875,0.007782822009176,0.0071686971932649,0.0093394396826624
1768728736508,-0.0882110595703125,-0.9917144775390624,0.0131072998046875,0.0105945877730846,0.0074483286589384,0.0064552361145615
1768728736518,-0.0911407470703125,-0.9914703369140624,0.013153076171875,0.0096299899742007,0.0093727288767695,0.0010932276491075
1768728736528,-0.0912322998046875,-0.9934844970703124,0.0146331787109375,0.010147176682949,0.010954912751913,-0.0024506407789885
1768728736538,-0.088348388671875,-0.995635986328125,0.018035888671875,0.0045207161456346,0.0077679082751274,-0.0030344056431204
1768728736548,-0.086761474609375,-0.99627685546875,0.0212249755859375,0.0016655409708619,0.0085916239768266,-0.0011717908782884
1768728736558,-0.0884857177734375,-0.9964752197265624,0.0199432373046875,-0.0044096619822084,0.0067846691235899,-0.0031369375064969
1768728736568,-0.08648681640625,-0.9984283447265624,0.0208587646484375,-0.0120657179504632,0.0015209312550723,-0.0043944818899035
1768728736578,-0.0877227783203125,-0.996917724609375,0.022857666015625,-0.0204895623028278,-0.0016034892760217,-0.0017584852175787
1768728736588,-0.089691162109375,-0.9947509765625,0.0208282470703125,-0.0240001417696476,-0.0005728459218516,-0.0031364047899842
1768728736598,-0.087677001953125,-0.993072509765625,0.0159912109375,-0.0227748211473226,-0.002061819192022,-0.0043864925391972
1768728736608,-0.088287353515625,-0.9938812255859376,0.013214111328125,-0.0211995616555213,0.0024676851462572,-0.0048232511617243
1768728736618,-0.086883544921875,-0.99237060546875,0.0095367431640625,-0.0210131406784057,0.0065886606462299,-0.0068845376372337
1768728736628,-0.0845489501953125,-0.992645263671875,0.0083770751953125,-0.0183180216699838,0.0043782368302345,-0.0046253781765699
1768728736638,-0.0814666748046875,-0.9923858642578124,0.0075531005859375,-0.0138702755793929,-0.0018924422329291,-0.003018426708877
1768728736648,-0.083892822265625,-0.992340087890625,0.0061187744140625,-0.0096635464578866,0.0016255935188382,-0.006328469607979
1768728736658,-0.0854339599609375,-0.99212646484375,0.002349853515625,-0.0032578448299318,0.0061457767151296,-0.0055505600757896
1768728736669,-0.0834197998046875,-0.991119384765625,0.0020904541015625,0.0043577305041253,0.0053092776797711,-0.0051952945068478
1768728736678,-0.0812225341796875,-0.9933319091796876,0.0031280517578125,0.0103402556851506,0.0026924558915197,-0.0016974988393485
1768728736689,-0.081024169921875,-0.995269775390625,0.0052642822265625,0.0171598121523857,0.0017792579019442,0.0020738034509122
1768728736699,-0.07952880859375,-0.99578857421875,0.007843017578125,0.0178525000810623,0.0017401094082742,0.004162520635873
1768728736709,-0.0803985595703125,-0.9975433349609376,0.0135498046875,0.0157315582036972,0.0035859462805092,0.0067633637227118
1768728736719,-0.082244873046875,-0.9942779541015624,0.0146026611328125,0.0133882435038685,0.0051031494513154,0.0056730657815933
1768728736729,-0.0850372314453125,-0.9941864013671876,0.0152587890625,0.0133898416534066,-0.0021712752059102,0.0080659156665205
1768728736739,-0.0887603759765625,-0.9935760498046876,0.018096923828125,0.0130391027778387,-0.0001257012045243,0.0039462721906602
1768728736749,-0.090606689453125,-0.9925994873046876,0.0170745849609375,0.0112065821886062,0.0033678335603326,0.0032573123462498
1768728736759,-0.0876312255859375,-0.9947967529296876,0.0179595947265625,0.0092225270345807,0.0008737831376492,0.0004972121678292
1768728736769,-0.0862274169921875,-0.994415283203125,0.019744873046875,0.0018722022650763,0.0039691752754151,0.0001198422469315
1768728736779,-0.0869140625,-0.9932708740234376,0.018951416015625,-0.0013717942638322,0.0035036546178162,-0.0007419566973112
1768728736789,-0.089080810546875,-0.9907989501953124,0.0189666748046875,-0.0040892837569117,-0.0007004113867878,-0.0041236383840441
1768728736799,-0.09161376953125,-0.9902801513671876,0.0189971923828125,-0.0085231810808181,1.864212754298933e-05,-0.0052845105528831
1768728736809,-0.0963897705078125,-0.989227294921875,0.0181732177734375,-0.0046107308007776,-0.0061811967752873,-0.0117488009855151
1768728736819,-0.0995941162109375,-0.99212646484375,0.0166168212890625,-0.0083775054663419,-0.0032152342610061,-0.0210461635142564
1768728736829,-0.09503173828125,-0.993927001953125,0.0179595947265625,-0.016895892098546,-0.0017116136150434,-0.0244438238441944
1768728736839,-0.0886688232421875,-0.99627685546875,0.01922607421875,-0.022945262491703,-0.0025851305108517,-0.0210450980812311
1768728736849,-0.08203125,-0.99871826171875,0.02069091796875,-0.026934677734971,-0.0049593383446335,-0.0140367234125733
1768728736859,-0.078460693359375,-0.999298095703125,0.020660400390625,-0.0311438050121068,-0.008445949293673,-0.0106510464102029
1768728736870,-0.077728271484375,-0.998321533203125,0.0176544189453125,-0.0342056415975093,-0.0162791050970554,-0.0113165704533457
1768728736880,-0.080291748046875,-0.99322509765625,0.015380859375,-0.0332239978015422,-0.0252137444913387,-0.0086222505196928
1768728736890,-0.0912322998046875,-0.9789276123046876,0.0093536376953125,-0.0246097389608621,-0.0201390907168388,-0.0215002316981554
1768728736900,-0.109344482421875,-0.9737091064453124,-0.0051422119140625,-0.0113072488456964,-0.0100289322435855,-0.0399578027427196
1768728736910,-0.1043548583984375,-0.985076904296875,-0.0057373046875,-0.0061431135982275,-0.0115080513060092,-0.0430409424006938
1768728736920,-0.084381103515625,-0.9989013671875,0.0052490234375,-0.010921623557806,-0.0036591833923012,-0.0305919982492923
1768728736930,-0.06756591796875,-1.0027008056640625,0.0127105712890625,-0.0063870591111481,0.0043012714013457,-0.0165832377970218
1768728736940,-0.0596923828125,-1.01513671875,0.010498046875,0.0007427555974572,-0.0059732040390372,-0.0004532700113486
1768728736950,-0.0531768798828125,-1.0168609619140625,0.01641845703125,0.0007006776868365,-0.0134178046137094,0.0160934831947088
1768728736960,-0.0559234619140625,-1.0081939697265625,0.0216064453125,-0.0042461440898478,-0.003654389642179,0.0284236520528793
1768728736970,-0.072723388671875,-0.9955596923828124,0.017425537109375,0.0002090581401716,0.0030929953791201,0.0249998923391103
1768728736980,-0.092254638671875,-0.981353759765625,0.0073699951171875,0.007995874620974,0.0143411224707961,0.0132891740649938
1768728736990,-0.1018829345703125,-0.9790496826171876,0.0064697265625,0.011029215529561,0.0181100275367498,0.0008956210804171
1768728737000,-0.096710205078125,-0.9852447509765624,0.009002685546875,0.010293916799128,0.0173528920859098,-0.0012642025249078
1768728737010,-0.08685302734375,-0.9925994873046876,0.013031005859375,0.00849468447268,-0.0007475492893718,-0.0030035129748284
1768728737020,-0.0814666748046875,-0.99688720703125,0.0167694091796875,0.001430916483514,-0.0051079429686069,-0.0031260184478014
1768728737030,-0.083526611328125,-0.9987640380859376,0.0165557861328125,-0.0042261704802513,-0.0068504493683576,-0.0092837791889905
1768728737040,-0.08648681640625,-0.9975128173828124,0.0160980224609375,-0.0093122748658061,-0.0092025529593229,-0.015689481049776
1768728737050,-0.085418701171875,-0.99853515625,0.0135650634765625,-0.0153248943388462,-0.008412392809987,-0.0177640840411186
1768728737060,-0.0789947509765625,-0.9985198974609376,0.008880615234375,-0.0146689573302865,-0.0086448872461915,-0.0150724267587065
1768728737070,-0.074127197265625,-0.9967193603515624,0.005035400390625,-0.0092323804274201,-0.0030807447619736,-0.0058754659257829
1768728737081,-0.073150634765625,-0.99456787109375,0.0013427734375,0.0017795242602005,0.0029214876703917,0.0044749095104634
1768728737090,-0.073577880859375,-0.992218017578125,-0.0022430419921875,0.0185952559113502,0.0026000442449003,0.0138894505798816
1768728737101,-0.076812744140625,-0.991363525390625,-0.00592041015625,0.0353457406163215,0.0100513026118278,0.0189486574381589
1768728737111,-0.08013916015625,-0.9899139404296876,-0.0042572021484375,0.050293531268835,0.0104987137019634,0.0220139548182487
1768728737121,-0.08251953125,-0.990234375,0.0002593994140625,0.0583242923021316,0.0125964852049946,0.0253450367599725
1768728737131,-0.0814208984375,-0.992156982421875,0.0084381103515625,0.0623054504394531,0.0157307591289281,0.0291451029479503
1768728737141,-0.084503173828125,-0.995269775390625,0.0165557861328125,0.057342916727066,0.0190661028027534,0.0321600660681724
1768728737151,-0.082061767578125,-0.9971923828125,0.025299072265625,0.0515159219503402,0.0115938056260347,0.0328293181955814
1768728737161,-0.0844268798828125,-0.99749755859375,0.03155517578125,0.0407338477671146,0.0089663304388523,0.0314476713538169
1768728737171,-0.085540771484375,-0.9974212646484376,0.0325469970703125,0.0290063507854938,0.0002998719282913,0.0244273114949464
1768728737181,-0.088653564453125,-0.9962005615234376,0.0352935791015625,0.0151174338534474,-0.0051913000643253,0.0194008629769086
1768728737191,-0.0915679931640625,-0.996063232421875,0.03619384765625,-0.0003968109958805,-0.0078390147536993,0.0124982148408889
1768728737201,-0.0943603515625,-0.9959259033203124,0.03643798828125,-0.0140798659995198,-0.0062187472358345,0.00636229198426
1768728737211,-0.092926025390625,-0.997283935546875,0.033447265625,-0.02403449639678,-0.0091202612966299,0.0052837114781141
1768728737221,-0.0895233154296875,-0.9972686767578124,0.031982421875,-0.0367098115384578,-0.0056797238066792,0.0056400424800813
1768728737231,-0.0870208740234375,-0.9984588623046876,0.0302734375,-0.0441291108727455,-0.0067045078612864,0.0061415159143507
