timestamp_ms,acc_x,acc_y,acc_z,gyro_x,gyro_y,gyro_z
1769251536412,-0.096435546875,-0.369720458984375,-0.8770294189453125,-0.2261207550764084,0.2637461423873901,-0.0222642924636602
1769251536422,-0.0563201904296875,-0.35235595703125,-0.90399169921875,-0.212958350777626,0.2786233723163605,-0.0246390327811241
1769251536430,-0.0128021240234375,-0.330352783203125,-0.9538421630859376,-0.1741725951433181,0.2864727675914764,0.0023377228062599
1769251536440,0.0198516845703125,-0.319061279296875,-0.9868011474609376,-0.1668789982795715,0.233001559972763,-0.009114402346313
1769251536450,-0.0044097900390625,-0.32611083984375,-0.9668426513671876,-0.1546622812747955,0.1574452817440033,-0.0093431677669286
1769251536460,-0.0051116943359375,-0.3222808837890625,-0.969146728515625,-0.1498201191425323,0.0813473165035247,-0.0338442511856555
1769251536470,-0.043487548828125,-0.3227996826171875,-0.9427642822265624,-0.148031547665596,0.0516402907669544,-0.0300961174070835
1769251536481,-0.0265350341796875,-0.3170623779296875,-0.9289703369140624,-0.1574908196926117,0.0372499004006385,-0.0072949309833347
1769251536490,-0.000457763671875,-0.3130950927734375,-0.9189910888671876,-0.1779454946517944,0.0200898218899965,0.0384291484951972
1769251536501,0.033447265625,-0.3151702880859375,-0.90570068359375,-0.2080527991056442,-0.0085069350898265,0.0527843832969665
1769251536511,0.0230712890625,-0.310028076171875,-0.89410400390625,-0.2498998492956161,-0.0327904373407363,0.022939670830965
1769251536521,-0.0219268798828125,-0.3182373046875,-0.891204833984375,-0.2834231853485107,0.0221124924719333,-0.0038000645581632
1769251536531,-0.051910400390625,-0.34100341796875,-0.915679931640625,-0.317551851272583,0.0657366663217544,-0.0535255409777164
1769251536541,-0.0911102294921875,-0.322723388671875,-0.9271240234375,-0.3253684937953949,0.0694898590445518,-0.0824852883815765
1769251536551,-0.081024169921875,-0.3156585693359375,-0.9406280517578124,-0.3197620213031769,0.0750273689627647,-0.0853617712855339
1769251536561,-0.0426025390625,-0.318115234375,-0.9527435302734376,-0.2921056151390075,0.0507878139615058,-0.0644775256514549
1769251536571,0.00189208984375,-0.3014373779296875,-0.9811553955078124,-0.2530761957168579,0.02384621091187,-0.0338218808174133
1769251536581,0.0308074951171875,-0.2850799560546875,-1.00262451171875,-0.2018854469060897,0.0248851105570793,0.0022873890120536
1769251536591,0.043121337890625,-0.279052734375,-1.01739501953125,-0.1591526418924331,0.0260150898247957,0.0183537062257528
1769251536601,0.0310821533203125,-0.2861480712890625,-1.008209228515625,-0.1186456903815269,0.0223985165357589,0.0283541437238454
1769251536611,0.0148162841796875,-0.285247802734375,-1.000091552734375,-0.0927594974637031,0.0200536027550697,-0.0094560859724879
1769251536621,-0.0369415283203125,-0.2885894775390625,-0.9838409423828124,-0.0885389223694801,0.0435376241803169,-0.0498309396207332
1769251536631,-0.063720703125,-0.3137359619140625,-0.9590606689453124,-0.1010302081704139,0.0425234921276569,-0.0885287970304489
1769251536641,-0.0711212158203125,-0.3343353271484375,-0.9282989501953124,-0.1297244429588318,0.0465368740260601,-0.0983172506093978
1769251536651,-0.0419464111328125,-0.323944091796875,-0.90814208984375,-0.1319489777088165,0.032046616077423,-0.091467335820198
1769251536661,-0.0141448974609375,-0.3185882568359375,-0.93096923828125,-0.1290477365255355,0.0461089052259922,-0.089210033416748
1769251536671,-0.0016937255859375,-0.277862548828125,-0.9443817138671876,-0.1215887516736984,0.0122185833752155,-0.0915203317999839
1769251536681,-0.003875732421875,-0.279083251953125,-0.9530487060546876,-0.1252210289239883,0.0188748873770236,-0.0761283263564109
1769251536692,0.01519775390625,-0.2651519775390625,-0.9498291015625,-0.1383834481239318,-0.0238145180046558,-0.0563567504286766
1769251536701,0.0159912109375,-0.270751953125,-0.936370849609375,-0.1403962522745132,-0.0431309603154659,-0.0450891815125942
1769251536711,0.017578125,-0.283233642578125,-0.9445343017578124,-0.1427763253450393,-0.0583035200834274,0.0041406829841434
1769251536722,0.047332763671875,-0.2592926025390625,-0.957672119140625,-0.1481018513441085,-0.076805830001831,0.0210565496236085
1769251536732,0.0074005126953125,-0.28533935546875,-0.962493896484375,-0.159573420882225,-0.0020415792241692,0.0322700552642345
1769251536742,-0.0009307861328125,-0.2711181640625,-0.9684906005859376,-0.1729057282209396,0.045293178409338,0.0301331356167793
1769251536755,-0.0271453857421875,-0.28155517578125,-0.95989990234375,-0.1803127825260162,0.0742710381746292,0.0162412878125906
1769251536762,-0.0326385498046875,-0.2985076904296875,-0.946624755859375,-0.1673341393470764,0.0396379567682743,0.0076145101338624
1769251536772,-0.01934814453125,-0.29278564453125,-0.9442901611328124,-0.1600922048091888,0.0100872553884983,-0.0003254382754676
1769251536782,-0.0087432861328125,-0.292755126953125,-0.9382476806640624,-0.1579741835594177,-0.0096550239250063,-0.0021065603941679
1769251536792,-0.0009765625,-0.2902069091796875,-0.9365692138671876,-0.1664350479841232,-0.0295858550816774,-0.0141003727912902
1769251536802,-0.0084228515625,-0.280670166015625,-0.9336700439453124,-0.1689384281635284,-0.055470447987318,-0.0165816396474838
1769251536812,-0.0091400146484375,-0.2600860595703125,-0.947479248046875,-0.1745925843715667,-0.0675718560814857,0.0075604477897286
1769251536822,0.006439208984375,-0.2496337890625,-0.956939697265625,-0.1946395188570022,-0.0591112561523914,0.0441243164241313
1769251536832,0.01519775390625,-0.2515716552734375,-0.9495391845703124,-0.2219726145267486,-0.0236302278935909,0.0643736645579338
1769251536842,0.0017242431640625,-0.2501068115234375,-0.9529876708984376,-0.2431916147470474,0.030674822628498,0.0833971574902534
1769251536852,0.0024261474609375,-0.2587738037109375,-0.9591522216796876,-0.2611985802650451,0.0390744321048259,0.0961536988615989
1769251536862,-0.0092315673828125,-0.2655029296875,-0.9609375,-0.2601335644721985,0.0109282815828919,0.0858304873108863
1769251536872,-0.030914306640625,-0.26153564453125,-0.965118408203125,-0.253249317407608,-0.0104305362328886,0.067388892173767
1769251536882,-0.04144287109375,-0.26104736328125,-0.96710205078125,-0.2564845085144043,-0.0277607906609773,0.042914442718029
1769251536892,-0.0460968017578125,-0.2681884765625,-0.954742431640625,-0.2502484619617462,-0.0405660681426525,0.0228358078747987
1769251536902,-0.0366363525390625,-0.2597503662109375,-0.9588775634765624,-0.2435676455497741,-0.0283392295241355,0.0262774098664522
1769251536913,-0.0068359375,-0.2503662109375,-0.974456787109375,-0.2289804518222808,-0.0241221133619546,0.04299833253026
1769251536923,0.013580322265625,-0.243988037109375,-0.9825439453125,-0.2011560052633285,-0.0178138837218284,0.059903547167778
1769251536933,0.0166168212890625,-0.2290191650390625,-0.99517822265625,-0.1769710481166839,-0.0121959457173943,0.0779653713107109
1769251536943,0.018035888671875,-0.228759765625,-0.9961700439453124,-0.1477047652006149,-0.0006735134520567,0.108298510313034
1769251536953,0.0225982666015625,-0.225433349609375,-0.9988555908203124,-0.1193221360445022,0.0297826621681451,0.1394175440073013
1769251536963,0.01214599609375,-0.22686767578125,-1.002685546875,-0.0952628701925277,0.060463611036539,0.1636733561754226
1769251536973,0.001800537109375,-0.2285919189453125,-1.0032501220703125,-0.0778386071324348,0.0701119750738143,0.1651612669229507
1769251536983,-0.03167724609375,-0.25634765625,-0.98724365234375,-0.0643169358372688,0.0745959430932998,0.1604037880897522
1769251536993,-0.0323944091796875,-0.2570648193359375,-0.977203369140625,-0.0387583151459693,0.0422755517065525,0.1672350615262985
1769251537003,-0.017669677734375,-0.2505035400390625,-0.9754180908203124,-0.0090813795104622,0.0006628608098253,0.1867224723100662
1769251537013,0.003753662109375,-0.2396240234375,-0.9802398681640624,0.0218182131648063,-0.0184285417199134,0.1740756630897522
1769251537023,-0.0316925048828125,-0.2541961669921875,-0.9861602783203124,0.0218959785997867,0.0167768485844135,0.1619361788034439
1769251537033,-0.0393218994140625,-0.240570068359375,-0.976776123046875,0.013627927750349,0.0019451729021966,0.1469327211380005
1769251537043,-0.0472259521484375,-0.2328338623046875,-0.960540771484375,0.006245378870517,-0.0308026541024446,0.1211589127779007
1769251537054,-0.0617218017578125,-0.23944091796875,-0.9484710693359376,0.0083149215206503,-0.0544382072985172,0.1124266758561134
1769251537063,-0.048431396484375,-0.23724365234375,-0.955596923828125,0.0005336974863894,-0.0624135769903659,0.1054782196879386
1769251537073,-0.03900146484375,-0.2437744140625,-0.9589996337890624,-0.0157565921545028,-0.0690781399607658,0.0906212478876113
1769251537083,-0.03570556640625,-0.2489166259765625,-0.954315185546875,-0.0356722436845302,-0.0522400364279747,0.083707682788372
1769251537093,-0.0277862548828125,-0.2457275390625,-0.956817626953125,-0.0613027736544609,-0.0578531809151172,0.0867599323391914
1769251537103,-0.00335693359375,-0.2319183349609375,-0.9460906982421876,-0.0806626230478286,-0.0899077877402305,0.0878350436687469
1769251537113,-0.02557373046875,-0.258636474609375,-0.9491424560546876,-0.1093959957361221,-0.0343438573181629,0.0873349085450172
1769251537124,-0.0293426513671875,-0.234893798828125,-0.955413818359375,-0.1338720470666885,-0.0459501817822456,0.0783645808696746
1769251537133,-0.0391998291015625,-0.2280731201171875,-0.9490966796875,-0.1463992893695831,-0.0765219405293464,0.0710691139101982
1769251537144,-0.0435028076171875,-0.2300567626953125,-0.948638916015625,-0.1551829278469085,-0.1132053807377815,0.0601043477654457
1769251537154,-0.0450286865234375,-0.225982666015625,-0.953338623046875,-0.1595015078783035,-0.1462400406599044,0.0560001507401466
1769251537164,-0.04144287109375,-0.2301788330078125,-0.9564361572265624,-0.1746213436126709,-0.1508941799402237,0.0627408772706985
1769251537174,-0.0307769775390625,-0.2196044921875,-0.953460693359375,-0.1871464550495147,-0.1722434014081955,0.0501691624522209
1769251537184,-0.0654144287109375,-0.240478515625,-0.9514923095703124,-0.1893515437841415,-0.1169455274939537,0.0365313775837421
1769251537194,-0.0650634765625,-0.2119293212890625,-0.97283935546875,-0.1708127558231353,-0.0575269423425197,0.0480080060660839
1769251537204,-0.04937744140625,-0.200164794921875,-0.9910888671875,-0.162883460521698,-0.0047635962255299,0.0688011646270752
1769251537214,-0.0353240966796875,-0.2211761474609375,-0.9837493896484376,-0.1392577588558197,0.000197872868739,0.0923698768019676
1769251537224,-0.016204833984375,-0.193023681640625,-0.9882965087890624,-0.1009915918111801,-0.0204030089080333,0.0804530307650566
1769251537234,-0.0521697998046875,-0.2367706298828125,-0.9937591552734376,-0.0739133730530738,-0.0049524144269526,0.0460588373243808
1769251537244,-0.0645751953125,-0.2056732177734375,-0.99749755859375,-0.0398004092276096,-0.0198053959757089,0.0238986741751432
1769251537254,-0.062255859375,-0.196929931640625,-1.00152587890625,-0.0223002452403306,-0.0304284803569316,0.011699266731739
1769251537264,-0.05718994140625,-0.2247161865234375,-0.9914703369140624,0.0064632254652678,-0.0457155555486679,-0.0083972131833434
1769251537274,-0.055206298828125,-0.2243804931640625,-0.9980621337890624,0.0158372856676578,-0.0570049621164798,-0.0252499636262655
1769251537285,-0.0514068603515625,-0.2414093017578125,-0.9848480224609376,0.0204847678542137,-0.0732638239860534,-0.0297003705054521
1769251537294,-0.0391845703125,-0.244903564453125,-0.9762725830078124,0.0184583701193332,-0.0603871755301952,-0.0314303599298
1769251537305,-0.0420684814453125,-0.2332305908203125,-0.9692230224609376,0.012761334888637,-0.0584665052592754,-0.0431908816099166
1769251537314,-0.0602569580078125,-0.219635009765625,-0.956207275390625,0.0072896042838692,-0.0572712793946266,-0.0497885942459106
1769251537324,-0.060394287109375,-0.199951171875,-0.9601898193359376,0.0009600695921108,-0.0429019257426261,-0.0422587729990482
1769251537335,-0.056671142578125,-0.1995849609375,-0.964874267578125,-0.015767777338624,-0.0185300093144178,-0.0381612330675125
1769251537345,-0.0558929443359375,-0.204864501953125,-0.96484375,-0.0250712651759386,-0.0112340124323964,-0.0420241504907608
1769251537355,-0.0599212646484375,-0.2105255126953125,-0.96795654296875,-0.0164487473666667,-0.0259309336543083,-0.06377924233675
1769251537365,-0.0717315673828125,-0.211456298828125,-0.97515869140625,0.0003099919413216,-0.0571258701384067,-0.096794456243515
1769251537375,-0.0896453857421875,-0.2054443359375,-0.9823760986328124,0.0199020691215991,-0.0656210854649543,-0.1300679892301559
1769251537385,-0.102935791015625,-0.2055816650390625,-0.9848480224609376,0.0344453267753124,-0.0519974194467067,-0.1540087461471557
1769251537395,-0.0920867919921875,-0.2109222412109375,-0.9808807373046876,0.0495896562933921,-0.0647720694541931,-0.1679005920886993
1769251537405,-0.0737457275390625,-0.2169189453125,-0.9736175537109376,0.0647750049829483,-0.0902260318398475,-0.1765694469213485
1769251537415,-0.0593719482421875,-0.2158355712890625,-0.970458984375,0.0771525725722312,-0.1019042581319809,-0.1874913275241851
1769251537425,-0.0587005615234375,-0.21551513671875,-0.9730987548828124,0.0738768875598907,-0.0932132974267005,-0.1908586323261261
1769251537435,-0.047760009765625,-0.2174224853515625,-0.9673614501953124,0.0606835857033729,-0.0911717191338539,-0.1834385395050048
1769251537445,-0.035858154296875,-0.2157440185546875,-0.955963134765625,0.0463131703436374,-0.1010328754782676,-0.1751566380262375
1769251537455,-0.038543701171875,-0.2119903564453125,-0.9485931396484376,0.0269099101424217,-0.0962564945220947,-0.1724391430616378
1769251537465,-0.050384521484375,-0.212738037109375,-0.9479217529296876,0.0083514070138335,-0.082717515528202,-0.1773193925619125
1769251537475,-0.061187744140625,-0.209503173828125,-0.9470977783203124,-0.0125725166872143,-0.0752343013882637,-0.1927787661552429
1769251537485,-0.0694122314453125,-0.2080535888671875,-0.947052001953125,-0.0309861451387405,-0.0542501881718635,-0.2076543867588043
1769251537495,-0.07275390625,-0.214813232421875,-0.9508056640625,-0.0518642626702785,-0.0462151654064655,-0.2153474688529968
1769251537505,-0.06268310546875,-0.2174072265625,-0.9555206298828124,-0.0670200437307357,-0.0423613041639328,-0.2098293900489807
1769251537515,-0.0475311279296875,-0.2224884033203125,-0.9652252197265624,-0.0700110420584678,-0.0441592037677764,-0.1993501186370849
1769251537525,-0.036712646484375,-0.2205352783203125,-0.9769287109375,-0.0673319026827812,-0.0575415901839733,-0.1971879005432129
1769251537535,-0.03564453125,-0.2154388427734375,-0.9819793701171876,-0.0625089183449745,-0.0645720660686492,-0.1925984770059585
1769251537545,-0.0326995849609375,-0.2085418701171875,-0.9834442138671876,-0.065653309226036,-0.0505771562457084,-0.1882391422986984
1769251537556,-0.0402374267578125,-0.213958740234375,-0.978546142578125,-0.0677569434046745,-0.0652855262160301,-0.190904438495636
1769251537566,-0.057373046875,-0.2186126708984375,-0.968505859375,-0.0646700710058212,-0.07776989787817,-0.1984726041555404
1769251537576,-0.063995361328125,-0.2159881591796875,-0.9735565185546876,-0.0635547414422035,-0.0761299207806587,-0.1984696835279464
1769251537586,-0.0560455322265625,-0.2169189453125,-0.9773101806640624,-0.0581096410751342,-0.0590635873377323,-0.1854596138000488
1769251537596,-0.0334320068359375,-0.2173004150390625,-0.9811553955078124,-0.0504234917461872,-0.0539468564093112,-0.1619715988636016
1769251537606,-0.013397216796875,-0.20758056640625,-0.9900360107421876,-0.0372477695345878,-0.0677340403199195,-0.1124684885144233
1769251537616,0.0165252685546875,-0.1744384765625,-0.9952239990234376,-0.0185374654829502,-0.0598508156836032,-0.126083105802536
1769251537626,-0.0458221435546875,-0.2359161376953125,-0.991790771484375,-0.0135927740484476,0.0044472124427556,-0.1175481975078582
1769251537636,-0.031524658203125,-0.1948394775390625,-0.993377685546875,-0.0149091742932796,0.0051670651882886,-0.0947994813323021
1769251537646,-0.02703857421875,-0.2002410888671875,-0.978851318359375,-0.013921407982707,0.0397444814443588,-0.0630040019750595
1769251537656,-0.0189971923828125,-0.2098541259765625,-0.9799346923828124,-0.0146234175190329,0.0618604384362697,-0.0328988283872604
1769251537666,-0.0102386474609375,-0.2133331298828125,-0.9802398681640624,-0.0235857535153627,0.0516362972557544,-0.0062664179131388
1769251537676,-0.0123291015625,-0.2190093994140625,-0.9741363525390624,-0.0248827133327722,0.031977105885744,-0.0031390679068863
1769251537686,-0.031280517578125,-0.2192230224609375,-0.973541259765625,-0.0280766412615776,0.0290249940007925,-0.0006761765689589
1769251537696,-0.0223388671875,-0.196502685546875,-0.974761962890625,-0.0155997322872281,-0.0256907157599926,0.0392922796308994
1769251537706,-0.0340423583984375,-0.207489013671875,-0.9797210693359376,-0.0258656851947307,0.0031212246976792,-0.0223697535693645
1769251537716,-0.1069793701171875,-0.226776123046875,-0.970794677734375,-0.0208072774112224,0.0169616732746362,-0.0309336818754673
1769251537726,-0.0768890380859375,-0.1913604736328125,-0.9873504638671876,-0.0240320991724729,0.0139123536646366,-0.0498269461095333
1769251537736,-0.0879974365234375,-0.2094268798828125,-0.9750213623046876,-0.011418835259974,-0.0065500447526574,-0.0590739734470844
1769251537747,-0.0686187744140625,-0.213836669921875,-0.9772796630859376,-0.0071263527497649,-0.0118880849331617,-0.0683622807264328
1769251537757,-0.0604248046875,-0.222076416015625,-0.97119140625,-0.0073963971808552,-0.0155904116109013,-0.0832240507006645
1769251537767,-0.051055908203125,-0.2209320068359375,-0.9677581787109376,-0.0057809236459434,-0.0380392596125602,-0.0970993861556053
1769251537777,-0.044525146484375,-0.2128143310546875,-0.966949462890625,0.0047982172109186,-0.0617573745548725,-0.0994703993201255
1769251537789,-0.03167724609375,-0.196685791015625,-0.97821044921875,0.0195939410477876,-0.0677524134516716,-0.0802908465266227
1769251537797,-0.0185089111328125,-0.1885833740234375,-0.9898223876953124,0.0334572941064834,-0.0478913597762584,-0.0651204138994216
1769251537807,-0.024444580078125,-0.18743896484375,-0.999664306640625,0.0403761863708496,-0.0225303433835506,-0.0493172146379947
1769251537817,-0.0356597900390625,-0.194061279296875,-0.9981689453125,0.0419980511069297,-0.0274806264787912,-0.0493632890284061
1769251537827,-0.050567626953125,-0.2102813720703125,-0.98541259765625,0.0397910885512828,-0.0244701895862817,-0.0391276963055133
1769251537837,-0.0428924560546875,-0.2170867919921875,-0.9819793701171876,0.0345443934202194,-0.0210794527083635,-0.0311206355690956
1769251537847,-0.045623779296875,-0.2157135009765625,-0.9772186279296876,0.0348879434168338,-0.0264678262174129,-0.0376211442053318
1769251537857,-0.052886962890625,-0.2108612060546875,-0.970245361328125,0.0306684300303459,-0.0215484350919723,-0.0405551493167877
1769251537867,-0.0533294677734375,-0.2076568603515625,-0.963653564453125,0.0173963010311126,-0.0208594761788845,-0.0453304648399353
1769251537877,-0.0544891357421875,-0.204833984375,-0.956146240234375,0.0057668089866638,-0.0379465818405151,-0.0455507077276706
1769251537887,-0.0498046875,-0.199310302734375,-0.9557037353515624,0.0020229371730238,-0.0529625490307807,-0.0459001138806343
1769251537897,-0.045562744140625,-0.207794189453125,-0.958709716796875,-0.0120606571435928,-0.0402997508645057,-0.0392621830105781
1769251537907,-0.0345306396484375,-0.2262420654296875,-0.9660186767578124,-0.0213436372578144,-0.0339667536318302,-0.0251359790563583
1769251537917,-0.0205841064453125,-0.222625732421875,-0.9797515869140624,-0.0076528596691787,-0.0469906777143478,-0.0176860522478818
1769251537927,-0.0259552001953125,-0.2037811279296875,-0.9903564453125,0.0248867068439722,-0.0743597149848938,-0.0306133031845092
1769251537937,-0.0529937744140625,-0.18280029296875,-0.9998779296875,0.0535343326628208,-0.0833332389593124,-0.0585740953683853
1769251537948,-0.0832977294921875,-0.1805572509765625,-1.0019989013671875,0.0667659789323806,-0.0362983532249927,-0.0686557590961456
1769251537958,-0.0850677490234375,-0.1942138671875,-0.9943695068359376,0.0707269012928009,-0.0166578069329261,-0.0643425062298774
1769251537967,-0.0635833740234375,-0.202880859375,-0.97967529296875,0.0768825337290763,-0.0362719856202602,-0.055588960647583
1769251537978,-0.0474395751953125,-0.2102203369140625,-0.9676513671875,0.0851891934871673,-0.0710456818342208,-0.055978313088417
1769251537988,-0.038330078125,-0.212005615234375,-0.9622344970703124,0.1006507128477096,-0.076411947607994,-0.0495166853070259
1769251537998,-0.0386962890625,-0.2077178955078125,-0.980010986328125,0.1020004004240036,-0.0286548137664794,-0.0474378243088722
1769251538008,-0.052490234375,-0.2140960693359375,-0.988677978515625,0.0946822986006736,0.0236187763512134,-0.0291237961500883
1769251538018,-0.0404205322265625,-0.21209716796875,-0.9833831787109376,0.0859450027346611,0.0310418047010898,-0.0018247979460284
1769251538028,-0.0284881591796875,-0.2174530029296875,-0.965667724609375,0.0775320753455162,0.0083942832425236,0.0064435182139277
1769251538038,-0.0329132080078125,-0.22064208984375,-0.9498291015625,0.0681931674480438,-0.0244864337146282,0.0124494787305593
1769251538048,-0.035125732421875,-0.2162322998046875,-0.9452056884765624,0.0616226159036159,-0.0202464163303375,0.0265232194215059
1769251538058,-0.0328369140625,-0.212677001953125,-0.9579925537109376,0.0385069139301776,0.0050709252245724,0.0283829048275947
1769251538068,-0.046630859375,-0.2142791748046875,-0.9563446044921876,0.0173164065927267,0.0115245636552572,0.0246028155088424
1769251538078,-0.0537872314453125,-0.213409423828125,-0.9532928466796876,0.0118220383301377,0.0121522704139351,0.027780232951045
1769251538088,-0.05657958984375,-0.2055511474609375,-0.9648895263671876,0.014969628304243,0.0242584683001041,0.0240494105964899
1769251538098,-0.0646514892578125,-0.2071380615234375,-0.9745941162109376,-0.0055039548315107,0.101559117436409,0.02352743037045
1769251538108,-0.0565338134765625,-0.220947265625,-0.9680023193359376,-0.00140721432399,0.0649393200874328,0.0572523698210716
1769251538119,-0.042999267578125,-0.215545654296875,-0.9759979248046876,-0.0055154063738882,0.0281781088560819,-0.0203542746603488
1769251538128,-0.1088104248046875,-0.2548828125,-0.96148681640625,0.0057929079048335,0.0413168147206306,0.0079759014770388
1769251538138,-0.0313873291015625,-0.2139129638671875,-0.9810791015625,0.0016042882343754,0.0028724854346364,0.0088017471134662
1769251538148,-0.0517425537109375,-0.23095703125,-0.966156005859375,0.0109961917623877,-0.0293693393468856,-0.0068006482906639
1769251538158,-0.057159423828125,-0.2265777587890625,-0.972930908203125,0.0162964146584272,-0.0163137260824441,-0.0099756689742207
1769251538169,-0.048583984375,-0.222442626953125,-0.987060546875,0.0146109005436301,0.004898618441075,-0.0046320362016558
1769251538179,-0.044952392578125,-0.228851318359375,-0.9902191162109376,0.0115213673561811,0.0115549229085445,-0.0047963531687855
1769251538189,-0.0470733642578125,-0.23004150390625,-0.9857177734375,0.0249370411038398,0.0008005462004803,-0.0111330784857273
1769251538199,-0.05255126953125,-0.22802734375,-0.9887847900390624,0.0355718433856964,-0.0018735338235273,-0.01274349167943
1769251538209,-0.05206298828125,-0.2303466796875,-0.9848785400390624,0.0352171100676059,-0.0049582733772695,-0.0075873457826673
1769251538219,-0.0504150390625,-0.237335205078125,-0.9704742431640624,0.0280326995998621,-0.0159254372119903,-0.0155533934012055
1769251538229,-0.0587921142578125,-0.234375,-0.9635162353515624,0.0331488996744155,0.0018948391079902,-0.011135209351778
1769251538239,-0.0543670654296875,-0.2179718017578125,-0.9794769287109376,0.0161685831844806,0.029848176985979,-0.0068320734426379
1769251538249,-0.058502197265625,-0.22308349609375,-0.9710235595703124,0.0007526093395426,0.028079304844141,0.0014056164072826
1769251538259,-0.049468994140625,-0.2232666015625,-0.9622650146484376,-0.0054059508256614,0.0046829022467136,0.023029152303934
1769251538269,-0.0292510986328125,-0.220245361328125,-0.95721435546875,-0.0116358837112784,-0.035156387835741,0.0223793406039476
1769251538279,-0.048797607421875,-0.22747802734375,-0.953887939453125,-0.0151552511379122,-0.0107133639976382,-0.0002908172027673
1769251538289,-0.07470703125,-0.229705810546875,-0.96942138671875,-0.0483161322772502,0.0577293410897254,-0.0045614624395966
1769251538299,-0.0697174072265625,-0.240234375,-0.9624786376953124,-0.0698576420545578,0.0781880095601081,-0.0051979576237499
1769251538309,-0.0583038330078125,-0.24530029296875,-0.9546051025390624,-0.0697343423962593,0.0471379496157169,-0.0020748688839375
1769251538320,-0.0377655029296875,-0.2316436767578125,-0.9611968994140624,-0.0563913695514202,-0.0008077367674559,0.0012141350889578
1769251538329,-0.0339202880859375,-0.2186737060546875,-0.9723358154296876,-0.0441128648817539,-0.0141810663044452,0.0134172718971967
1769251538339,-0.0305633544921875,-0.2131805419921875,-0.988555908203125,-0.0446468293666839,0.0194338858127594,0.0284630674868822
1769251538349,-0.031951904296875,-0.218536376953125,-0.986480712890625,-0.0509412102401256,0.0560419633984565,0.0439381636679172
1769251538360,-0.038177490234375,-0.220916748046875,-0.9766387939453124,-0.049367282539606,0.0737842097878456,0.0379527099430561
1769251538369,-0.0572662353515625,-0.2167816162109375,-0.9755401611328124,-0.0409511625766754,0.0725746005773544,0.0315459407866001
1769251538379,-0.0575408935546875,-0.2135162353515625,-0.9702301025390624,-0.0299658887088298,0.0545311532914638,0.0354021973907947
1769251538390,-0.0540771484375,-0.2154998779296875,-0.9743194580078124,-0.0237567275762558,0.052132710814476,0.0331931076943874
1769251538400,-0.0573883056640625,-0.22650146484375,-0.978271484375,-0.0243679229170084,0.0649110898375511,0.0338991098105907
1769251538410,-0.048187255859375,-0.2340240478515625,-0.97283935546875,-0.0256358552724123,0.0623986646533012,0.0322873666882514
1769251538420,-0.038909912109375,-0.239959716796875,-0.96270751953125,-0.0304705575108528,0.0389814861118793,0.0267088431864976
1769251538430,-0.038330078125,-0.2425537109375,-0.95477294921875,-0.0360203199088573,0.0171920359134674,0.0253186728805303
1769251538440,-0.0399627685546875,-0.23486328125,-0.9554290771484376,-0.0550547316670417,0.0200022030621767,0.0196530632674694
1769251538450,-0.0487823486328125,-0.2352447509765625,-0.95623779296875,-0.0774037092924118,0.0262984484434127,0.0227884035557508
1769251538460,-0.040496826171875,-0.24273681640625,-0.95513916015625,-0.1029562056064605,0.0307280849665403,0.0370291247963905
1769251538470,-0.0298614501953125,-0.2423248291015625,-0.9561004638671876,-0.1171260923147201,0.0302753485739231,0.0298708137124776
1769251538480,-0.0504608154296875,-0.23284912109375,-0.9652862548828124,-0.1076476350426673,0.0518903620541095,0.0138795962557196
1769251538490,-0.0709381103515625,-0.2099151611328125,-0.9932708740234376,-0.1170515194535255,0.0974368080496788,0.0060509680770337
1769251538500,-0.0815277099609375,-0.218048095703125,-0.9916229248046876,-0.1184611320495605,0.1124437227845192,-0.0014993597287684
1769251538510,-0.0677337646484375,-0.209991455078125,-0.9873199462890624,-0.100339651107788,0.1027032062411308,0.0094451671466231
1769251538521,-0.0406036376953125,-0.216461181640625,-0.9859161376953124,-0.0853926613926887,0.0816519856452941,0.022007830440998
1769251538530,-0.0203399658203125,-0.2309417724609375,-0.97918701171875,-0.0745501369237899,0.0593999437987804,0.0331907086074352
1769251538541,-0.0084228515625,-0.2374267578125,-0.9817657470703124,-0.0670155212283134,0.0805995017290115,0.045390386134386
1769251538550,-0.008056640625,-0.235748291015625,-0.9874725341796876,-0.0510349534451961,0.1001835912466049,0.0504402704536914
1769251538560,-0.0168304443359375,-0.2198638916015625,-0.9829864501953124,-0.026045449078083,0.0633352994918823,0.0478703193366527
1769251538570,-0.036712646484375,-0.206298828125,-0.97882080078125,-0.0062586949206888,0.0117360185831785,0.0460521802306175
1769251538581,-0.0494842529296875,-0.207122802734375,-0.9759368896484376,0.0056552225723862,-0.038363367319107,0.0467030555009841
1769251538591,-0.0589447021484375,-0.2030487060546875,-0.987457275390625,0.020674118772149,0.0251929704099893,0.0384248867630958
1769251538600,-0.071014404296875,-0.2106781005859375,-0.9980621337890624,0.0344493202865123,0.085502915084362,0.0335041657090187
1769251538611,-0.0631103515625,-0.212188720703125,-0.99560546875,0.0485848449170589,0.1021010652184486,0.0366980917751789
1769251538621,-0.0495147705078125,-0.2149658203125,-0.9849853515625,0.0599363036453723,0.0972759500145912,0.0358597300946712
1769251538631,-0.046112060546875,-0.221649169921875,-0.9682464599609376,0.0704501941800117,0.0563881732523441,0.0299491100013256
1769251538641,-0.0446319580078125,-0.2171173095703125,-0.95269775390625,0.0710052028298378,0.0284382998943328,0.0223609656095504
1769251538651,-0.044219970703125,-0.21881103515625,-0.942474365234375,0.0628370195627212,0.0310338158160448,0.025725070387125
1769251538661,-0.0398101806640625,-0.2135009765625,-0.94451904296875,0.0424739569425582,0.0499957874417305,0.0271059200167655
1769251538671,-0.0414276123046875,-0.2164459228515625,-0.938201904296875,0.0190439987927675,0.057656105607748,0.0322636626660823
1769251538681,-0.03515625,-0.219451904296875,-0.93365478515625,0.0050072753801941,0.0335395857691764,0.0442633330821991
1769251538691,-0.024078369140625,-0.2149810791015625,-0.935211181640625,-0.0014756575692445,0.0060744038783013,0.0520195253193378
1769251538701,-0.03082275390625,-0.21038818359375,-0.946868896484375,0.0031033814884722,-0.0084435520693659,0.0415533035993576
1769251538711,-0.0471343994140625,-0.193389892578125,-0.9677276611328124,0.0133152725175023,-0.0037265613209456,0.033389113843441
1769251538721,-0.0468292236328125,-0.1877899169921875,-0.97796630859375,0.0157808270305395,0.060206614434719,0.0358000770211219
1769251538731,-0.0467376708984375,-0.2013092041015625,-0.9774322509765624,0.0340250767767429,0.0565341152250766,0.0313544608652591
1769251538741,-0.0455169677734375,-0.2001495361328125,-0.97979736328125,0.03721634298563,0.0314812287688255,0.0461366027593612
1769251538751,-0.028533935546875,-0.2227935791015625,-0.9621429443359376,0.0321795083582401,0.0203537419438362,0.0644615441560745
1769251538761,-0.02581787109375,-0.235198974609375,-0.95904541015625,0.030571224167943,0.026797791942954,0.0679393708705902
1769251538771,-0.0350341796875,-0.2366943359375,-0.9685821533203124,0.0360008776187896,0.0254600867629051,0.071168452501297
1769251538781,-0.0338134765625,-0.2324676513671875,-0.9825897216796876,0.0498226843774318,0.0255405139178037,0.0742108449339866
1769251538791,-0.029144287109375,-0.2215576171875,-0.9913482666015624,0.0606670752167701,0.0329560860991478,0.0797733888030052
1769251538802,-0.022796630859375,-0.2216033935546875,-0.9848175048828124,0.0514855608344078,0.0386840142309665,0.0988570749759674
1769251538812,-0.018646240234375,-0.2338104248046875,-0.9630584716796876,0.0231420714408159,0.0322508811950683,0.1184677928686142
1769251538822,-0.0230712890625,-0.2415008544921875,-0.9397430419921876,-0.0038850193377584,0.0183822028338909,0.1303271204233169
1769251538832,-0.0403900146484375,-0.236175537109375,-0.9331207275390624,-0.0305826757103204,0.0173446349799633,0.1176771000027656
1769251538842,-0.071990966796875,-0.2307281494140625,-0.9358062744140624,-0.0529066249728202,0.0137970382347702,0.0823662430047988
1769251538852,-0.0877838134765625,-0.230682373046875,-0.9408721923828124,-0.0682650730013847,0.0043225768022239,0.0418049693107605
1769251538862,-0.0840606689453125,-0.234283447265625,-0.946075439453125,-0.0742374807596206,-0.0078198397532105,-0.0018785938154906
1769251538872,-0.07958984375,-0.23541259765625,-0.9539031982421876,-0.0793044120073318,-0.0078038610517978,-0.0519619993865489
1769251538882,-0.084625244140625,-0.2346954345703125,-0.9576873779296876,-0.092569351196289,-0.0019579560030251,-0.0884129554033279
1769251538892,-0.07147216796875,-0.2176513671875,-0.9661712646484376,-0.0953717902302742,0.0055747949518263,-0.1007066369056701
1769251538902,-0.0505523681640625,-0.2077178955078125,-0.9735870361328124,-0.0928335338830947,-0.0030644994694739,-0.0820152387022972
1769251538912,-0.0177154541015625,-0.2017364501953125,-0.9727325439453124,-0.0918713361024856,-0.0156769640743732,-0.0490106865763664
1769251538922,-0.001617431640625,-0.2044830322265625,-0.962615966796875,-0.0908127278089523,-0.0219100918620824,-0.0452612228691577
1769251538932,-0.0213623046875,-0.2027435302734375,-0.960906982421875,-0.09021857380867,-0.0218469761312007,-0.045058287680149
1769251538942,-0.0337066650390625,-0.2014007568359375,-0.9654388427734376,-0.0786865577101707,6.604639202123508e-05,-0.0391663126647472
1769251538954,-0.0351409912109375,-0.207427978515625,-0.976104736328125,-0.0692949220538139,0.022708773612976,-0.0361055396497249
1769251538962,-0.03955078125,-0.2163543701171875,-0.98089599609375,-0.0548259653151035,0.0306947957724332,-0.029870280995965
1769251538972,-0.034271240234375,-0.22210693359375,-0.9818267822265624,-0.0326136015355587,0.0202240459620952,-0.032733179628849
1769251538982,-0.0317535400390625,-0.2216949462890625,-0.9876708984375,-0.0149544486775994,0.0067721521481871,-0.0377564318478107
1769251538992,-0.036834716796875,-0.2185821533203125,-0.984771728515625,-0.0029734193813055,-0.0023779366165399,-0.0366541519761085
1769251539003,-0.0326385498046875,-0.2224578857421875,-0.982452392578125,0.0020493024494498,-0.0023893881589174,-0.0275498684495687
1769251539013,-0.0309906005859375,-0.2269439697265625,-0.9844207763671876,-0.0119767682626843,0.0131189981475472,-0.0049910303205251
1769251539023,-0.0142364501953125,-0.242706298828125,-0.97247314453125,-0.0289861112833023,0.0568022951483726,0.005060538649559
1769251539033,-0.0119171142578125,-0.2505035400390625,-0.9727325439453124,-0.0292987655848264,0.0342519804835319,0.0015853798249736
1769251539043,-0.0179443359375,-0.2285003662109375,-0.9842529296875,-0.0304516497999429,0.0237777680158615,0.0027776770293712
1769251539054,-0.0109100341796875,-0.2259368896484375,-0.988677978515625,-0.0312348846346139,0.0532935820519924,0.0147067746147513
1769251539063,-0.00970458984375,-0.230194091796875,-0.9949951171875,-0.038389466702938,0.0689186155796051,0.0163949523121118
1769251539073,-0.016448974609375,-0.232666015625,-0.99114990234375,-0.0443163327872753,0.0771009102463722,0.0080073261633515
1769251539083,-0.0289154052734375,-0.2274169921875,-0.9910125732421876,-0.0338120274245739,0.0850975811481475,-0.010561297647655
1769251539093,-0.0436248779296875,-0.2088470458984375,-0.996826171875,-0.0091836443170905,0.0743850171566009,-0.0284345708787441
1769251539103,-0.0515899658203125,-0.195587158203125,-0.995330810546875,0.0230635069310665,0.0572760738432407,-0.0398334339261055
1769251539113,-0.0516510009765625,-0.1913299560546875,-0.9861297607421876,0.0486271902918815,0.0262414570897817,-0.0400872305035591
1769251539124,-0.04742431640625,-0.189483642578125,-0.97930908203125,0.0714222490787506,-0.0058565572835505,-0.0567716695368289
1769251539133,-0.060943603515625,-0.1866455078125,-0.976226806640625,0.0729847252368927,-0.01527935359627,-0.0574955157935619
1769251539143,-0.0504608154296875,-0.215789794921875,-0.966461181640625,0.0478857681155204,0.0015036207623779,-0.019171830266714
1769251539153,-0.01611328125,-0.253326416015625,-0.956298828125,0.0194272268563509,0.000351537251845,0.0008828379213809
1769251539163,-0.0164794921875,-0.2627716064453125,-0.953857421875,0.0073593794368207,0.0037542581558227,-0.0043119238689541
1769251539173,-0.0304718017578125,-0.2461395263671875,-0.9624176025390624,0.0100638195872306,-0.0015587481902912,-0.0264840722084045
1769251539183,-0.038299560546875,-0.2261962890625,-0.9709320068359376,0.0197273660451173,-0.0158322267234325,-0.0340919233858585
1769251539193,-0.0264129638671875,-0.208251953125,-0.97906494140625,0.017750235274434,-0.0149943958967924,-0.0271924715489149
1769251539203,-0.015106201171875,-0.2025909423828125,-0.97735595703125,0.0208149999380111,-0.0143970483914017,-0.0192328169941902
1769251539214,-0.0136260986328125,-0.1985931396484375,-0.98193359375,0.0179038997739553,-0.0040155141614377,-0.0179600920528173
1769251539224,-0.0245208740234375,-0.20477294921875,-0.9784393310546876,0.0075029237195849,-5.699164830730297e-05,-0.0294921118766069
1769251539234,-0.0437774658203125,-0.219268798828125,-0.9656829833984376,-0.0006588660762645,0.0017006946727633,-0.0431860871613025
1769251539244,-0.0488739013671875,-0.222320556640625,-0.9616241455078124,-0.0037529265973716,-0.0083343628793954,-0.0656852722167968
1769251539254,-0.05712890625,-0.222686767578125,-0.960845947265625,-0.0034471957478672,-0.0203856993466615,-0.0806628912687301
1769251539264,-0.0481414794921875,-0.220062255859375,-0.9678497314453124,0.0052735917270183,-0.0278289671987295,-0.0715514123439788
1769251539274,-0.0199432373046875,-0.2169036865234375,-0.9744720458984376,0.0105695538222789,-0.0205574724823236,-0.0517798401415348
1769251539284,0.0013275146484375,-0.2162628173828125,-0.9742431640625,0.0075157070532441,-0.0055702677927911,-0.0200605262070894
1769251539294,0.0137939453125,-0.2186431884765625,-0.973785400390625,-0.0055018244311213,0.0031127026304602,-0.0042637209407985
1769251539304,0.003173828125,-0.2201995849609375,-0.9667816162109376,-0.0115413414314389,-0.0092281196266412,-0.0128177944570779
1769251539314,-0.0276947021484375,-0.2127685546875,-0.971221923828125,-0.0204512123018503,-0.0113810189068317,-0.013653228059411
1769251539324,-0.0373687744140625,-0.2138824462890625,-0.9670867919921876,-0.0176820587366819,0.0125509453937411,-0.0047140615060925
1769251539334,-0.03057861328125,-0.2142181396484375,-0.9755401611328124,-0.0059737367555499,-0.0042440136894583,-0.0026573021896183
1769251539344,-0.0301513671875,-0.2075347900390625,-0.987457275390625,0.0092262551188468,-0.0082153193652629,-0.0063559003174304
1769251539355,-0.0266265869140625,-0.2138214111328125,-0.992889404296875,0.0040796962566673,0.0126516129821538,-0.0120899518951773
1769251539364,-0.0289306640625,-0.225982666015625,-0.98321533203125,-0.0015502260066568,0.0153443347662687,-0.0144636277109384
1769251539374,-0.02728271484375,-0.22491455078125,-0.972930908203125,-0.00140721432399,-0.00894396007061,-0.0204908940941095
1769251539384,-0.0263519287109375,-0.217132568359375,-0.964569091796875,0.0017731325933709,-0.0391348861157894,-0.0259072314947843
1769251539394,-0.0340728759765625,-0.2118072509765625,-0.9634246826171876,0.0008562062866985,-0.0381673574447631,-0.0337821990251541
1769251539404,-0.0440673828125,-0.204864501953125,-0.9707794189453124,-0.0104225473478436,0.0005057342932559,-0.0355494730174541
1769251539414,-0.046783447265625,-0.209503173828125,-0.9776153564453124,-0.0163699183613061,0.0112108429893851,-0.030487336218357
1769251539425,-0.0325927734375,-0.212738037109375,-0.9756011962890624,-0.0005608617211692,0.0026828683912754,-0.0140063632279634
1769251539435,-0.0078887939453125,-0.2107086181640625,-0.9871978759765624,0.0206754505634307,-0.0308559164404869,0.0079447422176599
1769251539445,0.005767822265625,-0.2098846435546875,-0.9912261962890624,0.0430891476571559,-0.0426425337791442,0.0229788180440664
1769251539455,0.00372314453125,-0.20965576171875,-0.9954071044921876,0.0597357675433158,-0.011487279087305,0.0255895163863897
1769251539465,-0.01824951171875,-0.20892333984375,-0.9970855712890624,0.0617911964654922,0.0219617579132318,0.0045010084286332
1769251539475,-0.0521240234375,-0.218536376953125,-0.9851531982421876,0.0667241662740707,0.0221236776560544,-0.0086123961955308
1769251539485,-0.0545196533203125,-0.2225189208984375,-0.97479248046875,0.0698797479271888,0.00145621644333,-0.0174820553511381
1769251539495,-0.0477752685546875,-0.222503662109375,-0.966766357421875,0.0717796459794044,-0.0163494125008583,-0.0276952777057886
1769251539505,-0.0418701171875,-0.222259521484375,-0.9603271484375,0.0625360831618309,-0.0228240899741649,-0.0412236042320728
1769251539515,-0.0353851318359375,-0.2175140380859375,-0.958984375,0.0473384857177734,-0.0152154378592967,-0.0387005247175693
1769251539525,-0.0210723876953125,-0.2131805419921875,-0.9569244384765624,0.0247903019189834,0.0018423747969791,-0.0382054410874843
1769251539536,-0.02294921875,-0.2131500244140625,-0.9524993896484376,-0.0103114936500787,0.021924739703536,-0.0372261963784694
1769251539545,-0.02935791015625,-0.2125091552734375,-0.9444122314453124,-0.0389910750091075,0.0101567637175321,-0.0314370170235633
1769251539555,-0.025390625,-0.2113037109375,-0.9408111572265624,-0.0550973415374755,-0.0203119292855262,-0.0286420304328203
1769251539565,-0.027069091796875,-0.215179443359375,-0.9426116943359376,-0.0662831515073776,-0.0299267396330833,-0.0266744866967201
1769251539575,-0.0278778076171875,-0.220947265625,-0.9544525146484376,-0.0679124742746353,-0.0331379808485507,-0.0325805805623531
1769251539586,-0.027679443359375,-0.2218475341796875,-0.97259521484375,-0.0621395371854305,-0.0503587797284126,-0.032058335840702
1769251539595,-0.0270233154296875,-0.2194061279296875,-0.9809722900390624,-0.0442026145756244,-0.0496202819049358,-0.022840067744255
1769251539606,-0.0191802978515625,-0.211029052734375,-0.99951171875,-0.0231966655701398,-0.0226824097335338,-0.011070760898292
1769251539615,-0.019256591796875,-0.208984375,-1.012939453125,0.0027811392210423,0.0034088462125509,-0.0056480318307876
1769251539625,-0.02392578125,-0.2020721435546875,-1.0181884765625,0.0197063274681568,0.024434769526124,0.0051050134934484
1769251539635,-0.017578125,-0.2126617431640625,-1.0040435791015625,0.0374909155070781,0.0148817440494894,0.0019267969764769
1769251539646,-0.027679443359375,-0.2195587158203125,-0.989501953125,0.0538328699767589,-0.0016186692519113,0.0001547296560602
1769251539656,-0.03033447265625,-0.216796875,-0.98150634765625,0.068675197660923,-0.0075210332870483,0.0033132387325167
1769251539666,-0.0289764404296875,-0.2158203125,-0.9780426025390624,0.0780583173036575,-0.0063460464589297,0.0066166236065328
1769251539676,-0.031463623046875,-0.2230987548828125,-0.973876953125,0.0770146250724792,-0.0079500684514641,0.0130731910467147
1769251539687,-0.028961181640625,-0.2261962890625,-0.9695892333984376,0.0849537700414657,-0.0068547101691365,0.0165097340941429
1769251539696,-0.0327911376953125,-0.2172088623046875,-0.9756317138671876,0.09192805737257,-0.01729616522789,0.0131554827094078
1769251539706,-0.042877197265625,-0.2168731689453125,-0.9744415283203124,0.0978996679186821,-0.030089458450675,0.0116254966706037
1769251539716,-0.03466796875,-0.2124786376953125,-0.9760894775390624,0.1097307577729225,-0.0305059775710105,0.0309078488498926
1769251539726,-0.0115966796875,-0.2023468017578125,-0.9895782470703124,0.1230761259794235,-0.0109461247920989,0.0423905998468399
1769251539736,-0.0105438232421875,-0.194091796875,-0.9934539794921876,0.1161130219697952,0.0071324780583381,0.0549988038837909
1769251539746,-0.0031280517578125,-0.2292633056640625,-0.9743804931640624,0.0922843888401985,0.0195012632757425,0.0854605734348297
1769251539756,0.019317626953125,-0.2519073486328125,-0.957489013671875,0.0658511817455291,0.0343585051596164,0.1024845615029335
1769251539766,0.012908935546875,-0.25982666015625,-0.9525604248046876,0.0467983968555927,0.0495771393179893,0.0907296389341354
1769251539776,-0.0211029052734375,-0.243255615234375,-0.9531707763671876,0.0371721349656581,0.053459495306015,0.0749493390321731
1769251539786,-0.0433197021484375,-0.2176971435546875,-0.9584197998046876,0.0400004126131534,0.0386706963181495,0.0636689886450767
1769251539796,-0.0555877685546875,-0.2031707763671875,-0.96533203125,0.0379481799900531,0.0384821444749832,0.0601307153701782
1769251539806,-0.0575714111328125,-0.203826904296875,-0.9662933349609376,0.0337020382285118,0.052077580243349,0.0710012093186378
1769251539816,-0.0422821044921875,-0.215911865234375,-0.96185302734375,0.0208418983966112,0.0594340302050113,0.0918673425912857
1769251539826,-0.020111083984375,-0.2287445068359375,-0.9589996337890624,0.0061359233222901,0.0763826519250869,0.1074918359518051
1769251539837,-0.010406494140625,-0.24151611328125,-0.9609832763671876,-0.003434412414208,0.0832866355776786,0.1224609315395355
1769251539846,0.00146484375,-0.24407958984375,-0.96484375,-0.013480388559401,0.0646282583475112,0.1423555463552475
1769251539857,0.0085296630859375,-0.23876953125,-0.9643707275390624,-0.0178258679807186,0.0588380172848701,0.1497831046581268
1769251539867,-0.0059356689453125,-0.2365875244140625,-0.9716796875,-0.0299006402492523,0.0654538422822952,0.151632934808731
1769251539877,-0.024383544921875,-0.2368011474609375,-0.97125244140625,-0.0430864840745925,0.0648767352104187,0.1207394674420356
1769251539887,-0.06829833984375,-0.233795166015625,-0.9647369384765624,-0.061099573969841,0.0552896223962307,0.062598668038845
1769251539897,-0.102783203125,-0.23876953125,-0.950408935546875,-0.0829814374446868,0.047557134181261,0.0087362332269549
1769251539907,-0.109527587890625,-0.242767333984375,-0.9427642822265624,-0.0897157713770866,0.0475241094827652,-0.0220768060535192
1769251539917,-0.089202880859375,-0.236907958984375,-0.9536590576171876,-0.0915775895118713,0.0464034527540206,-0.0360450856387615
1769251539927,-0.0591888427734375,-0.2382659912109375,-0.956787109375,-0.0942870900034904,0.0409951023757457,-0.03735376521945
1769251539937,-0.0261688232421875,-0.2367095947265625,-0.963531494140625,-0.1049802079796791,0.0340040400624275,-0.0276108551770448
1769251539947,-0.0037078857421875,-0.2387847900390625,-0.960845947265625,-0.1196371838450431,0.0345153659582138,-0.0263796765357255
1769251539957,0.00201416015625,-0.235443115234375,-0.9576263427734376,-0.1438309401273727,0.0458322018384933,-0.0309427361935377
1769251539967,-0.0051727294921875,-0.235504150390625,-0.9569244384765624,-0.1668148189783096,0.0580880716443061,-0.0218445789068937
1769251539977,-0.007720947265625,-0.23095703125,-0.96319580078125,-0.1779609471559524,0.0505665056407451,-0.0169600751250982
1769251539987,-0.02508544921875,-0.2188720703125,-0.9732666015625,-0.1752221435308456,0.0345654338598251,-0.0117360185831785
1769251539997,-0.028076171875,-0.211456298828125,-0.979644775390625,-0.1630919873714447,0.0223599001765251,-0.0084645915776491
1769251540007,-0.02947998046875,-0.204864501953125,-0.9848175048828124,-0.1543280482292175,0.020928718149662,-0.0095026912167668
1769251540017,-0.0355224609375,-0.211517333984375,-0.98291015625,-0.1489183753728866,0.0283264461904764,-0.0079050613567233
1769251540027,-0.0313568115234375,-0.2144012451171875,-0.9782562255859376,-0.1437819302082061,0.0385109074413776,-0.0066336677409708
1769251540037,-0.0237884521484375,-0.21673583984375,-0.9712982177734376,-0.1298986077308654,0.0333989709615707,-0.0033960631117224
1769251540048,-0.0179901123046875,-0.2120819091796875,-0.97015380859375,-0.1236297935247421,0.0219977106899023,0.0038631814531981
1769251540058,-0.012298583984375,-0.2167816162109375,-0.9696502685546876,-0.1125134974718093,0.0080022662878036,0.0084832329303026
1769251540068,-0.0114898681640625,-0.2137298583984375,-0.977447509765625,-0.1081014350056648,0.0065918564796447,0.0155339520424604
1769251540078,-0.0122222900390625,-0.20928955078125,-0.9846038818359376,-0.1064183190464973,0.0125261778011918,0.0219566971063613
1769251540090,-0.013092041015625,-0.2064361572265625,-0.9893035888671876,-0.1022384837269783,0.0276571940630674,0.0263897962868213
1769251540098,-0.01495361328125,-0.2028350830078125,-0.99169921875,-0.0986698493361473,0.0432137846946716,0.0289296526461839
1769251540108,-0.0180206298828125,-0.20697021484375,-0.9938812255859376,-0.0938830822706222,0.0575168207287788,0.0402544774115085
1769251540118,-0.01409912109375,-0.21221923828125,-0.990142822265625,-0.0877229273319244,0.0603437684476375,0.0366333797574043
1769251540128,-0.02679443359375,-0.2144927978515625,-0.983245849609375,-0.0779960006475448,0.0508123151957988,0.0311581864953041
1769251540138,-0.02734375,-0.21490478515625,-0.979888916015625,-0.0683220624923706,0.0336362570524215,0.0228651016950607
1769251540148,-0.0329437255859375,-0.2137298583984375,-0.9810791015625,-0.0561503544449806,0.0175409112125635,0.0181899219751358
1769251540159,-0.0310516357421875,-0.2132720947265625,-0.98101806640625,-0.0504935346543788,0.0057172742672264,0.0146630983799695
1769251540168,-0.026336669921875,-0.211029052734375,-0.9810028076171876,-0.0419000461697578,-0.0009835053933784,0.0215407125651836
1769251540178,-0.015045166015625,-0.204803466796875,-0.98394775390625,-0.0317976102232933,-0.0231726970523595,0.029823675751686
1769251540188,-0.000244140625,-0.2018890380859375,-0.9817352294921876,-0.0261501111090183,-0.0538283437490463,0.0408963002264499
1769251540198,-0.0008087158203125,-0.2045135498046875,-0.9735870361328124,-0.0159970764070749,-0.1118402481079101,0.0446220636367797
1769251540208,-0.0013427734375,-0.2013702392578125,-0.9743499755859376,0.0125059382990002,-0.1220955476164817,0.0567706041038036
1769251540218,-0.0029449462890625,-0.1932830810546875,-1.0041046142578125,0.0290122106671333,-0.0524536222219467,0.0626242309808731
1769251540228,-0.033233642578125,-0.19842529296875,-1.017364501953125,0.0410305224359035,0.028611671179533,0.0212741289287805
1769251540238,-0.08447265625,-0.201385498046875,-1.016571044921875,0.0437123253941535,0.0843308568000793,-0.0196567922830581
1769251540248,-0.090728759765625,-0.2127838134765625,-0.9968719482421876,0.0748111233115196,0.0711247771978378,-0.0541370026767253
1769251540258,-0.083740234375,-0.2234344482421875,-0.9997100830078124,0.1075259298086166,0.0485931038856506,-0.0937651097774505
1769251540269,-0.07904052734375,-0.225494384765625,-0.9937896728515624,0.1352044194936752,0.0321712531149387,-0.1263938844203949
1769251540279,-0.0656585693359375,-0.2220916748046875,-0.9931793212890624,0.1495146602392196,0.024920530617237,-0.1531653106212616
1769251540289,-0.05438232421875,-0.22247314453125,-0.9872283935546876,0.1534372270107269,0.0095354486256837,-0.1618871688842773
1769251540299,-0.037994384765625,-0.2153778076171875,-0.983001708984375,0.1596778184175491,0.0008050735923461,-0.1577606052160263
1769251540309,-0.0251922607421875,-0.200927734375,-0.9910430908203124,0.1488113105297088,0.01905944570899,-0.1565808206796646
1769251540319,-0.032012939453125,-0.1983489990234375,-0.97637939453125,0.1329247653484344,0.0252462346106767,-0.1606823503971099
1769251540329,-0.0399169921875,-0.197021484375,-0.962188720703125,0.1169436648488044,0.0293895807117223,-0.1613766402006149
1769251540339,-0.03155517578125,-0.201812744140625,-0.950469970703125,0.1053139045834541,0.0194586534053087,-0.1569320857524871
1769251540349,-0.0160980224609375,-0.2043609619140625,-0.951873779296875,0.0940474048256874,0.0239665862172842,-0.1551405787467956
1769251540359,-0.008819580078125,-0.219085693359375,-0.947479248046875,0.067562535405159,0.0325808450579643,-0.1589608937501907
1769251540369,-0.0060882568359375,-0.2390289306640625,-0.93206787109375,0.0379953198134899,0.0351859517395496,-0.1643601804971695
1769251540379,-0.0052032470703125,-0.24761962890625,-0.925933837890625,-0.0020556941162794,0.0464319474995136,-0.1649985462427139
1769251540389,-0.0087127685546875,-0.235626220703125,-0.921722412109375,-0.0267077777534723,0.0490421094000339,-0.1648014634847641
1769251540399,-0.0146484375,-0.2068023681640625,-0.93719482421875,-0.0334477052092552,0.0422148331999778,-0.1441744863986969
1769251540409,-0.00201416015625,-0.193817138671875,-0.9547576904296876,-0.0426782220602035,0.0345526523888111,-0.1050917953252792
1769251540419,0.01885986328125,-0.1895599365234375,-0.9548797607421876,-0.0519465543329715,0.0253807231783866,-0.0677505508065223
1769251540429,0.0294036865234375,-0.19061279296875,-0.951568603515625,-0.0636487528681755,0.0272254962474107,-0.0537103675305843
1769251540440,0.010009765625,-0.199249267578125,-0.947967529296875,-0.0824370831251144,0.0343276150524616,-0.0598646663129329
1769251540449,-0.013671875,-0.1975860595703125,-0.9385528564453124,-0.099668800830841,0.0446636080741882,-0.0736715570092201
1769251540460,-0.0393218994140625,-0.1959381103515625,-0.93548583984375,-0.1175910755991935,0.0360333696007728,-0.1035152077674865
1769251540470,-0.0508575439453125,-0.2071990966796875,-0.9343414306640624,-0.1246644333004951,0.0131634725257754,-0.1009524464607238
1769251540480,-0.031768798828125,-0.2120361328125,-0.9432373046875,-0.1213972643017768,-0.0020636834669858,-0.1019561886787414
1769251540490,-0.023223876953125,-0.207244873046875,-0.957000732421875,-0.1190014854073524,-0.0191164370626211,-0.0997391119599342
1769251540500,-0.005523681640625,-0.2133636474609375,-0.9652557373046876,-0.1096854880452156,-0.0306817460805177,-0.0970759466290474
1769251540510,0.0007171630859375,-0.21209716796875,-0.9714508056640624,-0.1048225536942482,-0.0207502860575914,-0.0979257673025131
1769251540520,0.004241943359375,-0.2110137939453125,-0.9787139892578124,-0.1001811921596527,-0.0035934031475335,-0.0866334289312362
1769251540530,0.0120391845703125,-0.212371826171875,-0.9842681884765624,-0.0885815322399139,0.014503308571875,-0.0673950165510177
1769251540540,0.0179290771484375,-0.2113037109375,-0.9925384521484376,-0.0774215534329414,0.0209766551852226,-0.0514493435621261
1769251540550,0.012969970703125,-0.211944580078125,-0.99456787109375,-0.0635086670517921,0.0244789775460958,-0.0404574126005172
1769251540560,-0.0003814697265625,-0.21234130859375,-0.9935150146484376,-0.0421346686780452,0.0252779256552457,-0.0441051423549652
1769251540570,-0.0095672607421875,-0.2089996337890625,-0.9939117431640624,-0.0178956426680088,0.0170165337622165,-0.0390395447611808
1769251540580,-0.005706787109375,-0.208953857421875,-1.000701904296875,0.0095455683767795,0.0218645520508289,-0.0251631438732147
1769251540590,-0.00103759765625,-0.2073822021484375,-1.0099639892578125,0.0355649180710315,0.0380027741193771,-0.0195646472275257
1769251540600,-0.009246826171875,-0.2064971923828125,-1.0131988525390625,0.0519683919847011,0.0405138693749904,-0.0324623361229896
1769251540610,-0.0252532958984375,-0.2090606689453125,-0.999755859375,0.0686520338058471,0.0268033854663372,-0.0514855608344078
1769251540620,-0.032745361328125,-0.211761474609375,-0.9869232177734376,0.0771310031414032,0.0047319047152996,-0.0772886648774147
1769251540630,-0.0360260009765625,-0.216644287109375,-0.9763031005859376,0.0924779996275901,-0.0198788996785879,-0.096111886203289
1769251540640,-0.0238494873046875,-0.217681884765625,-0.9796600341796876,0.1042752712965011,-0.0387231595814228,-0.1042979061603546
1769251540650,-0.0117340087890625,-0.2112274169921875,-0.9808807373046876,0.1170240938663482,-0.0524727962911129,-0.1065085977315902
1769251540661,-0.0058441162109375,-0.2092437744140625,-0.9826507568359376,0.1270391792058944,-0.057011354714632,-0.0970503836870193
1769251540671,0.0063018798828125,-0.2078704833984375,-0.9878387451171876,0.1217930167913436,-0.0398579351603984,-0.072660356760025
1769251540681,0.015716552734375,-0.206085205078125,-0.981719970703125,0.1058491989970207,-0.0249644722789526,-0.0508991330862045
1769251540691,0.012603759765625,-0.20989990234375,-0.9700164794921876,0.0953134670853614,-0.018663965165615,-0.0370919741690158
1769251540701,0.0030517578125,-0.2049407958984375,-0.9634552001953124,0.0785704404115676,-0.0176394470036029,-0.0291490964591503
1769251540711,-0.006072998046875,-0.208648681640625,-0.9514617919921876,0.0576531775295734,-0.0283232498914003,-0.0349904745817184
1769251540721,-0.0174560546875,-0.216522216796875,-0.936431884765625,0.0425333455204963,-0.0389007925987243,-0.0418624952435493
1769251540731,-0.0189056396484375,-0.2163848876953125,-0.940093994140625,0.0274084545671939,-0.0268180314451456,-0.0641704648733139
1769251540741,-0.0378570556640625,-0.220123291015625,-0.9495697021484376,-0.0027561055030673,-0.0014141384745016,-0.0875663310289383
1769251540751,-0.0443267822265625,-0.228912353515625,-0.943756103515625,-0.0212858468294143,-0.0189720932394266,-0.1010467261075973
1769251540761,-0.031585693359375,-0.2252197265625,-0.9464111328125,-0.0055071506649255,-0.0314260981976985,-0.0895402655005455
1769251540771,-0.00439453125,-0.2109222412109375,-0.9781036376953124,0.008658736012876,-0.0259181503206491,-0.0667316243052482
1769251540781,0.009429931640625,-0.209716796875,-0.9929962158203124,0.026152241975069,-0.0364048779010772,-0.0535037033259868
1769251540791,0.013763427734375,-0.2064361572265625,-1.00323486328125,0.0471073240041732,-0.030836209654808,-0.0373724065721035
1769251540801,0.0153961181640625,-0.20013427734375,-1.0045166015625,0.0460955910384655,-0.0098867192864418,-0.0334831252694129
1769251540811,-0.002838134765625,-0.20989990234375,-0.9837188720703124,0.034642931073904,0.0097309239208698,-0.0199140533804893
1769251540822,-0.0009765625,-0.2187042236328125,-0.9640655517578124,0.025358086451888,0.0071889371611177,-0.0062794676050543
1769251540831,0.0035247802734375,-0.2284393310546875,-0.9544219970703124,0.0179654173552989,0.0058562913909554,0.0138859879225492
1769251540841,0.010772705078125,-0.2263031005859375,-0.956390380859375,0.0171899050474166,0.0008977515972219,0.0327124074101448
1769251540851,0.0101318359375,-0.2270965576171875,-0.962799072265625,0.0214253962039947,-0.0046149916015565,0.0387916043400764
1769251540861,-0.0029296875,-0.221282958984375,-0.9702301025390624,0.0295184776186943,-0.006769489031285,0.0379705503582954
1769251540872,-0.01483154296875,-0.2137908935546875,-0.97265625,0.0505960658192634,-0.0080230394378304,0.0344317443668842
1769251540881,-0.0194854736328125,-0.2041473388671875,-0.977020263671875,0.0747267007827758,-0.0209566801786422,0.0317020043730735
1769251540892,-0.025421142578125,-0.2001953125,-0.97576904296875,0.1012176945805549,-0.0325416959822177,0.0180218778550624
1769251540902,-0.0356903076171875,-0.207122802734375,-0.97149658203125,0.1149351075291633,-0.0271338820457458,-0.016177637502551
1769251540912,-0.0633087158203125,-0.2068634033203125,-0.97271728515625,0.1262562125921249,-0.0040938113816082,-0.0569271966814994
1769251540922,-0.0782470703125,-0.202301025390625,-0.96759033203125,0.1491657793521881,0.0128153972327709,-0.0783731043338775
1769251540932,-0.0558929443359375,-0.19915771484375,-0.9544219970703124,0.1687743663787841,-0.0308681670576334,-0.0745107159018516
1769251540942,-0.0101318359375,-0.204132080078125,-0.9398651123046876,0.1777465641498565,-0.0670613273978233,-0.0505739599466323
1769251540952,0.02508544921875,-0.2160491943359375,-0.9426727294921876,0.1573749780654907,-0.0805901810526847,-0.0289685353636741
1769251540962,0.0427398681640625,-0.2285614013671875,-0.9405059814453124,0.1110514178872108,-0.0722140073776245,-0.002755839144811
1769251540972,0.059173583984375,-0.2611083984375,-0.9331207275390624,0.0327124074101448,-0.0584561191499233,0.0297744069248437
1769251540982,0.0659332275390625,-0.28338623046875,-0.923797607421875,-0.0420324057340621,-0.0278803668916225,0.0481030791997909
1769251540992,0.0435791015625,-0.270172119140625,-0.9367218017578124,-0.0864707082509994,-0.0032511870376765,0.0455967783927917
1769251541002,0.010467529296875,-0.23736572265625,-0.96075439453125,-0.0990565419197082,0.0072531192563474,0.0495039038360118
1769251541012,-0.0142364501953125,-0.2091217041015625,-0.9870147705078124,-0.0999758690595626,0.0092803174629807,0.0511979386210441
1769251541022,-0.0408172607421875,-0.210052490234375,-0.995208740234375,-0.1129366680979728,0.032011728733778,0.0566385127604007
1769251541032,-0.0485992431640625,-0.2332611083984375,-0.98876953125,-0.1399584412574768,0.0314194411039352,0.0651273354887962
1769251541042,-0.0353546142578125,-0.2611236572265625,-0.9727630615234376,-0.1699885129928589,0.020208865404129,0.0783885493874549
1769251541053,-0.0079498291015625,-0.284881591796875,-0.9615325927734376,-0.1969681978225708,-0.0031582426745444,0.0804538279771804
1769251541062,0.0080718994140625,-0.2891998291015625,-0.961700439453125,-0.2095798552036285,-0.0298034362494945,0.0746225714683532
1769251541072,0.0133819580078125,-0.2685089111328125,-0.973968505859375,-0.2071039229631424,-0.0286545474082231,0.067753218114376
1769251541083,0.013397216796875,-0.237762451171875,-0.9934234619140624,-0.200519248843193,0.0077537936158478,0.0642642080783844
1769251541093,-0.00640869140625,-0.21728515625,-1.0088958740234375,-0.1930480152368545,0.0497529096901416,0.0589280314743518
1769251541103,-0.0231170654296875,-0.2141876220703125,-1.007781982421875,-0.1648821681737899,0.0849455147981643,0.0740728974342346
1769251541113,-0.01788330078125,-0.2057037353515625,-1.0091552734375,-0.1187322437763214,0.0979380160570144,0.0761046186089515
1769251541123,-0.0318145751953125,-0.1979217529296875,-1.0069427490234375,-0.0637574046850204,0.0837737247347831,0.0808783397078514
1769251541133,-0.0313720703125,-0.1970367431640625,-0.999908447265625,-0.0171179994940757,0.0613120943307876,0.0893626362085342
1769251541143,-0.0226593017578125,-0.2017059326171875,-0.9919281005859376,0.0141214113682508,0.0467491298913955,0.0940697714686393
1769251541153,-0.0157470703125,-0.2054290771484375,-0.9810028076171876,0.0269858110696077,0.0498631633818149,0.0903509333729744
1769251541163,-0.01104736328125,-0.210296630859375,-0.9682769775390624,0.025358086451888,0.0347337462007999,0.0759685337543487
1769251541173,-0.0168609619140625,-0.21160888671875,-0.9511871337890624,0.0256363879889249,0.0194935407489538,0.0579509176313877
1769251541183,-0.013580322265625,-0.2056121826171875,-0.9480438232421876,0.0062965117394924,0.0121208447962999,0.0596739836037159
1769251541193,-0.01409912109375,-0.2068328857421875,-0.939483642578125,-0.0260537043213844,0.0058203386142849,0.0559106692671775
1769251541203,-0.029327392578125,-0.2043914794921875,-0.933135986328125,-0.0643590167164802,-0.0027031085919588,0.0518373660743236
1769251541213,-0.038330078125,-0.20220947265625,-0.9252777099609376,-0.1182115972042083,-0.0034613104071468,0.05385098233819
1769251541223,-0.033050537109375,-0.2082672119140625,-0.9184112548828124,-0.1751270741224289,-0.0060243364423513,0.0654487833380699
1769251541233,-0.0185546875,-0.2180633544921875,-0.9156951904296876,-0.22818124294281,-0.0109682288020849,0.0749730467796325
1769251541243,-0.0080108642578125,-0.2212982177734375,-0.922515869140625,-0.2723316550254822,-0.0058224690146744,0.0695244818925857
1769251541253,-0.0136871337890625,-0.2110137939453125,-0.9333953857421876,-0.3029196560382843,-0.0136220688000321,0.0447861142456531
1769251541263,-0.0305633544921875,-0.202178955078125,-0.94366455078125,-0.3161790072917938,-0.0325534157454967,0.0116462698206305
1769251541273,-0.0425567626953125,-0.1931610107421875,-0.9600830078125,-0.3145299851894378,-0.0491350553929805,-0.0050815776921808
1769251541283,-0.037628173828125,-0.1954345703125,-0.9756927490234376,-0.2968873381614685,-0.0602676011621952,-0.0115799568593502
1769251541293,-0.0235748291015625,-0.1920623779296875,-0.98968505859375,-0.2652468383312225,-0.0500935278832912,-0.0064310012385249
1769251541304,-0.007415771484375,-0.18743896484375,-1.0111236572265625,-0.2243151217699051,-0.031776838004589,0.0100688794627785
1769251541314,0.0099639892578125,-0.1844329833984375,-1.026947021484375,-0.1720212996006012,-0.018312694504857,0.0297981090843677
1769251541324,0.0166015625,-0.1798248291015625,-1.039581298828125,-0.1108436957001686,-0.0136324549093842,0.0493153519928455
1769251541334,0.015899658203125,-0.1759796142578125,-1.045745849609375,-0.0431141816079616,-0.013792511075735,0.0590193793177604
1769251541344,0.007293701171875,-0.182342529296875,-1.0433807373046875,0.0194290913641452,-0.0141304666176438,0.0651044324040412
1769251541355,0.00262451171875,-0.186859130859375,-1.0445098876953125,0.0816237553954124,-0.0081016020849347,0.0826610550284385
1769251541364,0.00958251953125,-0.1907806396484375,-1.0463104248046875,0.1380457580089569,0.0085932221263647,0.1109470203518867
1769251541374,0.01568603515625,-0.1978302001953125,-1.0437774658203125,0.1837863475084304,0.0213963687419891,0.1382790505886078
1769251541384,0.0137786865234375,-0.199859619140625,-1.03765869140625,0.2164825052022934,0.029739785939455,0.1547957062721252
1769251541394,-0.002960205078125,-0.199005126953125,-1.025726318359375,0.237242117524147,0.0378339327871799,0.1716822832822799
1769251541404,-0.0092010498046875,-0.2043609619140625,-1.01171875,0.2407665401697158,0.0503704957664012,0.1947681605815887
1769251541414,-0.0095672607421875,-0.20892333984375,-0.9925537109375,0.2242522835731506,0.0710957497358322,0.2130475640296936
1769251541424,-0.0166168212890625,-0.2144622802734375,-0.9689178466796876,0.1942150145769119,0.0832410976290702,0.2200993448495865
1769251541434,-0.0308380126953125,-0.2162933349609375,-0.946014404296875,0.1424868404865265,0.1095307543873786,0.2083393633365631
1769251541444,-0.0473175048828125,-0.2155303955078125,-0.9215240478515624,0.074913389980793,0.1101864278316497,0.1784171462059021
1769251541454,-0.068267822265625,-0.2097625732421875,-0.9038543701171876,0.0068536452017724,0.1040507704019546,0.1464003622531891
1769251541464,-0.0683746337890625,-0.2020721435546875,-0.9039459228515624,-0.0520312413573265,0.0908279046416282,0.1271038949489593
1769251541474,-0.0608978271484375,-0.2015380859375,-0.915435791015625,-0.0959329232573509,0.0830509439110755,0.116718091070652
1769251541484,-0.0500335693359375,-0.1885223388671875,-0.9434967041015624,-0.1193445026874542,0.0790543407201767,0.1128405332565307
1769251541495,-0.034027099609375,-0.184814453125,-0.965240478515625,-0.1352965682744979,0.0790644586086273,0.106607936322689
1769251541504,-0.0300750732421875,-0.193450927734375,-0.9681243896484376,-0.1561344712972641,0.071258470416069,0.0921379178762435
1769251541515,-0.0320587158203125,-0.2109375,-0.9620513916015624,-0.1746564954519271,0.0659678280353546,0.083474650979042
1769251541525,-0.027587890625,-0.210235595703125,-0.96734619140625,-0.1814198642969131,0.0601775869727134,0.0665284246206283
1769251541535,-0.033447265625,-0.1950225830078125,-0.97674560546875,-0.1635212898254394,0.0617962554097175,0.0583975277841091
1769251541545,-0.030670166015625,-0.1873779296875,-0.994476318359375,-0.1384998261928558,0.0535202175378799,0.0540536493062973
1769251541555,-0.0268402099609375,-0.187835693359375,-1.00518798828125,-0.1054715663194656,0.0585141777992248,0.0533372573554515
1769251541565,-0.01904296875,-0.175567626953125,-1.020416259765625,-0.0736670270562172,0.0682882443070411,0.0444292500615119
1769251541575,-0.0222625732421875,-0.167694091796875,-1.0227508544921875,-0.0481270477175712,0.0752396285533905,0.0478439554572105
1769251541585,-0.008270263671875,-0.1830291748046875,-1.0108489990234375,-0.0383356697857379,0.0651451796293258,0.0647342577576637
1769251541595,0.0220184326171875,-0.193878173828125,-1.000732421875,-0.0389050543308258,0.0706715062260627,0.0879154726862907
1769251541605,0.0362091064453125,-0.1959075927734375,-0.993072509765625,-0.0414528995752334,0.0855258181691169,0.0941062569618225
1769251541615,0.030548095703125,-0.181182861328125,-0.984588623046875,-0.0357161872088909,0.084562286734581,0.0852749496698379
1769251541625,0.01373291015625,-0.1542205810546875,-0.98236083984375,-0.0167427603155374,0.0831838324666023,0.0797345116734504
1769251541635,-0.0093231201171875,-0.13897705078125,-0.98455810546875,-0.0017214673571288,0.0876627415418624,0.0725511685013771
1769251541645,-0.0272979736328125,-0.1484527587890625,-0.9796600341796876,0.0231905411928892,0.0892057791352272,0.072941854596138
1769251541655,-0.0247344970703125,-0.167236328125,-0.9776763916015624,0.0527907758951187,0.0834626704454422,0.065020278096199
1769251541665,-0.0281829833984375,-0.185821533203125,-0.977752685546875,0.0845154151320457,0.0592638552188873,0.0432952754199504
1769251541676,-0.03900146484375,-0.204559326171875,-0.972564697265625,0.0965529009699821,0.0353223048150539,0.0098571581766009
1769251541685,-0.046661376953125,-0.221038818359375,-0.96551513671875,0.0866853594779968,0.0195622500032186,-0.0123325660824775
1769251541695,-0.0377655029296875,-0.23919677734375,-0.952239990234375,0.0700943991541862,0.0073814834468066,-0.0146109005436301
1769251541705,-0.0123138427734375,-0.244171142578125,-0.9484405517578124,0.0447488278150558,-0.001522795530036,0.0007872303831391
1769251541715,0.0147247314453125,-0.2391510009765625,-0.9444122314453124,0.0177481044083833,-0.0038144455756992,0.0375958457589149
1769251541725,0.03790283203125,-0.2234954833984375,-0.95550537109375,0.0072797508910298,0.0081290332600474,0.0898646414279937
1769251541736,0.0452728271484375,-0.197021484375,-0.9837799072265624,0.0200626570731401,0.0815398693084716,0.1295209676027298
1769251541746,0.0340118408203125,-0.1680908203125,-1.0079193115234375,0.0224139615893363,0.1084327325224876,0.1606133729219436
1769251541756,0.029296875,-0.160552978515625,-1.0048065185546875,0.0145006459206342,0.072558619081974,0.1802270263433456
1769251541766,0.030914306640625,-0.186981201171875,-0.9922637939453124,0.0006764429272152,0.0466641746461391,0.2030061036348343
1769251541776,0.045135498046875,-0.2128753662109375,-0.987152099609375,-0.0054264571517705,0.0464018546044826,0.2128877639770507
1769251541786,0.0531768798828125,-0.2159881591796875,-0.993255615234375,0.0069881347008049,0.0470897480845451,0.2058567553758621
1769251541796,0.0452880859375,-0.2107696533203125,-0.9986724853515624,0.0228480584919452,0.0351515971124172,0.1981050968170166
1769251541806,0.0386199951171875,-0.200592041015625,-0.990966796875,0.034067690372467,0.0102039016783237,0.1986393183469772
1769251541816,0.0248565673828125,-0.1906585693359375,-0.977874755859375,0.0395335592329502,0.0089636677876114,0.2001959383487701
1769251541826,0.0080108642578125,-0.191497802734375,-0.958160400390625,0.0376025028526783,0.0205667931586503,0.2222764790058136
1769251541836,0.015960693359375,-0.19329833984375,-0.9427947998046876,0.0167784467339515,0.0198554638773202,0.2478393614292144
1769251541846,0.0218963623046875,-0.19940185546875,-0.929443359375,-0.0133086144924163,0.0107874004170298,0.258004367351532
1769251541856,0.0150299072265625,-0.199188232421875,-0.9287261962890624,-0.0357183180749416,0.0119839580729603,0.2566650807857513
1769251541866,0.005401611328125,-0.1845703125,-0.95111083984375,-0.0509840883314609,0.0185566395521163,0.2573239505290985
1769251541876,-0.0024261474609375,-0.1707305908203125,-0.974578857421875,-0.0609738714993,0.036903690546751,0.2729628384113312
1769251541886,0.002685546875,-0.1796722412109375,-0.980133056640625,-0.0673209801316261,0.0447618775069713,0.2826298475265503
1769251541896,0.0019683837890625,-0.1880645751953125,-0.97393798828125,-0.0623691007494926,0.0311749633401632,0.2793000936508178
1769251541907,0.0072479248046875,-0.18359375,-0.9726409912109376,-0.055335160344839,0.0132215293124318,0.2776270806789398
1769251541916,0.0159759521484375,-0.182647705078125,-0.975067138671875,-0.0444468259811401,0.0195710379630327,0.2758206725120544
1769251541926,0.02459716796875,-0.171600341796875,-0.9806365966796876,-0.0352549254894256,0.0172498263418674,0.2668220996856689
1769251541936,0.0209808349609375,-0.1718597412109375,-0.9741668701171876,-0.055657934397459,0.0037920749746263,0.2708147168159485
1769251541947,0.01953125,-0.1894989013671875,-0.9667205810546876,-0.0832581371068954,0.0214163418859243,0.2894238233566284
1769251541957,0.00518798828125,-0.1885986328125,-0.9643707275390624,-0.1109949573874473,0.0210299175232648,0.2852205634117126
1769251541967,-0.0359344482421875,-0.1796875,-0.9565277099609376,-0.1292818188667297,0.0249125398695468,0.2782100439071655
1769251541977,-0.0595245361328125,-0.166290283203125,-0.9564971923828124,-0.1310078203678131,0.0267469249665737,0.2817504703998565
1769251541987,-0.0541839599609375,-0.1647186279296875,-0.9582061767578124,-0.136372223496437,0.0119565278291702,0.2944971323013305
1769251541997,-0.044647216796875,-0.184234619140625,-0.9525909423828124,-0.1436610221862793,0.0043875579722225,0.2893601655960083
1769251542007,-0.033538818359375,-0.1942901611328125,-0.9590301513671876,-0.1492733806371688,0.0141610922291874,0.2771972417831421
1769251542017,-0.0135498046875,-0.193603515625,-0.968536376953125,-0.1487985253334045,0.0224792100489139,0.2729862630367279
1769251542027,0.001861572265625,-0.194091796875,-0.9678955078125,-0.1406428664922714,0.0046719834208488,0.2739444673061371
1769251542037,0.006011962890625,-0.1926727294921875,-0.9687652587890624,-0.1324744224548339,-0.0278729107230901,0.2688812613487243
1769251542047,-0.0051422119140625,-0.1764678955078125,-0.983001708984375,-0.1199410483241081,-0.0347361415624618,0.2541555762290954
1769251542057,-0.0257110595703125,-0.15106201171875,-1.0061798095703125,-0.1030467599630355,-0.0331363826990127,0.2185701578855514
1769251542067,-0.0482940673828125,-0.1318817138671875,-1.019134521484375,-0.0863812267780304,-0.0139336585998535,0.1890343725681305
1769251542077,-0.0508880615234375,-0.1407928466796875,-1.0199432373046875,-0.0704581886529922,0.0020090886391699,0.1832302808761596
1769251542089,-0.031463623046875,-0.1564178466796875,-1.0115203857421875,-0.0533231422305107,0.0079727051779627,0.1876367479562759
1769251542097,-0.0211639404296875,-0.1699371337890625,-0.99896240234375,-0.0405825786292552,0.0068605691194534,0.2122603356838226
1769251542107,0.0096588134765625,-0.1909332275390625,-0.9878082275390624,-0.0346631705760955,0.0177156142890453,0.2427236884832382
1769251542117,0.032501220703125,-0.1975555419921875,-0.98468017578125,-0.0383785478770732,0.0336186811327934,0.2517411708831787
1769251542127,0.0233306884765625,-0.194366455078125,-0.9857330322265624,-0.0464069135487079,0.0590015351772308,0.2538636922836303
1769251542137,0.019287109375,-0.1860504150390625,-0.997802734375,-0.0400627292692661,0.0769802704453468,0.2635344266891479
1769251542148,0.017547607421875,-0.1776885986328125,-1.01556396484375,-0.024672856554389,0.0729650184512138,0.2690050899982452
1769251542158,-0.00054931640625,-0.180938720703125,-1.020416259765625,-0.0160013362765312,0.0874155983328819,0.2662431299686432
1769251542168,-0.0150299072265625,-0.1853485107421875,-1.0143280029296875,0.0039561255834996,0.1255001276731491,0.2372532933950424
1769251542178,-0.0375213623046875,-0.1542205810546875,-1.0145111083984375,0.0332453064620494,0.1108820438385009,0.2092099487781524
1769251542188,-0.058563232421875,-0.1407012939453125,-0.9971466064453124,0.0594747774302959,0.0657518506050109,0.2042183876037597
1769251542198,-0.048309326171875,-0.1651611328125,-0.97503662109375,0.0587868839502334,0.0483286492526531,0.201843112707138
1769251542208,-0.0267181396484375,-0.19354248046875,-0.9614715576171876,0.0415173508226871,0.0520301796495914,0.2039036005735397
1769251542218,-0.0015106201171875,-0.2049713134765625,-0.961456298828125,0.0193614475429058,0.0624676384031772,0.1966083943843841
1769251542228,0.0030517578125,-0.195709228515625,-0.9595794677734376,0.0030863373540341,0.0567434392869472,0.179136723279953
1769251542238,-0.0143890380859375,-0.1689910888671875,-0.9630584716796876,-0.0063889236189424,0.0617627017199993,0.1631092876195907
1769251542248,-0.031982421875,-0.155975341796875,-0.9573974609375,-0.0285235196352005,0.0540682934224605,0.1568987965583801
1769251542258,-0.040374755859375,-0.158355712890625,-0.9488067626953124,-0.0473241060972213,0.0218917168676853,0.1641263514757156
1769251542268,-0.03692626953125,-0.15789794921875,-0.952178955078125,-0.0719879046082496,0.0255042947828769,0.1778379082679748
1769251542278,-0.03253173828125,-0.16888427734375,-0.960723876953125,-0.0947574004530906,0.0366325788199901,0.1853160560131073
1769251542288,-0.0277862548828125,-0.1772003173828125,-0.9703216552734376,-0.1118777990341186,0.0359393581748008,0.1796986609697342
1769251542298,-0.02044677734375,-0.182891845703125,-0.975250244140625,-0.1254343539476394,0.0437706485390663,0.1692079305648803
1769251542308,-0.0193939208984375,-0.184326171875,-0.979522705078125,-0.1344081461429596,0.0555540733039379,0.1542835831642151
1769251542318,-0.0179443359375,-0.18096923828125,-0.9815216064453124,-0.141921192407608,0.0526277907192707,0.1434421092271804
1769251542328,-0.0166778564453125,-0.181640625,-0.9785919189453124,-0.1550021022558212,0.0385210253298282,0.130284771323204
1769251542338,-0.021697998046875,-0.1825103759765625,-0.9737396240234376,-0.1684393435716629,0.0338248088955879,0.1282016485929489
1769251542349,-0.0146942138671875,-0.17852783203125,-0.9748382568359376,-0.1793282181024551,0.0295818597078323,0.1219440177083015
1769251542359,-0.0213775634765625,-0.171722412109375,-0.976104736328125,-0.1857512295246124,0.028803152963519,0.1119635552167892
1769251542369,-0.03131103515625,-0.162384033203125,-0.98309326171875,-0.1889094710350036,0.0556555390357971,0.1106626018881797
1769251542379,-0.0271453857421875,-0.158966064453125,-0.996246337890625,-0.1838800907135009,0.0609227381646633,0.113602727651596
1769251542389,-0.0186614990234375,-0.156158447265625,-1.0039825439453125,-0.1657953560352325,0.061457235366106,0.1088098362088203
1769251542399,-0.021728515625,-0.1488494873046875,-1.0124359130859375,-0.1397552341222763,0.0455618910491466,0.0894100368022918
1769251542409,-0.0312347412109375,-0.143157958984375,-1.014984130859375,-0.1160389855504036,0.0314830914139747,0.0895690321922302
1769251542419,-0.0242767333984375,-0.145233154296875,-1.015777587890625,-0.0966421216726303,0.0388477966189384,0.1017615124583244
1769251542429,-0.0143890380859375,-0.1532440185546875,-1.0045623779296875,-0.0769634917378425,0.0230600461363792,0.1130453273653984
1769251542439,-0.0085601806640625,-0.1547393798828125,-0.9895172119140624,-0.0516852997243404,0.0222925227135419,0.1301489472389221
1769251542449,-0.0008392333984375,-0.149658203125,-0.99407958984375,-0.0496423877775669,0.0536682866513729,0.1457071304321289
1769251542459,-0.0061492919921875,-0.1619110107421875,-0.99481201171875,-0.0349228307604789,0.0768758729100227,0.1460112631320953
1769251542469,-0.014923095703125,-0.151336669921875,-1.0052490234375,0.0085271755233407,0.0707455426454544,0.1223163232207298
1769251542479,-0.029998779296875,-0.12066650390625,-1.0154876708984375,0.0706430077552795,0.0366000905632972,0.0993143394589424
1769251542489,-0.0396575927734375,-0.10394287109375,-1.016082763671875,0.1158749386668205,-0.0011763182701542,0.0959978997707367
1769251542499,-0.037994384765625,-0.122711181640625,-1.0028839111328125,0.1338747143745422,-0.0230307504534721,0.1138799637556076
1769251542509,-0.0287628173828125,-0.1578826904296875,-0.984283447265625,0.1294250935316085,-0.0132481614127755,0.1116674095392227
1769251542519,-0.032501220703125,-0.178131103515625,-0.9628448486328124,0.1136456057429313,0.0169539488852024,0.0928841307759285
1769251542529,-0.022613525390625,-0.1732025146484375,-0.9520111083984376,0.0837931707501411,0.0209052823483943,0.0675817057490348
1769251542539,-0.015625,-0.1783905029296875,-0.935150146484375,0.0435671843588352,-0.0071639032103121,0.0573349297046661
1769251542549,-0.0044708251953125,-0.1785430908203125,-0.9283905029296876,0.001881523290649,-0.012891030870378,0.047731302678585
1769251542559,-0.0088653564453125,-0.1754150390625,-0.931976318359375,-0.0370677411556243,-0.0130359074100852,0.0248227920383214
1769251542570,-0.030792236328125,-0.169158935546875,-0.9405517578125,-0.074958398938179,-0.0091237239539623,-0.0070501863956451
1769251542580,-0.0447235107421875,-0.1641693115234375,-0.958831787109375,-0.1034715324640274,-0.0116286929696798,-0.0247479565441608
1769251542590,-0.0293121337890625,-0.161773681640625,-0.9747314453125,-0.1284719556570053,-0.025023328140378,-0.0264680925756692
1769251542600,-0.003814697265625,-0.1650238037109375,-0.9877777099609376,-0.1440698206424713,-0.004635764285922,-0.0264779459685087
1769251542610,0.0120391845703125,-0.1658935546875,-1.001953125,-0.1431270688772201,0.018281802535057,-0.0268907360732555
1769251542620,0.024078369140625,-0.1547393798828125,-1.01116943359375,-0.1317780017852783,0.0203864984214305,-0.0382240861654281
1769251542630,0.0161895751953125,-0.148956298828125,-1.0125274658203125,-0.1203628927469253,0.0066792080178856,-0.0597996823489666
1769251542640,-0.00225830078125,-0.1595611572265625,-1.005523681640625,-0.1130647659301757,0.0062456452287733,-0.0596984848380088
1769251542650,-0.00262451171875,-0.175201416015625,-1.0019989013671875,-0.1060859560966491,0.0090456930920481,-0.0556616634130477
1769251542660,-0.005157470703125,-0.185272216796875,-0.9993743896484376,-0.0910830348730087,0.0167068075388669,-0.0523449629545211
1769251542670,-0.007720947265625,-0.1890411376953125,-0.99993896484375,-0.0752827674150466,0.0075998627580702,-0.0474274381995201
1769251542680,-0.006378173828125,-0.199676513671875,-0.9966278076171876,-0.0501894019544124,0.0105719501152634,-0.040341030806303
1769251542690,-0.006683349609375,-0.16644287109375,-1.002899169921875,0.0140854585915803,0.0065186191350221,-0.0588896833360195
1769251542700,-0.0286407470703125,-0.1027069091796875,-1.0324249267578125,0.0956775248050689,-0.015060975216329,-0.0855117067694664
1769251542711,-0.040985107421875,-0.054046630859375,-1.0380859375,0.1526039242744445,-0.0554283708333969,-0.0951291769742965
1769251542720,-0.0231475830078125,-0.070556640625,-1.019317626953125,0.1594253480434417,-0.105010837316513,-0.0550339557230472
1769251542730,0.0247344970703125,-0.132781982421875,-0.9837188720703124,0.1244497820734977,-0.1111201271414756,-0.0190828815102577
1769251542740,0.04052734375,-0.173675537109375,-0.96600341796875,0.0762881115078926,-0.0513390861451625,-0.0267035160213708
1769251542750,0.0193023681640625,-0.176300048828125,-0.9676971435546876,0.0402552783489227,0.0146915940567851,-0.0564888417720794
1769251542761,-0.007720947265625,-0.1449432373046875,-0.9777679443359376,0.0185635648667812,0.0140841277316212,-0.0978706330060958
1769251542770,-0.038177490234375,-0.1277923583984375,-0.9683380126953124,0.0062182149849832,-0.0270257592201232,-0.1246921271085739
1769251542781,-0.0522613525390625,-0.130218505859375,-0.9603424072265624,-0.0072523201815783,-0.0639925673604011,-0.152119755744934
1769251542791,-0.064971923828125,-0.1484527587890625,-0.9569091796875,-0.0115394769236445,-0.0679644048213958,-0.1770906299352646
1769251542801,-0.0546417236328125,-0.1442108154296875,-0.9725189208984376,0.0030104373581707,-0.0637430250644683,-0.1965689808130264
1769251542811,-0.0318603515625,-0.1339874267578125,-0.993408203125,0.0187310762703418,-0.0766577571630477,-0.1905252039432525
1769251542821,-0.00042724609375,-0.13653564453125,-1.00103759765625,0.0054432349279522,-0.0705122500658035,-0.1652608662843704
1769251542831,0.0181732177734375,-0.1523284912109375,-0.9929656982421876,-0.037926610559225,-0.0331872478127479,-0.1508417129516601
1769251542841,0.0121917724609375,-0.1665496826171875,-0.97430419921875,-0.0936271548271179,-0.0127839725464582,-0.1593590378761291
1769251542851,-0.0022735595703125,-0.1561279296875,-0.958770751953125,-0.1280407905578613,-0.0044767735525965,-0.1690947562456131
1769251542861,-0.0120697021484375,-0.1410980224609375,-0.9583892822265624,-0.1355383843183517,0.0138409808278083,-0.160415768623352
1769251542871,-0.0116424560546875,-0.1197052001953125,-0.97418212890625,-0.1173077151179313,0.0049843722954392,-0.1283691525459289
1769251542881,-0.0110321044921875,-0.118377685546875,-0.9874420166015624,-0.094090811908245,-0.011845207773149,-0.0966940522193908
1769251542891,-0.0153350830078125,-0.1325531005859375,-0.99835205078125,-0.0640663355588913,-0.0215873178094625,-0.0784165114164352
1769251542901,-0.0179443359375,-0.1463470458984375,-1.010498046875,-0.0442265830934047,-0.0176738016307353,-0.0753285735845565
1769251542911,-0.0153045654296875,-0.1663970947265625,-1.0192108154296875,-0.0291227307170629,-0.0135501632466912,-0.0706451386213302
1769251542921,-0.0086822509765625,-0.1883087158203125,-1.0177154541015625,-0.0213918406516313,-0.0224419254809618,-0.0754500180482864
1769251542931,-0.0092926025390625,-0.1983489990234375,-1.0188446044921875,-0.0144548397511243,-0.0314615182578563,-0.0897298827767372
1769251542942,-0.0128021240234375,-0.1991424560546875,-1.0231170654296875,-0.0054783886298537,-0.0457778759300708,-0.1034757941961288
1769251542951,-0.0096588134765625,-0.1957550048828125,-1.0290985107421875,0.0067809405736625,-0.0518144629895687,-0.1280032396316528
1769251542962,-0.02313232421875,-0.185089111328125,-1.0289154052734375,0.0373220704495906,-0.0268891379237175,-0.1680023223161697
1769251542971,-0.0382843017578125,-0.16876220703125,-1.0264434814453125,0.0769786685705185,0.0034075146540999,-0.2024500370025634
1769251542982,-0.04522705078125,-0.164794921875,-1.0137786865234375,0.1157377809286117,-0.0031204258557409,-0.2349352836608886
1769251542992,-0.0530853271484375,-0.1563873291015625,-0.9976806640625,0.1549568325281143,-0.0274012647569179,-0.258856326341629
1769251543002,-0.048919677734375,-0.1534576416015625,-0.988006591796875,0.1809420883655548,-0.0514847636222839,-0.2765796780586242
1769251543012,-0.0397186279296875,-0.15435791015625,-0.9843292236328124,0.1974539458751678,-0.0804168134927749,-0.2947799861431122
1769251543022,-0.0279998779296875,-0.151947021484375,-0.978607177734375,0.1973836421966552,-0.1185572743415832,-0.2983651161193847
1769251543032,-0.0105438232421875,-0.1508941650390625,-0.9750518798828124,0.1845155209302902,-0.1219075322151184,-0.2825677692890167
1769251543042,0.0059661865234375,-0.1485137939453125,-0.9768218994140624,0.1608424186706543,-0.1204941868782043,-0.2618220150470733
1769251543052,0.0050048828125,-0.1562347412109375,-0.9765625,0.1379400193691253,-0.1001271307468414,-0.2397092580795288
1769251543062,0.0038909912109375,-0.15374755859375,-0.98004150390625,0.1110024154186248,-0.0668655857443809,-0.2323741167783737
1769251543072,-0.0095672607421875,-0.1592559814453125,-0.973907470703125,0.0830059349536895,-0.0414744727313518,-0.2406256645917892
1769251543082,-0.02593994140625,-0.1649017333984375,-0.9610748291015624,0.0613754764199256,-0.0292710699141025,-0.2476872950792312
1769251543092,-0.0257568359375,-0.1680450439453125,-0.95501708984375,0.043079026043415,-0.0421170927584171,-0.2485067546367645
1769251543102,-0.0218658447265625,-0.1697540283203125,-0.95086669921875,0.0250172019004821,-0.0557929575443267,-0.2486465722322464
1769251543112,-0.0167083740234375,-0.1708526611328125,-0.953399658203125,-0.0006367618334479,-0.057661697268486,-0.2467959374189376
1769251543122,-0.009002685546875,-0.1743011474609375,-0.957305908203125,-0.0251793898642063,-0.0618002489209175,-0.2405146062374115
1769251543132,-0.0029296875,-0.1760711669921875,-0.955291748046875,-0.0542419329285621,-0.061506237834692,-0.2387177646160125
1769251543142,-0.0052032470703125,-0.1761932373046875,-0.9567108154296876,-0.0715005472302436,-0.0589376203715801,-0.2305306792259216
1769251543152,0.0031890869140625,-0.170989990234375,-0.96453857421875,-0.0795883014798164,-0.0486162714660167,-0.2167978286743164
1769251543162,0.011138916015625,-0.1652679443359375,-0.9718170166015624,-0.0806618258357048,-0.0448713339865207,-0.207987293601036
1769251543172,0.005828857421875,-0.16351318359375,-0.97900390625,-0.0682898387312889,-0.0588579885661602,-0.1970177292823791
1769251543183,0.005828857421875,-0.1579437255859375,-0.9869842529296876,-0.0503348112106323,-0.0639510229229927,-0.1852316409349441
1769251543193,-0.0019378662109375,-0.1509552001953125,-0.9946746826171876,-0.0414108224213123,-0.075126975774765,-0.1674443930387497
1769251543203,0.0017852783203125,-0.1515960693359375,-0.987274169921875,-0.0454252734780311,-0.060780793428421,-0.1437326669692993
1769251543213,0.0040283203125,-0.1576080322265625,-0.9830322265625,-0.0413351878523826,-0.0575008429586887,-0.1266029477119445
1769251543223,-0.002685546875,-0.151885986328125,-0.9932403564453124,-0.047305729240179,-0.0046016760170459,-0.1035559549927711
1769251543233,-0.0078887939453125,-0.15057373046875,-0.9951934814453124,-0.0574891269207,0.0477179884910583,-0.0808663517236709
1769251543243,-0.0171661376953125,-0.149810791015625,-0.9921722412109376,-0.0355848930776119,0.0822930112481117,-0.0875655338168144
1769251543253,-0.0466156005859375,-0.1417388916015625,-1.0146484375,-0.0064650899730622,0.1068635955452919,-0.0824306905269622
1769251543263,-0.0459747314453125,-0.13653564453125,-1.0272369384765625,0.0311113130301237,0.0877623409032821,-0.0877136066555976
1769251543273,-0.0399627685546875,-0.146728515625,-1.0233917236328125,0.0694381967186927,0.049785666167736,-0.1054305508732795
1769251543283,-0.0324859619140625,-0.146881103515625,-1.006500244140625,0.1026350334286689,0.0124577349051833,-0.1392444372177124
1769251543293,-0.038909912109375,-0.1530914306640625,-0.99566650390625,0.1322443187236786,-0.0097740674391388,-0.1750141531229019
1769251543303,-0.038177490234375,-0.15185546875,-0.989410400390625,0.1608615815639495,-0.0174644775688648,-0.1822776645421981
1769251543313,-0.02423095703125,-0.1473388671875,-0.9954833984375,0.1973098814487457,-0.0039984700269997,-0.1718282103538513
1769251543323,-0.0086822509765625,-0.141571044921875,-1.0102081298828125,0.2241816967725753,0.0091351754963397,-0.1512292027473449
1769251543333,-0.0004119873046875,-0.140716552734375,-1.0105133056640625,0.2397625297307968,0.0246467571705579,-0.1311532258987426
1769251543343,0.0071258544921875,-0.1436767578125,-1.003173828125,0.2410927712917328,0.0426396057009696,-0.1202105656266212
1769251543353,-0.0018768310546875,-0.160125732421875,-0.9940185546875,0.2362871021032333,0.055946622043848,-0.1258831024169922
1769251543363,-0.0159759521484375,-0.1743011474609375,-0.9868316650390624,0.2392461448907852,0.0720124095678329,-0.1310094147920608
1769251543373,-0.0190277099609375,-0.1919403076171875,-0.994720458984375,0.2503677606582641,0.0924958437681198,-0.1381035447120666
1769251543383,-0.015167236328125,-0.1940460205078125,-1.0143585205078125,0.269956111907959,0.1299334913492202,-0.1367384046316146
1769251543394,-0.001312255859375,-0.1876220703125,-1.027130126953125,0.2956407070159912,0.1298853009939193,-0.0976996645331382
1769251543404,0.084991455078125,-0.1344451904296875,-1.0151214599609375,0.3779262602329254,-0.0167749859392642,-0.0913237854838371
1769251543414,-0.0008697509765625,-0.18463134765625,-1.022369384765625,0.3727370798587799,-0.0389354154467582,-0.1640310138463974
1769251543424,-0.073150634765625,-0.1970672607421875,-0.9685516357421876,0.3979124724864959,-0.0527401752769947,-0.1772581338882446
1769251543434,-0.0024261474609375,-0.1618804931640625,-0.973419189453125,0.4050665199756622,-0.0739352107048034,-0.1245499178767204
1769251543444,0.0334014892578125,-0.17279052734375,-0.9488067626953124,0.3727437555789947,-0.0637020170688629,-0.1210105791687965
1769251543454,-0.0011749267578125,-0.2106781005859375,-0.918670654296875,0.3132506012916565,-0.0164998807013034,-0.1254322230815887
1769251543464,-0.0039215087890625,-0.2267913818359375,-0.9113311767578124,0.2615927159786224,0.0272760950028896,-0.1037524938583374
1769251543474,0.01019287109375,-0.211029052734375,-0.93084716796875,0.2151341438293457,0.0548350177705287,-0.0986972823739051
1769251543484,-0.0182342529296875,-0.2005615234375,-0.9356231689453124,0.1724612563848495,0.1275433152914047,-0.1316083669662475
1769251543494,-0.0550537109375,-0.1970367431640625,-0.9404754638671876,0.1151260584592819,0.1544388383626938,-0.1529695689678192
1769251543504,-0.046600341796875,-0.2094573974609375,-0.921234130859375,0.0690834671258926,0.1173130422830581,-0.1441121697425842
1769251543514,-0.0171356201171875,-0.214599609375,-0.9069976806640624,0.0158966742455959,0.0359425544738769,-0.1371101886034011
1769251543524,-0.0130157470703125,-0.2273712158203125,-0.8872833251953125,-0.0526821203529834,-0.0301453862339258,-0.1375141888856887
1769251543534,-0.0116424560546875,-0.2396087646484375,-0.8732452392578125,-0.1272817850112915,-0.1176195740699768,-0.1406676322221756
1769251543544,-0.0051727294921875,-0.229766845703125,-0.8704681396484375,-0.1782227307558059,-0.1392867863178253,-0.1422769874334335
1769251543554,-0.00115966796875,-0.1923065185546875,-0.904205322265625,-0.2147051095962524,-0.0513026006519794,-0.133032351732254
1769251543564,0.00958251953125,-0.12786865234375,-0.955169677734375,-0.2736712396144867,0.02428057231009,-0.1119190752506256
1769251543574,0.0111846923828125,-0.1539459228515625,-0.95867919921875,-0.3405770361423492,0.0615784078836441,-0.0948753803968429
1769251543584,0.010894775390625,-0.1930084228515625,-0.9291534423828124,-0.37762451171875,0.0772311389446258,-0.0805497020483017
1769251543594,0.0229949951171875,-0.2027740478515625,-0.9377593994140624,-0.3868228197097778,0.0470367521047592,-0.0479848347604274
1769251543604,0.0348663330078125,-0.1927642822265625,-0.9590301513671876,-0.3728744983673095,-0.0171148050576448,-0.0362275131046772
1769251543615,0.019439697265625,-0.1926422119140625,-0.981964111328125,-0.3366179764270782,-0.0317728444933891,-0.0350876785814762
1769251543625,0.000213623046875,-0.1964111328125,-1.0068206787109375,-0.3176900744438171,-0.037555631250143,-0.0588606521487236
1769251543635,-0.03375244140625,-0.2074127197265625,-1.0029449462890625,-0.287660539150238,-0.0351934060454368,-0.0896254926919937
1769251543645,-0.0491943359375,-0.2104339599609375,-1.009521484375,-0.2697891294956207,-0.036609411239624,-0.1094471290707588
1769251543655,-0.034332275390625,-0.2131195068359375,-0.99700927734375,-0.2610467672348022,-0.0620876066386699,-0.0979092493653297
1769251543665,0.0029144287109375,-0.211334228515625,-0.9903564453125,-0.2486873120069503,-0.0941075906157493,-0.0691500455141067
1769251543675,0.02392578125,-0.1955108642578125,-0.9995574951171876,-0.2278067916631698,-0.0856986567378044,-0.0413056276738643
1769251543685,0.0252532958984375,-0.174407958984375,-1.01519775390625,-0.2293186783790588,-0.0500607714056968,-0.0368461646139621
1769251543695,-0.0052490234375,-0.1692352294921875,-1.0078887939453125,-0.225620612502098,-0.0284753162413835,-0.0432305596768856
1769251543705,-0.020416259765625,-0.1582489013671875,-1.0037841796875,-0.2105481773614883,-0.0323171950876712,-0.048207476735115
1769251543715,-0.0253143310546875,-0.149078369140625,-1.006805419921875,-0.1958784312009811,-0.0195848867297172,-0.0553229115903377
1769251543725,-0.0254669189453125,-0.1478118896484375,-1.012359619140625,-0.1867831945419311,-0.0013534184545278,-0.0604753270745277
1769251543735,-0.01617431640625,-0.1563720703125,-1.01239013671875,-0.1720766872167587,0.0191177688539028,-0.0557791106402874
1769251543745,0.0034027099609375,-0.16009521484375,-1.013275146484375,-0.152529090642929,-0.0016005598008632,-0.0445815809071064
1769251543755,0.02044677734375,-0.1608123779296875,-1.0065460205078125,-0.1224540099501609,-0.0407634079456329,-0.0426332131028175
1769251543765,0.014434814453125,-0.169921875,-0.9976348876953124,-0.1048507839441299,-0.0673643946647644,-0.05679776892066
1769251543775,0.0059967041015625,-0.1859283447265625,-0.9858551025390624,-0.0737269520759582,-0.1149920970201492,-0.0711596608161926
1769251543785,0.009063720703125,-0.1839752197265625,-0.99273681640625,-0.024685638025403,-0.1606674492359161,-0.0461073070764541
1769251543795,0.0370330810546875,-0.16961669921875,-1.01617431640625,0.023578830063343,-0.1596234887838363,0.0034985947422683
1769251543805,0.0482940673828125,-0.170928955078125,-1.0428619384765625,0.0373966395854949,-0.0821188390254974,0.0624109134078025
1769251543816,0.0538787841796875,-0.18243408203125,-1.0406494140625,0.0214203372597694,0.0027001791168004,0.1234588176012039
1769251543826,0.05291748046875,-0.1943359375,-1.024871826171875,0.0019281286513432,0.0728638172149658,0.1534785032272339
1769251543836,0.0294189453125,-0.181365966796875,-1.0123748779296875,-0.0158079918473958,0.1184134632349014,0.1699102073907852
1769251543846,0.01324462890625,-0.1598358154296875,-1.00531005859375,-0.0021997711155563,0.2646303176879883,0.1757001876831054
1769251543856,-0.0020599365234375,-0.15771484375,-1.0117340087890625,-0.0172325167804956,0.1901337206363678,0.1955367475748062
1769251543866,-0.003387451171875,-0.142303466796875,-1.0085601806640625,-0.0179481077939271,0.167756512761116,0.2055054903030395
1769251543876,-0.003814697265625,-0.14361572265625,-1.0185089111328125,-0.015206916257739,0.1864316612482071,0.1974467635154724
1769251543886,-0.003997802734375,-0.158660888671875,-1.01605224609375,-0.0178564954549074,0.2235018014907837,0.1931148618459701
1769251543896,0.001373291015625,-0.1590423583984375,-1.0013580322265625,-0.01194454357028,0.2072415947914123,0.182398572564125
1769251543906,-0.006195068359375,-0.158172607421875,-0.986663818359375,-0.0040879524312913,0.1923049986362457,0.1735595315694809
1769251543916,-0.007843017578125,-0.154876708984375,-0.9749755859375,0.015852466225624,0.16424460709095,0.1571600586175918
1769251543926,-0.0157470703125,-0.158477783203125,-0.9726409912109376,0.0497728809714317,0.1026430204510688,0.1310339123010635
1769251543936,-0.018157958984375,-0.157318115234375,-0.96923828125,0.0790945515036583,0.0212917067110538,0.118393488228321
1769251543946,-0.003204345703125,-0.1576385498046875,-0.97418212890625,0.1012573763728141,-0.0139027656987309,0.1128261536359787
1769251543956,0.0086669921875,-0.159088134765625,-0.9762725830078124,0.1204491853713989,-0.0391255654394626,0.096505768597126
1769251543966,-0.005401611328125,-0.1623382568359375,-0.9757537841796876,0.1377663910388946,-0.0367905050516128,0.0768915861845016
1769251543976,-0.017791748046875,-0.159759521484375,-0.9905853271484376,0.1428088098764419,0.0091610075905919,0.0745514631271362
1769251543986,-0.01361083984375,-0.158843994140625,-0.9938201904296876,0.1155883818864822,-0.0043049999512732,0.0737999230623245
1769251543996,-0.020172119140625,-0.177581787109375,-0.9643402099609376,0.091609813272953,-0.0093564838171005,0.0502423979341983
1769251544006,-0.03369140625,-0.191009521484375,-0.95721435546875,0.0699090436100959,-0.0218725409358739,0.016759805381298
1769251544016,-0.03839111328125,-0.1923828125,-0.9562225341796876,0.0565871112048625,-0.0465778894722461,-0.0145648280158638
1769251544027,-0.0278472900390625,-0.18701171875,-0.955963134765625,0.0530158132314682,-0.0807736739516258,-0.0310668386518955
1769251544037,-0.010955810546875,-0.181304931640625,-0.9610595703125,0.050656784325838,-0.0966431871056556,-0.0288644041866064
1769251544047,0.0040740966796875,-0.1670989990234375,-0.97247314453125,0.0707767009735107,-0.101033940911293,-0.0142151545733213
1769251544057,0.02227783203125,-0.1517791748046875,-0.99615478515625,0.0869929566979408,-0.0995657369494438,0.0042690471746027
1769251544067,0.02593994140625,-0.1551971435546875,-1.001739501953125,0.0858680382370948,-0.0523537509143352,0.0226573757827281
1769251544077,0.0213623046875,-0.17279052734375,-1.001251220703125,0.0690919831395149,-0.0033856767695397,0.0284577403217554
1769251544087,0.00640869140625,-0.1795654296875,-0.989898681640625,0.0691436529159545,-0.0061074271798133,0.0211534891277551
1769251544097,-0.003448486328125,-0.1703338623046875,-0.9796600341796876,0.0808413177728653,-0.0072477930225431,0.0124694528058171
1769251544107,-0.007659912109375,-0.165679931640625,-0.973663330078125,0.0884260013699531,-0.031128890812397,0.0198775678873062
1769251544117,0.0019989013671875,-0.1753387451171875,-0.9653778076171876,0.0922606885433197,-0.0881676748394966,0.0194549243897199
1769251544127,-0.0022430419921875,-0.173187255859375,-0.9674530029296876,0.0990746542811393,-0.0983998104929924,0.0188370700925588
1769251544137,-0.0074920654296875,-0.1661834716796875,-0.97271728515625,0.0957587510347366,-0.0858155712485313,0.0060184774920344
1769251544147,-0.0290679931640625,-0.1723785400390625,-0.974273681640625,0.0926258042454719,-0.0852576419711113,0.0042125880718231
1769251544157,-0.0240020751953125,-0.17034912109375,-0.972259521484375,0.0919078215956687,-0.0902529284358024,0.0275147147476673
1769251544167,0.001068115234375,-0.16680908203125,-0.969940185546875,0.0973864719271659,-0.0917387083172798,0.0445461608469486
1769251544177,-0.0028076171875,-0.164825439453125,-0.9771575927734376,0.0812775418162345,-0.0085061360150575,0.0472245030105114
1769251544187,-0.0153045654296875,-0.17401123046875,-0.9737091064453124,0.048051681369543,0.0360480174422264,0.0368443019688129
1769251544197,-0.02447509765625,-0.183807373046875,-0.9505615234375,0.0290550868958234,0.0217803958803415,0.0301664248108863
1769251544208,-0.0189208984375,-0.1803741455078125,-0.937469482421875,0.0265493188053369,-0.0206578746438026,0.0302449874579906
1769251544217,-0.0134429931640625,-0.1751708984375,-0.9427337646484376,0.0335885845124721,-0.0512956790626049,0.0298833306878805
1769251544228,-0.016754150390625,-0.16156005859375,-0.9633941650390624,0.0478327684104442,-0.0533875897526741,0.0302585698664188
1769251544237,-0.0104217529296875,-0.1562957763671875,-0.9813232421875,0.0598063431680202,-0.0744063258171081,0.0497110970318317
1769251544248,0.0060577392578125,-0.16436767578125,-0.9864349365234376,0.0780913382768631,-0.110615462064743,0.072225198149681
1769251544258,0.017181396484375,-0.1661834716796875,-0.9965057373046876,0.1026858985424041,-0.1214843541383743,0.1032427623867988
1769251544268,0.0293731689453125,-0.171112060546875,-1.0057830810546875,0.1040268018841743,-0.1172272935509681,0.1536971479654312
1769251544278,0.0497283935546875,-0.1963348388671875,-0.9974365234375,0.1048766151070594,-0.1260583251714706,0.1871339380741119
1769251544288,0.026214599609375,-0.20501708984375,-0.9903564453125,0.1030507534742355,-0.057581003755331,0.1555877327919006
1769251544298,-0.06170654296875,-0.203887939453125,-0.99237060546875,0.079097218811512,0.0578662306070327,0.0925336629152298
1769251544308,-0.1121826171875,-0.204681396484375,-0.977996826171875,0.0648972392082214,0.080269806087017,0.0629014670848846
1769251544318,-0.09588623046875,-0.1999053955078125,-0.961883544921875,0.0814818069338798,0.0269501246511936,0.0365886390209198
1769251544328,-0.0796356201171875,-0.1977386474609375,-0.9593963623046876,0.0942697748541832,-0.0101996408775448,-0.0013843111228197
1769251544338,-0.0748443603515625,-0.2014312744140625,-0.966278076171875,0.0947358310222625,0.0174349173903465,-0.0486279912292957
1769251544348,-0.066650390625,-0.2043914794921875,-0.973663330078125,0.0929224863648414,-0.0085737807676196,-0.0640064105391502
1769251544358,-0.026519775390625,-0.2006988525390625,-0.972869873046875,0.0953566133975982,-0.0438705198466777,-0.0605741329491138
1769251544368,-0.00128173828125,-0.1965789794921875,-0.9743804931640624,0.0962136164307594,-0.0383284799754619,-0.055209457874298
1769251544378,0.0014190673828125,-0.1928253173828125,-0.984100341796875,0.0892292112112045,-0.0209524203091859,-0.0391745679080486
1769251544388,0.005218505859375,-0.193756103515625,-0.98919677734375,0.0884584933519363,-0.013725665397942,-0.0274505335837602
1769251544398,0.00177001953125,-0.19561767578125,-0.9864044189453124,0.0761879757046699,-0.0147994523867964,-0.0295139495283365
1769251544408,-0.0175628662109375,-0.20562744140625,-0.97137451171875,0.0726252049207687,-0.0162301026284694,-0.0494706146419048
1769251544418,-0.042327880859375,-0.2026214599609375,-0.9690093994140624,0.0774290114641189,-0.0309195667505264,-0.0615946538746356
1769251544428,-0.0467376708984375,-0.210845947265625,-0.97314453125,0.0961909815669059,-0.0507747642695903,-0.0676285773515701
1769251544439,-0.0396728515625,-0.2173309326171875,-0.9835205078125,0.1240340620279312,-0.0580603741109371,-0.0750702470541
1769251544449,-0.031890869140625,-0.2156219482421875,-0.9940032958984376,0.1520326733589172,-0.0638442263007164,-0.0769829303026199
1769251544459,-0.0177154541015625,-0.2144927978515625,-1.00091552734375,0.1757063120603561,-0.0565085485577583,-0.0813638344407081
1769251544469,-0.0138702392578125,-0.2137298583984375,-0.99896240234375,0.1994087100028991,-0.0474607273936271,-0.0800277218222618
1769251544479,-0.008941650390625,-0.2064666748046875,-1.0003509521484375,0.2224090993404388,-0.0471062585711479,-0.0689268708229065
1769251544489,-0.0021514892578125,-0.1952972412109375,-0.9997711181640624,0.226502388715744,-0.0630127862095832,-0.069526083767414
1769251544499,-0.0186920166015625,-0.201629638671875,-0.984527587890625,0.2306901961565017,-0.0770463123917579,-0.0712856277823448
1769251544509,-0.030914306640625,-0.20849609375,-0.9807586669921876,0.2138062864542007,-0.0961560904979705,-0.0763469710946083
1769251544519,-0.045196533203125,-0.2157135009765625,-0.9620513916015624,0.1903720796108245,-0.1181860268115997,-0.1052843481302261
1769251544529,-0.0666351318359375,-0.229095458984375,-0.9488372802734376,0.1802544593811035,-0.0754619985818862,-0.1221378892660141
1769251544539,-0.0572509765625,-0.229248046875,-0.954193115234375,0.1756695657968521,-0.0389332845807075,-0.1001087576150894
1769251544550,-0.0185699462890625,-0.2188873291015625,-0.961395263671875,0.1530318856239318,0.0208195280283689,-0.0796926990151405
1769251544559,-0.0118408203125,-0.2277374267578125,-0.9517974853515624,0.1135185733437538,0.0717956274747848,-0.0917738601565361
1769251544569,-0.0240478515625,-0.232513427734375,-0.94073486328125,0.0689271390438079,0.1052665039896965,-0.0900057926774025
1769251544579,-0.0127716064453125,-0.2306671142578125,-0.9317626953125,0.0288851782679557,0.1015186309814453,-0.079343557357788
1769251544589,-0.0076904296875,-0.2351226806640625,-0.9262542724609376,-0.0019225359428673,0.0445466935634613,-0.0668956786394119
1769251544599,-0.0049896240234375,-0.2373809814453125,-0.9244384765625,-0.027146665379405,0.0082627236843109,-0.0387601777911186
1769251544609,0.0133056640625,-0.2318572998046875,-0.94342041015625,-0.0499726198613643,0.0120510701090097,-0.0156748332083225
1769251544619,0.0036773681640625,-0.2244720458984375,-0.95880126953125,-0.0667582601308822,0.0278034023940563,-0.0170442312955856
1769251544629,-0.0250244140625,-0.216094970703125,-0.965423583984375,-0.0687247365713119,0.0161936171352863,-0.0273016616702079
1769251544639,-0.03826904296875,-0.2129669189453125,-0.969268798828125,-0.0614926554262638,0.0061103566549718,-0.0331768617033958
1769251544649,-0.03839111328125,-0.21209716796875,-0.976531982421875,-0.0418624952435493,0.0147949252277612,-0.0376826636493206
1769251544660,-0.034515380859375,-0.207794189453125,-0.9844818115234376,-0.0335070937871933,0.0452689453959465,-0.0486391745507717
1769251544670,-0.0280914306640625,-0.219573974609375,-0.9758758544921876,-0.0478673912584781,0.053355898708105,-0.0502330772578716
1769251544680,-0.00579833984375,-0.2497711181640625,-0.95849609375,-0.0635033398866653,0.0500298775732517,-0.0319611281156539
1769251544690,0.0122528076171875,-0.26123046875,-0.9543609619140624,-0.062748871743679,0.0225758831948041,-0.0253847185522317
1769251544700,0.00885009765625,-0.2415618896484375,-0.9664459228515624,-0.0370022244751453,-0.0477219820022583,-0.0198687799274921
1769251544710,0.0062713623046875,-0.2144927978515625,-0.9797210693359376,0.0025710156187415,-0.1010669618844986,-0.0179121550172567
1769251544720,-0.01068115234375,-0.199951171875,-0.996307373046875,0.0334389172494411,-0.0921791940927505,-0.0134939709678292
1769251544730,-0.0239105224609375,-0.1959686279296875,-1.009918212890625,0.0364850386977195,-0.0218594931066036,-0.0007313040550798
1769251544740,-0.0276031494140625,-0.2088470458984375,-1.002960205078125,0.0143610956147313,0.0312761627137661,0.0011957592796534
1769251544750,-0.0324859619140625,-0.223388671875,-0.971221923828125,-0.01027687266469,0.0332873836159706,-0.000785898824688
1769251544760,-0.03399658203125,-0.2325439453125,-0.9474334716796876,-0.030917702242732,0.03265967592597,0.0082344943657517
1769251544770,-0.0228271484375,-0.2353973388671875,-0.9381866455078124,-0.03715056553483,0.0286002196371555,0.0241111945360898
1769251544780,-0.0126953125,-0.224761962890625,-0.949798583984375,-0.0475443489849567,0.0182671546936035,0.031969916075468
1769251544790,-0.011993408203125,-0.2190093994140625,-0.954132080078125,-0.0556195862591266,0.0037316211964935,0.0356171168386936
1769251544800,-0.0149688720703125,-0.2167205810546875,-0.956695556640625,-0.0689556300640106,0.0024237427860498,0.0380507111549377
1769251544810,-0.0149383544921875,-0.215667724609375,-0.9586944580078124,-0.0725879147648811,0.0256789978593587,0.0415951125323772
1769251544820,-0.0140838623046875,-0.211822509765625,-0.9688720703125,-0.0899767577648162,0.0672402903437614,0.0400949567556381
1769251544831,-0.0250396728515625,-0.21514892578125,-0.9676513671875,-0.1055352166295051,0.0826099216938018,0.0211095456033945
1769251544840,-0.0409088134765625,-0.2149810791015625,-0.9621734619140624,-0.1208425313234329,0.0803283974528312,0.0123149892315268
1769251544851,-0.042388916015625,-0.2167205810546875,-0.95660400390625,-0.136732280254364,0.0750108584761619,0.0054197991266846
1769251544861,-0.0311126708984375,-0.2153472900390625,-0.9534149169921876,-0.140788272023201,0.0668535977602005,0.0430944748222827
1769251544870,0.0146331787109375,-0.20806884765625,-0.9659576416015624,-0.1443933993577957,0.0502176322042942,0.0525473654270172
1769251544881,0.0003814697265625,-0.218902587890625,-0.9709320068359376,-0.1510704755783081,0.0537346005439758,0.0592606589198112
1769251544891,0.002899169921875,-0.2249298095703125,-0.9761962890625,-0.1548151522874832,0.0494935177266597,0.0660770237445831
1769251544901,-0.0052032470703125,-0.2236785888671875,-0.980682373046875,-0.1448301523923874,0.0346985906362533,0.0655659586191177
1769251544911,-0.015533447265625,-0.21514892578125,-0.98883056640625,-0.120440661907196,0.0128484209999442,0.0568528957664966
1769251544921,-0.028900146484375,-0.21075439453125,-0.99615478515625,-0.0979683771729469,-0.0036639769095927,0.0319715142250061
1769251544931,-0.0435791015625,-0.2091522216796875,-1.0006866455078125,-0.0782375484704971,-0.0122633241117,0.0093852458521723
1769251544941,-0.0524749755859375,-0.2128753662109375,-0.9975738525390624,-0.0615773424506187,0.0273224338889122,-0.0087604681029915
1769251544951,-0.0312347412109375,-0.2037353515625,-1.0040435791015625,-0.039790291339159,0.0421341359615325,0.0167126674205064
1769251544961,0.0037689208984375,-0.2057647705078125,-1.0069427490234375,-0.0286971591413021,0.0702555179595947,0.0076744314283132
1769251544971,-0.01165771484375,-0.211669921875,-0.99041748046875,-0.0327203944325447,0.1000078245997428,-0.0027989821974188
1769251544981,-0.0222930908203125,-0.208160400390625,-0.978271484375,-0.0393918789923191,0.1099858880043029,-0.0373670794069767
1769251544991,-0.05718994140625,-0.2084808349609375,-0.969207763671875,-0.0490594208240509,0.0899144411087036,-0.0590886212885379
1769251545001,-0.0564117431640625,-0.20257568359375,-0.9589080810546876,-0.0425706282258033,0.0388310179114341,-0.0537644289433956
1769251545012,-0.0340728759765625,-0.1971435546875,-0.9631500244140624,-0.0295166131108999,0.011960788629949,-0.0467917397618293
1769251545021,-0.0174407958984375,-0.203643798828125,-0.97052001953125,-0.024950623512268,0.0018341189716011,-0.0393367521464824
1769251545031,0.003631591796875,-0.2123565673828125,-0.97479248046875,-0.0088438251987099,-0.0123634589836001,-0.0221859961748123
1769251545041,0.0328521728515625,-0.2020721435546875,-0.993011474609375,-0.0015249260468408,-0.0283986181020736,-0.0007547398563474
1769251545051,0.0422821044921875,-0.202056884765625,-0.9881439208984376,-0.0061481734737753,-0.0869705826044082,-0.001129446667619
1769251545061,0.0171356201171875,-0.2091064453125,-0.9744873046875,-0.019834691658616,-0.108710765838623,0.0018596854060888
1769251545071,0.0045928955078125,-0.202728271484375,-0.964935302734375,-0.0371439047157764,-0.1063179150223732,0.0161928180605173
1769251545082,-0.00177001953125,-0.19842529296875,-0.9615631103515624,-0.0475091971457004,-0.080561950802803,0.0314782969653606
1769251545092,-0.0084991455078125,-0.1901397705078125,-0.973419189453125,-0.0511071272194385,-0.0301621630787849,0.0528325885534286
1769251545102,-0.006683349609375,-0.1906890869140625,-0.9838714599609376,-0.0539769493043422,0.003548395819962,0.0605786591768264
1769251545112,-0.0055084228515625,-0.1873931884765625,-0.985015869140625,-0.0531676150858402,0.0062014367431402,0.0618950575590133
1769251545122,-0.015380859375,-0.195037841796875,-0.9786834716796876,-0.0553269051015377,0.0051793158054351,0.0438641272485256
1769251545132,-0.0383758544921875,-0.1984405517578125,-0.969482421875,-0.0586888790130615,0.0025007082149386,0.0295459069311618
1769251545142,-0.040069580078125,-0.2001800537109375,-0.9665069580078124,-0.0594686530530452,0.0172498263418674,0.0371644124388694
1769251545152,-0.0207672119140625,-0.1992950439453125,-0.97198486328125,-0.0619810782372951,0.0210293848067522,0.0401857681572437
1769251545162,-0.0162353515625,-0.202239990234375,-0.9740142822265624,-0.0629182457923889,0.008273109793663,0.0354517325758934
1769251545172,-0.0165863037109375,-0.2042999267578125,-0.9721527099609376,-0.0540736205875873,-0.0126249818131327,0.0304428599774837
1769251545182,-0.01019287109375,-0.1974945068359375,-0.980712890625,-0.0473621897399425,-0.0084834992885589,0.0336602255702018
1769251545192,-0.00048828125,-0.1896514892578125,-0.988067626953125,-0.0477107986807823,-0.0092291850596666,0.037342045456171
1769251545202,-0.0007781982421875,-0.1911468505859375,-0.9855499267578124,-0.0558853708207607,0.0181339960545301,0.0413367860019207
1769251545212,-0.003082275390625,-0.2017974853515625,-0.9764862060546876,-0.0869823023676872,0.0300372615456581,0.0389372780919075
1769251545222,-0.0134735107421875,-0.2217864990234375,-0.9593963623046876,-0.1067336350679397,0.038995336741209,0.0285853054374456
1769251545232,-0.02813720703125,-0.207366943359375,-0.96710205078125,-0.1089789494872093,0.0360570698976516,0.0126311061903834
1769251545242,-0.041839599609375,-0.1898193359375,-0.9793701171875,-0.0968370661139488,0.017111076042056,0.0097463708370924
1769251545252,-0.0308685302734375,-0.192901611328125,-0.988189697265625,-0.077462300658226,0.0179276019334793,0.0179632883518934
1769251545263,-0.015045166015625,-0.180755615234375,-1.0011138916015625,-0.0454457774758338,0.027648938819766,0.0061801318079233
1769251545272,-0.018951416015625,-0.170867919921875,-1.0111541748046875,-0.029879068955779,0.047266848385334,-0.0002519350382499
1769251545283,-0.0144805908203125,-0.2042083740234375,-1.005584716796875,-0.0201271064579486,0.0857705622911453,-0.0029830066487193
1769251545293,-0.001312255859375,-0.2205047607421875,-1.0043792724609375,-0.0101794004440307,0.1302128583192825,0.0151754906401038
1769251545302,0.0214080810546875,-0.21429443359375,-1.0141754150390625,0.0089207906275987,0.1562098413705825,0.0189401358366012
1769251545313,0.010345458984375,-0.195037841796875,-1.018402099609375,0.0320556722581386,0.1580919027328491,0.0132865104824304
1769251545323,-0.007293701171875,-0.1805267333984375,-1.013397216796875,0.0543548502027988,0.1442951261997223,0.0056674731895327
1769251545333,-0.0164947509765625,-0.173370361328125,-1.005645751953125,0.0828040689229965,0.1133654415607452,0.0179249383509159
1769251545343,-0.0032806396484375,-0.176605224609375,-1.0039825439453125,0.0929408594965934,0.1097057238221168,0.034157171845436
1769251545353,0.003326416015625,-0.1879425048828125,-0.987823486328125,0.0892973914742469,0.1161665543913841,0.0479787103831768
1769251545363,-0.000762939453125,-0.2029876708984375,-0.971649169921875,0.0713375657796859,0.1262263804674148,0.047838095575571
1769251545373,-0.013702392578125,-0.202911376953125,-0.9578704833984376,0.0643118768930435,0.1114327833056449,0.0408076159656047
1769251545383,-0.0237579345703125,-0.203643798828125,-0.9600372314453124,0.0509033948183059,0.0776841416954994,0.0274649132043123
1769251545393,-0.0267181396484375,-0.205902099609375,-0.9508209228515624,0.0394818969070911,0.0336951129138469,0.0104853976517915
1769251545403,-0.02587890625,-0.21221923828125,-0.9485931396484376,0.0239034686237573,0.0043870252557098,-0.0010687265312299
1769251545413,-0.01739501953125,-0.20721435546875,-0.945159912109375,-0.0125831700861454,0.0012554140994325,-0.0039441413246095
1769251545423,-0.0024566650390625,-0.204864501953125,-0.9363250732421876,-0.050318032503128,2.583266177680343e-05,-0.0034107104875147
1769251545433,0.007415771484375,-0.200714111328125,-0.9344940185546876,-0.0893019139766693,0.0093953656032681,0.0053340452723205
1769251545443,0.0210418701171875,-0.1902313232421875,-0.9375152587890624,-0.1234329864382743,0.0212192684412002,0.0182937867939472
1769251545453,0.0232391357421875,-0.1874237060546875,-0.947845458984375,-0.1643945425748825,0.0515859611332416,0.0244310405105352
1769251545463,0.0168304443359375,-0.1688690185546875,-0.95452880859375,-0.1975375711917877,0.0708113238215446,0.0359137915074825
1769251545473,0.0092620849609375,-0.16912841796875,-0.95843505859375,-0.23649962246418,0.0861468687653541,0.0346647687256336
1769251545483,-0.007415771484375,-0.1876373291015625,-0.94573974609375,-0.2677020132541656,0.093727558851242,0.0317464768886566
1769251545494,-0.0037384033203125,-0.1954193115234375,-0.9406890869140624,-0.289261907339096,0.0760508254170417,0.0278449468314647
1769251545504,-0.00494384765625,-0.2002105712890625,-0.9491729736328124,-0.3108976781368255,0.0626625791192054,0.0176844540983438
1769251545514,-0.0126495361328125,-0.2044219970703125,-0.953277587890625,-0.3092358708381653,0.0228752214461565,-0.0015403723809868
1769251545524,-0.0174407958984375,-0.1932373046875,-0.971466064453125,-0.2873683869838714,-0.0101386541500687,-0.0137485694140195
1769251545534,-0.005584716796875,-0.1794586181640625,-0.990997314453125,-0.2512269020080566,-0.0214823894202709,-0.0289205983281135
1769251545544,-0.009429931640625,-0.176910400390625,-1.0141448974609375,-0.2063947170972824,-0.0134678715839982,-0.0474665835499763
1769251545554,-0.0095062255859375,-0.16839599609375,-1.034332275390625,-0.1570370197296142,-0.0076741650700569,-0.060040432959795
1769251545564,-0.0097503662109375,-0.1681060791015625,-1.04473876953125,-0.0954000204801559,0.0009502158500254,-0.0746670439839363
1769251545574,-0.00579833984375,-0.1634979248046875,-1.0531005859375,-0.0258054975420236,0.0079189091920852,-0.071704015135765
1769251545584,0.006317138671875,-0.15948486328125,-1.0574798583984375,0.0414603576064109,-0.0022029669489711,-0.0640061497688293
1769251545594,0.0140228271484375,-0.1616973876953125,-1.047760009765625,0.1019612550735473,-0.0076083848252892,-0.0657555758953094
1769251545604,0.00982666015625,-0.1649627685546875,-1.0368194580078125,0.1458863615989685,-0.0239458121359348,-0.0744904801249504
1769251545614,0.0013427734375,-0.173675537109375,-1.0200958251953125,0.1756618320941925,-0.0384142324328422,-0.0817276164889335
1769251545624,-0.0019073486328125,-0.179351806640625,-1.01031494140625,0.1975924372673034,-0.0251556877046823,-0.0840935707092285
1769251545634,-0.0015869140625,-0.1846160888671875,-1.00238037109375,0.209410473704338,-0.019808592274785,-0.0845143496990203
1769251545644,-0.0078277587890625,-0.1835174560546875,-0.9939422607421876,0.2246472239494323,-0.0128468228504061,-0.0744252353906631
1769251545654,0.000518798828125,-0.1750030517578125,-0.9954833984375,0.235075369477272,-0.001350222621113,-0.0524038188159465
1769251545664,0.015655517578125,-0.1731414794921875,-0.9933624267578124,0.2366133332252502,0.019863985478878,-0.0310122445225715
1769251545675,0.026275634765625,-0.1708221435546875,-0.9857025146484376,0.2234152406454086,0.0304777473211288,-0.0096209356561303
1769251545685,0.02679443359375,-0.1719207763671875,-0.96539306640625,0.2025725543498993,0.0401801764965057,0.0054440340027213
1769251545695,0.0206756591796875,-0.1691436767578125,-0.9533538818359376,0.1781931668519973,0.0407695323228836,0.0189055148512125
1769251545705,0.0113067626953125,-0.1728973388671875,-0.9444580078125,0.1447321474552154,0.0152625758200883,0.0238555315881967
1769251545715,-0.0032958984375,-0.184326171875,-0.933685302734375,0.1149369701743125,-0.0033151030074805,0.0229830797761678
1769251545725,-0.0111846923828125,-0.1925201416015625,-0.927459716796875,0.087546095252037,-0.015262309461832,0.0115804895758628
1769251545735,-0.0151519775390625,-0.1966400146484375,-0.93145751953125,0.0685356482863426,-0.0182205494493246,0.0063127567991614
1769251545745,-0.0068511962890625,-0.1904754638671875,-0.943267822265625,0.0499158948659896,-0.0119221732020378,-0.0005800364888273
