timestamp_ms,acc_x,acc_y,acc_z,gyro_x,gyro_y,gyro_z
1768382797337,0.073028564453125,-0.07269287109375,-0.98211669921875,-0.0292801242321729,0.0111205615103244,-0.0036453348584473
1768382797343,0.0714874267578125,-0.0716552734375,-0.9832611083984376,-0.0292801242321729,0.0111205615103244,-0.0036453348584473
1768382797353,0.0705718994140625,-0.06927490234375,-0.984710693359375,-0.036905288696289,0.0119115207344293,-0.0130095416679978
1768382797363,0.0679931640625,-0.068756103515625,-0.9872283935546876,-0.0392043925821781,0.0027140274178236,-0.024199079722166
1768382797373,0.0716705322265625,-0.0678558349609375,-0.98614501953125,-0.0419993810355663,0.0052938316948711,-0.029741384088993
1768382797384,0.0739898681640625,-0.0681915283203125,-0.9801483154296876,-0.0576979182660579,0.0243111979216337,-0.0267354734241962
1768382797393,0.0739898681640625,-0.068756103515625,-0.9850006103515624,-0.0576979182660579,0.0243111979216337,-0.0267354734241962
1768382797403,0.07623291015625,-0.0668182373046875,-0.9906463623046876,-0.0588489361107349,0.0198597256094217,-0.0289831813424825
1768382797413,0.07965087890625,-0.061981201171875,-0.99530029296875,-0.0527132786810398,0.0069164955057203,-0.0320114605128765
1768382797423,0.0738372802734375,-0.057281494140625,-0.99932861328125,-0.0441914312541484,-0.0118910139426589,-0.0401005484163761
1768382797433,0.071014404296875,-0.0511474609375,-1.00299072265625,-0.0334647484123706,-0.0223108977079391,-0.0471414141356945
1768382797443,0.073486328125,-0.0599822998046875,-1.00775146484375,-0.0180426500737667,-0.0266297459602355,-0.044293962419033
1768382797453,0.0830535888671875,-0.0751495361328125,-1.0038604736328125,0.0009432916413061,-0.0287142023444175,-0.0311845503747463
1768382797463,0.090179443359375,-0.083160400390625,-0.99560546875,0.00819081813097,-0.0214805249124765,-0.0175132136791944
1768382797473,0.086151123046875,-0.077117919921875,-0.9908905029296876,0.0087591363117098,-0.0169044155627489,-0.012173575349152
1768382797483,0.0786590576171875,-0.0630645751953125,-0.9882659912109376,0.000858603103552,-0.0216626841574907,-0.0131237916648387
1768382797493,0.075225830078125,-0.0580596923828125,-0.99114990234375,-0.0088536785915493,-0.0236382167786359,-0.014519820921123
1768382797503,0.0721282958984375,-0.0562286376953125,-0.99517822265625,-0.0053127398714423,-0.0144234141334891,-0.0105762118473649
1768382797513,0.0745849609375,-0.0569000244140625,-0.994171142578125,0.002102832077071,0.0044461474753916,-0.0042730420827865
1768382797523,0.077423095703125,-0.059051513671875,-0.9884185791015624,-0.0041199102997779,0.0163510106503963,0.0010471548885107
1768382797534,0.0792999267578125,-0.065093994140625,-0.9834442138671876,-0.0390427410602569,0.0064496435225009,-0.0006127933738753
1768382797544,0.0834503173828125,-0.0693359375,-0.979278564453125,-0.0390427410602569,0.0064496435225009,-0.0006127933738753
1768382797554,0.0833282470703125,-0.07037353515625,-0.985443115234375,-0.0511332266032695,-0.0018722022650763,-0.0048091360367834
1768382797564,0.0828399658203125,-0.07049560546875,-0.99053955078125,-0.0523817166686058,-0.0029699571896344,-0.0073628416284918
1768382797574,0.083526611328125,-0.0687255859375,-0.9897918701171876,-0.0576206855475902,-0.000438888935605,-0.0071537834592163
1768382797584,0.0855865478515625,-0.0655517578125,-0.9963836669921876,-0.0534403212368488,-0.002035453915596,-0.0006293049664236
1768382797594,0.08526611328125,-0.0625457763671875,-1.00616455078125,-0.0367364436388015,-0.0028879318851977,0.0113495932891964
1768382797604,0.0850067138671875,-0.0623626708984375,-1.00775146484375,-0.0198962092399597,0.0027262780349701,0.0234864167869091
1768382797614,0.07879638671875,-0.059356689453125,-1.0068359375,-0.005012069363147,0.0086366310715675,0.0321781747043132
1768382797624,0.0702972412109375,-0.058319091796875,-1.0064544677734375,0.0124947531148791,0.0119157815352082,0.027566647157073
1768382797634,0.0652618408203125,-0.0551605224609375,-1.004119873046875,0.0286843758076429,0.0104867294430732,0.0173395760357379
1768382797644,0.061279296875,-0.0548553466796875,-0.9988861083984376,0.0394757688045501,0.0124164558947086,0.0031297469977289
1768382797654,0.062225341796875,-0.060333251953125,-0.9882354736328124,0.0430358834564685,0.0098592890426516,-0.0082944147288799
1768382797664,0.0652008056640625,-0.06591796875,-0.977996826171875,0.0320191867649555,0.0083881588652729,-0.0172133408486843
1768382797674,0.0667877197265625,-0.067596435546875,-0.9738311767578124,0.0120095247402787,0.0094784563407301,-0.0215508323162794
1768382797684,0.0704498291015625,-0.0690155029296875,-0.9720001220703124,-0.0069937272928655,0.0088922949507832,-0.0258374568074941
1768382797694,0.07562255859375,-0.0644683837890625,-0.9786376953125,-0.0224222186952829,0.013023923151195,-0.0225338041782379
1768382797704,0.0760345458984375,-0.0630340576171875,-0.9891510009765624,-0.0253120139241218,0.0063966466113924,-0.0170972272753715
1768382797715,0.074951171875,-0.0605316162109375,-0.99554443359375,-0.019377427175641,-0.0067585702054202,-0.0102829979732632
1768382797725,0.0720367431640625,-0.0596923828125,-0.9951629638671876,-0.0155398109927773,-0.0034535871818661,-0.0155592523515224
1768382797735,0.073272705078125,-0.06036376953125,-0.9947662353515624,-0.0155398109927773,-0.0034535871818661,-0.0155592523515224
1768382797744,0.07537841796875,-0.06048583984375,-0.993377685546875,-0.0126305744051933,0.0002346244873479,-0.0164847001433372
1768382797755,0.0789642333984375,-0.059600830078125,-0.9924163818359376,-0.0144066363573074,0.0101527692750096,-0.0139395175501704
1768382797765,0.0777740478515625,-0.06201171875,-0.99444580078125,-0.0132859777659177,0.0123549364507198,-0.0129418978467583
1768382797775,0.0835723876953125,-0.0655364990234375,-0.990447998046875,-0.0121192466467618,0.0129959592595696,-0.0089444927871227
1768382797785,0.0867462158203125,-0.0689697265625,-0.9919586181640624,-0.0117354858666658,0.0151033187285065,-0.000630370224826
1768382797795,0.0848846435546875,-0.068695068359375,-0.9902496337890624,-0.0156420767307281,0.0093247918412089,0.0017222663154825
1768382797805,0.082000732421875,-0.0676422119140625,-0.987823486328125,-0.0215862523764371,0.0076318206265568,-0.0003589941188693
1768382797815,0.080841064453125,-0.066192626953125,-0.9857025146484376,-0.0258829966187477,0.0037803570739924,-0.0039348206482827
1768382797825,0.0831146240234375,-0.06341552734375,-0.9889678955078124,-0.029877470806241,0.0121490741148591,-0.0004732437082566
1768382797835,0.082763671875,-0.0620574951171875,-0.9947052001953124,-0.0306953284889459,0.01780323125422,0.003623496973887
1768382797845,0.084320068359375,-0.0608978271484375,-1.001068115234375,-0.024498151615262,0.0148804122582077,0.0067058396525681
1768382797855,0.08331298828125,-0.057464599609375,-1.0072174072265625,-0.0082845613360404,0.0064688180573284,0.0078398138284683
1768382797865,0.0802154541015625,-0.0556640625,-1.00799560546875,0.0072906697168946,0.0001874865411082,0.0098670115694403
1768382797875,0.0756378173828125,-0.0562286376953125,-1.00335693359375,0.0165068041533231,-0.000990163302049,0.0075082499533891
1768382797885,0.0716552734375,-0.058197021484375,-0.99481201171875,0.0213444363325834,-0.0019036275334656,0.0033816818613559
1768382797895,0.0687103271484375,-0.06011962890625,-0.9850311279296876,0.0157480705529451,0.0057170079089701,-0.0016554208705201
1768382797905,0.067291259765625,-0.0644683837890625,-0.9785919189453124,0.0049161952920258,0.0118697090074419,-0.0066075688228011
1768382797915,0.0718231201171875,-0.065765380859375,-0.9756622314453124,-0.0120960772037506,0.0137427104637026,-0.0114561198279261
1768382797925,0.077117919921875,-0.065887451171875,-0.9815673828125,-0.0222682878375053,0.0175196044147014,-0.0079247681424021
1768382797936,0.0771636962890625,-0.0636138916015625,-0.9911651611328124,-0.0196826253086328,0.0032570459879934,-0.0110571784898638
1768382797946,0.0783233642578125,-0.0605316162109375,-0.9977569580078124,-0.0086241140961647,0.0002005360292969,-0.0113703664392232
1768382797956,0.0770111083984375,-0.0594024658203125,-1.0037841796875,-0.0086241140961647,0.0002005360292969,-0.0113703664392232
1768382797966,0.0742034912109375,-0.05712890625,-1.00421142578125,0.0031891353428363,-0.0018208032706752,-0.0147512489929795
1768382797976,0.074951171875,-0.05706787109375,-0.9988250732421876,0.0108302775770425,-0.0026988473255187,-0.0210778545588254
1768382797986,0.0734405517578125,-0.061370849609375,-0.9931640625,0.0128968898206949,-0.0005560680292546,-0.0233050566166639
1768382797996,0.0767364501953125,-0.0634613037109375,-0.9879913330078124,0.0056072855368256,0.0027121631428599,-0.0191696994006633
1768382798006,0.076873779296875,-0.0642852783203125,-0.987518310546875,0.0065164887346327,0.0045553371310234,-0.0183254778385162
1768382798016,0.078155517578125,-0.0655364990234375,-0.988006591796875,0.0010423612548038,0.0092222606763243,-0.0165395624935627
1768382798026,0.078155517578125,-0.06561279296875,-0.9890594482421876,-0.0018724685069173,0.0094547541812062,-0.0156820248812437
1768382798036,0.080291748046875,-0.06298828125,-0.9919891357421876,-0.0003920173039659,0.0055561531335115,-0.0178117547184228
1768382798046,0.07867431640625,-0.059814453125,-0.990692138671875,-0.0016130766598507,0.0023997745011001,-0.0191787537187337
1768382798056,0.073455810546875,-0.0555877685546875,-0.9904022216796876,-0.0023121563717722,-0.0081716431304812,-0.0233268942683935
1768382798066,0.0676422119140625,-0.0488433837890625,-0.9898223876953124,0.0019283948931843,-0.0127221867442131,-0.0304228868335485
1768382798076,0.0654754638671875,-0.0568695068359375,-0.98602294921875,-0.0031529164407402,-0.00108071079012,-0.0334735363721847
1768382798086,0.0727081298828125,-0.068023681640625,-0.981048583984375,-0.0122332302853465,0.0132886413484811,-0.0278971455991268
1768382798096,0.085205078125,-0.0762481689453125,-0.9781494140625,-0.0257517024874687,0.0192245598882436,-0.0245290454477071
1768382798106,0.0897674560546875,-0.07025146484375,-0.9821624755859376,-0.0377601608633995,0.01137968711555,-0.0218698792159557
1768382798116,0.0869140625,-0.0545196533203125,-0.9925384521484376,-0.0404483564198017,-0.0012961605098098,-0.0203100647777318
1768382798126,0.081268310546875,-0.0479278564453125,-1.002166748046875,-0.0333355851471424,-0.0077609838917851,-0.0185987185686826
1768382798136,0.0784454345703125,-0.04449462890625,-1.005279541015625,-0.0158170461654663,0.0004926847759634,-0.0103841973468661
1768382798146,0.0762939453125,-0.047210693359375,-1.006103515625,0.0055039548315107,0.0133016910403966,-0.0083918869495391
1768382798156,0.078521728515625,-0.0518798828125,-1.001312255859375,0.0160045325756073,0.0111131044104695,-0.0100925816223025
1768382798167,0.0828094482421875,-0.0597991943359375,-0.9911041259765624,0.0109525164589285,-0.0054166032932698,-0.0156300924718379
1768382798177,0.0856781005859375,-0.0680389404296875,-0.9847869873046876,0.000622114399448,-0.014778945595026,-0.0160692483186721
1768382798187,0.0903778076171875,-0.0692291259765625,-0.983367919921875,-0.0115554556250572,-0.0188344083726406,-0.0113647738471627
1768382798197,0.09075927734375,-0.070587158203125,-0.9890899658203124,-0.0193047225475311,-0.0156596526503562,-0.0058400458656251
1768382798207,0.087310791015625,-0.06744384765625,-0.991912841796875,-0.0198586601763963,-0.0103184171020984,0.0023427826818078
1768382798217,0.08624267578125,-0.0648193359375,-0.9954071044921876,-0.0181931182742118,-0.0011430287268012,0.0092560825869441
1768382798227,0.0821990966796875,-0.0613861083984375,-0.9977874755859376,-0.0172437019646167,0.0046509443782269,0.0135754635557532
1768382798237,0.0772705078125,-0.059539794921875,-1.001708984375,-0.006670952308923,0.0094326501712203,0.0177939105778932
1768382798247,0.0733795166015625,-0.05340576171875,-1.00604248046875,0.0080387517809867,0.0093663372099399,0.0163150578737258
1768382798257,0.0693817138671875,-0.0510101318359375,-1.001434326171875,0.0227279495447874,0.0049036783166229,0.0106569053605198
1768382798267,0.0691070556640625,-0.0533294677734375,-0.9929962158203124,0.0277610570192337,0.006557501386851,0.0030905983876436
1768382798277,0.071044921875,-0.0569000244140625,-0.9893035888671876,0.0298825316131114,0.0078539280220866,-0.0035420041531324
1768382798287,0.074066162109375,-0.061279296875,-0.9824981689453124,0.0257311966270208,0.0045350971631705,-0.0051944958977401
1768382798297,0.076080322265625,-0.0657196044921875,-0.9764862060546876,0.0139549644663929,-0.0050240531563758,-0.0026338663883507
1768382798307,0.07568359375,-0.066680908203125,-0.9749603271484376,-0.00248579448089,-0.0051100733689963,-0.0025848641525954
1768382798317,0.07476806640625,-0.0668182373046875,-0.9790191650390624,-0.0143120940774679,-0.0005643238546326,-0.0028346686158329
1768382798327,0.07586669921875,-0.0610198974609375,-0.9835968017578124,-0.0198741052299737,-0.0017829863354563,-0.0052232579328119
1768382798337,0.070892333984375,-0.0581512451171875,-0.989837646484375,-0.0240826997905969,0.0007017429452389,-0.011888351291418
1768382798347,0.0722808837890625,-0.056060791015625,-0.995452880859375,-0.0214576218277215,0.0002274339494761,-0.0184328034520149
1768382798358,0.0762786865234375,-0.05645751953125,-0.999725341796875,-0.006875482853502,0.000157392816618,-0.0113647738471627
1768382798368,0.082672119140625,-0.0587310791015625,-1.0013275146484375,-0.0021576930303126,0.0028762139845639,-0.0028064390644431
1768382798378,0.0866241455078125,-0.0614471435546875,-1.0002593994140625,-0.0021576930303126,0.0028762139845639,-0.0028064390644431
1768382798387,0.0876617431640625,-0.06256103515625,-0.99810791015625,0.0012618057662621,0.0054751927964389,0.0054144728928804
1768382798398,0.08721923828125,-0.065948486328125,-0.99530029296875,0.0016215987270697,0.0066115637309849,0.0102566322311759
1768382798408,0.085723876953125,-0.0699462890625,-0.990509033203125,-0.0056299227289855,0.0123474802821874,0.0115093830972909
1768382798418,0.086029052734375,-0.0707855224609375,-0.9902191162109376,-0.0107575729489326,0.0146369999274611,0.0137480366975069
1768382798428,0.0877227783203125,-0.0708465576171875,-0.9915313720703124,-0.0103692840784788,0.009680057875812,0.0138271320611238
1768382798438,0.0881805419921875,-0.068084716796875,-0.9950714111328124,-0.0086563387885689,3.1425301131093875e-05,0.0168181285262107
1768382798448,0.0849761962890625,-0.0646209716796875,-0.99578857421875,-0.0063409865833818,-0.002028263406828,0.0187135003507137
1768382798459,0.081390380859375,-0.063385009765625,-0.99407958984375,-0.0011555455857887,-0.0057676080614328,0.0228094421327114
1768382798468,0.07659912109375,-0.0604095458984375,-0.992889404296875,-0.0011555455857887,-0.0057676080614328,0.0228094421327114
1768382798478,0.0746917724609375,-0.05767822265625,-0.9931640625,-0.0008266451768577,0.0015358449891209,0.0190988592803478
1768382798488,0.07501220703125,-0.057098388671875,-0.9949798583984376,0.0016160061350092,0.0132119422778487,0.0186834055930376
1768382798498,0.0770416259765625,-0.0548858642578125,-0.9985504150390624,0.0061734737828373,0.0173137430101633,0.0219756066799163
1768382798508,0.076171875,-0.0554962158203125,-1.000732421875,0.0148154310882091,0.0154423397034406,0.0205436237156391
1768382798518,0.0721435546875,-0.0560302734375,-1.000244140625,0.0233663097023963,0.0105719501152634,0.0181683506816625
1768382798528,0.067901611328125,-0.057861328125,-0.9947357177734376,0.0300369951874017,0.0059428438544273,0.0083199813961982
1768382798538,0.0633697509765625,-0.0600433349609375,-0.98980712890625,0.0334916487336158,0.004220045171678,-0.0046101980842649
1768382798548,0.0631561279296875,-0.0644378662109375,-0.9790191650390624,0.0226653646677732,0.0042408178560435,-0.019194733351469
1768382798558,0.069610595703125,-0.068695068359375,-0.972442626953125,0.0065796058624982,0.0016042882343754,-0.0251141414046287
1768382798569,0.07421875,-0.0705108642578125,-0.9751129150390624,-0.0233564544469118,-0.0042069954797625,-0.0253588855266571
1768382798578,0.0769805908203125,-0.069854736328125,-0.9788055419921876,-0.0233564544469118,-0.0042069954797625,-0.0253588855266571
1768382798589,0.0778045654296875,-0.067352294921875,-0.984344482421875,-0.0291142091155052,-0.0025284050498157,-0.0236283633857965
1768382798599,0.078125,-0.0635223388671875,-0.986328125,-0.0335494391620159,0.0046165897510945,-0.0187401324510574
1768382798609,0.0808868408203125,-0.05999755859375,-0.996124267578125,-0.0328572839498519,0.012542157433927,-0.0134359141811728
1768382798619,0.0806884765625,-0.0583343505859375,-1.0068206787109375,-0.0204600021243095,0.0071934643201529,-0.0084973480552434
1768382798629,0.0790252685546875,-0.0556793212890625,-1.010986328125,-0.0021608888637274,-0.0025939189363271,-0.0054741273634135
1768382798639,0.0763397216796875,-0.053741455078125,-1.008056640625,0.0167089384049177,-0.0047220508567988,-0.0060158143751323
1768382798649,0.0750274658203125,-0.054962158203125,-1.0030517578125,0.0292476341128349,-0.0018072210950776,-0.0082430159673094
1768382798659,0.0751190185546875,-0.0574798583984375,-0.9960174560546876,0.0358757078647613,0.0005278385360725,-0.0093642072752118
1768382798669,0.07720947265625,-0.06158447265625,-0.9903717041015624,0.0335531644523143,0.0024572988040745,-0.0126529447734355
1768382798679,0.0788116455078125,-0.065338134765625,-0.985443115234375,0.0294319242238998,0.0032879386562854,-0.0108534470200538
1768382798689,0.0838775634765625,-0.0670166015625,-0.981170654296875,0.019375029951334,0.0005589975044131,-0.0091780517250299
1768382798699,0.08221435546875,-0.063262939453125,-0.9806365966796876,0.0084406230598688,-0.0039606532081961,-0.0049745184369385
1768382798709,0.0767364501953125,-0.05474853515625,-0.984527587890625,0.0058040930889546,-0.0097977695986628,-0.0042962115257978
1768382798719,0.069091796875,-0.055328369140625,-0.9842681884765624,0.0040109870024025,-0.0116233667358756,-0.0091048153117299
1768382798729,0.069488525390625,-0.0685272216796875,-0.9753875732421876,-0.0042392197065055,-0.0074866781942546,-0.0109695605933666
1768382798739,0.0767364501953125,-0.0777130126953125,-0.970428466796875,-0.0192724969238042,-0.004472779110074,-0.0158519335091114
1768382798749,0.088623046875,-0.07940673828125,-0.9729461669921876,-0.0370419062674045,-0.0121962120756506,-0.0146375326439738
1768382798759,0.09185791015625,-0.069793701171875,-0.9808197021484376,-0.0543346107006073,-0.0223092995584011,-0.0065862634219229
1768382798770,0.0831756591796875,-0.062347412109375,-0.9921417236328124,-0.0499387979507446,-0.0196408126503229,0.011607120744884
1768382798780,0.078765869140625,-0.055999755859375,-1.004913330078125,-0.0226824097335338,-0.0126588037237524,0.0201428178697824
1768382798789,0.0767669677734375,-0.05096435546875,-1.0156402587890625,-0.0226824097335338,-0.0126588037237524,0.0201428178697824
1768382798799,0.072784423828125,-0.049713134765625,-1.01861572265625,0.0062336609698832,-0.013317403383553,0.0142713477835059
1768382798809,0.0692596435546875,-0.05517578125,-1.010223388671875,0.018631475046277,-0.0126702552661299,0.0030927290208637
1768382798820,0.07012939453125,-0.062103271484375,-0.99658203125,0.0166306421160697,-0.0182109624147415,-0.0086448872461915
1768382798830,0.075164794921875,-0.066497802734375,-0.9885101318359376,0.0088414279744029,-0.007210508454591,-0.0172748602926731
1768382798840,0.078765869140625,-0.0727081298828125,-0.9883880615234376,-0.0029281456954777,0.0058232680894434,-0.0203058049082756
1768382798850,0.090362548828125,-0.0751953125,-0.9875640869140624,-0.015435148961842,-0.0039915456436574,-0.0078073227778077
1768382798860,0.0933837890625,-0.0755157470703125,-0.9954833984375,-0.0159941464662551,-0.0016285229939967,0.0124742463231086
1768382798870,0.0861968994140625,-0.069732666015625,-0.9993896484375,-0.0114350812509655,0.0062435148283839,0.0298670846968889
1768382798880,0.0766143798828125,-0.0618438720703125,-1.001312255859375,-0.0012964267516508,0.0142321987077593,0.0356589294970035
1768382798890,0.0643768310546875,-0.053863525390625,-1.0047607421875,0.0115589182823896,0.0131152691319584,0.0267088431864976
1768382798900,0.058868408203125,-0.049468994140625,-1.0013275146484375,0.0234600529074668,0.0054309843108057,0.0072906697168946
1768382798910,0.0634613037109375,-0.0495452880859375,-0.995330810546875,0.0313890799880027,0.0050980891101062,-0.01027687266469
1768382798920,0.0693817138671875,-0.05517578125,-0.991241455078125,0.0379689522087574,0.0059649483300745,-0.0146471196785569
1768382798930,0.0740509033203125,-0.0627899169921875,-0.9866943359375,0.0400954894721508,0.0061332597397267,-0.0108656967058777
1768382798940,0.07891845703125,-0.0677947998046875,-0.9791259765625,0.0336799323558807,0.0003171824791934,-0.0070195598527789
1768382798950,0.078033447265625,-0.068695068359375,-0.97308349609375,0.018957445397973,-0.0097490334883332,-0.0081308968365192
1768382798960,0.0750579833984375,-0.0720367431640625,-0.9691162109375,-0.0021366542205214,-0.0121195130050182,-0.0115261608734726
1768382798970,0.0717010498046875,-0.06658935546875,-0.9694671630859376,-0.0208834446966648,-0.0110068451613187,-0.0147118344902992
1768382798980,0.06903076171875,-0.061370849609375,-0.975128173828125,-0.0421679615974426,-0.0091591440141201,-0.0189228244125843
1768382798990,0.0682830810546875,-0.060546875,-0.98388671875,-0.0510629191994667,-0.0070605725049972,-0.0240249093621969
1768382799000,0.070770263671875,-0.059906005859375,-0.9969940185546876,-0.0498141609132289,-0.0064198160544037,-0.0286050122231245
1768382799010,0.0801239013671875,-0.0604095458984375,-1.007598876953125,-0.0358980782330036,-0.0070203589275479,-0.0221559014171361
1768382799021,0.0868988037109375,-0.05914306640625,-1.0159454345703125,-0.0122747756540775,-0.0074925371445715,-0.0099216066300868
1768382799031,0.0864715576171875,-0.059722900390625,-1.01861572265625,0.0130726583302021,-0.0098411794751882,-0.0018359832465648
1768382799041,0.0858917236328125,-0.061553955078125,-1.0094451904296875,0.0263402611017227,-0.0093570165336132,0.0060592242516577
1768382799051,0.08355712890625,-0.06378173828125,-1.000457763671875,0.0313350185751915,0.0005161206354387,0.0150335440412163
1768382799061,0.085235595703125,-0.0661163330078125,-0.993133544921875,0.0290260594338178,0.0091546159237623,0.0220235437154769
1768382799071,0.0851593017578125,-0.0654296875,-0.993438720703125,0.0253639463335275,0.0121368234977126,0.0260939188301563
1768382799081,0.0836944580078125,-0.065093994140625,-0.9916839599609376,0.0236768331378698,0.009786051698029,0.0306463260203599
1768382799091,0.0816802978515625,-0.0644683837890625,-0.990264892578125,0.0273495987057685,0.0047761132009327,0.0314162448048591
1768382799101,0.07586669921875,-0.0632171630859375,-0.9890899658203124,0.0268683657050132,0.0062682824209332,0.0275690425187349
1768382799111,0.072357177734375,-0.0624237060546875,-0.98394775390625,0.021893847733736,0.0065732141956686,0.0209249891340732
1768382799121,0.069610595703125,-0.062042236328125,-0.98095703125,0.0151395378634333,0.0034783547744154,0.0134036894887685
1768382799131,0.0670166015625,-0.0624542236328125,-0.979766845703125,0.0076557891443371,0.0068706893362104,0.0068794777616858
1768382799141,0.0662078857421875,-0.0630950927734375,-0.978912353515625,0.0012911005178466,0.006941529456526,-1.6777914424892515e-05
1768382799151,0.064239501953125,-0.0657958984375,-0.978302001953125,-0.0070712254382669,0.0014482269762083,-0.0079503348097205
1768382799161,0.0670013427734375,-0.0660858154296875,-0.9767303466796876,-0.0206631999462842,0.0036570527590811,-0.0143349971622228
1768382799171,0.0669403076171875,-0.0688018798828125,-0.9784393310546876,-0.0331547558307647,0.0049111354164779,-0.018524682149291
1768382799181,0.0696258544921875,-0.070953369140625,-0.980377197265625,-0.0439898297190666,0.0046735815703868,-0.0179912503808736
1768382799191,0.0734405517578125,-0.071990966796875,-0.9847259521484376,-0.0532456450164318,0.007578557357192,-0.0136790601536631
1768382799201,0.0757904052734375,-0.0711517333984375,-0.9929046630859376,-0.0549697764217853,0.0091791171580553,-0.0087578054517507
1768382799211,0.075653076171875,-0.0681304931640625,-1.0040435791015625,-0.0487859137356281,0.0041012680158019,-0.0014064153656363
1768382799221,0.0746612548828125,-0.0656890869140625,-1.0075836181640625,-0.0354501344263553,-0.0033593112602829,-0.0028016455471515
1768382799232,0.0731048583984375,-0.065185546875,-1.007080078125,-0.0119432117789983,0.0031017838045954,-0.0062176822684705
1768382799242,0.0724029541015625,-0.0646514892578125,-1.01055908203125,-0.0119432117789983,0.0031017838045954,-0.0062176822684705
1768382799252,0.07135009765625,-0.0630645751953125,-1.012939453125,0.0043326965533196,0.0047798412851989,-0.0088390316814184
1768382799262,0.07366943359375,-0.0637359619140625,-1.0105438232421875,0.0223207511007785,0.0007321029552258,-0.0111013865098357
1768382799272,0.0758514404296875,-0.063507080078125,-1.0075225830078125,0.0321342349052429,-0.0008154599345289,-0.0099695436656475
1768382799282,0.0764312744140625,-0.0619354248046875,-1.0003509521484375,0.0427314862608909,0.0018469021888449,-0.0058938418515026
1768382799292,0.0755462646484375,-0.062286376953125,-0.9907073974609376,0.0450002327561378,0.0018333201296627,-0.0040946099907159
1768382799302,0.0716400146484375,-0.06304931640625,-0.98199462890625,0.0379047729074955,-0.0027297399938106,-0.0067583038471639
1768382799312,0.0711669921875,-0.06390380859375,-0.975738525390625,0.0222230143845081,-0.0032786175142973,-0.0089002838358283
1768382799322,0.0729522705078125,-0.0660858154296875,-0.9732818603515624,0.0070872041396796,-0.0024919197894632,-0.0120129873976111
1768382799332,0.0767822265625,-0.0683135986328125,-0.974090576171875,-0.0049894321709871,0.0035800873301923,-0.014674549922347
1768382799342,0.0771636962890625,-0.0652923583984375,-0.980255126953125,-0.0174189377576112,0.0056030247360467,-0.0133536225184798
1768382799352,0.0771636962890625,-0.0574493408203125,-0.9862823486328124,-0.0208344422280788,-0.0012658004416152,-0.00976980663836
1768382799362,0.0726318359375,-0.049957275390625,-0.9929962158203124,-0.0175014957785606,-0.0074139740318059,-0.0095085501670837
1768382799372,0.0655670166015625,-0.0524139404296875,-0.9936065673828124,-0.0123333651572465,-0.0054964981973171,-0.0135514950379729
1768382799382,0.071258544921875,-0.0669708251953125,-0.989898681640625,-0.0054669370874762,0.0021012341603636,-0.0142689505591988
1768382799392,0.081787109375,-0.076263427734375,-0.985687255859375,-0.0097381146624684,0.0071724252775311,-0.0142835984006524
1768382799402,0.0872955322265625,-0.0765380859375,-0.9839324951171876,-0.022349514067173,-0.0003432814555708,-0.0165238492190837
1768382799412,0.0822906494140625,-0.06341552734375,-0.98834228515625,-0.0344775505363941,-0.0117794275283813,-0.0141610922291874
1768382799422,0.0777435302734375,-0.055450439453125,-0.9972686767578124,-0.0336490385234355,-0.0127618676051497,-0.0106891291216015
1768382799432,0.0731048583984375,-0.0504608154296875,-1.002044677734375,-0.0180229432880878,-0.0094076162204146,-0.002248773118481
1768382799443,0.0726165771484375,-0.05181884765625,-1.0001068115234375,-0.0019800602458417,0.0084970816969871,-0.0007171892793849
1768382799452,0.072601318359375,-0.0572662353515625,-0.9936065673828124,-0.0019800602458417,0.0084970816969871,-0.0007171892793849
1768382799462,0.07623291015625,-0.0639190673828125,-0.986724853515625,-0.0080771008506417,0.0027542412281036,-0.0052048820070922
1768382799473,0.0828399658203125,-0.0713043212890625,-0.9869232177734376,-0.0172492936253547,-0.0061167483218014,-0.0036892769858241
1768382799483,0.087310791015625,-0.0747222900390625,-0.9902496337890624,-0.0224331375211477,-0.0161478109657764,-0.0010205233702436
1768382799493,0.0889129638671875,-0.075042724609375,-0.9931182861328124,-0.0275099202990531,-0.0199947468936443,0.0080725736916065
1768382799503,0.0853271484375,-0.0714111328125,-0.9970245361328124,-0.0261362623423337,-0.0170996244996786,0.0228216927498579
1768382799513,0.0807037353515625,-0.065521240234375,-1.0004119873046875,-0.0222951862961053,-0.0116926087066531,0.0281472150236368
1768382799523,0.0721588134765625,-0.061614990234375,-0.9990386962890624,-0.0188578441739082,0.0012575446162372,0.0324503518640995
1768382799533,0.064544677734375,-0.0565643310546875,-0.9997100830078124,-0.011888351291418,0.0121706463396549,0.02580576390028
1768382799543,0.0642547607421875,-0.055694580078125,-1.000701904296875,-0.0020913803018629,0.0165419578552246,0.0149584431201219
1768382799553,0.0644683837890625,-0.0565643310546875,-1.0048980712890625,0.0110470587387681,0.0136708049103617,0.0038064562249928
1768382799563,0.0709381103515625,-0.0578765869140625,-1.00531005859375,0.0257437136024236,0.006297044456005,0.0030618363525718
1768382799573,0.0698089599609375,-0.05841064453125,-1.000091552734375,0.0373945087194442,0.0019763319287449,0.0008807073463685
1768382799583,0.07061767578125,-0.0598907470703125,-0.9911651611328124,0.0391327552497386,0.0054560182616114,0.0003036003618035
1768382799593,0.0685272216796875,-0.0627288818359375,-0.9851226806640624,0.0339867286384105,0.0080488715320825,-0.0029521139804273
1768382799603,0.0662384033203125,-0.0648956298828125,-0.977294921875,0.0225218199193477,0.0071686971932649,-0.0103756757453084
1768382799613,0.0673370361328125,-0.06982421875,-0.9725341796875,0.0025742114521563,0.0118782306089997,-0.0142830656841397
1768382799623,0.0712738037109375,-0.070404052734375,-0.97210693359375,-0.0126412268728017,0.0127325728535652,-0.0120449448004364
1768382799633,0.0715484619140625,-0.066680908203125,-0.9786376953125,-0.0288082119077444,0.0148654989898204,-0.0107136303558945
1768382799643,0.072509765625,-0.063934326171875,-0.986846923828125,-0.0362299084663391,0.0053505566902458,-0.0089745866134762
1768382799654,0.07098388671875,-0.06134033203125,-0.9923248291015624,-0.0316002704203128,-0.0049183256924152,-0.0159065276384353
1768382799663,0.07183837890625,-0.05853271484375,-0.996826171875,-0.0316002704203128,-0.0049183256924152,-0.0159065276384353
1768382799673,0.0751495361328125,-0.056243896484375,-0.999664306640625,-0.0267506539821624,-0.0008444883860647,-0.0163558032363653
1768382799684,0.078857421875,-0.05841064453125,-1.004547119140625,-0.0172056183218956,0.0023664848413318,-0.0143051696941256
1768382799694,0.079559326171875,-0.0614471435546875,-1.0062255859375,-0.0073047843761742,0.0027473168447613,-0.0133608123287558
1768382799704,0.08331298828125,-0.0659637451171875,-1.0046844482421875,0.0024165522772818,0.006303702481091,-0.0101612908765673
1768382799714,0.08587646484375,-0.0689544677734375,-1.003204345703125,0.0100960433483123,0.0087527455762028,-0.0011885687708854
1768382799724,0.089080810546875,-0.0720062255859375,-0.99871826171875,0.0128329740837216,0.0068158279173076,0.0054235276766121
1768382799734,0.0910186767578125,-0.0726776123046875,-0.994903564453125,0.0115059213712811,0.00995809212327,0.0186463892459869
1768382799744,0.0842132568359375,-0.0687103271484375,-0.99432373046875,0.0127602703869342,0.0144793400540947,0.0251468978822231
1768382799754,0.07952880859375,-0.0664520263671875,-0.9944000244140624,0.0104736797511577,0.018742261454463,0.030681213364005
1768382799764,0.0719451904296875,-0.0619354248046875,-0.9925079345703124,0.0105604985728859,0.0191870108246803,0.0276310946792364
1768382799774,0.068267822265625,-0.05926513671875,-0.99151611328125,0.0117477364838123,0.0216728039085865,0.0205156616866588
1768382799784,0.064788818359375,-0.05792236328125,-0.990325927734375,0.0132843796163797,0.0177076235413551,0.0164439547806978
1768382799794,0.0651397705078125,-0.0581817626953125,-0.9842529296875,0.0070576430298388,0.0118334898725152,0.0041036647744476
1768382799804,0.0659332275390625,-0.0605010986328125,-0.9808197021484376,-0.0062597598880529,0.0178335923701524,-0.0027694210875779
1768382799814,0.0675201416015625,-0.063690185546875,-0.9831695556640624,-0.0115320198237895,0.0163147915154695,-0.0063660200685262
1768382799824,0.070526123046875,-0.06280517578125,-0.9863128662109376,-0.0155440717935562,0.0079588564112782,-0.0078994687646627
1768382799834,0.07232666015625,-0.0623321533203125,-0.98907470703125,-0.0151754906401038,0.0091016190126538,-0.0066696205176413
1768382799844,0.0708770751953125,-0.06170654296875,-0.991546630859375,-0.0136052910238504,0.0064706825651228,-0.0112774223089218
1768382799854,0.070770263671875,-0.06219482421875,-0.991455078125,-0.0135336518287658,0.0087604681029915,-0.0136817237362265
1768382799864,0.0712738037109375,-0.064361572265625,-0.9946136474609376,-0.0093000251799821,0.0100182797759771,-0.019331619143486
1768382799874,0.0785980224609375,-0.0648040771484375,-0.9964447021484376,-0.0060032978653907,0.0152963986620306,-0.018868762999773
1768382799884,0.082244873046875,-0.068023681640625,-1.0036163330078125,0.0035862126387655,0.0121493404731154,-0.018763568252325
1768382799895,0.085205078125,-0.0681304931640625,-1.0055084228515625,0.016013853251934,0.0007257114048115,-0.0149131696671247
1768382799905,0.0840911865234375,-0.06707763671875,-1.0019073486328125,0.0244270451366901,-0.0010048106778413,-0.0063665527850389
1768382799915,0.0805206298828125,-0.0671539306640625,-0.9962921142578124,0.0293472353368997,0.0033742249943315,-0.0003219761711079
1768382799925,0.07574462890625,-0.0650177001953125,-0.9880523681640624,0.0259738098829984,0.0060259345918893,0.0010511496802791
1768382799935,0.0712127685546875,-0.0634918212890625,-0.9854278564453124,0.0189345423132181,0.0094531569629907,-0.0051255198195576
1768382799945,0.068328857421875,-0.0633087158203125,-0.9842376708984376,0.0136740002781152,0.0104864630848169,-0.0135251302272081
1768382799955,0.0723724365234375,-0.0652008056640625,-0.9834747314453124,0.0036605149507522,0.0070728231221437,-0.0142092956230044
1768382799965,0.077239990234375,-0.068389892578125,-0.985687255859375,-0.0025148231070488,0.0073908045887947,-0.0130375046283006
1768382799975,0.0815887451171875,-0.0690765380859375,-0.990509033203125,-0.0048147290945053,0.0105999140068888,-0.0045758434571325
1768382799985,0.0812835693359375,-0.0699005126953125,-0.99432373046875,-0.0032234902027994,0.008820922113955,-0.0024109596852213
1768382799995,0.077178955078125,-0.06463623046875,-0.99359130859375,-0.0017630126094445,0.00403016153723,0.0004905542591586
1768382800005,0.0700225830078125,-0.0582275390625,-0.99615478515625,0.0002042644482571,-0.0005313006113283,-0.0047857002355158
1768382800015,0.061309814453125,-0.0541534423828125,-0.9980621337890624,0.0083820335566997,0.0026189526543021,-0.0143099632114171
1768382800025,0.062896728515625,-0.0640106201171875,-0.993804931640625,0.0122073972597718,0.0061284662224352,-0.0220254082232713
1768382800035,0.0737762451171875,-0.0791168212890625,-0.98638916015625,0.0112832812592387,0.0085317026823759,-0.0258747395128011
1768382800045,0.0867156982421875,-0.084716796875,-0.98187255859375,0.001888713799417,0.0080384854227304,-0.0217614881694316
1768382800055,0.0900421142578125,-0.0763397216796875,-0.980377197265625,-0.0127743845805525,0.0016338493442162,-0.016138756647706
1768382800065,0.0814666748046875,-0.0613555908203125,-0.9893035888671876,-0.0232544559985399,-0.0041995388455688,-0.0118002006784081
1768382800075,0.0743865966796875,-0.0550994873046875,-0.9974212646484376,-0.0179699454456567,-0.0077103837393224,-0.007022222969681
1768382800085,0.069244384765625,-0.0525665283203125,-0.99871826171875,-0.0018128136871382,0.0027371968608349,-0.0058496333658695
1768382800095,0.0666961669921875,-0.0575714111328125,-0.99383544921875,0.0081577952951192,0.009107744321227,-0.0099045624956488
1768382800106,0.07049560546875,-0.0641326904296875,-0.9843292236328124,0.0033052491489797,0.0056216665543615,-0.0184096340090036
1768382800115,0.0737762451171875,-0.0704345703125,-0.9795989990234376,-0.01036555506289,-0.0020897823851555,-0.0292218010872602
1768382800126,0.0811614990234375,-0.0733795166015625,-0.977691650390625,-0.0262696873396635,-0.0072491243481636,-0.0315837599337101
1768382800136,0.0882110595703125,-0.0753021240234375,-0.983734130859375,-0.0369087494909763,-0.0050911651924252,-0.0310900080949068
1768382800146,0.088531494140625,-0.0733795166015625,-0.9919891357421876,-0.0401809737086296,-0.0041257692500948,-0.021836856380105
1768382800156,0.0887451171875,-0.0714111328125,-0.999420166015625,-0.0359377600252628,0.0023345269728451,-0.0084693850949406
1768382800166,0.0838775634765625,-0.06610107421875,-1.005096435546875,-0.0241330321878194,0.0038567897863686,-0.0009606021922081
1768382800176,0.077911376953125,-0.0635986328125,-1.007568359375,-0.008748217485845,0.0068171597085893,0.0009022789890877
1768382800186,0.07464599609375,-0.0592498779296875,-1.0092926025390625,0.0080201094970107,0.0071093086153268,-0.0035760926548391
1768382800196,0.0725860595703125,-0.0591278076171875,-1.0065460205078125,0.0219785347580909,0.0139070274308323,-0.0078057250939309
1768382800206,0.0756988525390625,-0.0606536865234375,-1.0035247802734375,0.0343909971415996,0.0185217522084712,-0.0080643184483051
1768382800216,0.0770721435546875,-0.0609130859375,-0.9981231689453124,0.0398486144840717,0.0181326642632484,-0.0085455514490604
1768382800226,0.076141357421875,-0.065155029296875,-0.992462158203125,0.0457493774592876,0.0110305463895201,-0.0054397727362811
1768382800236,0.0756378173828125,-0.0686492919921875,-0.9819488525390624,0.0379718840122222,0.0083221122622489,-0.007333546411246
1768382800246,0.0751953125,-0.0702972412109375,-0.9738006591796876,0.0205263141542673,0.0108121680095791,-0.0087538100779056
1768382800256,0.0748443603515625,-0.072998046875,-0.96954345703125,0.0018157431622967,0.0145800076425075,-0.0066099655814468
1768382800266,0.077239990234375,-0.0716705322265625,-0.9706573486328124,-0.0194871481508016,0.0190953966230154,-0.0046248454600572
1768382800276,0.078887939453125,-0.065032958984375,-0.9795684814453124,-0.0307422000914812,0.014443919993937,-0.0022884542122483
1768382800286,0.074798583984375,-0.0618133544921875,-0.9881439208984376,-0.0343499854207038,0.0088028125464916,-0.0078448737040162
1768382800296,0.07244873046875,-0.059539794921875,-0.9920654296875,-0.0306833442300558,0.0028921929188072,-0.0118185766041278
1768382800307,0.0766448974609375,-0.0608062744140625,-0.9946136474609376,-0.0237924139946699,0.0044674528762698,-0.0146910613402724
1768382800317,0.0814361572265625,-0.061920166015625,-0.9972076416015624,-0.0166865680366754,-0.0032993901986628,-0.0100065609440207
1768382800327,0.0855865478515625,-0.0645904541015625,-0.99517822265625,-0.0166865680366754,-0.0032993901986628,-0.0100065609440207
1768382800337,0.0862579345703125,-0.0673675537109375,-0.9962158203125,-0.0153094474226236,-0.0052395029924809,-0.0057955710217356
1768382800347,0.087371826171875,-0.067718505859375,-0.996185302734375,-0.0152263566851615,-0.0004759068833664,0.002118544653058
1768382800357,0.0884552001953125,-0.0693359375,-0.99359130859375,-0.0182951167225837,0.0061223409138619,0.0110009862110018
1768382800367,0.0830230712890625,-0.06719970703125,-0.9965972900390624,-0.016810405999422,0.0036740971263498,0.0112236263230443
1768382800377,0.082244873046875,-0.0643157958984375,-0.99664306640625,-0.0130641367286443,0.0036985981278121,0.0107623664662241
1768382800387,0.0826568603515625,-0.064453125,-1.0005035400390625,-0.0065590995363891,0.0073050507344305,0.011740013025701
1768382800397,0.0773468017578125,-0.0637054443359375,-1.0032196044921875,0.0040538636967539,0.0070264842361211,0.0100164152681827
1768382800407,0.079193115234375,-0.062164306640625,-0.9998626708984376,0.0111013865098357,0.0109434612095355,0.0076440712437033
1768382800417,0.080322265625,-0.0618743896484375,-0.9998321533203124,0.0189350750297307,0.0119922142475843,0.0096776606515049
1768382800427,0.081695556640625,-0.062408447265625,-0.9958343505859376,0.0235271640121936,0.0098262652754783,0.0146399289369583
1768382800437,0.078033447265625,-0.0634765625,-0.991729736328125,0.0285743866115808,0.004513525404036,0.0202064681798219
1768382800447,0.074493408203125,-0.0632476806640625,-0.9873504638671876,0.0266752857714891,0.001979527529329,0.0181675516068935
1768382800457,0.071990966796875,-0.06317138671875,-0.982421875,0.0232962686568498,0.0030972564127296,0.0167630016803741
1768382800467,0.0668792724609375,-0.0638580322265625,-0.9780731201171876,0.015132613480091,-0.0027435885276645,0.0101541001349687
1768382800477,0.06634521484375,-0.06427001953125,-0.9758758544921876,-0.0001499359641456,-0.0083868270739912,-0.0028266792651265
1768382800487,0.0692291259765625,-0.0684051513671875,-0.9710235595703124,-0.0143712162971496,-0.015433550812304,-0.0100744720548391
1768382800497,0.074066162109375,-0.072235107421875,-0.971221923828125,-0.0333350524306297,-0.0159384869039058,-0.0120899518951773
1768382800507,0.076934814453125,-0.06976318359375,-0.9786834716796876,-0.0456076972186565,-0.0181023050099611,-0.0095426384359598
1768382800517,0.079071044921875,-0.06719970703125,-0.9854583740234376,-0.0487275905907154,-0.0246092062443494,-0.0054320497438311
1768382800528,0.079620361328125,-0.063507080078125,-0.993988037109375,-0.0398427546024322,-0.0201231110841035,0.0006122607155703
1768382800537,0.0772247314453125,-0.0604705810546875,-1.0018310546875,-0.0398427546024322,-0.0201231110841035,0.0006122607155703
1768382800548,0.07427978515625,-0.060211181640625,-1.002532958984375,-0.0343348048627376,-0.024543959647417,-0.0012668657582253
1768382800558,0.073394775390625,-0.0594329833984375,-1.0001068115234375,-0.0306380707770586,-0.0307957287877798,-0.0106992498040199
1768382800568,0.075836181640625,-0.0586395263671875,-1.0068359375,-0.0141048999503254,-0.0103213470429182,-0.008650479838252
1768382800578,0.0775604248046875,-0.060546875,-1.006561279296875,0.0026844663079828,-0.0075103803537786,0.0023755396250635
1768382800588,0.078155517578125,-0.0621185302734375,-1.002532958984375,0.0141283357515931,-0.0127421608194708,0.0023126890882849
1768382800598,0.07769775390625,-0.0632171630859375,-0.9962310791015624,0.0197414811700582,-0.014756042510271,0.0032573123462498
1768382800608,0.07763671875,-0.06475830078125,-0.9908447265625,0.0197792965918779,-0.0109109710901975,0.0038125813007354
1768382800618,0.0781402587890625,-0.066162109375,-0.986236572265625,0.0168436951935291,-0.0155512625351548,0.0057769292034208
1768382800628,0.079620361328125,-0.0655975341796875,-0.9834747314453124,0.0103604951873421,-0.0242161229252815,0.003083674237132
1768382800638,0.074462890625,-0.0625762939453125,-0.983612060546875,0.0025406556669622,-0.0348671711981296,0.0050581418909132
1768382800648,0.068603515625,-0.0575408935546875,-0.983795166015625,-0.0031720912083983,-0.0345933958888053,0.0016863135388121
1768382800658,0.062774658203125,-0.05975341796875,-0.9835662841796876,-0.009949036873877,-0.0278430823236703,-0.0012918994762003
1768382800668,0.064453125,-0.067718505859375,-0.982086181640625,-0.0159243717789649,-0.013782924041152,-0.0030660973861813
1768382800678,0.0709075927734375,-0.07586669921875,-0.9805755615234376,-0.0214512292295694,-0.0127624003216624,-0.0056988983415067
1768382800688,0.077545166015625,-0.0747222900390625,-0.9820098876953124,-0.0331728681921958,-0.0108925951644778,-0.0050152647309005
1768382800698,0.07708740234375,-0.062896728515625,-0.9892730712890624,-0.0434870235621929,-0.0091871069744229,-0.0057660099118947
1768382800708,0.072418212890625,-0.0528106689453125,-0.9994659423828124,-0.0440763793885707,-0.0118641164153814,-0.0001528654393041
1768382800718,0.06756591796875,-0.0509490966796875,-1.004058837890625,-0.0315675139427185,-0.0132678681984543,0.0046884948387742
1768382800728,0.065887451171875,-0.0523834228515625,-1.0065460205078125,-0.0110803479328751,-0.0146335372701287,0.003548395819962
1768382800738,0.0684967041015625,-0.0555572509765625,-1.0030670166015625,0.0050181942060589,-0.0162961483001709,0.0006157228490337
1768382800748,0.068450927734375,-0.0597076416015625,-0.9974822998046876,0.0077165090478956,-0.0191832818090915,-0.0054554855450987
1768382800759,0.0698089599609375,-0.063079833984375,-0.9908294677734376,0.0012724583502858,-0.0195057913661003,-0.0120478747412562
1768382800769,0.0756988525390625,-0.066375732421875,-0.9896697998046876,-0.0049881008453667,-0.0144867971539497,-0.0146942576393485
1768382800779,0.0805206298828125,-0.0691680908203125,-0.9921722412109376,-0.010407100431621,-0.0079295616596937,-0.0106502473354339
1768382800789,0.0821075439453125,-0.06988525390625,-0.9943084716796876,-0.0114888772368431,-0.0092795183882117,-0.0017707358347252
1768382800799,0.0809326171875,-0.0680999755859375,-0.9965972900390624,-0.0118079232051968,-0.0079191755503416,0.0078664449974894
1768382800809,0.0808258056640625,-0.0658416748046875,-0.9995574951171876,-0.0063990433700382,-0.0037574539892375,0.0152063835412263
1768382800819,0.0733184814453125,-0.0614166259765625,-1.000640869140625,0.0023206786718219,-0.0009291769238188,0.0187827423214912
1768382800829,0.067291259765625,-0.057525634765625,-0.9997711181640624,0.0113352127373218,-0.0035824843216687,0.0170562155544757
1768382800839,0.0649261474609375,-0.0560302734375,-0.9998626708984376,0.0210573486983776,-0.0041417479515075,0.0098696751520037
1768382800849,0.0663604736328125,-0.0537109375,-0.9973907470703124,0.0276675801724195,0.0020945761352777,0.0045848982408642
1768382800859,0.0676116943359375,-0.0560150146484375,-0.991668701171875,0.034436535090208,0.0024154870770871,0.0017166736070066
1768382800869,0.0684661865234375,-0.0600433349609375,-0.9886322021484376,0.0294058248400688,-0.0011728560784831,0.0004554005572572
1768382800879,0.0702056884765625,-0.0622711181640625,-0.9813995361328124,0.0208181962370872,-1.0652644277797665e-06,0.0012237224727869
1768382800889,0.0701446533203125,-0.065582275390625,-0.9778289794921876,0.0066224825568497,0.0064235446043312,0.0028895298019051
1768382800899,0.0709381103515625,-0.068695068359375,-0.9773101806640624,-0.00715351710096,0.008077367208898,0.0033832797780632
1768382800909,0.0759429931640625,-0.0688018798828125,-0.9836578369140624,-0.0136297922581434,0.005501558072865,0.0073694991879165
1768382800919,0.0753021240234375,-0.0651702880859375,-0.9927520751953124,-0.0149424644187092,0.0002205097407568,0.0120611898601055
1768382800929,0.0705718994140625,-0.0649566650390625,-0.9972381591796876,-0.0115735651925206,-0.011347996070981,0.0108126997947692
1768382800940,0.064697265625,-0.060333251953125,-0.9959869384765624,-0.0052469600923359,-0.0218613557517528,0.00981215108186
1768382800949,0.0611572265625,-0.0567626953125,-0.9967498779296876,-0.0031878037843853,-0.0177813936024904,0.0022668826859444
1768382800959,0.0635986328125,-0.0577545166015625,-0.9935760498046876,-0.0021001687273383,-0.0069846725091338,-0.0014474280178546
1768382800970,0.0692291259765625,-0.0627288818359375,-0.991790771484375,-0.0063580307178199,-0.0005968143814243,0.0042711775749921
1768382800980,0.074493408203125,-0.0660552978515625,-0.9956512451171876,-0.0063580307178199,-0.0005968143814243,0.0042711775749921
1768382800990,0.0784759521484375,-0.069671630859375,-0.99786376953125,-0.0035510589368641,-0.0017028251895681,0.0077852187678217
1768382801000,0.078704833984375,-0.0714263916015625,-0.997650146484375,-0.0013715279055759,-0.0039199069142341,0.0167235862463712
1768382801010,0.076873779296875,-0.069793701171875,-0.9981689453125,0.0006109291571192,-0.0062128882855176,0.0204829052090644
1768382801020,0.0772247314453125,-0.068389892578125,-0.998199462890625,0.0039699743501842,-0.0025944514200091,0.0239298343658447
1768382801030,0.07525634765625,-0.0663604736328125,-0.99957275390625,0.0071607073768973,0.0049412292428314,0.0288558825850486
1768382801040,0.0699615478515625,-0.0660247802734375,-1.0021820068359375,0.0145387286320328,0.0025097629986703,0.0260236114263534
1768382801050,0.0675048828125,-0.0638275146484375,-1.000152587890625,0.0208986233919858,-0.0001595233479747,0.019727099686861
1768382801060,0.065155029296875,-0.060791015625,-0.994537353515625,0.0226565767079591,0.0052970275282859,0.0174437053501606
1768382801070,0.0627899169921875,-0.0601348876953125,-0.990570068359375,0.0219907853752374,0.012115784920752,0.0141632230952382
1768382801080,0.0634307861328125,-0.061859130859375,-0.988983154296875,0.022031532600522,0.0153033221140503,0.0092584798112511
1768382801090,0.0639801025390625,-0.06231689453125,-0.9874725341796876,0.0162042696028947,0.0112934010103344,0.0064725466072559
1768382801100,0.065673828125,-0.06402587890625,-0.986328125,0.013202354311943,0.006024869158864,0.0057241981849074
1768382801110,0.065277099609375,-0.0645599365234375,-0.9841156005859376,0.0088515486568212,0.0060597565025091,-0.0004354268312454
1768382801120,0.0646820068359375,-0.065185546875,-0.9839935302734376,0.0018674085149541,0.0085069350898265,-0.0006689860601909
1768382801130,0.065582275390625,-0.066925048828125,-0.9837646484375,-0.0053460295312106,0.0070627033710479,-0.0023326626978814
1768382801140,0.0655670166015625,-0.0687255859375,-0.9852447509765624,-0.0091852424666285,0.0041880873031914,-0.0036645096261054
1768382801150,0.0663604736328125,-0.0692291259765625,-0.98577880859375,-0.0156513974070549,0.0066954530775547,-0.004744155332446
1768382801160,0.0681915283203125,-0.0695037841796875,-0.98773193359375,-0.0206730533391237,0.0045326999388635,-0.0049430932849645
1768382801171,0.065155029296875,-0.067474365234375,-0.9885101318359376,-0.0231455322355031,0.0051367050036787,-0.0151709634810686
1768382801181,0.0659332275390625,-0.0660552978515625,-0.990753173828125,-0.0239644553512334,0.0038493329193443,-0.0155456699430942
1768382801191,0.0699462890625,-0.066009521484375,-0.99151611328125,-0.0189044494181871,0.0022671490442007,-0.0085415560752153
1768382801201,0.072845458984375,-0.065185546875,-0.99505615234375,-0.0189044494181871,0.0022671490442007,-0.0085415560752153
1768382801211,0.0725860595703125,-0.0646514892578125,-1.001495361328125,-0.0069066421128809,0.0001973402395378,-0.0018674085149541
1768382801221,0.0720062255859375,-0.0642852783203125,-1.000732421875,0.0019944412633776,-0.001291633117944,0.0017568873008713
1768382801231,0.0711669921875,-0.063140869140625,-0.99822998046875,0.0081039993092417,0.0016650082543492,0.0062531023286283
1768382801241,0.0670623779296875,-0.061004638671875,-0.998260498046875,0.012983176857233,0.0096110822632908,0.0009448895580135
1768382801251,0.066070556640625,-0.062713623046875,-0.9941864013671876,0.0165664590895175,0.0077466028742492,-0.00561687303707
1768382801261,0.0697479248046875,-0.0679931640625,-0.9933624267578124,0.0149656338617205,0.006745786871761,-0.008273109793663
1768382801271,0.0742340087890625,-0.068572998046875,-0.990966796875,0.0147429937496781,0.0024122912436723,-0.0062839947640895
1768382801281,0.071685791015625,-0.0644073486328125,-0.9893646240234376,0.0127589385956525,-0.0062714777886867,-0.004660265520215
1768382801291,0.0644683837890625,-0.058135986328125,-0.9866485595703124,0.0093519566580653,-0.0122247086837887,-0.003598463255912
1768382801301,0.0550079345703125,-0.060302734375,-0.984283447265625,0.00281229801476,-0.0057894457131624,-0.007831291295588
1768382801311,0.05865478515625,-0.0733489990234375,-0.9779205322265624,-0.0061218081973493,0.0048141963779926,-0.0114135090261697
1768382801321,0.0703125,-0.08111572265625,-0.973297119140625,-0.0191236268728971,0.0104310689494013,-0.0143059687688946
1768382801331,0.075897216796875,-0.080535888671875,-0.978179931640625,-0.0346362739801406,0.006172408349812,-0.0192682370543479
1768382801341,0.073577880859375,-0.0670013427734375,-0.9887237548828124,-0.0453845262527465,-0.0031097731553018,-0.0242603328078985
1768382801351,0.071044921875,-0.05694580078125,-1.002532958984375,-0.0404675304889678,-0.0079865539446473,-0.0230800192803144
1768382801361,0.0720062255859375,-0.0532989501953125,-1.010650634765625,-0.0213660094887018,-0.0003211772127542,-0.0173307862132787
1768382801371,0.069671630859375,-0.0557861328125,-1.01251220703125,0.0074850805103778,0.0080193104222416,-0.0112020540982484
1768382801381,0.0699615478515625,-0.0601806640625,-1.0048828125,0.0200826320797204,-7.56337758502923e-05,-0.0069460566155612
1768382801391,0.0695953369140625,-0.0680389404296875,-0.99334716796875,0.0148010505363345,-0.0063660200685262,-0.0108736865222454
1768382801402,0.0736083984375,-0.0729522705078125,-0.9853363037109376,0.0025949841365218,-0.0077162426896393,-0.0157661791890859
1768382801412,0.0782623291015625,-0.07904052734375,-0.984710693359375,-0.0094555532559752,-0.0087777785956859,-0.0150359412655234
1768382801422,0.08380126953125,-0.080718994140625,-0.9869842529296876,-0.0183779411017894,-0.005771336145699,-0.0080896178260445
1768382801432,0.0851593017578125,-0.079193115234375,-0.993499755859375,-0.0211431011557579,-0.0023350596893578,0.0011917646043002
1768382801442,0.08026123046875,-0.0719451904296875,-0.999176025390625,-0.0162103958427906,0.0022074941080063,0.0112675679847598
1768382801452,0.0715789794921875,-0.0657806396484375,-1.0007781982421875,-0.00574736809358,0.0097975032404065,0.0146993175148963
1768382801462,0.0630340576171875,-0.0593719482421875,-1.0020751953125,0.0047830371186137,0.0169121380895376,0.0126817068085074
1768382801472,0.0599212646484375,-0.0544586181640625,-1.004364013671875,0.0211580153554677,0.0227300804108381,0.0033385388087481
1768382801482,0.0623779296875,-0.0556640625,-1.0040283203125,0.0400803089141845,0.0233055893331766,-0.0063721453770995
1768382801492,0.0673828125,-0.060150146484375,-1.0010986328125,0.0533492416143417,0.0183798056095838,-0.0089466236531734
1768382801502,0.0717010498046875,-0.0652008056640625,-0.992431640625,0.0556020103394985,0.0107631655409932,-0.0042581283487379
1768382801512,0.0729522705078125,-0.0701751708984375,-0.9834442138671876,0.0500874035060405,0.0062352591194212,-0.0002836266648955
1768382801522,0.068939208984375,-0.072509765625,-0.9752197265625,0.0371279269456863,0.0012697952333837,-0.0005613943794742
1768382801532,0.0645294189453125,-0.072174072265625,-0.9680938720703124,0.0155688393861055,-0.0012548814993351,-0.0068642976693809
1768382801542,0.061126708984375,-0.0698089599609375,-0.96417236328125,-0.0091831116005778,0.0015805860748514,-0.0182836651802063
1768382801552,0.0641937255859375,-0.0667572021484375,-0.9685821533203124,-0.028318190947175,0.0057494984939694,-0.026096049696207
1768382801562,0.0689544677734375,-0.0648956298828125,-0.975921630859375,-0.0425807498395442,0.0092616751790046,-0.0244880318641662
1768382801572,0.0724945068359375,-0.0640869140625,-0.9872283935546876,-0.045847650617361,0.0112422676756978,-0.0199880897998809
1768382801582,0.0745391845703125,-0.0640411376953125,-0.998992919921875,-0.0399151928722858,0.0112864766269922,-0.0163712501525878
1768382801592,0.077423095703125,-0.0664520263671875,-1.0043487548828125,-0.0293645467609167,0.0076824207790195,-0.0103993779048323
1768382801603,0.082550048828125,-0.0661773681640625,-1.006591796875,-0.0168245192617177,0.0056834518909454,-0.0022295983508229
1768382801613,0.082244873046875,-0.06634521484375,-1.0081329345703125,-0.0018940401496365,0.0015070828376337,0.004251470323652
1768382801623,0.0810089111328125,-0.0679931640625,-1.0045928955078125,0.0117519972845911,-0.0021441110875457,0.0086848344653844
1768382801633,0.0796661376953125,-0.0698394775390625,-0.9990081787109376,0.0167060084640979,-0.0041382857598364,0.011084608733654
1768382801643,0.0784149169921875,-0.073760986328125,-0.995025634765625,0.0176106858998537,-0.0016365124611184,0.0123887592926621
1768382801653,0.0784149169921875,-0.0755157470703125,-0.987945556640625,0.0127754500135779,-0.0042069954797625,0.0153097137808799
1768382801663,0.0774688720703125,-0.0750579833984375,-0.9846649169921876,0.0032256206031888,-0.0021901836153119,0.018048508092761
1768382801673,0.0745391845703125,-0.0732574462890625,-0.9850311279296876,-0.0041071269661188,-0.0022538332268595,0.0200983434915542
1768382801683,0.0688323974609375,-0.0701904296875,-0.9838714599609376,-0.0123631926253438,-0.0011837751371785,0.0177851226180791
1768382801693,0.0663909912109375,-0.06573486328125,-0.9880218505859376,-0.0147595051676034,0.0053124735131859,0.0135512286797165
1768382801703,0.0666961669921875,-0.065338134765625,-0.9918975830078124,-0.0149429971352219,0.008600678294897,0.0142772067338228
1768382801713,0.067352294921875,-0.0628509521484375,-0.9976348876953124,-0.0075412732549011,0.0116462698206305,0.0149232894182205
1768382801723,0.06494140625,-0.064788818359375,-0.9989471435546876,0.000605336506851,0.0091668665409088,0.013040967285633
1768382801733,0.063690185546875,-0.0637359619140625,-0.994232177734375,0.0029622339643538,0.0064887921325862,0.0104845985770225
1768382801743,0.0630645751953125,-0.0650177001953125,-0.9900054931640624,-0.0003890878288075,0.0077623156830668,0.0042796996422111
1768382801753,0.06298828125,-0.0684814453125,-0.98687744140625,-0.0063505740836262,0.0124606639146804,0.0005115932435728
1768382801763,0.06439208984375,-0.071075439453125,-0.986053466796875,-0.0089681949466466,0.0096121476963162,-0.0025616947095841
1768382801773,0.068023681640625,-0.07122802734375,-0.9889068603515624,-0.0124854315072298,0.0067649618722498,-0.00542086455971
1768382801783,0.0673065185546875,-0.072052001953125,-0.9921417236328124,-0.0110896686092019,0.0013201289111748,-0.0101911183446645
1768382801793,0.0681304931640625,-0.0706787109375,-0.9871978759765624,-0.0138558940961956,-0.0030629015527665,-0.0116483997553586
1768382801803,0.06768798828125,-0.0714569091796875,-0.9892425537109376,-0.018362496048212,0.0005768407136201,-0.0142934517934918
1768382801813,0.068756103515625,-0.0697784423828125,-0.9926910400390624,-0.0199649203568696,0.001716939965263,-0.0133261913433671
1768382801824,0.07073974609375,-0.06939697265625,-0.9943695068359376,-0.0177164133638143,-0.0010189254535362,-0.0169885698705911
1768382801834,0.07110595703125,-0.067047119140625,-0.9963226318359376,-0.0159717760980129,-0.0010695254895836,-0.0147059755399823
1768382801844,0.0726776123046875,-0.066558837890625,-0.9973907470703124,-0.0126835713163018,0.0033033851068466,-0.011380486190319
1768382801854,0.072601318359375,-0.0645751953125,-1.0000762939453125,-0.0076472670771181,0.0068046427331864,-0.0053255232051014
1768382801864,0.07196044921875,-0.06280517578125,-1.00421142578125,0.0066618975251913,0.0058946409262716,-0.0023276028223335
1768382801874,0.0694427490234375,-0.0611724853515625,-1.0034637451171875,0.0165587365627288,0.004209924954921,-0.0018823222490027
1768382801884,0.067596435546875,-0.0619049072265625,-0.9990234375,0.027252659201622,0.0041883531957864,-0.0056315204128623
1768382801894,0.067230224609375,-0.063720703125,-0.9951324462890624,0.0310695022344589,0.0019619506783783,-0.010098174214363
1768382801904,0.0738067626953125,-0.0687408447265625,-0.9894256591796876,0.0322460867464542,5.352953667170368e-05,-0.0141608268022537
1768382801914,0.0746307373046875,-0.069488525390625,-0.9825286865234376,0.0249351765960454,-0.0006002765148878,-0.0113402726128697
1768382801924,0.074005126953125,-0.067291259765625,-0.9776458740234376,0.011714712716639,-0.0026767430827021,-0.0087450221180915
1768382801934,0.0673370361328125,-0.061614990234375,-0.977996826171875,-0.0008791094878688,-0.0014231932582333,-0.0096334526315331
1768382801944,0.0619049072265625,-0.0663909912109375,-0.980682373046875,-0.0106955207884311,-0.0003627225232776,-0.0111328121274709
1768382801954,0.0688934326171875,-0.0775299072265625,-0.9781036376953124,-0.015361113473773,0.0024037691764533,-0.007563377264887
1768382801964,0.076019287109375,-0.0840606689453125,-0.976593017578125,-0.0264372006058692,0.003613643348217,-0.0102859269827604
1768382801974,0.080230712890625,-0.078887939453125,-0.980316162109375,-0.0399972163140773,-0.0040583913214504,-0.0083487434312701
1768382801984,0.077423095703125,-0.0653533935546875,-0.989349365234375,-0.0482181273400783,-0.0137078231200575,-0.0065598981454968
1768382801994,0.068450927734375,-0.0546417236328125,-1.0024566650390625,-0.0421261489391326,-0.0175401121377944,-0.0052783852443099
1768382802004,0.0627899169921875,-0.0503997802734375,-1.0114898681640625,-0.0200128573924303,-0.0127895651385188,-0.0031193606555461
1768382802014,0.063720703125,-0.0498504638671875,-1.01251220703125,0.0037960698828101,-0.0024754081387072,-0.0075577846728265
1768382802025,0.0659637451171875,-0.0545806884765625,-1.004180908203125,0.0148114366456866,0.007064567413181,-0.0171033535152673
1768382802035,0.0676727294921875,-0.0637054443359375,-0.99493408203125,0.0107056414708495,0.0043726442381739,-0.0192919392138719
1768382802045,0.0714569091796875,-0.0715789794921875,-0.99053955078125,0.0024559672456234,0.0028961875941604,-0.0239982772618532
1768382802055,0.073577880859375,-0.076904296875,-0.987152099609375,-0.0070097064599394,0.0008301073103211,-0.0248560812324285
1768382802065,0.076019287109375,-0.0792236328125,-0.9857940673828124,-0.0150726931169629,-0.001857554889284,-0.0208576116710901
1768382802075,0.0787506103515625,-0.078582763671875,-0.986236572265625,-0.0150726931169629,-0.001857554889284,-0.0208576116710901
1768382802085,0.0755615234375,-0.0733184814453125,-0.99395751953125,-0.0159169156104326,-0.0016831178218126,-0.0138340564444661
1768382802095,0.0731201171875,-0.06903076171875,-0.9975738525390624,-0.0106124309822916,-0.0003416835679672,-0.0050118030048906
1768382802105,0.0699310302734375,-0.0654144287109375,-1.0008392333984375,-0.0029411951545625,0.0051550809293985,-0.0018154769204556
1768382802115,0.065399169921875,-0.0633544921875,-0.999725341796875,0.0051454934291541,0.0098949745297431,-0.0009275790071114
1768382802125,0.0655517578125,-0.0599517822265625,-0.99969482421875,0.0125895617529749,0.0123368268832564,-0.0030384005513042
1768382802135,0.0652008056640625,-0.0612945556640625,-0.9944915771484376,0.0158822927623987,0.0132638737559318,-0.0098225371912121
1768382802145,0.066650390625,-0.065216064453125,-0.9914398193359376,0.0187654327601194,0.0113772908225655,-0.0110710272565484
1768382802155,0.0695343017578125,-0.068389892578125,-0.98919677734375,0.0202783737331628,0.0021723404061049,-0.0145648280158638
1768382802165,0.0719451904296875,-0.0699615478515625,-0.986907958984375,0.0163118615746498,-0.0022796657867729,-0.0129991555586457
1768382802175,0.0701141357421875,-0.070220947265625,-0.983062744140625,0.0077109164558351,-0.0098773976787924,-0.0135424407199025
1768382802185,0.070465087890625,-0.070281982421875,-0.981048583984375,-0.0025252092164009,-0.0108188251033425,-0.0133482962846755
1768382802195,0.0722808837890625,-0.0687255859375,-0.9825592041015624,-0.0131086111068725,-0.0052866409532725,-0.0108803445473313
1768382802205,0.068206787109375,-0.06573486328125,-0.987335205078125,-0.0204735826700925,-0.0048357676714658,-0.0092009548097848
1768382802215,0.0679168701171875,-0.06451416015625,-0.9936981201171876,-0.0180114917457103,-0.0123136574402451,-0.0123014077544212
1768382802225,0.0709075927734375,-0.061614990234375,-0.9981231689453124,-0.0152806853875517,0.0005009406013414,-0.0101711452007293
1768382802236,0.07415771484375,-0.0632171630859375,-1.002593994140625,0.0088337054476141,-0.0083109270781278,-0.0046520098112523
1768382802245,0.0788116455078125,-0.064300537109375,-1.0031280517578125,0.0088337054476141,-0.0083109270781278,-0.0046520098112523
1768382802255,0.0787506103515625,-0.0671844482421875,-0.998077392578125,0.0122984778136014,-0.0124430870637297,-0.00096699380083
1768382802265,0.0782318115234375,-0.068359375,-0.991424560546875,0.0088187912479043,-0.0132665364071726,0.0021648835390806
1768382802276,0.0796661376953125,-0.071044921875,-0.9862213134765624,-0.0014426343841478,-0.0106539754197001,0.01272804569453
1768382802286,0.07763671875,-0.0737457275390625,-0.9864501953125,-0.0014426343841478,-0.0106539754197001,0.01272804569453
1768382802296,0.077728271484375,-0.0751190185546875,-0.9906158447265624,-0.0042831618338823,-0.012320315465331,0.0158055946230888
1768382802306,0.0771484375,-0.074127197265625,-0.9887542724609376,-0.0082179820165038,-0.0153752276673913,0.0176263973116874
1768382802316,0.0743255615234375,-0.07196044921875,-0.9866943359375,-0.0145981172099709,-0.0168434288352727,0.0193430706858634
1768382802326,0.0689849853515625,-0.068450927734375,-0.9895782470703124,-0.0190077796578407,-0.0097306575626134,0.0197108536958694
1768382802336,0.06396484375,-0.0631256103515625,-0.997222900390625,-0.0123514747247099,-0.0035822179634124,0.0161009393632411
1768382802346,0.0621185302734375,-0.059906005859375,-1.0042724609375,0.0021560951136052,-0.0067433901131153,0.0096811233088374
1768382802356,0.0640106201171875,-0.0592193603515625,-1.0041046142578125,0.0136305913329124,-0.0090214582160115,0.005371063016355
1768382802366,0.06243896484375,-0.0606689453125,-1.003662109375,0.0212267246097326,-0.0012109393719583,0.0030945930629968
1768382802376,0.0622406005859375,-0.0628509521484375,-0.9977874755859376,0.0277538672089576,0.0084723141044378,-0.0013872405979782
1768382802386,0.060089111328125,-0.066619873046875,-0.992950439453125,0.0293072890490293,0.0107916612178087,-0.0053199306130409
1768382802396,0.0632476806640625,-0.071136474609375,-0.9897003173828124,0.0266763512045145,0.0094140078872442,-0.0068469871766865
1768382802406,0.0631256103515625,-0.072052001953125,-0.9851531982421876,0.0191643740981817,6.844323797849938e-05,-0.0098377168178558
1768382802416,0.060821533203125,-0.0738067626953125,-0.9782867431640624,0.008847021497786,-0.0021241372451186,-0.0134383104741573
1768382802426,0.0616302490234375,-0.074066162109375,-0.974273681640625,-0.0065143583342432,-0.0002820287481881,-0.0172181352972984
1768382802436,0.0642547607421875,-0.074188232421875,-0.9768524169921876,-0.0182913895696401,-0.0011946940794587,-0.0213681384921073
1768382802446,0.0657501220703125,-0.0743560791015625,-0.98406982421875,-0.0277522690594196,-0.0068358019925653,-0.0219851937144994
1768382802456,0.06890869140625,-0.0718994140625,-0.98846435546875,-0.0366469621658325,-0.0048184571787714,-0.0227548480033874
1768382802466,0.0712738037109375,-0.069244384765625,-0.9944000244140624,-0.039448607712984,-0.0020317255984991,-0.0179169494658708
1768382802477,0.068695068359375,-0.0656585693359375,-1.001953125,-0.0161499418318271,-0.000703607161995,-0.0153435366228222
1768382802487,0.068878173828125,-0.0641937255859375,-1.0062408447265625,0.0015241270884871,-0.0047353669069707,-0.0160000044852495
1768382802497,0.068634033203125,-0.0631103515625,-1.0084991455078125,0.0015241270884871,-0.0047353669069707,-0.0160000044852495
1768382802507,0.071685791015625,-0.0630340576171875,-1.006988525390625,0.0170351769775152,-0.00561687303707,-0.0156665779650211
1768382802517,0.0707855224609375,-0.0638580322265625,-1.002593994140625,0.0265322756022214,-0.0038320224266499,-0.0091301146894693
1768382802527,0.0724334716796875,-0.0688323974609375,-0.9983673095703124,0.0315059944987297,-0.0053255232051014,-0.0054528224281966
1768382802537,0.0721282958984375,-0.0723724365234375,-0.992279052734375,0.0280361622571945,-0.002175802597776,-0.0029830066487193
1768382802547,0.0733642578125,-0.07513427734375,-0.9853363037109376,0.023602532222867,0.0001592570333741,-0.0005960154230706
1768382802557,0.071807861328125,-0.0730743408203125,-0.98028564453125,0.00932053104043,-0.0014554174849763,-0.0009406284661963
1768382802567,0.0693359375,-0.0689849853515625,-0.9803619384765624,-0.0033720945939421,-0.0102821988984942,-0.0026298714801669
1768382802577,0.0657806396484375,-0.0648345947265625,-0.9842529296875,-0.0081969434395432,-0.0155091844499111,-0.0036224317736923
1768382802587,0.0611724853515625,-0.06890869140625,-0.983856201171875,-0.0119733056053519,-0.017805628478527,-0.0021582257468253
1768382802597,0.0666656494140625,-0.0771331787109375,-0.9795684814453124,-0.0174924414604902,-0.0089511508122086,2.8495824153651483e-05
1768382802607,0.0697784423828125,-0.079559326171875,-0.9798736572265624,-0.0292865168303251,-0.001669535646215,0.0001824265345931
1768382802617,0.071380615234375,-0.073699951171875,-0.9853363037109376,-0.0356983430683612,-0.0111527862027287,-0.0046922233887016
1768382802627,0.06744384765625,-0.06146240234375,-0.9914093017578124,-0.0414076261222362,-0.0201438833028078,-0.0096976347267627
1768382802637,0.06329345703125,-0.056427001953125,-0.9976806640625,-0.0403519496321678,-0.0145978508517146,-0.0084470147266983
1768382802647,0.062744140625,-0.0551605224609375,-1.003204345703125,-0.0245114676654338,-0.0050560114905238,-0.0062267370522022
1768382802657,0.06304931640625,-0.0565185546875,-1.005950927734375,-0.0071037160232663,0.0024863271974027,-0.0056501626968383
1768382802667,0.064605712890625,-0.0618896484375,-1.0038909912109375,0.0080059943720698,-0.000393881520722,-0.003450924064964
1768382802677,0.0676422119140625,-0.0691680908203125,-0.99456787109375,0.0075287562794983,-0.0116065889596939,-0.0094630103558301
1768382802687,0.0704193115234375,-0.07373046875,-0.9878082275390624,-0.0006817692192271,-0.0161004066467285,-0.0137786623090505
1768382802698,0.0743255615234375,-0.077880859375,-0.9856414794921876,-0.0118955411016941,-0.0207774508744478,-0.0134372450411319
1768382802708,0.0745086669921875,-0.0789337158203125,-0.983917236328125,-0.0249887071549892,-0.0143411224707961,-0.0086094671860337
1768382802718,0.07513427734375,-0.077392578125,-0.987762451171875,-0.0333526320755481,-0.0069180936552584,-0.0022868562955409
1768382802728,0.0721282958984375,-0.073028564453125,-0.9931793212890624,-0.0359923541545867,-0.0023704797495156,0.0055287224240601
1768382802738,0.06707763671875,-0.06988525390625,-0.998992919921875,-0.0298990420997142,0.0022120214998722,0.0085532739758491
1768382802748,0.0630950927734375,-0.0632476806640625,-1.0036468505859375,-0.0199611913412809,0.0052416333928704,0.0097410446032881
1768382802758,0.06158447265625,-0.05914306640625,-1.0080413818359375,-0.0029166939202696,0.0097295930609107,0.0093002915382385
1768382802768,0.064208984375,-0.058349609375,-1.0113983154296875,0.0197231043130159,0.0044831652194261,0.0093586146831512
1768382802778,0.065277099609375,-0.0590972900390625,-1.0081634521484375,0.0362445563077926,0.0007387608638964,0.0095916409045457
1768382802788,0.0662689208984375,-0.0623016357421875,-1.001678466796875,0.0493915192782878,-0.0028011128306388,0.0088092042133212
1768382802798,0.0672149658203125,-0.067962646484375,-0.991302490234375,0.048496164381504,-0.0036128442734479,0.0048376321792602
1768382802808,0.0659332275390625,-0.072418212890625,-0.981414794921875,0.0397554002702236,-0.006303702481091,0.0072975941002368
1768382802818,0.06640625,-0.0736083984375,-0.97369384765625,0.0243942886590957,-0.008838765323162,0.0073204971849918
1768382802828,0.0661163330078125,-0.0764007568359375,-0.9729461669921876,0.0062917182222008,-0.011608718894422,0.0081559307873249
1768382802838,0.0634613037109375,-0.0713348388671875,-0.972686767578125,-0.0125386947765946,-0.0094848480075597,0.0051955608651041
1768382802848,0.0617828369140625,-0.0684356689453125,-0.974212646484375,-0.0294862538576126,-0.0112060494720935,0.0063473782502114
1768382802858,0.0591583251953125,-0.064056396484375,-0.9828338623046876,-0.0394017361104488,-0.0067228837870061,0.0036224317736923
1768382802868,0.060272216796875,-0.0627899169921875,-0.9930267333984376,-0.039797481149435,-0.0039500002749264,0.0027017768006771
1768382802878,0.0637054443359375,-0.062530517578125,-1.0012969970703125,-0.0308817494660615,-0.0005014732014387,0.0012426309986039
1768382802889,0.0666656494140625,-0.0624237060546875,-1.005096435546875,-0.0121674500405788,-0.0075199678540229,0.005706887692213
1768382802899,0.0719451904296875,-0.06817626953125,-1.0059661865234375,-0.0049188584089279,-0.0115187047049403,0.0078017301857471
1768382802909,0.0727996826171875,-0.070068359375,-1.0025482177734375,-0.0042432146146893,-0.0101551655679941,0.0140593601390719
1768382802919,0.07208251953125,-0.0733489990234375,-0.99896240234375,-0.0051406999118626,-0.0079910811036825,0.019188342615962
1768382802929,0.0689697265625,-0.075592041015625,-0.9931488037109376,-0.0051406999118626,-0.0079910811036825,0.019188342615962
1768382802939,0.0693206787109375,-0.0775146484375,-0.989715576171875,-0.0111011201515793,-0.00257607572712,0.0211902391165494
1768382802949,0.06854248046875,-0.07489013671875,-0.99005126953125,-0.0137783968821167,-0.0015472965314984,0.0227298140525817
1768382802959,0.06732177734375,-0.07135009765625,-0.996185302734375,-0.0089900325983762,-0.0035667715128511,0.0230134408921003
1768382802969,0.0677947998046875,-0.0683441162109375,-1.00030517578125,-0.0028293423820286,-0.0074531226418912,0.0245599374175071
1768382802979,0.0625762939453125,-0.064208984375,-1.0004425048828125,0.0060637514106929,-0.009433981962502,0.0248496904969215
1768382802989,0.0590972900390625,-0.06182861328125,-0.9985198974609376,0.0135975675657391,-0.0070126359350979,0.0177816599607467
1768382802999,0.0568695068359375,-0.060638427734375,-0.9983978271484376,0.0197611879557371,0.0006263754912652,0.0146327381953597
1768382803009,0.056060791015625,-0.0610198974609375,-0.9954986572265624,0.0218046307563781,0.004081028047949,0.0095373122021555
1768382803019,0.0561981201171875,-0.062744140625,-0.9937896728515624,0.0241607297211885,0.0061665493994951,0.0053044841624796
1768382803029,0.0582733154296875,-0.0673370361328125,-0.9902801513671876,0.022988673299551,0.0032453280873596,0.0022770026698708
1768382803039,0.0592041015625,-0.070281982421875,-0.9853668212890624,0.0152196995913982,0.0026160231791436,0.0021145499777048
1768382803049,0.059722900390625,-0.0731201171875,-0.981719970703125,0.0078310249373316,-0.0015994944842532,-0.0002284992224304
1768382803059,0.0588226318359375,-0.0753631591796875,-0.9790802001953124,-0.0041846251115202,-0.0013004215434193,-0.001186704612337
1768382803069,0.0582733154296875,-0.07379150390625,-0.97821044921875,-0.0164777766913175,-0.0046834349632263,-0.0053369747474789
1768382803079,0.0611572265625,-0.07232666015625,-0.9813385009765624,-0.0275011323392391,-0.0056632119230926,-0.0057268617674708
1768382803090,0.0606842041015625,-0.0700225830078125,-0.9881591796875,-0.0280161872506141,-0.0103298695757985,-0.0092350440099835
1768382803099,0.061248779296875,-0.066162109375,-0.992828369140625,-0.0280161872506141,-0.0103298695757985,-0.0092350440099835
1768382803111,0.0636444091796875,-0.06378173828125,-0.9968414306640624,-0.0136367166414856,-0.0024431839119642,-0.0093900393694639
1768382803120,0.064483642578125,-0.0641632080078125,-1.002349853515625,-0.0034064492210745,-0.0044354945421218,-0.0088643319904804
1768382803130,0.0644683837890625,-0.0639190673828125,-1.0048675537109375,0.00663872808218,-0.0016421051695942,-0.0050102048553526
1768382803140,0.0644378662109375,-0.064208984375,-1.005615234375,0.00663872808218,-0.0016421051695942,-0.0050102048553526
1768382803150,0.063018798828125,-0.06500244140625,-1.0018310546875,0.0147837400436401,-0.0049747847951948,-0.005977464839816
1768382803160,0.063201904296875,-0.0660400390625,-0.9947357177734376,0.0186346713453531,-0.0063492422923445,-0.0047723846510052
1768382803170,0.062774658203125,-0.0687713623046875,-0.99163818359375,0.0172476954758167,-0.0046962182968854,-0.0067657604813575
1768382803180,0.06402587890625,-0.0735321044921875,-0.98876953125,0.011460380628705,-0.0029566413722932,-0.0065524415113031
1768382803190,0.0658111572265625,-0.0714874267578125,-0.9852447509765624,0.0063282032497227,0.0011161308502778,-0.0034245587885379
1768382803200,0.0626983642578125,-0.06695556640625,-0.98486328125,-0.0001747033675201,-0.0033084449823945,-0.0030258835759013
1768382803210,0.0582122802734375,-0.05975341796875,-0.98675537109375,-0.0041702440939843,-0.0072051822207868,-0.0054150056093931
1768382803220,0.0511627197265625,-0.0596771240234375,-0.9908905029296876,-0.0049185920506715,-0.0050781155005097,-0.0099628856405615
1768382803230,0.0549468994140625,-0.069610595703125,-0.987457275390625,-0.003965713083744,0.0013185309944674,-0.0083298347890377
1768382803240,0.06353759765625,-0.078277587890625,-0.9789886474609376,-0.0114638432860374,0.0036264264490455,-0.0130422990769147
1768382803250,0.0707244873046875,-0.083892822265625,-0.9794921875,-0.0268707629293203,0.0023033679462969,-0.0120121883228421
1768382803260,0.072052001953125,-0.075469970703125,-0.9842071533203124,-0.0383407324552536,-0.0065343319438397,-0.0106579707935452
1768382803270,0.065185546875,-0.0638427734375,-0.9954376220703124,-0.0405583456158638,-0.0116713037714362,-0.0087966872379183
1768382803280,0.0585174560546875,-0.0584259033203125,-1.0044403076171875,-0.0294026304036378,-0.0108648985624313,-0.004857073072344
1768382803290,0.0583648681640625,-0.056610107421875,-1.0077056884765625,-0.0109645007178187,-0.0027973842807114,0.001594168250449
1768382803300,0.057769775390625,-0.0594024658203125,-1.004058837890625,0.0055556204169988,0.0019885823130607,0.0031084415968507
1768382803310,0.058441162109375,-0.064666748046875,-0.996337890625,0.0097442399710416,-0.0026855315081775,0.0009273127070628
1768382803320,0.061981201171875,-0.0709991455078125,-0.990447998046875,0.0007930893916636,-0.0092076128348708,-0.0063060992397367
1768382803330,0.0659332275390625,-0.075775146484375,-0.9851226806640624,-0.0112278871238231,-0.0126100676134228,-0.0094877779483795
1768382803341,0.0706787109375,-0.0783233642578125,-0.9849853515625,-0.0209010206162929,-0.0102654211223125,-0.0049462891183793
1768382803351,0.0740814208984375,-0.075592041015625,-0.9878082275390624,-0.0286380369216203,-0.0099061606451869,0.0019816581625491
1768382803361,0.0705108642578125,-0.07318115234375,-0.9929656982421876,-0.0324231870472431,-0.0033691651187837,0.01142203155905
1768382803371,0.0640411376953125,-0.0670928955078125,-1.001708984375,-0.0242949537932872,0.0001877528557088,0.0186101701110601
1768382803381,0.05926513671875,-0.061431884765625,-1.0057220458984375,-0.0110097741708159,0.0039329561404883,0.0176386479288339
1768382803391,0.0547332763671875,-0.0594024658203125,-1.005950927734375,0.0040131174027919,0.0090028159320354,0.0130353746935725
1768382803401,0.0528717041015625,-0.0603485107421875,-1.00457763671875,0.0179560966789722,0.0117365503683686,0.0083506079390645
1768382803411,0.0572662353515625,-0.0630035400390625,-1.0033111572265625,0.0294252671301364,0.0104036387056112,0.0024839304387569
1768382803421,0.05987548828125,-0.068115234375,-0.9963836669921876,0.0394094586372375,0.0055582835339009,-0.0002303634391864
1768382803431,0.0615692138671875,-0.0688323974609375,-0.991455078125,0.041620947420597,0.0031736891251057,0.003344930242747
1768382803441,0.0598602294921875,-0.0704498291015625,-0.9844970703125,0.037870418280363,0.0008884305134415,-0.0008066715090535
1768382803451,0.0572967529296875,-0.0715484619140625,-0.975616455078125,0.0223263446241617,-0.0026921895332634,-0.0022386531345546
1768382803461,0.0557861328125,-0.073974609375,-0.9723358154296876,0.0027292075101286,-0.0016927052056416,-0.0062144864350557
1768382803471,0.062957763671875,-0.07257080078125,-0.9758148193359376,-0.0158484708517789,0.0058949068188667,-0.0033103092573583
1768382803481,0.06365966796875,-0.07049560546875,-0.9826202392578124,-0.026714701205492,0.003051450010389,-0.001423992216587
1768382803491,0.0616455078125,-0.069427490234375,-0.9872894287109376,-0.0315832272171974,0.000331563554937,0.0019595539197325
1768382803501,0.062255859375,-0.0670013427734375,-0.9922027587890624,-0.0318524725735187,0.0007821703911758,0.0023190807551145
1768382803511,0.06298828125,-0.0651092529296875,-0.998016357421875,-0.0259248074144125,0.0028479844331741,0.0050136670470237
1768382803521,0.0648345947265625,-0.066802978515625,-1.0018157958984375,-0.0196602530777454,0.0059708072803914,0.0045326999388635
1768382803531,0.06573486328125,-0.06695556640625,-1.004913330078125,-0.0109983226284384,0.0014913701452314,0.005689843557775
1768382803541,0.0656280517578125,-0.0676727294921875,-1.00665283203125,-0.0021853898651897,0.0019393138354644,0.0091434307396411
1768382803552,0.0673980712890625,-0.0707550048828125,-1.0059814453125,0.0104395914822816,0.0057971691712737,0.0130332438275218
1768382803562,0.068634033203125,-0.073272705078125,-1.0035858154296875,0.0174945704638957,0.0057572214864194,0.0170165337622165
1768382803572,0.069976806640625,-0.075408935546875,-0.9992523193359376,0.0220517721027135,0.0084645915776491,0.0261924546211957
1768382803582,0.064971923828125,-0.0754547119140625,-0.9946746826171876,0.0219958461821079,0.0107530457898974,0.0243490152060985
1768382803592,0.0626983642578125,-0.0744781494140625,-0.990753173828125,0.0179153513163328,0.0099650165066123,0.0224584378302097
1768382803602,0.0628204345703125,-0.071685791015625,-0.9880523681640624,0.0163739137351512,0.0083676520735025,0.0194290913641452
1768382803612,0.059539794921875,-0.0700225830078125,-0.99041748046875,0.0163363628089427,0.0082443477585911,0.0177821926772594
1768382803622,0.0560302734375,-0.0662841796875,-0.9889984130859376,0.0185273457318544,0.0058650798164308,0.0113610448315739
1768382803632,0.056243896484375,-0.065460205078125,-0.9853668212890624,0.0137970382347702,0.0043577305041253,0.0052932989783585
1768382803642,0.0580291748046875,-0.0664215087890625,-0.9824371337890624,0.0066778762266039,0.0056757288984954,0.0013968279818072
1768382803652,0.0571441650390625,-0.066131591796875,-0.9833831787109376,0.0011267834343016,0.0079644499346613,0.0021718079224228
1768382803662,0.05523681640625,-0.0679473876953125,-0.9810943603515624,-0.0045651905238628,0.0085303708910942,0.0032988577149808
1768382803672,0.0537109375,-0.0674591064453125,-0.98089599609375,-0.0135554894804954,0.0091423653066158,0.0013635384384542
1768382803682,0.0517730712890625,-0.067962646484375,-0.98089599609375,-0.0238440800458192,0.0087072048336267,-0.009484315291047
1768382803692,0.0528411865234375,-0.0706024169921875,-0.98321533203125,-0.0315020009875297,0.0076507292687892,-0.0168820451945066
1768382803702,0.0549468994140625,-0.072113037109375,-0.9856109619140624,-0.041564755141735,0.0067513794638216,-0.0220895893871784
1768382803712,0.0580902099609375,-0.0741119384765625,-0.9933013916015624,-0.0409072190523147,0.0045952843502163,-0.025194302201271
1768382803722,0.060821533203125,-0.0725250244140625,-0.9988861083984376,-0.0370195358991622,0.0005896238726563,-0.0262172222137451
1768382803732,0.064849853515625,-0.071075439453125,-1.0040130615234375,-0.029634591192007,6.870955257909372e-05,-0.0209678653627634
1768382803742,0.0647430419921875,-0.0687408447265625,-1.008819580078125,-0.0153153063729405,0.0040418794378638,-0.0215055588632822
1768382803752,0.0652618408203125,-0.0684051513671875,-1.006927490234375,-0.0027268105186522,0.0040791640058159,-0.0187523830682039
1768382803763,0.0660858154296875,-0.068939208984375,-1.0061187744140625,0.01780323125422,0.0109945945441722,-0.0100883208215236
1768382803773,0.066925048828125,-0.0697784423828125,-1.003631591796875,0.01780323125422,0.0109945945441722,-0.0100883208215236
1768382803783,0.066497802734375,-0.071044921875,-0.9985198974609376,0.0277370885014534,0.0063050338067114,-0.0054549528285861
1768382803793,0.0640716552734375,-0.0720367431640625,-0.99285888671875,0.0300207491964101,0.0065415226854383,-0.0010586065473034
1768382803803,0.0625152587890625,-0.0700225830078125,-0.9888763427734376,0.0282670576125383,0.0049649314023554,-0.0004548678989522
1768382803813,0.062591552734375,-0.0693359375,-0.9847869873046876,0.0205401629209518,0.0001328917423961,-0.0021379857789725
1768382803823,0.0625762939453125,-0.071075439453125,-0.9803314208984376,0.0093628754839301,8.681904728291556e-05,-0.0060216733254492
1768382803833,0.061553955078125,-0.068115234375,-0.977630615234375,-0.0030032468494027,-0.0009864348685368,-0.0048884986899793
1768382803843,0.0584716796875,-0.063629150390625,-0.977325439453125,-0.0173656735569238,-0.0036160401068627,-0.0057670753449201
1768382803853,0.056365966796875,-0.05828857421875,-0.9844512939453124,-0.0222610961645841,-0.0019323896849527,-0.0096299899742007
1768382803863,0.0552215576171875,-0.062103271484375,-0.9924163818359376,-0.0167249180376529,0.0006026733317412,-0.0115424059331417
1768382803873,0.0569915771484375,-0.072113037109375,-0.99212646484375,-0.0098291952162981,-0.0016157397767528,-0.0125141935423016
1768382803883,0.0665435791015625,-0.0799560546875,-0.98822021484375,-0.0118412133306264,0.0026189526543021,-0.0169880390167236
1768382803893,0.071563720703125,-0.0815887451171875,-0.98687744140625,-0.0206722542643547,0.0002924150903709,-0.0153648415580391
1768382803903,0.068084716796875,-0.071380615234375,-0.9885101318359376,-0.0289211310446262,-0.0077181071974337,-0.017211478203535
1768382803913,0.06060791015625,-0.0632171630859375,-0.9929656982421876,-0.0342248156666755,-0.0117860855534672,-0.0167097374796867
1768382803923,0.0585174560546875,-0.0603179931640625,-0.996978759765625,-0.0291115455329418,-0.0067271450534462,-0.010539193637669
1768382803933,0.0574188232421875,-0.0611114501953125,-0.99798583984375,-0.0173020251095294,0.0032104407437145,-0.0069300779141485
1768382803943,0.0597686767578125,-0.062835693359375,-0.9980621337890624,-0.0106776775792241,0.0079053277149796,-0.0060206083580851
1768382803953,0.0654754638671875,-0.0667266845703125,-0.999176025390625,-0.0088808434084057,0.0093697998672723,-0.0061875884421169
1768382803963,0.067718505859375,-0.070159912109375,-1.0013275146484375,-0.0043380232527852,-0.001602690317668,-0.0117629161104559
1768382803973,0.06988525390625,-0.0741729736328125,-0.9974212646484376,-0.0031345405150204,-0.0072584454901516,-0.0133632095530629
1768382803984,0.0733642578125,-0.0753936767578125,-0.9928741455078124,-0.0072776200249791,-0.0046927561052143,-0.011356784030795
1768382803993,0.0725555419921875,-0.076202392578125,-0.9929351806640624,-0.0093586146831512,-0.0003805657033808,-0.002372077666223
1768382804004,0.072357177734375,-0.0744171142578125,-0.992431640625,-0.0133136743679642,0.0006237123161554,0.0070986556820571
1768382804014,0.0683746337890625,-0.070281982421875,-0.99725341796875,-0.0095141427591443,0.0078683095052838,0.0172519572079181
1768382804024,0.06195068359375,-0.0661468505859375,-1.0022125244140625,0.0003099919413216,0.0093634082004427,0.0196077898144722
1768382804034,0.0582275390625,-0.062591552734375,-1.0037841796875,0.0129139339551329,0.0079514002427458,0.0160988084971904
1768382804044,0.0540008544921875,-0.060882568359375,-1.00244140625,0.023779097944498,0.0058112838305532,0.0085833678022027
1768382804054,0.055999755859375,-0.0621795654296875,-0.99578857421875,0.0316743068397045,0.007022222969681,0.0039518647827208
1768382804064,0.0579376220703125,-0.0658111572265625,-0.9884490966796876,0.0325179956853389,0.0060602892190217,0.0004356931603979
1768382804074,0.0594482421875,-0.0696563720703125,-0.981781005859375,0.0267743561416864,0.0043225768022239,0.0003707120195031
1768382804084,0.0616607666015625,-0.0737762451171875,-0.9762725830078124,0.0141797345131635,0.0006692523602396,-0.0009800433181226
1768382804094,0.06201171875,-0.0749053955078125,-0.9704132080078124,-0.0068251490592956,-0.002601109445095,-0.0004857605672441
1768382804104,0.0619049072265625,-0.0757293701171875,-0.974151611328125,-0.0229242239147424,-0.0008812400046736,0.0020583572331815
1768382804114,0.0623931884765625,-0.0700225830078125,-0.97967529296875,-0.0329582169651985,-0.0014162691077217,0.0029971215408295
1768382804124,0.05902099609375,-0.0667266845703125,-0.9876251220703124,-0.0403327755630016,-0.00291243288666,0.0022367890924215
1768382804134,0.0577545166015625,-0.0615234375,-0.995697021484375,-0.0399713851511478,-0.0013808490475639,-0.0002223739429609
1768382804144,0.0609283447265625,-0.0623321533203125,-1.0009765625,-0.0334128178656101,-0.000582699663937,-0.0015435680979862
1768382804154,0.0657501220703125,-0.065093994140625,-1.003753662109375,-0.0214520283043384,-0.0010676612146198,-0.0019920445047318
1768382804164,0.0679931640625,-0.06561279296875,-1.006805419921875,-0.0101599590852856,-0.0011827098205685,0.0007651261985301
1768382804174,0.068389892578125,-0.067626953125,-1.0057373046875,0.002870355034247,-0.0040679783560335,0.0054581486620008
1768382804184,0.0677490234375,-0.0702667236328125,-0.999755859375,0.0077202375978231,-0.004530569538474,0.0070445938035845
1768382804194,0.0675048828125,-0.073883056640625,-0.9922027587890624,0.0041135186329483,0.0033412019256502,0.0107551757246255
1768382804205,0.067962646484375,-0.075286865234375,-0.99005126953125,-0.0005025385180488,0.0107796769589185,0.0158399492502212
1768382804215,0.067535400390625,-0.07672119140625,-0.991455078125,-0.0030325416009873,0.0073713636957108,0.0177385173738002
1768382804225,0.0660247802734375,-0.0750579833984375,-0.9925079345703124,-0.0054741273634135,0.001767273643054,0.021605160087347
1768382804235,0.064697265625,-0.0718231201171875,-0.9918365478515624,-0.0064397896640002,0.0036892769858241,0.0235921442508697
1768382804245,0.0631103515625,-0.068511962890625,-0.99267578125,-0.0074014570564031,0.0066696205176413,0.0236709751188755
1768382804255,0.0603790283203125,-0.0648651123046875,-0.9937591552734376,-0.0039787627756595,0.0083652548491954,0.0223425906151533
1768382804265,0.05670166015625,-0.0642852783203125,-0.995147705078125,-0.0011659319279715,0.0058192731812596,0.0151698980480432
1768382804275,0.055450439453125,-0.0625457763671875,-0.995758056640625,0.0056751961819827,0.0024756744969636,0.0089572761207818
1768382804285,0.0577392578125,-0.0646820068359375,-0.9959564208984376,0.0108784800395369,0.0031473238486796,0.0031510521657764
1768382804295,0.057891845703125,-0.0662994384765625,-0.9920654296875,0.0113655729219317,0.0017188041238114,0.0019885823130607
1768382804305,0.05596923828125,-0.0691986083984375,-0.987091064453125,0.0073228939436376,0.0022042985074222,0.0043548010289669
1768382804315,0.0552520751953125,-0.069793701171875,-0.9835357666015624,0.0025363946333527,0.0040892837569117,0.0028455876745283
1768382804325,0.053497314453125,-0.0698089599609375,-0.979248046875,-0.0076382122933864,0.0031009847298264,-0.001292964676395
1768382804335,0.0543060302734375,-0.0698699951171875,-0.980987548828125,-0.0178357232362031,0.0058720037341117,-0.0069156968966126
1768382804345,0.057403564453125,-0.0719146728515625,-0.983642578125,-0.0274715721607208,0.0042160502634942,-0.0088672609999775
1768382804355,0.0618438720703125,-0.0717926025390625,-0.9910736083984376,-0.0307288840413093,0.0019494339358061,-0.0084278397262096
1768382804365,0.06170654296875,-0.0706787109375,-0.997589111328125,-0.026422020047903,-0.0037265613209456,-0.0080227730795741
1768382804375,0.0622711181640625,-0.07037353515625,-0.9986572265625,-0.0237591248005628,-0.0048658614978194,-0.010267817415297
1768382804386,0.0582733154296875,-0.0679931640625,-1.0022735595703125,-0.0077500650659203,0.001807753695175,-0.0127488179132342
1768382804395,0.0576019287109375,-0.0663299560546875,-0.9998931884765624,-0.0077500650659203,0.001807753695175,-0.0127488179132342
1768382804405,0.0571441650390625,-0.063385009765625,-1.001190185546875,0.0011528824688866,0.003156112274155,-0.0166878998279571
1768382804415,0.0592498779296875,-0.063140869140625,-1.0008544921875,0.0096757970750331,0.0036647759843617,-0.0175393130630254
1768382804426,0.0612945556640625,-0.064697265625,-1.0007781982421875,0.0173872467130422,0.0011427623685449,-0.0166223868727684
1768382804436,0.0641326904296875,-0.066986083984375,-0.994537353515625,0.0208147335797548,-0.0031364047899842,-0.0131245907396078
1768382804446,0.063507080078125,-0.071075439453125,-0.9897003173828124,0.0182722136378288,-0.0011819108622148,-0.0097346529364585
1768382804456,0.0621337890625,-0.0734405517578125,-0.98541259765625,0.0123711824417114,-0.0011502192355692,-0.0082185147330164
1768382804466,0.0609283447265625,-0.071807861328125,-0.9812774658203124,0.0019126823171973,0.0008391620358452,-0.0100587597116827
1768382804476,0.05950927734375,-0.06585693359375,-0.98101806640625,-0.0078142471611499,0.0030162963084876,-0.0145179564133286
1768382804486,0.0582733154296875,-0.062713623046875,-0.9838409423828124,-0.0146593702957034,-0.0001600559771759,-0.0154489977285265
1768382804496,0.056884765625,-0.0598907470703125,-0.9885711669921876,-0.0192069839686155,0.0007174555794335,-0.0163930878043174
1768382804506,0.058441162109375,-0.064361572265625,-0.9916839599609376,-0.0166913624852895,0.0015358449891209,-0.0118590565398335
1768382804516,0.064300537109375,-0.0742034912109375,-0.9906463623046876,-0.0124438861384987,0.0035401401109993,-0.0082102594897151
1768382804526,0.067108154296875,-0.0802154541015625,-0.9886016845703124,-0.0141957141458988,0.0013608753215521,-0.0077569894492626
1768382804536,0.0718841552734375,-0.0774078369140625,-0.98956298828125,-0.0183489136397838,-0.0053731938824057,-0.0084073329344391
1768382804546,0.0642852783203125,-0.0659942626953125,-0.996185302734375,-0.0218451116234064,-0.0159451439976692,-0.0112435994669795
1768382804556,0.059600830078125,-0.057037353515625,-0.9995880126953124,-0.0186413284391164,-0.0156553927809,-0.0115714352577924
1768382804566,0.0588836669921875,-0.056610107421875,-1.002838134765625,-0.0101615572348237,-0.00645816558972,-0.0025758093688637
1768382804576,0.05859375,-0.060211181640625,-1.0033111572265625,0.0023366576060652,0.0071441959589719,0.003466104157269
1768382804586,0.0584564208984375,-0.0640716552734375,-0.9992828369140624,0.0098110856488347,0.0118697090074419,-0.0002157160488422
1768382804596,0.0616912841796875,-0.0718536376953125,-0.9903717041015624,0.0048296428285539,0.010170878842473,-0.0063580307178199
1768382804606,0.06732177734375,-0.0758514404296875,-0.987518310546875,-0.0090408995747566,0.0041968757286667,-0.0084930872544646
1768382804616,0.0711517333984375,-0.0789794921875,-0.9886016845703124,-0.0186216216534376,0.0003669835859909,-0.005838181823492
1768382804627,0.0709686279296875,-0.07952880859375,-0.9910430908203124,-0.0235207714140415,-0.0074350130744278,0.0036360137164592
1768382804636,0.0695648193359375,-0.0758056640625,-0.9959259033203124,-0.0235207714140415,-0.0074350130744278,0.0036360137164592
1768382804647,0.0646514892578125,-0.0685577392578125,-1.0012054443359375,-0.0181174855679273,-0.0004759068833664,0.0084544708952307
1768382804657,0.058685302734375,-0.0655670166015625,-1.00616455078125,-0.0037225666455924,0.0073655047453939,0.0108015146106481
1768382804667,0.0551300048828125,-0.0643310546875,-1.007171630859375,0.0097668766975402,0.0167691260576248,0.0072770877741277
1768382804677,0.0518341064453125,-0.06304931640625,-1.0056610107421875,0.0237378198653459,0.0220738761126995,0.0024905882310122
1768382804687,0.0520477294921875,-0.0644378662109375,-1.00103759765625,0.0349526591598987,0.0188906006515026,-0.0039774309843778
1768382804697,0.0536041259765625,-0.0672149658203125,-0.992462158203125,0.0357462801039218,0.0130814472213387,-0.009810552932322
1768382804707,0.05352783203125,-0.071044921875,-0.98040771484375,0.0302306059747934,0.0098560927435755,-0.0135088842362165
1768382804717,0.0556640625,-0.0727386474609375,-0.972747802734375,0.0175520963966846,0.0072651035152375,-0.016945693641901
1768382804727,0.0553741455078125,-0.07220458984375,-0.966217041015625,-0.0024362597614526,0.0056935721077024,-0.0228994563221931
1768382804737,0.0564727783203125,-0.071807861328125,-0.967742919921875,-0.0242851004004478,0.0064123594202101,-0.0265096370130777
1768382804747,0.0595550537109375,-0.0714569091796875,-0.9754180908203124,-0.0387788191437721,0.0092670014128088,-0.0292718689888715
1768382804757,0.0665435791015625,-0.067291259765625,-0.986480712890625,-0.0452545620501041,0.0133131425827741,-0.0264614354819059
1768382804767,0.066497802734375,-0.0644989013671875,-1.0002288818359375,-0.0404624715447425,0.014446317218244,-0.018894862383604
1768382804777,0.06634521484375,-0.06146240234375,-1.0110931396484375,-0.0249769892543554,0.0118939438834786,-0.0131405694410204
1768382804787,0.0644683837890625,-0.05975341796875,-1.01531982421875,-0.0035771578550338,0.0113021889701485,-0.0132393725216388
1768382804797,0.0641937255859375,-0.0633392333984375,-1.0086212158203125,0.0055191349238157,-0.0052762548439204,-0.0154503285884857
1768382804807,0.0673828125,-0.066925048828125,-0.9984893798828124,0.0066658919677138,0.0146617665886878,-0.0161736439913511
1768382804817,0.071441650390625,-0.0735015869140625,-0.9951171875,0.0095226652920246,0.0245996192097663,-0.003623496973887
1768382804827,0.0709686279296875,-0.07342529296875,-0.9948577880859376,0.0080635193735361,0.0259096268564462,-0.0026328009553253
1768382804837,0.07318115234375,-0.074310302734375,-0.9940185546875,0.0077263629063963,0.0191521234810352,-0.0004506068653427
1768382804847,0.0733642578125,-0.0775604248046875,-0.9946136474609376,0.0067636300809681,0.0168354380875825,0.0053654704242944
1768382804858,0.075164794921875,-0.0763397216796875,-0.9931182861328124,0.0033526534680277,0.0202304366976022,0.012648151256144
1768382804868,0.0724945068359375,-0.0745391845703125,-0.9957733154296876,0.0050751860253512,0.024091487750411,0.0184445213526487
1768382804878,0.0678863525390625,-0.0709991455078125,-0.9959564208984376,0.0055316518992185,0.0220480449497699,0.0187878031283617
1768382804888,0.065185546875,-0.0667572021484375,-0.9950103759765624,0.0064757424406707,0.0269352104514837,0.0193934049457311
1768382804898,0.0606842041015625,-0.06573486328125,-0.997467041015625,0.0114822192117571,0.0304303430020809,0.0181249417364597
1768382804908,0.058380126953125,-0.064605712890625,-0.9996490478515624,0.0191177688539028,0.0314732380211353,0.0119288312271237
1768382804918,0.057037353515625,-0.064849853515625,-0.9985198974609376,0.0287685319781303,0.0273796934634447,0.0076917419210076
1768382804928,0.0603485107421875,-0.0660858154296875,-0.9975128173828124,0.0335555635392665,0.0220155529677867,0.0001347559446003
1768382804938,0.0625457763671875,-0.0692291259765625,-0.992218017578125,0.0365873053669929,0.0157957412302494,-0.001071123406291
1768382804948,0.0608673095703125,-0.07061767578125,-0.9878387451171876,0.0342855341732502,0.0069132996723055,0.0009723200928419
1768382804958,0.05694580078125,-0.07171630859375,-0.9792938232421876,0.0243474170565605,0.0041220407001674,-0.000183758107596
1768382804968,0.0538482666015625,-0.07354736328125,-0.969451904296875,0.0042136535048484,-0.0003629888524301,-0.0078129153698682
1768382804978,0.0517578125,-0.073150634765625,-0.9643096923828124,-0.020659739151597,0.0048834383487701,-0.0159733742475509
1768382804989,0.051116943359375,-0.074951171875,-0.9679412841796876,-0.0556736476719379,0.006664294283837,-0.0321640633046627
1768382804998,0.0540618896484375,-0.072662353515625,-0.9752349853515624,-0.0556736476719379,0.006664294283837,-0.0321640633046627
1768382805008,0.0589752197265625,-0.0711669921875,-0.987762451171875,-0.0547252967953681,0.0038448055274784,-0.0358101949095726
1768382805018,0.0633544921875,-0.07012939453125,-0.9967041015625,-0.0474868267774581,0.0019912454299628,-0.0356863588094711
1768382805028,0.0677490234375,-0.0680999755859375,-1.004302978515625,-0.0350080505013465,0.0012175972806289,-0.0314913466572761
1768382805038,0.0707244873046875,-0.066558837890625,-1.0099029541015625,-0.0212781243026256,0.0045121936127543,-0.0244510136544704
1768382805048,0.07025146484375,-0.0662841796875,-1.013580322265625,-0.0018298579379916,0.002461559837684,-0.014884939417243
1768382805058,0.067138671875,-0.0643157958984375,-1.0100555419921875,0.0139997052028775,0.0008226504432968,-0.0112875420600175
1768382805069,0.0648193359375,-0.0641937255859375,-1.005523681640625,0.0273828878998756,0.0048253815621137,-0.011396731249988
1768382805079,0.0638580322265625,-0.065338134765625,-1.0025634765625,0.0384342074394226,0.0057905111461877,-0.0114939371123909
1768382805089,0.0659637451171875,-0.0677947998046875,-0.9947967529296876,0.0410457029938697,0.0049614692106842,-0.011607919819653
1768382805099,0.068115234375,-0.0708770751953125,-0.9869537353515624,0.0362168587744236,0.0061090253293514,-0.0120737068355083
1768382805109,0.068939208984375,-0.0714874267578125,-0.983734130859375,0.0296617560088634,0.0056440373882651,-0.0112156365066766
1768382805119,0.066131591796875,-0.0696868896484375,-0.980255126953125,0.0178367868065834,-0.0025086977984756,-0.0089761847630143
1768382805129,0.0635986328125,-0.06634521484375,-0.9784088134765624,0.0066696205176413,-0.0089218560606241,-0.0090502202510833
1768382805139,0.0605316162109375,-0.06842041015625,-0.9759979248046876,-0.0057369815185666,-0.0119370864704251,-0.0121786352246999
1768382805149,0.062042236328125,-0.07537841796875,-0.9733428955078124,-0.0156780295073986,-0.0065388595685362,-0.0126271117478609
1768382805159,0.0709991455078125,-0.08135986328125,-0.9719390869140624,-0.0300761424005031,0.0045518749393522,-0.0103296032175421
1768382805169,0.0763397216796875,-0.07830810546875,-0.9801177978515624,-0.0415461100637912,0.0026019082870334,-0.0099242692813277
1768382805179,0.072357177734375,-0.0667572021484375,-0.99224853515625,-0.0471715070307254,-0.0094438353553414,-0.012517656199634
1768382805189,0.065399169921875,-0.056488037109375,-1.0019073486328125,-0.0422728881239891,-0.0127626666799187,-0.0116891469806432
1768382805199,0.0640869140625,-0.0579071044921875,-1.0084075927734375,-0.0268537178635597,-0.0066768112592399,-0.0054070157930254
1768382805209,0.0631561279296875,-0.0601654052734375,-1.0077362060546875,-0.0050616040825843,-0.0052275187335908,0.0007392935222014
1768382805219,0.061004638671875,-0.06512451171875,-1.0018310546875,0.0057202037423849,-0.0050352388061583,-0.0011835087789222
1768382805229,0.060577392578125,-0.0692901611328125,-0.993865966796875,0.0023337281309068,-0.0061705443076789,-0.0070539149455726
1768382805239,0.0629730224609375,-0.0732269287109375,-0.98876953125,-0.0055502941831946,-0.0053047505207359,-0.011912053450942
1768382805249,0.066009521484375,-0.0764617919921875,-0.986663818359375,-0.0158431455492973,-0.0048434911295771,-0.0144567033275961
1768382805259,0.06939697265625,-0.0785369873046875,-0.989349365234375,-0.0219015702605247,-0.0039582564495503,-0.0111312139779329
1768382805270,0.0702362060546875,-0.07720947265625,-0.989227294921875,-0.0285757184028625,0.0054264571517705,0.0016721988795325
1768382805279,0.0710906982421875,-0.0749053955078125,-0.9941253662109376,-0.0285757184028625,0.0054264571517705,0.0016721988795325
1768382805290,0.0680999755859375,-0.0699615478515625,-1.00225830078125,-0.0181268062442541,0.0070246197283267,0.0074946680106222
1768382805300,0.0642547607421875,-0.06439208984375,-1.0072174072265625,-0.0010399643797427,0.0065172878094017,0.0046141929924488
1768382805310,0.0598602294921875,-0.061492919921875,-1.0072021484375,0.0148836085572838,0.0079766996204853,0.0030208237003535
1768382805320,0.06060791015625,-0.0619354248046875,-1.0067901611328125,0.0304444581270217,0.0079095885157585,-0.0005824333056807
1768382805330,0.0601959228515625,-0.0635223388671875,-1.001983642578125,0.0442321747541427,0.0049928943626582,-0.009784453548491
1768382805340,0.060943603515625,-0.0665283203125,-0.99224853515625,0.0465411357581615,0.0029742182232439,-0.0102883242070674
1768382805350,0.0627593994140625,-0.0706939697265625,-0.981231689453125,0.0415112227201461,0.0017054883064702,-0.0085447523742914
1768382805360,0.06231689453125,-0.0734710693359375,-0.973358154296875,0.0263897962868213,0.0026138925459235,-0.008397745899856
1768382805370,0.0596160888671875,-0.0766754150390625,-0.96905517578125,0.0068696239031851,-0.0001259675191249,-0.0084134582430124
1768382805380,0.06292724609375,-0.0777130126953125,-0.9683685302734376,-0.0155928079038858,0.0006897587445564,-0.0110867395997047
1768382805390,0.065704345703125,-0.071533203125,-0.975860595703125,-0.0281221810728311,0.0018221348291262,-0.0061337924562394
1768382805400,0.063323974609375,-0.068328857421875,-0.9878082275390624,-0.0329630114138126,-0.0037595843896269,-0.0077157104387879
1768382805410,0.06298828125,-0.064361572265625,-0.9949493408203124,-0.0330687388777732,-0.0123077984899282,-0.0138258002698421
1768382805420,0.0606231689453125,-0.0623626708984375,-0.9982757568359376,-0.0265961904078722,-0.0120630543678998,-0.017591243609786
1768382805430,0.0646514892578125,-0.0630035400390625,-1.0004119873046875,-0.0174703374505043,-0.0051737232133746,-0.0192104466259479
1768382805440,0.072296142578125,-0.066009521484375,-1.0026397705078125,-0.0108633004128932,-0.0051510860212147,-0.0148109039291739
1768382805450,0.075439453125,-0.06988525390625,-1.001434326171875,-0.0062344600446522,-0.0075884112156927,-0.006483731791377
1768382805460,0.0769195556640625,-0.07269287109375,-1.0002899169921875,0.0001315601548412,-0.0071766865439713,0.0030748858116567
1768382805470,0.0757904052734375,-0.072784423828125,-0.9971923828125,-0.0007960188668221,-0.0078603196889162,0.0102486424148082
1768382805481,0.0735931396484375,-0.073394775390625,-0.993377685546875,-0.0059380503371357,0.0009656621841713,0.0211244598031044
1768382805490,0.0723114013671875,-0.0734710693359375,-0.9927520751953124,-0.0059380503371357,0.0009656621841713,0.0211244598031044
1768382805501,0.0705108642578125,-0.0725860595703125,-0.9952392578125,-0.0041220407001674,0.0081466101109981,0.0282625313848257
1768382805511,0.0691375732421875,-0.07110595703125,-0.995849609375,-0.0041220407001674,0.0081466101109981,0.0282625313848257
1768382805521,0.065521240234375,-0.070037841796875,-0.9965057373046876,0.0027268105186522,0.0118017978966236,0.0276614557951688
1768382805531,0.0630035400390625,-0.0684967041015625,-0.99658203125,0.0077825556509196,0.0124630611389875,0.0272553227841854
1768382805541,0.059814453125,-0.0640716552734375,-0.996246337890625,0.0154034569859504,0.0108904642984271,0.0238906852900981
1768382805551,0.057098388671875,-0.062713623046875,-0.9913177490234376,0.0192053858190774,0.0044469465501606,0.016872189939022
1768382805561,0.0543060302734375,-0.0630340576171875,-0.9871978759765624,0.0172679368406534,0.0036775590851902,0.0102821988984942
1768382805571,0.055206298828125,-0.0662078857421875,-0.9814605712890624,0.0124215157702565,-0.0007158577209338,0.0040400153957307
1768382805581,0.05572509765625,-0.06781005859375,-0.9800567626953124,0.0045151230879127,-0.0012229235144332,0.0010692591313272
1768382805591,0.05682373046875,-0.071441650390625,-0.98004150390625,-0.0053337789140641,-0.0014335796004161,-0.0012948289513587
1768382805601,0.057891845703125,-0.071807861328125,-0.981597900390625,-0.0170761886984109,-0.0021281319204717,-0.0012591425329446
1768382805611,0.058135986328125,-0.07293701171875,-0.985748291015625,-0.0246906988322734,-0.0070794811472296,0.0007989483419805
1768382805621,0.0570526123046875,-0.07232666015625,-0.98638916015625,-0.028880650177598,-0.0099615538492798,-0.0014247911749407
1768382805631,0.0521240234375,-0.070770263671875,-0.9889068603515624,-0.0317848287522792,-0.0109615707769989,-0.0091133369132876
1768382805641,0.0529937744140625,-0.0694732666015625,-0.990264892578125,-0.0368964970111846,-0.0066717509180307,-0.0150220924988389
1768382805651,0.0583648681640625,-0.06787109375,-0.99603271484375,-0.0355832949280738,-0.001522795530036,-0.015695871785283
1768382805661,0.06146240234375,-0.0670318603515625,-1.0023193359375,-0.029013542458415,-0.0002354234457015,-0.0150268860161304
1768382805671,0.0675201416015625,-0.06707763671875,-1.0101776123046875,-0.0149360727518796,0.0003142530040349,-0.0083990776911377
1768382805681,0.0676116943359375,-0.0654754638671875,-1.0157318115234375,0.0038615835364907,-0.0037550569977611,-0.0044517400674521
1768382805691,0.069305419921875,-0.0667572021484375,-1.0118408203125,0.0211223289370536,-0.0054488275200128,-0.0003648530691862
1768382805701,0.0666351318359375,-0.0697479248046875,-1.0056610107421875,0.0319997444748878,-0.0018964370246976,0.0035830168053507
1768382805712,0.0669403076171875,-0.070098876953125,-0.9923095703125,0.0319784395396709,0.0028932581190019,0.0060325926169753
1768382805722,0.0683135986328125,-0.0707244873046875,-0.9864654541015624,0.0278864912688732,0.0086147934198379,0.0091056143864989
1768382805732,0.0641326904296875,-0.0648345947265625,-0.985687255859375,0.0245671290904283,0.0072001223452389,0.0087170591577887
1768382805742,0.0575408935546875,-0.06146240234375,-0.98284912109375,0.0179992411285638,0.0009411611245013,0.0020351877901703
1768382805752,0.0526580810546875,-0.058990478515625,-0.98236083984375,0.0140971764922142,-0.001422660658136,-0.0051082093268632
1768382805762,0.050537109375,-0.0633697509765625,-0.978118896484375,0.0076912092044949,2.0506340661086145e-05,-0.0154876131564378
1768382805772,0.0569610595703125,-0.076751708984375,-0.9696197509765624,-0.0058480352163314,0.0039356192573904,-0.0184996481984853
1768382805782,0.0648651123046875,-0.085235595703125,-0.9646453857421876,-0.0295797307044267,0.0032272185198962,-0.0171970967203378
1768382805792,0.069610595703125,-0.0812835693359375,-0.9665374755859376,-0.0542965270578861,-0.0019971043802797,-0.0125437546521425
1768382805802,0.0658111572265625,-0.067596435546875,-0.9799652099609376,-0.0677169933915138,-0.0129813123494386,-0.0134548218920826
1768382805812,0.0592041015625,-0.0585479736328125,-0.995849609375,-0.065020814538002,-0.0180474445223808,-0.0112404040992259
1768382805822,0.0564727783203125,-0.05712890625,-1.00604248046875,-0.050479419529438,-0.0188373364508152,-0.0107498494908213
1768382805832,0.0588531494140625,-0.0586090087890625,-1.008819580078125,-0.0336647517979145,-0.0061148842796683,-0.0064256750047206
1768382805842,0.05926513671875,-0.06353759765625,-1.0080718994140625,-0.0185901951044797,-0.0048120655119419,-0.0083348955959081
1768382805852,0.06365966796875,-0.067840576171875,-1.003631591796875,-0.012574647553265,-0.0121378889307379,-0.0119778327643871
1768382805862,0.0695343017578125,-0.074676513671875,-0.9984283447265624,-0.0166508816182613,-0.0142356613650918,-0.0134686706587672
1768382805872,0.072479248046875,-0.07940673828125,-0.9973297119140624,-0.0191028546541929,-0.0100971087813377,-0.0067311394959688
1768382805882,0.07470703125,-0.08111572265625,-0.9978485107421876,-0.0171880424022674,-0.0062746736221015,0.0062642875127494
1768382805892,0.0735015869140625,-0.0785675048828125,-0.9991455078125,-0.0155062554404139,-0.0021180119365453,0.0159179791808128
1768382805902,0.068359375,-0.0735015869140625,-1.001190185546875,-0.0096715353429317,0.0052586779929697,0.0246898997575044
1768382805912,0.063873291015625,-0.0654754638671875,-1.004852294921875,-0.0013496900210157,0.008127967827022,0.0267674326896667
1768382805923,0.05828857421875,-0.0606842041015625,-1.00732421875,0.0128034129738807,0.0079303607344627,0.0242667235434055
1768382805933,0.05560302734375,-0.0597991943359375,-1.00372314453125,0.0285320430994033,0.0120814302936196,0.0220728106796741
1768382805943,0.0532684326171875,-0.06005859375,-0.9998321533203124,0.0397612601518631,0.0101120229810476,0.0151736261323094
1768382805953,0.0526885986328125,-0.0612030029296875,-0.992523193359375,0.0441536121070385,0.0087905619293451,0.0081846928223967
1768382805963,0.0543212890625,-0.0631561279296875,-0.983673095703125,0.0413692779839038,0.0060842577368021,0.0037081853952258
1768382805973,0.054229736328125,-0.067291259765625,-0.9748687744140624,0.0291200689971447,0.0071820127777755,-0.0012458267156034
1768382805983,0.05291748046875,-0.0699310302734375,-0.96966552734375,0.0102558331564068,0.0026786073576658,-0.0108774146065115
1768382805993,0.0512847900390625,-0.0723876953125,-0.9662628173828124,-0.0143251437693834,-0.0009281116072088,-0.0187300126999616
1768382806003,0.053253173828125,-0.075347900390625,-0.96722412109375,-0.0388978645205497,0.0042434809729456,-0.0239343605935573
1768382806013,0.0589141845703125,-0.071441650390625,-0.973541259765625,-0.0547109171748161,0.0041510690934956,-0.0258742067962884
1768382806023,0.058197021484375,-0.0674285888671875,-0.98626708984375,-0.0597552098333835,-0.000298806669889,-0.0267051141709089
1768382806033,0.0596160888671875,-0.0628509521484375,-0.9996490478515624,-0.0537361986935138,-0.0011038802331313,-0.0260430518537759
1768382806043,0.0589599609375,-0.0599365234375,-1.0067291259765625,-0.0406824499368667,0.0033039175905287,-0.0303704217076301
1768382806053,0.0634002685546875,-0.0614013671875,-1.0129241943359375,-0.0258899200707674,0.0097314566373825,-0.0306258201599121
1768382806063,0.06927490234375,-0.06353759765625,-1.0128936767578125,-0.0107687581330537,0.0130936978384852,-0.0254286602139472
1768382806073,0.06915283203125,-0.0670013427734375,-1.008453369140625,0.0017723336350172,0.022170016542077,-0.0230126418173313
1768382806083,0.0633392333984375,-0.06475830078125,-1.003387451171875,0.005258145276457,0.0270505268126726,-0.0258443802595138
1768382806093,0.069854736328125,-0.0704345703125,-1.0027313232421875,0.0149086415767669,0.0192226972430944,-0.0253660771995782
1768382806103,0.0722808837890625,-0.0724639892578125,-0.998992919921875,0.0194277595728635,0.0256028324365615,-0.0183654241263866
1768382806113,0.0710601806640625,-0.0739898681640625,-0.998260498046875,0.0243237148970365,0.0199332274496555,-0.0093588810414075
1768382806123,0.0761871337890625,-0.07476806640625,-0.992645263671875,0.0242587346583604,0.0105426553636789,0.0022796657867729
1768382806133,0.069915771484375,-0.0717620849609375,-0.9897613525390624,0.0186165608465671,0.0118840895593166,0.0069090388715267
1768382806144,0.0654296875,-0.0682525634765625,-0.9862518310546876,0.0125871645286679,0.0206280462443828,0.0106563726440072
1768382806154,0.0628509521484375,-0.0670623779296875,-0.983612060546875,-0.0009435579413548,0.0241785738617181,0.0094377100467681
1768382806164,0.0615997314453125,-0.0669403076171875,-0.987060546875,-0.003835484618321,0.0208131372928619,0.0022852586116641
1768382806174,0.0637359619140625,-0.0670928955078125,-0.99102783203125,0.0007294398383237,0.0164096001535654,-0.0005912217311561
1768382806184,0.0669403076171875,-0.0675506591796875,-0.9913330078125,0.0048115332610905,0.0114161726087331,0.0054357778280973
1768382806194,0.0656890869140625,-0.06854248046875,-0.9888763427734376,0.0028589034918695,0.0081812310963869,0.0069969231262803
1768382806204,0.065338134765625,-0.0702056884765625,-0.9844207763671876,-0.0032887374982237,0.0099402489140629,0.0096648782491683
1768382806214,0.0605010986328125,-0.0701446533203125,-0.9845428466796876,-0.0118992701172828,0.0076707028783857,0.0068531124852597
1768382806224,0.0592193603515625,-0.070281982421875,-0.9827880859375,-0.0216959752142429,0.0029121665284037,0.0026429209392517
1768382806234,0.058258056640625,-0.070709228515625,-0.98431396484375,-0.0275562610477209,0.0040173786692321,-0.0031486554071307
1768382806244,0.05755615234375,-0.0729217529296875,-0.9893798828125,-0.0309922713786363,0.0006026733317412,-0.0075442027300596
1768382806254,0.0596771240234375,-0.070892333984375,-0.992767333984375,-0.0292921084910631,-0.0012205267557874,-0.0082944147288799
1768382806264,0.061920166015625,-0.0714111328125,-0.995697021484375,-0.0264105685055255,-0.0012178635224699,-0.0054136738181114
1768382806274,0.061553955078125,-0.0673370361328125,-1.00177001953125,-0.0159451439976692,0.0008530105114914,-0.0056411079131066
1768382806284,0.06121826171875,-0.0661163330078125,-1.0057220458984375,-0.0052706622518599,-0.0033505228348076,-0.0031917984597384
1768382806294,0.0616455078125,-0.064208984375,-1.0077972412109375,0.0091538168489933,-0.0079268990084528,-0.0031752870418131
1768382806304,0.061065673828125,-0.0632171630859375,-1.0051422119140625,0.0198796987533569,-0.0093032205477356,-0.0017110810149461
1768382806314,0.06182861328125,-0.0623931884765625,-0.9982147216796876,0.0271506607532501,-0.0064230118878185,-0.0021635519806295
1768382806324,0.0608978271484375,-0.0648651123046875,-0.9901123046875,0.0253309234976768,-0.0017630126094445,-0.0038056571502238
1768382806334,0.061370849609375,-0.0677490234375,-0.9846038818359376,0.0161763075739145,0.0030322752427309,-0.0056126117706298
1768382806344,0.064178466796875,-0.0702667236328125,-0.981719970703125,0.0062280683778226,0.0068078385666012,-0.0046658581122756
1768382806355,0.0666961669921875,-0.0693359375,-0.9801025390625,-0.0162870939821004,-0.0050008837133646,-0.0071537834592163
1768382806365,0.0628662109375,-0.06396484375,-0.9795074462890624,-0.0162870939821004,-0.0050008837133646,-0.0071537834592163
1768382806375,0.05426025390625,-0.0589599609375,-0.9851226806640624,-0.0210437662899494,-0.0053228600881993,-0.0121895549818873
1768382806385,0.0548248291015625,-0.0655670166015625,-0.9855804443359376,-0.0255373176187276,0.0001049285492626,-0.0135208684951066
1768382806395,0.0657958984375,-0.0762481689453125,-0.9826202392578124,-0.0286819785833358,0.0068560419604182,-0.0107373325154185
1768382806405,0.0755615234375,-0.081024169921875,-0.9857940673828124,-0.0297901201993227,0.0063854614272713,-0.0088773807510733
1768382806415,0.0746307373046875,-0.0738677978515625,-0.9935455322265624,-0.0331038907170295,-0.0045976811088621,-0.0102084288373589
1768382806425,0.0669403076171875,-0.0605316162109375,-0.9995574951171876,-0.0309392735362052,-0.0136076882481575,-0.0136953061446547
1768382806435,0.0628204345703125,-0.0555267333984375,-1.0061187744140625,-0.0228738896548748,-0.013946708291769,-0.0102771390229463
1768382806445,0.06097412109375,-0.055023193359375,-1.0059051513671875,-0.0057542920112609,-0.0072712288238108,-0.0042424155399203
1768382806455,0.0613861083984375,-0.0603485107421875,-1.0038299560546875,0.0083442162722349,0.0002495381922926,-0.0005073322099633
1768382806465,0.0626220703125,-0.0647735595703125,-0.9962310791015624,0.0113440006971359,0.002405633451417,0.0012431635987013
1768382806475,0.0643157958984375,-0.0716094970703125,-0.9901275634765624,0.0062155514024198,-0.0022136194165796,-0.0013230583863332
1768382806485,0.0672454833984375,-0.0757293701171875,-0.98834228515625,-0.0024445154704153,-0.0074872109107673,-0.0071916002780199
1768382806495,0.072601318359375,-0.07904052734375,-0.986541748046875,-0.0101098921149969,-0.0102148205041885,-0.005070658866316
1768382806506,0.0727081298828125,-0.0805206298828125,-0.9893341064453124,-0.0236155800521373,-0.0190077796578407,0.0064160875044763
1768382806515,0.0680694580078125,-0.0763702392578125,-0.990386962890625,-0.0236155800521373,-0.0190077796578407,0.0064160875044763
1768382806525,0.0643463134765625,-0.071441650390625,-0.990447998046875,-0.0258286669850349,-0.0147978542372584,0.0121575966477394
1768382806535,0.0582122802734375,-0.0665130615234375,-0.993804931640625,-0.0238352920860052,-0.0095247952267527,0.0144851990044116
1768382806545,0.05413818359375,-0.060211181640625,-0.999053955078125,-0.0160599257797002,-0.0032639701385051,0.0109594408422708
1768382806555,0.0544891357421875,-0.0549774169921875,-1.0052490234375,-0.002495115622878,-0.0007094661123119,0.0056975670158863
1768382806566,0.0548248291015625,-0.054962158203125,-1.0068817138671875,0.0294814594089984,-0.0013624732382595,-0.0024415859952569
1768382806576,0.0575714111328125,-0.05615234375,-1.005401611328125,0.0402275808155536,-0.0010378338629379,-0.0038799594622105
1768382806586,0.059539794921875,-0.060211181640625,-1.000396728515625,0.0402275808155536,-0.0010378338629379,-0.0038799594622105
1768382806596,0.060577392578125,-0.065032958984375,-0.991302490234375,0.0420699566602706,-0.0047588027082383,-0.0047638625837862
1768382806606,0.0592498779296875,-0.0673675537109375,-0.98504638671875,0.0340413227677345,-0.0024495755787938,-0.0062107578851282
1768382806616,0.059814453125,-0.06854248046875,-0.973785400390625,0.0186921954154968,-0.0037436054553836,-0.0078256987035274
1768382806626,0.0610504150390625,-0.070770263671875,-0.9699859619140624,-0.0055684032849967,0.0009941579774022,-0.0104925883933901
1768382806636,0.0634002685546875,-0.068878173828125,-0.9733123779296876,-0.0216887835413217,0.0081351585686206,-0.0072259549051523
1768382806646,0.063720703125,-0.0671539306640625,-0.9833984375,-0.0319044031202793,0.0058983690105378,-0.0074384752660989
1768382806656,0.0626068115234375,-0.0652618408203125,-0.9943389892578124,-0.0321944206953048,0.0019582223612815,-0.0067979851737618
1768382806666,0.0625762939453125,-0.06109619140625,-0.999481201171875,-0.0242669899016618,0.002158758463338,-0.007187605369836
1768382806676,0.06610107421875,-0.0607757568359375,-1.0027313232421875,-0.015312910079956,0.0033385388087481,-0.0072957295924425
1768382806686,0.0691070556640625,-0.0633087158203125,-1.00469970703125,-0.0079399487003684,0.0067449882626533,-0.0060786651447415
1768382806696,0.0706634521484375,-0.0658416748046875,-1.0069580078125,0.0050898334011435,0.0040077911689877,-0.0041979406960308
1768382806706,0.0740966796875,-0.0670166015625,-1.003509521484375,0.0127647975459694,-0.001775529468432,0.0015270565636456
