timestamp_ms,acc_x,acc_y,acc_z,gyro_x,gyro_y,gyro_z
1768620443847,-0.1048126220703125,0.1339263916015625,-0.9871368408203124,-0.0023670175578445,-0.0212767925113439,0.0159877557307481
1768620443855,-0.1088104248046875,0.138580322265625,-0.9845428466796876,-0.0053721284493803,-0.0197241697460412,0.0096137449145317
1768620443865,-0.111480712890625,0.1407928466796875,-0.983642578125,-0.0069343387149274,-0.0110411997884511,0.005626194179058
1768620443875,-0.109100341796875,0.1377410888671875,-0.9820404052734376,-0.0080416807904839,0.0014346449170261,0.0045840991660952
1768620443885,-0.1067047119140625,0.1299285888671875,-0.97979736328125,-0.0065178205259144,0.0018458369886502,0.0044357609003782
1768620443895,-0.1019439697265625,0.117706298828125,-0.982147216796875,-0.0073287528939545,-0.001121457084082,0.0030176278669387
1768620443905,-0.092254638671875,0.10699462890625,-0.98468017578125,-0.0057202037423849,-0.0089966906234622,0.0102590294554829
1768620443915,-0.079986572265625,0.11480712890625,-0.9869384765625,0.0006095975404605,-0.0138795962557196,0.0209265872836112
1768620443925,-0.0906982421875,0.1195068359375,-0.9921722412109376,0.0087090693414211,-0.0182261411100626,0.0204544086009264
1768620443935,-0.10101318359375,0.12030029296875,-0.9921112060546876,0.0157560594379901,-0.022621689364314,0.0172378420829772
1768620443946,-0.10321044921875,0.126617431640625,-0.9893951416015624,0.0132241928949952,-0.029503297060728,0.0158394165337085
1768620443955,-0.102691650390625,0.1370849609375,-0.982330322265625,0.0109578426927328,-0.0280068665742874,0.0114587834104895
1768620443965,-0.102264404296875,0.1384124755859375,-0.981048583984375,-0.0007494135061278,-0.0155222341418266,0.006068012677133
1768620443975,-0.1041412353515625,0.130035400390625,-0.9750823974609376,-0.0139027656987309,0.0013512879377231,-0.0007289071800187
1768620443985,-0.0992584228515625,0.12359619140625,-0.9700927734375,-0.0270409379154443,0.009688314050436,-0.0007123955874703
1768620443995,-0.09027099609375,0.1112823486328125,-0.97796630859375,-0.0374006368219852,0.0054147392511367,0.0081607243046164
1768620444005,-0.0822601318359375,0.10882568359375,-0.9866180419921876,-0.0396480783820152,0.002470081904903,0.0198882203549146
1768620444016,-0.08880615234375,0.115478515625,-0.989532470703125,-0.0345041826367378,-0.0026429209392517,0.0225854702293872
1768620444026,-0.0933685302734375,0.1165008544921875,-0.9875640869140624,-0.0333598218858242,-0.0103841973468661,0.0197348222136497
1768620444036,-0.0980682373046875,0.1204681396484375,-0.9851531982421876,-0.0267349407076835,-0.0266659650951623,0.014068148098886
1768620444046,-0.0979766845703125,0.129425048828125,-0.9873199462890624,-0.015432751737535,-0.0394693799316883,0.0116614494472742
1768620444056,-0.097503662109375,0.1395721435546875,-0.9874114990234376,0.0057771950960159,-0.0528866499662399,0.0103642242029309
1768620444066,-0.103668212890625,0.1411285400390625,-0.9832916259765624,0.0176389142870903,-0.0332442410290241,0.0071274181827902
1768620444076,-0.10662841796875,0.1390838623046875,-0.9700164794921876,0.026069950312376,0.0159760378301143,-0.0015763250412419
1768620444086,-0.10809326171875,0.1388092041015625,-0.9641876220703124,0.0365236550569534,0.0361417606472969,-0.003621366340667
1768620444096,-0.109710693359375,0.13592529296875,-0.969635009765625,0.041144773364067,0.0425735600292682,-0.0113216303288936
1768620444106,-0.1111602783203125,0.1312408447265625,-0.9809722900390624,0.0436153896152973,0.0396549999713897,-0.0197784975171089
1768620444116,-0.1063079833984375,0.121185302734375,-0.989471435546875,0.0496149584650993,0.0292550902813673,-0.0243125297129154
1768620444126,-0.1009521484375,0.121673583984375,-0.996063232421875,0.0495483763515949,0.0194333530962467,-0.0241953507065773
1768620444136,-0.101409912109375,0.123626708984375,-0.99591064453125,0.0432966090738773,0.0079761678352952,-0.0273770298808813
1768620444146,-0.103790283203125,0.123199462890625,-0.9947509765625,0.0333454385399818,-0.00300058349967,-0.03216353058815
1768620444156,-0.103240966796875,0.12548828125,-0.9900970458984376,0.0201532058417797,-0.0073452647775411,-0.0312527269124984
1768620444166,-0.098236083984375,0.128387451171875,-0.9835052490234376,0.0069071743637323,-0.010399910621345,-0.0252313204109668
1768620444176,-0.098114013671875,0.1353607177734375,-0.982513427734375,-0.0023331954143941,-0.0108864698559045,-0.0208091419190168
1768620444186,-0.09661865234375,0.140106201171875,-0.9795989990234376,-0.0105687547475099,-0.0035276231355965,-0.0125589352101087
1768620444196,-0.101959228515625,0.137908935546875,-0.9754180908203124,-0.0149480570107698,0.0072978604584932,-0.0050512175075709
1768620444206,-0.1055908203125,0.133026123046875,-0.977752685546875,-0.0173233300447464,0.0089141326025128,0.0021510352380573
1768620444217,-0.1097412109375,0.1301727294921875,-0.98175048828125,-0.0165576711297035,0.0105407917872071,0.0012141350889578
1768620444226,-0.1126556396484375,0.123077392578125,-0.9871826171875,-0.0172101464122533,0.0109621034935116,-0.0020833909511566
1768620444237,-0.111053466796875,0.11968994140625,-0.9882354736328124,-0.0155086517333984,0.0055793225765228,-0.0012892362428829
1768620444247,-0.1024017333984375,0.1242523193359375,-0.990966796875,-0.013278255239129,0.0001944107643794,-0.0010743191232904
1768620444257,-0.0988616943359375,0.1292266845703125,-0.9926300048828124,-0.0078408792614936,-0.0026210830546915,-0.0014839133946225
1768620444267,-0.0959930419921875,0.1267242431640625,-0.9908294677734376,-0.0052932989783585,-0.0037430729717016,-0.000246076087933
1768620444277,-0.095916748046875,0.1271820068359375,-0.9849700927734376,-0.0024639565963298,-0.002182993106544,0.000479368987726
1768620444287,-0.0970458984375,0.121368408203125,-0.982940673828125,-0.0029060414526611,-0.0038506644777953,0.0029321403708308
1768620444297,-0.100982666015625,0.1194000244140625,-0.981842041015625,0.002666889457032,-0.0052717272192239,0.0039601204916834
1768620444307,-0.105377197265625,0.121063232421875,-0.9816436767578124,0.0044621261768043,-0.0032075112685561,0.0037534593138843
1768620444317,-0.1082763671875,0.1226043701171875,-0.9815826416015624,0.009737049229443,0.0021718079224228,0.0011978897964581
1768620444327,-0.1054840087890625,0.1283416748046875,-0.9794769287109376,0.0138095552101731,0.0033523871097713,0.0039233691059052
1768620444337,-0.10040283203125,0.1345977783203125,-0.98004150390625,0.0159134529531002,0.0057452372275292,0.0128806447610259
1768620444347,-0.098602294921875,0.1379547119140625,-0.98150634765625,0.0217151492834091,0.0123120602220296,0.0203731823712587
1768620444357,-0.100250244140625,0.140106201171875,-0.982818603515625,0.0227721575647592,0.0146673591807484,0.0261232126504182
1768620444367,-0.10333251953125,0.1345977783203125,-0.9836578369140624,0.0206184592097997,0.0156167764216661,0.0267024505883455
1768620444377,-0.107421875,0.1273345947265625,-0.9847259521484376,0.0181366596370935,0.0172554198652505,0.0247618053108453
1768620444387,-0.106170654296875,0.124114990234375,-0.9893798828125,0.0174913760274648,0.0132337799295783,0.0230949334800243
1768620444397,-0.1019287109375,0.121185302734375,-0.993072509765625,0.0147118344902992,0.001865011639893,0.019653595983982
1768620444407,-0.097900390625,0.1219635009765625,-0.9962158203125,0.0110033825039863,-0.0080571277067065,0.0167004168033599
1768620444417,-0.09185791015625,0.12445068359375,-0.997222900390625,0.008397745899856,-0.0122974123805761,0.0176700744777917
1768620444427,-0.0892791748046875,0.1345062255859375,-0.99346923828125,0.004089550115168,-0.0126151274889707,0.0210360437631607
1768620444437,-0.0940093994140625,0.1365509033203125,-0.9853515625,-0.0047702542506158,-0.00739187002182,0.0156276952475309
1768620444447,-0.0946807861328125,0.133209228515625,-0.9799346923828124,-0.0147192915901541,-0.0038898130878806,0.012051336467266
1768620444458,-0.096405029296875,0.135467529296875,-0.979034423828125,-0.0200208462774753,-0.0002223739429609,0.012344017624855
1768620444468,-0.0988006591796875,0.1337890625,-0.980560302734375,-0.0237676464021205,0.0002479403046891,0.0110318781808018
1768620444478,-0.1003570556640625,0.1252593994140625,-0.9830169677734376,-0.0231250263750553,0.0014474280178546,0.012098740786314
1768620444488,-0.103973388671875,0.121673583984375,-0.9847564697265624,-0.0188621040433645,-0.0001771002134773,0.0097738010808825
1768620444498,-0.10943603515625,0.1176910400390625,-0.9872283935546876,-0.0183582343161106,0.000113716974738,0.0037681066896766
1768620444508,-0.1085052490234375,0.1136627197265625,-0.9873809814453124,-0.0202544052153825,-0.00096699380083,-0.0025475798174738
1768620444518,-0.1023712158203125,0.1171875,-0.98577880859375,-0.0211337804794311,-0.0050315102562308,-0.0073993266560137
1768620444528,-0.095703125,0.122467041015625,-0.985382080078125,-0.0225220862776041,-0.0088574076071381,-0.0091604748740792
1768620444538,-0.090179443359375,0.12548828125,-0.9877777099609376,-0.0281831678003072,-0.0044994107447564,-0.0075684376060962
1768620444548,-0.08990478515625,0.1337127685546875,-0.98614501953125,-0.0300204828381538,0.0016977651976048,-0.0032202943693846
1768620444558,-0.0935211181640625,0.133758544921875,-0.985443115234375,-0.0282164569944143,-0.0028250813484191,-0.0023265376221388
1768620444568,-0.101043701171875,0.1334381103515625,-0.9849700927734376,-0.0207598730921745,-0.0021299961954355,-0.0031198931392282
1768620444578,-0.107666015625,0.1311492919921875,-0.9844207763671876,-0.006286125164479,0.0014897723449394,-0.0044876928441226
1768620444588,-0.11297607421875,0.127777099609375,-0.9828643798828124,0.0078302258625626,0.010200971737504,-0.007341003511101
1768620444598,-0.1152191162109375,0.1208038330078125,-0.977813720703125,0.0173390433192253,0.0164029411971569,-0.0174943059682846
1768620444608,-0.111663818359375,0.111907958984375,-0.97705078125,0.0133509589359164,0.0115661080926656,-0.0262007117271423
1768620444618,-0.1045989990234375,0.1102447509765625,-0.98486328125,0.0072051822207868,-0.0022698121611028,-0.0299009066075086
1768620444628,-0.09765625,0.1084136962890625,-0.9935150146484376,0.0055058193393051,-0.0170266535133123,-0.0329209305346012
1768620444638,-0.089202880859375,0.10870361328125,-0.996734619140625,0.000507598510012,-0.0259735435247421,-0.0275924783200025
1768620444648,-0.0859222412109375,0.118011474609375,-0.9971466064453124,-0.0017947042360901,-0.0265836734324693,-0.0140961119905114
1768620444659,-0.0907135009765625,0.1204986572265625,-0.9889984130859376,-0.0086574042215943,-0.0286865066736936,-0.0029044435359537
1768620444668,-0.0953826904296875,0.120452880859375,-0.9799346923828124,-0.0188575778156518,-0.0265754181891679,0.0065487129613757
1768620444679,-0.1009368896484375,0.1266632080078125,-0.9748382568359376,-0.0268454626202583,-0.0237801633775234,0.0130617395043373
1768620444689,-0.1072845458984375,0.131591796875,-0.9698486328125,-0.0369644090533256,-0.016766995191574,0.0166149288415908
1768620444699,-0.108489990234375,0.1327972412109375,-0.968719482421875,-0.0452974401414394,-0.0125621305778622,0.015982162207365
1768620444709,-0.111419677734375,0.1419219970703125,-0.9692840576171876,-0.0518173910677433,-0.0060451091267168,0.0162990782409906
1768620444719,-0.1109771728515625,0.141357421875,-0.9717254638671876,-0.0532360561192035,-0.0024756744969636,0.0073516559787094
1768620444729,-0.106201171875,0.1330108642578125,-0.9774932861328124,-0.0517955534160137,-0.0047284425236284,0.0040024649351835
1768620444739,-0.0949859619140625,0.1278533935546875,-0.9857177734375,-0.0471539311110973,-0.0003581951605156,0.0072456621564924
1768620444749,-0.0909881591796875,0.1201934814453125,-0.988555908203125,-0.036088228225708,-0.0120286997407674,0.0128052774816751
1768620444759,-0.0906524658203125,0.12310791015625,-0.989044189453125,-0.0246859043836593,-0.0169424973428249,0.0209265872836112
1768620444769,-0.10345458984375,0.128387451171875,-0.9939422607421876,-0.0054099452681839,-0.0088243838399648,0.0175955053418874
1768620444779,-0.1128997802734375,0.1307830810546875,-0.992584228515625,0.0158788319677114,-0.0023097596131265,0.0107889985665678
1768620444789,-0.114288330078125,0.1331024169921875,-0.98895263671875,0.0306130368262529,0.0030186930671334,0.0113844806328415
1768620444799,-0.1143646240234375,0.1386260986328125,-0.9861907958984376,0.0494572967290878,0.0054568168707191,0.0041273669339716
1768620444809,-0.1146087646484375,0.1391448974609375,-0.9843597412109376,0.0574422553181648,0.0101730087772011,0.0009185242815874
1768620444819,-0.111785888671875,0.138397216796875,-0.981903076171875,0.0577075034379959,0.0097743337973952,-0.0043595945462584
1768620444829,-0.111907958984375,0.13494873046875,-0.9815521240234376,0.0487289242446422,0.0103205479681491,-0.009123989380896
1768620444839,-0.107391357421875,0.121734619140625,-0.983184814453125,0.033565416932106,0.0033973946701735,-0.011036405339837
1768620444849,-0.099212646484375,0.11773681640625,-0.9875335693359376,0.0201878268271684,-0.0067559070885181,-0.0066693541593849
1768620444859,-0.0961761474609375,0.12164306640625,-0.9943389892578124,0.0117543935775756,-0.0107876667752861,-0.0002814961189869
1768620444869,-0.0979461669921875,0.1241607666015625,-0.996124267578125,0.0028173581231385,-0.0098699415102601,0.0026394589804112
1768620444879,-0.098724365234375,0.1253662109375,-0.9896392822265624,-0.006425941362977,-0.0059854546561837,0.0073798857629299
1768620444889,-0.0997772216796875,0.1281280517578125,-0.987548828125,-0.0113424025475978,-0.0060821273364126,0.0088475532829761
1768620444900,-0.100067138671875,0.1327667236328125,-0.9864044189453124,-0.0179284010082483,-0.0086864326149225,0.0075644426979124
1768620444910,-0.1062774658203125,0.1368408203125,-0.9848175048828124,-0.0166186578571796,-0.0121448133140802,0.0093820504844188
1768620444920,-0.1094207763671875,0.1361541748046875,-0.9852294921875,-0.0143325999379158,-0.0149909332394599,0.0066877300851047
1768620444930,-0.1101531982421875,0.1345977783203125,-0.9802093505859376,-0.0140806650742888,-0.0153153063729405,-0.0003986752126365
1768620444940,-0.1061553955078125,0.1295623779296875,-0.9774322509765624,-0.0112643726170063,-0.0187092386186122,0.0018245317041873
1768620444950,-0.1011505126953125,0.1296844482421875,-0.9793853759765624,-0.0029515814967453,-0.0187547784298658,0.0012450277572497
1768620444960,-0.1013031005859375,0.1268463134765625,-0.975860595703125,0.0008695221040397,-0.0073005235753953,0.0046831686049699
1768620444970,-0.1014556884765625,0.123382568359375,-0.974395751953125,0.0058230017311871,0.0058062239550054,0.0057047572918236
1768620444980,-0.1049957275390625,0.1219635009765625,-0.973907470703125,0.0067985174246132,0.017291372641921,0.0092582134529948
1768620444990,-0.109222412109375,0.121185302734375,-0.979034423828125,0.0130473589524626,0.0166966877877712,0.0104630272835493
1768620445000,-0.1107177734375,0.12353515625,-0.9882659912109376,0.0175832547247409,0.0150149017572402,0.0088661955669522
1768620445010,-0.110687255859375,0.12744140625,-0.9927978515625,0.023446736857295,0.0124942203983664,0.0061897188425064
1768620445020,-0.110565185546875,0.1310272216796875,-0.98992919921875,0.0231529902666807,0.0062320632860064,0.007588677573949
1768620445030,-0.111114501953125,0.1282958984375,-0.9856414794921876,0.0193539895117282,0.0025276062078773,0.0038320224266499
1768620445040,-0.1094970703125,0.1265106201171875,-0.9829254150390624,0.0159613899886608,0.0004237089306116,0.0020895162597298
1768620445050,-0.1075286865234375,0.123565673828125,-0.98333740234375,0.0151496576145291,-0.002185123739764,-0.0017289242241531
1768620445060,-0.1019134521484375,0.1156158447265625,-0.982574462890625,0.0131088774651288,0.0020154803059995,-0.0024490428622812
1768620445070,-0.09454345703125,0.1174774169921875,-0.983306884765625,0.0120681142434477,0.0041683795861899,0.0080637857317924
1768620445080,-0.0915985107421875,0.12115478515625,-0.9854888916015624,0.0112960636615753,0.0064190169796347,0.020272247493267
1768620445090,-0.09771728515625,0.1260986328125,-0.9863433837890624,0.007872836664319,0.0106087019667029,0.0279147215187549
1768620445100,-0.1070556640625,0.1258087158203125,-0.986053466796875,0.0035635759122669,0.0121125895529985,0.0273567903786897
1768620445110,-0.11083984375,0.1253814697265625,-0.9853057861328124,-0.0080075925216078,0.0074291541241109,0.0189177654683589
1768620445121,-0.1119842529296875,0.1242828369140625,-0.9851837158203124,-0.0195659771561622,0.0023347933311015,0.0123914219439029
1768620445131,-0.109710693359375,0.12493896484375,-0.984405517578125,-0.0308588463813066,-0.0007717840489931,0.0111141698434948
1768620445141,-0.109222412109375,0.130126953125,-0.983489990234375,-0.0281469486653804,-0.0030956584960222,0.0062986421398818
1768620445151,-0.107666015625,0.127288818359375,-0.9848785400390624,-0.0287466924637556,-0.0011997540714219,0.0035268242936581
1768620445161,-0.1016998291015625,0.1260528564453125,-0.9856719970703124,-0.0243932232260704,-0.0067172911949455,0.0062586949206888
1768620445171,-0.1002197265625,0.1236724853515625,-0.9848175048828124,-0.0159938801079988,-0.0040693101473152,0.0076398099772632
1768620445181,-0.0977020263671875,0.1189422607421875,-0.984619140625,-0.0103405220434069,-0.0003302319673821,0.0136359175667166
1768620445191,-0.09490966796875,0.1196441650390625,-0.987274169921875,-0.0015321165556088,0.0044485442340373,0.0193515941500663
1768620445201,-0.098846435546875,0.1267547607421875,-0.9860992431640624,0.0051614725962281,0.0092725940048694,0.0230379402637481
1768620445211,-0.107147216796875,0.128814697265625,-0.9867095947265624,0.0091165332123637,0.0131309824064373,0.0186762157827615
1768620445221,-0.109771728515625,0.1307220458984375,-0.9849090576171876,0.011094463057816,0.0182301364839077,0.016660202294588
1768620445231,-0.107330322265625,0.1313629150390625,-0.9840240478515624,0.008568188175559,0.0125488145276904,0.0109368031844496
1768620445241,-0.108642578125,0.1306610107421875,-0.9852447509765624,0.0041201766580343,0.0063353939913213,0.0066738817840814
1768620445251,-0.10675048828125,0.126556396484375,-0.9877471923828124,-0.001038899179548,0.0043808999471366,0.0040679783560335
1768620445261,-0.105712890625,0.125030517578125,-0.990875244140625,-0.0078025292605161,0.0037955371662974,0.0044826325029134
1768620445271,-0.1046142578125,0.12432861328125,-0.98992919921875,-0.0192296206951141,-0.0030445256270468,0.0042586610652506
1768620445281,-0.1019134521484375,0.1252593994140625,-0.990386962890625,-0.0313557907938957,-0.0107463877648115,0.0067290090955793
1768620445291,-0.1018524169921875,0.127349853515625,-0.992645263671875,-0.0382166281342506,-0.0173020251095294,0.0038602519780397
1768620445301,-0.103851318359375,0.1239013671875,-0.9885711669921876,-0.0458268783986568,-0.0155848190188407,0.0028501150663942
1768620445311,-0.1026611328125,0.1248016357421875,-0.9849395751953124,-0.0528581552207469,-0.0206413622945547,0.0013100089272484
1768620445321,-0.1053009033203125,0.1244354248046875,-0.98260498046875,-0.0550616532564163,-0.0213431045413017,-0.0028032432310283
1768620445332,-0.103912353515625,0.1248931884765625,-0.9821929931640624,-0.0505404062569141,-0.0184652935713529,-0.0050317766144871
1768620445342,-0.104400634765625,0.1274261474609375,-0.979949951171875,-0.0453850589692592,-0.006148706190288,-0.0028000476304441
1768620445352,-0.1047515869140625,0.134368896484375,-0.97802734375,-0.034924428910017,0.0042695798911154,-0.0030213561840355
1768620445362,-0.106048583984375,0.134002685546875,-0.9778289794921876,-0.0286561455577611,0.007187605369836,-0.0023574302904307
1768620445372,-0.1059417724609375,0.1298828125,-0.9758453369140624,-0.0237396843731403,0.0127504160627722,-0.005977464839816
1768620445382,-0.104888916015625,0.12701416015625,-0.973541259765625,-0.0181885920464992,0.0192160382866859,-0.0097975032404065
1768620445393,-0.107208251953125,0.120635986328125,-0.9752655029296876,-0.0156588535755872,0.0243839025497436,-0.0150338103994727
1768620445402,-0.1031036376953125,0.1202392578125,-0.9794921875,-0.0133371111005544,0.024894431233406,-0.0198607891798019
1768620445412,-0.1021575927734375,0.126220703125,-0.983062744140625,-0.0070587084628641,0.0215044934302568,-0.022271217778325
1768620445422,-0.10125732421875,0.127471923828125,-0.9854888916015624,-0.0027883297298103,0.0226091723889112,-0.023749005049467
1768620445432,-0.101104736328125,0.1312103271484375,-0.9880218505859376,0.0049894321709871,0.0185888651758432,-0.0221396572887897
1768620445442,-0.10198974609375,0.134124755859375,-0.9883575439453124,0.0103594306856393,0.0212429706007242,-0.0168325100094079
1768620445452,-0.1046295166015625,0.133514404296875,-0.9847564697265624,0.012851882725954,0.0251522250473499,-0.012581305578351
1768620445462,-0.107818603515625,0.1312713623046875,-0.9801177978515624,0.0112779540941119,0.0315547287464141,-0.0112443985417485
1768620445472,-0.1114044189453125,0.1291656494140625,-0.98016357421875,0.0062025021761655,0.0312122479081153,-0.013268400914967
1768620445482,-0.1106719970703125,0.1250762939453125,-0.9827423095703124,0.0005310343112796,0.0270297527313232,-0.0172817856073379
1768620445493,-0.107635498046875,0.1248626708984375,-0.9846649169921876,-6.471481174230576e-05,0.0228595100343227,-0.0169749893248081
1768620445502,-0.104217529296875,0.127410888671875,-0.9882659912109376,0.0029430591966956,0.0225697569549083,-0.0146660283207893
1768620445512,-0.1051177978515625,0.127685546875,-0.98675537109375,0.00314093218185,0.020132964476943,-0.0161872263997793
1768620445522,-0.101715087890625,0.12811279296875,-0.988525390625,0.0056722667068243,0.0176881831139326,-0.0108060427010059
1768620445533,-0.097869873046875,0.129425048828125,-0.989227294921875,0.0052616074681282,0.0131922345608472,-0.0080083915963768
1768620445543,-0.097686767578125,0.12567138671875,-0.986053466796875,0.0010871023405343,0.0098116183653473,-0.0005262406193651
1768620445553,-0.098724365234375,0.1298065185546875,-0.987579345703125,-0.0046285740099847,0.0069258166477084,0.0057196710258722
1768620445562,-0.10614013671875,0.130218505859375,-0.989227294921875,-0.0095900427550077,0.0050219227559864,0.0049484195187687
1768620445573,-0.1116485595703125,0.1315460205078125,-0.987396240234375,-0.0166724529117345,0.0045148567296564,0.0002836266648955
1768620445583,-0.1108245849609375,0.134613037109375,-0.9894256591796876,-0.026796992868185,0.0021670141723006,-0.0010274475207552
1768620445593,-0.1092529296875,0.1322021484375,-0.9904022216796876,-0.0300143584609031,0.0005462143453769,-0.0059242015704512
1768620445603,-0.10009765625,0.1265411376953125,-0.988983154296875,-0.0392384827136993,-0.0035449336282908,-0.0074427360668778
1768620445613,-0.0897979736328125,0.124786376953125,-0.9901580810546876,-0.0450676083564758,-0.008364456705749,-0.0043593281880021
1768620445623,-0.084808349609375,0.12457275390625,-0.9889984130859376,-0.0463813468813896,-0.0141424508765339,0.0029667613562196
1768620445633,-0.088165283203125,0.1295013427734375,-0.9857635498046876,-0.0443711914122104,-0.0192977972328662,0.0046671899035573
1768620445643,-0.1030120849609375,0.1255340576171875,-0.9845428466796876,-0.0400395616888999,-0.0064597632735967,0.0004175836511421
1768620445653,-0.1114044189453125,0.123931884765625,-0.98040771484375,-0.0356621220707893,0.0021315941121429,-0.0082456795498728
1768620445663,-0.112030029296875,0.1278076171875,-0.9771728515625,-0.0336269363760948,-0.0036035231314599,-0.0131690651178359
1768620445673,-0.1066741943359375,0.1410064697265625,-0.9792327880859376,-0.0283192563802003,-0.0104784732684493,-0.0127360355108976
1768620445683,-0.1063385009765625,0.1487579345703125,-0.98345947265625,-0.0191467963159084,-0.0108289457857608,-0.0152372764423489
1768620445693,-0.1024627685546875,0.1429901123046875,-0.9775543212890624,-0.0188429299741983,-0.0042967442423105,-0.0186937935650348
1768620445703,-0.0939483642578125,0.1347808837890625,-0.9750823974609376,-0.0208256524056196,0.0005459480453282,-0.0086084017530083
1768620445713,-0.08984375,0.1273345947265625,-0.9758758544921876,-0.0209308490157127,0.0017451694002375,0.0007893609581515
1768620445723,-0.0954742431640625,0.1197967529296875,-0.9739837646484376,-0.0220147538930177,0.004440554883331,0.0032740901224315
1768620445733,-0.10040283203125,0.11859130859375,-0.9743804931640624,-0.0167925618588924,0.0061393850483,0.0051060789264738
1768620445743,-0.10589599609375,0.119659423828125,-0.9789886474609376,-0.0055473647080361,0.011126953177154,0.0058498997241258
1768620445753,-0.1078338623046875,0.118072509765625,-0.9844818115234376,0.0026935210917145,0.0131664024665951,0.004938565660268
1768620445763,-0.107666015625,0.11859130859375,-0.9870452880859376,0.0127227194607257,0.0119807627052068,0.0034999263007193
1768620445774,-0.1046905517578125,0.12286376953125,-0.9847412109375,0.0161201134324073,0.0105242803692817,0.0048038098029792
1768620445784,-0.1038970947265625,0.129119873046875,-0.98583984375,0.0235210377722978,0.0129890358075499,0.006548979319632
1768620445794,-0.1046600341796875,0.1362762451171875,-0.986907958984375,0.0283818393945693,0.012956278398633,0.0050118030048906
1768620445804,-0.1072540283203125,0.1411285400390625,-0.9877777099609376,0.0339268073439598,0.0184881966561079,0.0040136501193046
1768620445814,-0.1091461181640625,0.13946533203125,-0.987396240234375,0.0317408852279186,0.0168599393218755,-0.0036796897184103
1768620445824,-0.1020965576171875,0.13848876953125,-0.988800048828125,0.0259674191474914,0.0173595491796731,-0.00529809249565
1768620445834,-0.0928955078125,0.1362152099609375,-0.9898223876953124,0.0192666389048099,0.0136734675616025,-0.0041923481039702
1768620445844,-0.0918426513671875,0.1395721435546875,-0.989410400390625,0.0088829733431339,0.0053894389420747,-0.002412823960185
1768620445854,-0.09735107421875,0.13922119140625,-0.9873504638671876,0.0020224044565111,-0.0011273160343989,-0.0021273330785334
1768620445864,-0.1023101806640625,0.1363372802734375,-0.989532470703125,-0.0056927730329334,-0.0034716967493295,-0.0032668996136635
1768620445874,-0.1053314208984375,0.133209228515625,-0.9891510009765624,-0.014117949642241,-0.0029134983196854,-0.0010120011866092
1768620445884,-0.1074066162109375,0.1269989013671875,-0.98455810546875,-0.0197007339447736,0.0029840720817446,0.0014183996245265
1768620445894,-0.10772705078125,0.1232452392578125,-0.9826812744140624,-0.0295877195894718,0.0043625240214169,0.003957990091294
1768620445904,-0.10565185546875,0.12408447265625,-0.983154296875,-0.0360429547727108,0.0071926652453839,0.0107407951727509
1768620445914,-0.1016845703125,0.125579833984375,-0.982696533203125,-0.0413517020642757,0.0039031289052218,0.0146947903558611
1768620445924,-0.098480224609375,0.12969970703125,-0.984527587890625,-0.0432462729513645,-0.0024525050539523,0.0154695035889744
1768620445934,-0.095794677734375,0.1333465576171875,-0.9854736328125,-0.042653452605009,-0.0114097809419035,0.0134721333160996
1768620445944,-0.0919342041015625,0.135162353515625,-0.987518310546875,-0.0432630516588687,-0.0202568024396896,0.0150282178074121
1768620445954,-0.093719482421875,0.1378936767578125,-0.98980712890625,-0.0416507720947265,-0.0242475494742393,0.0110792824998497
1768620445964,-0.0990142822265625,0.1337890625,-0.988311767578125,-0.0399484820663929,-0.0258853938430547,0.003940945956856
1768620445974,-0.10430908203125,0.1307220458984375,-0.985137939453125,-0.0398472808301448,-0.0177827253937721,-0.0045936866663396
1768620445985,-0.1070556640625,0.1281280517578125,-0.981658935546875,-0.0390403419733047,-0.0121874241158366,-0.0133911725133657
1768620445995,-0.105010986328125,0.12469482421875,-0.9796142578125,-0.0378773398697376,-0.0177736710757017,-0.0120500046759843
1768620446005,-0.1067352294921875,0.12908935546875,-0.97869873046875,-0.0310327503830194,0.0001621865085326,-0.0078464718535542
1768620446015,-0.1097259521484375,0.126373291015625,-0.97869873046875,-0.0269157700240612,0.0050823767669498,-0.0106457201763987
1768620446025,-0.1078338623046875,0.127410888671875,-0.976287841796875,-0.0213718675076961,0.0018010957865044,-0.0100318612530827
1768620446035,-0.1012725830078125,0.1310882568359375,-0.97955322265625,-0.011592473834753,-0.002175802597776,-0.0118603873997926
1768620446045,-0.099273681640625,0.130950927734375,-0.9832305908203124,-0.0060791978612542,0.0012311793398112,-0.0063172844238579
1768620446055,-0.09320068359375,0.1355133056640625,-0.9834442138671876,0.005593969952315,-5.9388490626588464e-05,-0.0038804919458925
1768620446065,-0.0966033935546875,0.1363067626953125,-0.983551025390625,0.0095532918348908,-0.0060890512540936,-0.0056935721077024
1768620446075,-0.0999603271484375,0.1374359130859375,-0.98565673828125,0.0118244355544447,-0.0108342720195651,-0.0084446175023913
1768620446085,-0.100738525390625,0.1413116455078125,-0.9855499267578124,0.0155667094513773,-0.0096422405913472,-0.0091660674661397
1768620446095,-0.105621337890625,0.144073486328125,-0.9837646484375,0.0159312952309846,-0.0077956048771739,-0.01342339720577
1768620446105,-0.1097869873046875,0.143157958984375,-0.982452392578125,0.0140292663127183,0.0015949672088027,-0.0181672852486372
1768620446115,-0.111083984375,0.1429595947265625,-0.9790496826171876,0.0090896347537636,0.0090904338285326,-0.0217407159507274
1768620446125,-0.10943603515625,0.138916015625,-0.9784088134765624,0.0012705941917374,0.0112614426761865,-0.0270356126129627
1768620446135,-0.1063995361328125,0.1370697021484375,-0.9812774658203124,-0.0080123860388994,0.0110318781808018,-0.0287522859871387
1768620446145,-0.102294921875,0.134552001953125,-0.9852142333984376,-0.0097767310217022,0.0075940038077533,-0.0286257863044738
1768620446155,-0.1004486083984375,0.13494873046875,-0.9903411865234376,-0.0094829834997653,0.004154797643423,-0.0272012613713741
1768620446165,-0.1019439697265625,0.1348876953125,-0.988800048828125,-0.0066568371839821,0.0052110073156654,-0.0226810779422521
1768620446176,-0.105133056640625,0.1298065185546875,-0.9829559326171876,-0.0026943201664835,0.0062626893632113,-0.0238667167723178
1768620446185,-0.1047210693359375,0.128753662109375,-0.9798736572265624,0.0030037793330848,0.0070965252816677,-0.0183073673397302
1768620446195,-0.1051177978515625,0.1312713623046875,-0.9822540283203124,0.0079492693766951,0.0049225869588553,-0.0139387184754014
1768620446206,-0.1060028076171875,0.1308135986328125,-0.97930908203125,0.0089367693290114,0.010022540576756,-0.0123469475656747
1768620446216,-0.107757568359375,0.1316070556640625,-0.9772796630859376,0.0065436530858278,0.0131048830226063,-0.011085407808423
1768620446226,-0.1043243408203125,0.13055419921875,-0.979278564453125,0.0036197684239596,0.0181931182742118,-0.0119631858542561
1768620446236,-0.1010284423828125,0.1292877197265625,-0.980987548828125,-0.0040432112291455,0.0165901612490415,-0.0067740166559815
1768620446246,-0.100860595703125,0.1296234130859375,-0.98504638671875,-0.0133674703538417,0.0147310094907879,-0.0041998052038252
1768620446256,-0.1013336181640625,0.126129150390625,-0.9894866943359376,-0.0252465009689331,0.0078930770978331,-0.0041452101431787
1768620446266,-0.0994720458984375,0.129608154296875,-0.994476318359375,-0.0317688472568988,-0.0015523566398769,0.0010993528412654
1768620446276,-0.104461669921875,0.1345367431640625,-0.994171142578125,-0.0379838682711124,-0.0095519600436091,0.0011030812747776
1768620446286,-0.107208251953125,0.13812255859375,-0.9923553466796876,-0.0388355478644371,-0.0211297869682312,-0.0021081583108752
1768620446296,-0.1082763671875,0.1383819580078125,-0.989044189453125,-0.0374917164444923,-0.019939087331295,-0.0013856426812708
1768620446306,-0.1086578369140625,0.1372528076171875,-0.9836578369140624,-0.0337587632238864,-0.0174740646034479,-0.001341700553894
1768620446316,-0.1087493896484375,0.134033203125,-0.9762725830078124,-0.0292516276240348,-0.0107996510341763,-6.897587445564568e-05
1768620446326,-0.1091156005859375,0.1313323974609375,-0.9743499755859376,-0.0254792608320713,-0.0066096996888518,0.0015507587231695
1768620446336,-0.1050262451171875,0.1296234130859375,-0.97503662109375,-0.0243740491569042,-0.000835433602333,0.0036711674183607
1768620446346,-0.102813720703125,0.1259613037109375,-0.9768524169921876,-0.0222240798175334,-0.0004301005101297,0.0051340418867766
1768620446356,-0.1005401611328125,0.1300048828125,-0.9798736572265624,-0.0243301074951887,-0.0017827199772,0.0092907035723328
1768620446366,-0.0999298095703125,0.131103515625,-0.9801788330078124,-0.0266939289867877,-0.0033590451348572,0.0081623224541544
1768620446376,-0.0981597900390625,0.1312103271484375,-0.978729248046875,-0.0322633981704711,0.0013640711549669,0.0130108734592795
1768620446386,-0.09722900390625,0.13818359375,-0.980072021484375,-0.031949944794178,-0.003901264630258,0.015272962860763
1768620446396,-0.101531982421875,0.1419219970703125,-0.981903076171875,-0.0297736078500747,-0.0096070868894457,0.0120934145525097
1768620446406,-0.107330322265625,0.1396026611328125,-0.982757568359375,-0.0262052379548549,-0.0121719781309366,0.0099271992221474
1768620446417,-0.1084442138671875,0.1405792236328125,-0.98291015625,-0.0200650542974472,-0.0076717683114111,0.0064395233057439
1768620446427,-0.106719970703125,0.13970947265625,-0.978515625,-0.0108523815870285,0.0001342233153991,0.0101106911897659
1768620446437,-0.10760498046875,0.141632080078125,-0.9770660400390624,-0.0030232204589992,0.0022405174095183,0.0122212460264563
1768620446447,-0.1082916259765625,0.142547607421875,-0.97601318359375,0.0020775320008397,0.0050650658085942,0.0144676221534609
1768620446457,-0.1095123291015625,0.1355133056640625,-0.9779510498046876,0.0077375480905175,0.0086555397137999,0.0156636480242013
1768620446467,-0.105926513671875,0.132598876953125,-0.9812164306640624,0.0112326806411147,0.0141499070450663,0.0163723155856132
1768620446477,-0.1021270751953125,0.1251220703125,-0.9852752685546876,0.010620686225593,0.01207503862679,0.0144231477752327
1768620446487,-0.097686767578125,0.1218414306640625,-0.9884490966796876,0.0110657010227441,0.0123791713267564,0.0173832513391971
1768620446497,-0.094696044921875,0.11993408203125,-0.985870361328125,0.0140841277316212,0.0130119388923048,0.0210562832653522
1768620446507,-0.1031951904296875,0.125091552734375,-0.9850921630859376,0.0161275714635849,0.0103588979691267,0.0193792898207902
1768620446517,-0.1107940673828125,0.1376800537109375,-0.989654541015625,0.0208597425371408,0.0032463932875543,0.0100499708205461
1768620446527,-0.116302490234375,0.1483154296875,-0.98883056640625,0.0209036841988563,0.004154797643423,-0.0004149205051362
1768620446537,-0.1163330078125,0.1487579345703125,-0.98162841796875,0.0152511242777109,0.00187300122343,-0.0088768480345606
1768620446547,-0.1074981689453125,0.145904541015625,-0.978973388671875,0.0013089436106383,0.0017494305502623,-0.012991165742278
1768620446557,-0.0959930419921875,0.141265869140625,-0.981903076171875,-0.0105575695633888,-0.001962483394891,-0.0084510091692209
1768620446567,-0.090789794921875,0.1326141357421875,-0.9798431396484376,-0.0190953966230154,-0.002869555959478,-0.0045726476237177
1768620446577,-0.0916748046875,0.1288909912109375,-0.977020263671875,-0.0243591349571943,-0.0037499971222132,-0.0003672499151434
1768620446587,-0.0955047607421875,0.12451171875,-0.977294921875,-0.0239455457776784,-0.0022280006669461,0.0026367958635091
1768620446597,-0.0977325439453125,0.11981201171875,-0.9812774658203124,-0.0121509386226534,0.0076949377544224,0.0073660369962453
1768620446607,-0.1006927490234375,0.1186981201171875,-0.9827423095703124,-0.0020008329302072,0.014112090691924,0.009295230731368
1768620446618,-0.1041259765625,0.1203765869140625,-0.98016357421875,0.0090321106836199,0.013375193811953,0.0061052967794239
1768620446628,-0.1057586669921875,0.1230926513671875,-0.9782257080078124,0.0200663860887289,0.0203050058335065,0.002084988867864
1768620446638,-0.10406494140625,0.1322021484375,-0.9781341552734376,0.0280406884849071,0.0259823314845561,0.0016005598008632
1768620446648,-0.102203369140625,0.1401214599609375,-0.979583740234375,0.0378139577805995,0.0256632845848798,-0.0047476170584559
1768620446658,-0.1046295166015625,0.1473236083984375,-0.9837646484375,0.0447315201163291,0.0222062356770038,-0.0102752745151519
1768620446668,-0.10430908203125,0.1470489501953125,-0.9883270263671876,0.0456130243837833,0.0212014261633157,-0.0182908568531274
1768620446678,-0.1031036376953125,0.1452484130859375,-0.987823486328125,0.0435930155217647,0.0192866120487451,-0.0204890295863151
1768620446688,-0.1066436767578125,0.1410369873046875,-0.987060546875,0.0371271297335624,0.0111077781766653,-0.0271248277276754
1768620446698,-0.10693359375,0.13824462890625,-0.9864501953125,0.0289325825870037,0.0016016251174733,-0.0273834206163883
1768620446708,-0.10546875,0.1356201171875,-0.986297607421875,0.0257546324282884,-0.0087559409439563,-0.0266209580004215
1768620446718,-0.1037139892578125,0.1316375732421875,-0.9858856201171876,0.0243186559528112,-0.0062235412187874,-0.0217321924865245
1768620446728,-0.1016693115234375,0.126953125,-0.982421875,0.0261879283934831,0.0030866037122905,-0.0162295699119567
1768620446738,-0.0991973876953125,0.1263427734375,-0.974365234375,0.0205289777368307,0.0022740731947124,-0.0107759488746523
1768620446748,-0.1015167236328125,0.1255645751953125,-0.9747772216796876,0.010414557531476,0.0103527726605534,-0.0003254382754676
1768620446758,-0.1015472412109375,0.1241607666015625,-0.9775543212890624,0.0006095975404605,0.0121352262794971,0.0029417276382446
1768620446768,-0.1031646728515625,0.1248626708984375,-0.9821929931640624,-0.0072573800571262,0.0075862808153033,0.0090805804356932
1768620446778,-0.10296630859375,0.12713623046875,-0.9896392822265624,-0.0112497247755527,0.0031374699901789,0.0121333617717027
1768620446788,-0.1024932861328125,0.131591796875,-0.992462158203125,-0.0140907848253846,-0.003752393880859,0.0129469577223062
1768620446798,-0.102325439453125,0.13330078125,-0.993072509765625,-0.0158748365938663,-0.0125418910756707,0.0170005541294813
1768620446808,-0.102691650390625,0.141082763671875,-0.9929962158203124,-0.0205750502645969,-0.0160900205373764,0.0174293238669633
1768620446818,-0.1047515869140625,0.1412200927734375,-0.9893951416015624,-0.0251599475741386,-0.0179268028587102,0.0165696553885936
1768620446828,-0.104644775390625,0.1401824951171875,-0.9850921630859376,-0.028937641531229,-0.0123802367597818,0.0165342353284358
1768620446838,-0.10162353515625,0.1365203857421875,-0.97979736328125,-0.0308647044003009,-0.0056783920153975,0.0192589163780212
1768620446849,-0.1041259765625,0.1320343017578125,-0.97723388671875,-0.0271836835891008,-0.0048805088736116,0.0209950301796197
1768620446859,-0.1107177734375,0.12939453125,-0.979034423828125,-0.0190096441656351,0.0009928264189511,0.021098094061017
1768620446869,-0.1121826171875,0.1253814697265625,-0.9806060791015624,-0.0121080614626407,0.006884004920721,0.0192903410643339
1768620446879,-0.1086883544921875,0.125518798828125,-0.9826812744140624,-0.0062171495519578,0.0082795014604926,0.0209462940692901
1768620446889,-0.1031646728515625,0.1259002685546875,-0.9846649169921876,0.0039396141655743,0.002534530358389,0.0202898252755403
1768620446899,-0.100799560546875,0.129150390625,-0.983367919921875,0.0076797576621174,-0.0032093753106892,0.0190093778073787
1768620446909,-0.096893310546875,0.133148193359375,-0.9868621826171876,0.0121544003486633,-0.0072725601494312,0.0179302636533975
1768620446919,-0.091796875,0.1320648193359375,-0.9887237548828124,0.0143328662961721,-0.0158785656094551,0.0132870431989431
1768620446929,-0.0888519287109375,0.1310272216796875,-0.9832000732421876,0.0108577078208327,-0.0209284517914056,0.013654826208949
1768620446939,-0.0924072265625,0.1395416259765625,-0.983612060546875,0.0133802536875009,-0.0180823318660259,0.0132886413484811
1768620446949,-0.10174560546875,0.1439361572265625,-0.9837188720703124,0.0157272983342409,-0.0069721555337309,0.0056118131615221
1768620446959,-0.108978271484375,0.141387939453125,-0.9796905517578124,0.0152423363178968,0.0066429888829588,-0.0024764735717326
1768620446969,-0.113037109375,0.1440277099609375,-0.9746856689453124,0.0167547445744276,0.0117602525278925,-0.0078310249373316
1768620446979,-0.11236572265625,0.140350341796875,-0.979888916015625,0.017836520448327,0.0165542084723711,-0.0143357962369918
1768620446989,-0.1094207763671875,0.1322479248046875,-0.98394775390625,0.0155033254995942,0.0223894622176885,-0.0148676289245486
1768620446999,-0.103851318359375,0.1255645751953125,-0.985076904296875,0.0132313827052712,0.0216538961976766,-0.0151411360129714
1768620447009,-0.1005859375,0.123504638671875,-0.985992431640625,0.009574863128364,0.0187257509678602,-0.0146226184442639
1768620447019,-0.0958709716796875,0.1251983642578125,-0.98541259765625,0.0052924999035894,0.0099477050825953,-0.0145634962245821
1768620447029,-0.09417724609375,0.1281585693359375,-0.988067626953125,0.0043718451634049,0.0052592107094824,-0.0096550239250063
1768620447039,-0.09771728515625,0.1297607421875,-0.987152099609375,0.0030200246255844,0.0035353463608771,-0.0098361186683177
1768620447050,-0.1018829345703125,0.130645751953125,-0.985504150390625,0.0033412019256502,0.0015441008144989,-0.0097964378073811
1768620447059,-0.1078338623046875,0.132080078125,-0.983642578125,0.0014026869321241,-0.0006255765329115,-0.0122268386185169
1768620447070,-0.1080780029296875,0.1324310302734375,-0.984619140625,0.000524909060914,0.0073764235712587,-0.0145038412883877
1768620447080,-0.11004638671875,0.130828857421875,-0.9821624755859376,-0.0013685984304174,0.0079998699948191,-0.0155685730278491
1768620447090,-0.1091766357421875,0.13128662109375,-0.980438232421875,-0.0051225903443992,0.0106893954798579,-0.0174024254083633
1768620447100,-0.106658935546875,0.1324462890625,-0.97991943359375,-0.0082808332517743,0.0106686232611536,-0.0150641705840826
1768620447110,-0.1049652099609375,0.1323699951171875,-0.978668212890625,-0.0049497513100504,0.0092891054227948,-0.0129916984587907
1768620447120,-0.10723876953125,0.1322174072265625,-0.9792938232421876,0.0027803401462733,0.0060807955451309,-0.0132388398051261
1768620447130,-0.1068878173828125,0.1317596435546875,-0.981414794921875,0.0197337567806243,0.0076105152256786,-0.0077130473218858
1768620447140,-0.1072235107421875,0.129730224609375,-0.9820709228515624,0.0371649451553821,0.0088158622384071,-0.0109088402241468
1768620447150,-0.111663818359375,0.1209564208984375,-0.9807891845703124,0.0450183413922786,0.009052351117134,-0.013667874969542
1768620447160,-0.1048126220703125,0.1117095947265625,-0.977935791015625,0.0511212423443794,0.0216496344655752,-0.0162500757724046
1768620447170,-0.091705322265625,0.1156768798828125,-0.983856201171875,0.0603544190526008,0.0219300668686628,-0.0128702586516737
1768620447180,-0.0886688232421875,0.1209564208984375,-0.990234375,0.0643776580691337,0.0147994523867964,-0.0052847769111394
1768620447190,-0.0917816162109375,0.128753662109375,-0.992462158203125,0.0690696164965629,0.0089282477274537,-0.0026897927746176
1768620447200,-0.100921630859375,0.135009765625,-0.9884185791015624,0.0694315358996391,0.0117762321606278,-0.0065223476849496
1768620447210,-0.1091461181640625,0.1333160400390625,-0.9813385009765624,0.0617674924433231,0.0203143265098333,-0.0081303641200065
1768620447220,-0.110687255859375,0.1294403076171875,-0.975494384765625,0.052484780550003,0.0264936592429876,-0.01507562212646
1768620447230,-0.107757568359375,0.12548828125,-0.973663330078125,0.0408060178160667,0.0307001210749149,-0.0124856978654861
1768620447240,-0.10015869140625,0.1243133544921875,-0.977752685546875,0.0287879724055528,0.032169122248888,-0.0067029101774096
1768620447250,-0.09918212890625,0.120819091796875,-0.9864501953125,0.0196168441325426,0.029746975749731,-0.0010681939311325
1768620447261,-0.1026153564453125,0.114593505859375,-0.9920806884765624,0.0081540662795305,0.0208016838878393,0.0007073355955071
1768620447270,-0.1021881103515625,0.1136932373046875,-0.9992218017578124,-0.0024618261959403,0.0002804308605846,-0.002566754585132
1768620447281,-0.10113525390625,0.115020751953125,-1.00286865234375,-0.0106305396184325,-0.0169651340693235,-0.0051468252204358
1768620447290,-0.097320556640625,0.12457275390625,-1.0016021728515625,-0.0113719636574387,-0.0270007252693176,-0.0045870286412537
1768620447301,-0.0970001220703125,0.135223388671875,-0.9954833984375,-0.0114657077938318,-0.0274041928350925,-0.0043561323545873
1768620447311,-0.10113525390625,0.14605712890625,-0.9854583740234376,-0.0069002504460513,-0.0224352683871984,-0.0069314092397689
1768620447321,-0.105560302734375,0.1497802734375,-0.9806060791015624,-0.0030352047178894,-0.0095897763967514,-0.00792982801795
1768620447331,-0.1069488525390625,0.139404296875,-0.9729766845703124,-0.0028519791085273,0.0121751734986901,-0.007179882377386
1768620447341,-0.102752685546875,0.128387451171875,-0.9694061279296876,-0.0009478190331719,0.0284588057547807,0.0010969560826197
1768620447351,-0.1016693115234375,0.1185455322265625,-0.975067138671875,0.0004564658156596,0.0356498733162879,0.0051015513017773
1768620447361,-0.1024932861328125,0.1077423095703125,-0.9810028076171876,-0.0013374395202845,0.0324373021721839,0.0079521993175148
1768620447371,-0.0996856689453125,0.1045684814453125,-0.9893035888671876,-0.0032658344134688,0.029521407559514,0.0131152691319584
1768620447381,-0.1042633056640625,0.1077423095703125,-0.99517822265625,-0.0030695593450218,0.0141568314284086,0.0045494781807065
1768620447391,-0.1073455810546875,0.116729736328125,-1.0009765625,0.0041571944020688,-0.0037228327710181,-0.0021789984311908
1768620447401,-0.1039581298828125,0.130615234375,-1.0006256103515625,0.0086462190374732,-0.024097079411149,-0.0114521253854036
1768620447411,-0.1041107177734375,0.143707275390625,-0.9949951171875,0.0091692637652158,-0.0274068564176559,-0.0156492665410041
1768620447421,-0.104949951171875,0.1436767578125,-0.9858856201171876,0.0032607743050903,-0.0226485878229141,-0.0195209700614213
1768620447431,-0.1008453369140625,0.13470458984375,-0.9757537841796876,-0.0113296201452612,-0.0091839106753468,-0.0136859845370054
1768620447441,-0.0938873291015625,0.122161865234375,-0.9719390869140624,-0.0294268652796745,-0.0022082931827753,-0.0053819823078811
1768620447451,-0.089508056640625,0.11468505859375,-0.974761962890625,-0.0407860465347766,-0.0084840320050716,0.0051140682771801
1768620447461,-0.093902587890625,0.1138458251953125,-0.9808502197265624,-0.0438436195254325,-0.0094787226989865,0.0109080411493778
1768620447471,-0.102996826171875,0.1149444580078125,-0.9869842529296876,-0.0387508571147918,-0.0084536718204617,0.0120257697999477
1768620447481,-0.110107421875,0.1179351806640625,-0.991455078125,-0.0306761525571346,-0.0088709890842437,0.0095708686858415
1768620447491,-0.1124114990234375,0.1197357177734375,-0.988739013671875,-0.0186154954135417,-0.0127149960026144,0.0072107748128473
1768620447502,-0.109344482421875,0.1201019287109375,-0.988494873046875,-0.010227870196104,-0.0265916641801595,0.0049564088694751
1768620447512,-0.104766845703125,0.120513916015625,-0.989471435546875,-0.0001933454914251,-0.0779837444424629,-0.0018841864075511
1768620447522,-0.0989837646484375,0.1240692138671875,-0.99169921875,-0.0070922640152275,-0.0799411684274673,0.0026293389964848
1768620447532,-0.090362548828125,0.131011962890625,-0.9841156005859376,-0.006330067757517,-0.0469677746295928,0.0118073904886841
1768620447542,-0.088104248046875,0.1367340087890625,-0.9825439453125,-0.0120377540588378,-0.0222501773387193,0.0168463587760925
1768620447552,-0.0962371826171875,0.1385955810546875,-0.9791107177734376,-0.0196141805499792,-0.0162050686776638,0.0195787604898214
1768620447562,-0.10528564453125,0.136627197265625,-0.9797821044921876,-0.0280145909637212,-0.0061457767151296,0.0154529921710491
1768620447572,-0.113311767578125,0.131988525390625,-0.979095458984375,-0.0400616638362407,-0.00280457502231,0.0152977295219898
1768620447582,-0.1185760498046875,0.1279144287109375,-0.9827728271484376,-0.0463525839149951,-0.0108411964029073,0.0112726278603076
1768620447593,-0.1236724853515625,0.1257171630859375,-0.989044189453125,-0.0443565472960472,-0.0138180777430534,0.0094531569629907
1768620447602,-0.123321533203125,0.1230316162109375,-0.990814208984375,-0.037898913025856,-0.0186210889369249,0.008300008252263
1768620447612,-0.1179656982421875,0.11895751953125,-0.9863128662109376,-0.0320950858294963,-0.0256667472422122,0.0029225528705865
1768620447622,-0.11016845703125,0.1211395263671875,-0.9823455810546876,-0.0232352819293737,-0.0424225591123104,0.0014458301011472
1768620447632,-0.100799560546875,0.1203155517578125,-0.9809417724609376,-0.0106196207925677,-0.0859077200293541,0.0076358155347406
1768620447642,-0.0980987548828125,0.1226959228515625,-0.9824981689453124,-0.0078352857381105,-0.0793038755655288,0.0136806583032011
1768620447652,-0.08697509765625,0.1207427978515625,-0.9761199951171876,-0.00413029640913,-0.0326764546334743,0.0245610028505325
1768620447662,-0.079620361328125,0.1251068115234375,-0.969635009765625,-0.0015100123127922,0.0024330639280378,0.0391242317855358
1768620447672,-0.0959930419921875,0.13299560546875,-0.970916748046875,0.0008119978010654,0.0035151063930243,0.0401737838983535
1768620447682,-0.113189697265625,0.132843017578125,-0.9798736572265624,-0.0044208471663296,-0.0023057649377733,0.0353023298084735
1768620447692,-0.1201324462890625,0.1330718994140625,-0.984161376953125,-0.0028628981672227,0.0003771035990212,0.0256052277982234
1768620447702,-0.1251068115234375,0.1336517333984375,-0.985504150390625,-0.0031683626584708,7.323692989302799e-05,0.0148556446656584
1768620447712,-0.12420654296875,0.1273040771484375,-0.9878692626953124,-0.0037151097785681,-0.0024498419370502,0.0049359025433659
1768620447722,-0.116943359375,0.122283935546875,-0.9872589111328124,-0.0046323025599122,-0.0070746871642768,0.0006647250265814
1768620447733,-0.1092071533203125,0.121124267578125,-0.9817962646484376,-0.0053228600881993,-0.0084057357162237,0.0011163970921188
1768620447743,-0.101470947265625,0.12158203125,-0.981414794921875,-0.0030772825703024,-0.0113631756976246,0.0016226640436798
1768620447753,-0.0963897705078125,0.120208740234375,-0.9838104248046876,0.0021140172611922,-0.0090797813609242,0.0066797407343983
1768620447763,-0.0947113037109375,0.122589111328125,-0.98480224609375,0.0014120079576969,-0.0112521219998598,0.0133863789960742
1768620447773,-0.1003875732421875,0.129425048828125,-0.987762451171875,0.00107964547351,-0.0140750724822282,0.0189816802740097
1768620447783,-0.105560302734375,0.130126953125,-0.9868011474609376,-0.0003672499151434,-0.0114776911213994,0.0184999145567417
1768620447793,-0.1084747314453125,0.1322784423828125,-0.9837188720703124,0.0031372036319226,-0.0028264129068702,0.0188482552766799
1768620447803,-0.114654541015625,0.1325531005859375,-0.98150634765625,-8.069378236541525e-05,0.0006170544074848,0.0108236195519566
1768620447813,-0.11669921875,0.1334686279296875,-0.9791412353515624,-0.0065822689794003,0.0054847802966833,0.0071471254341304
1768620447823,-0.1164703369140625,0.1340789794921875,-0.978668212890625,-0.0069125010631978,0.0125163244083523,0.0036485306918621
1768620447833,-0.1158599853515625,0.1345672607421875,-0.978607177734375,-0.0064645572565495,0.0118361534550786,-0.0046916906721889
1768620447843,-0.1125640869140625,0.127899169921875,-0.983184814453125,-0.0049281795509159,0.0039947414770722,-0.0113096460700035
1768620447853,-0.10247802734375,0.124237060546875,-0.9873046875,-0.0043718451634049,0.002069808775559,-0.0083748428151011
1768620447863,-0.0964813232421875,0.128692626953125,-0.9897003173828124,0.0012418320402503,0.0075721656903624,-0.0010322412708774
1768620447873,-0.1005859375,0.1339111328125,-0.9874725341796876,-5.566006802837365e-05,0.0129181956872344,0.004128432366997
1768620447883,-0.107147216796875,0.1355743408203125,-0.982513427734375,-0.0041960766538977,0.0121216438710689,0.0050624026916921
1768620447893,-0.114593505859375,0.1367645263671875,-0.9825286865234376,-0.0042722430080175,0.0154567202553153,-2.7696874894900247e-05
1768620447903,-0.118927001953125,0.1321868896484375,-0.980133056640625,-0.0091535504907369,0.0261596981436014,-0.0036368127912282
1768620447913,-0.1202239990234375,0.1279449462890625,-0.976593017578125,-0.0104443849995732,0.0345641039311885,-0.0079801622778177
1768620447923,-0.116455078125,0.1259613037109375,-0.9835052490234376,-0.0070027820765972,0.0309946667402982,-0.0153342150151729
1768620447933,-0.1103668212890625,0.121063232421875,-0.9845733642578124,-0.0021398498211055,0.0224437899887561,-0.0206237863749265
1768620447944,-0.098541259765625,0.1170654296875,-0.9871673583984376,0.0003339604008942,0.0045031388290226,-0.0163989476859569
1768620447954,-0.093902587890625,0.1218414306640625,-0.994720458984375,0.0037776939570903,-0.0015576828736811,-0.005044559482485
1768620447964,-0.0971527099609375,0.1280059814453125,-0.99139404296875,0.0069423280656337,-0.0041121868416666,0.0005829659639857
1768620447974,-0.1042022705078125,0.1283111572265625,-0.98638916015625,0.0061516356654465,0.0004860268963966,0.0039225700311362
1768620447984,-0.1126556396484375,0.130401611328125,-0.98065185546875,0.0013411679537966,-0.0008905610884539,-0.0032503881957381
1768620447994,-0.119476318359375,0.1289215087890625,-0.980377197265625,-0.0008229167433455,0.0037297571543604,-0.0074848141521215
1768620448004,-0.1157989501953125,0.1279449462890625,-0.9836273193359376,0.0045390916056931,0.006811034400016,-0.0099133504554629
1768620448014,-0.1120758056640625,0.126678466796875,-0.981781005859375,0.0080613885074853,0.0098046939820051,-0.0102281365543603
1768620448024,-0.1095123291015625,0.126495361328125,-0.980560302734375,0.0153201008215546,0.0101221427321434,-0.007980428636074
1768620448034,-0.105621337890625,0.1243743896484375,-0.981414794921875,0.0191406719386577,0.0098957736045122,-0.0021984395571053
1768620448044,-0.1037750244140625,0.12432861328125,-0.9832611083984376,0.0238174479454755,0.0082888221368193,0.0036551884841173
1768620448054,-0.1037445068359375,0.1234130859375,-0.9850311279296876,0.0216981042176485,0.0040490701794624,0.005560147576034
1768620448064,-0.1056365966796875,0.1249542236328125,-0.985076904296875,0.0209231246262788,0.0048898300155997,0.0102403871715068
1768620448074,-0.1090087890625,0.1258544921875,-0.9822845458984376,0.0178575608879327,0.0052219261415302,0.0084512755274772
1768620448084,-0.111236572265625,0.1255340576171875,-0.9816131591796876,0.0123187182471156,0.0087399622425436,0.0052240565419197
1768620448094,-0.1134033203125,0.1243133544921875,-0.9826812744140624,0.009931992739439,0.0072483252733945,0.0009105347562581
1768620448104,-0.1147308349609375,0.12457275390625,-0.982666015625,0.0082970783114433,0.0061774682253599,-0.0026442527305334
1768620448115,-0.1103668212890625,0.123321533203125,-0.98291015625,0.0099503686651587,0.0033236250746995,-0.0069471220485866
1768620448124,-0.1071624755859375,0.1228790283203125,-0.980682373046875,0.0098497010767459,0.0075031900778412,-0.0061918497085571
1768620448134,-0.104583740234375,0.1243133544921875,-0.9803009033203124,0.0143634928390383,0.010643589310348,-0.0004511394945438
1768620448144,-0.105133056640625,0.1214141845703125,-0.9826812744140624,0.0190999247133731,0.0060304617509245,-0.0011720572365447
1768620448155,-0.101226806640625,0.120452880859375,-0.9818878173828124,0.0189659669995307,0.0030437267851084,0.0054951664060354
1768620448165,-0.1013946533203125,0.1223297119140625,-0.9857940673828124,0.0204568058252334,0.002901780186221,0.0096731334924697
1768620448175,-0.1060943603515625,0.1216583251953125,-0.9880828857421876,0.0170303825289011,0.0075442027300596,0.0102811334654688
1768620448185,-0.1077728271484375,0.1206207275390625,-0.984832763671875,0.012557603418827,0.011903797276318,0.0102049671113491
1768620448195,-0.1109161376953125,0.121612548828125,-0.983856201171875,0.0053284526802599,0.014884939417243,0.0097591541707515
1768620448205,-0.1139984130859375,0.125152587890625,-0.9866485595703124,0.0020887171849608,0.0111341439187526,0.0051990230567753
1768620448215,-0.1116180419921875,0.127471923828125,-0.9893646240234376,-0.0015036207623779,0.0049257827922701,0.0020884508267045
1768620448225,-0.10797119140625,0.1333160400390625,-0.988922119140625,-0.0007563377148471,0.0037955371662974,0.0041675809770822
1768620448235,-0.109344482421875,0.1361541748046875,-0.9892578125,0.0006647250265814,0.0029180254787206,0.0051558800041675
1768620448245,-0.109100341796875,0.1285858154296875,-0.98577880859375,-0.0029153623618185,0.0063665527850389,0.0037590519059449
1768620448255,-0.1080169677734375,0.123687744140625,-0.9822845458984376,-0.0065250108018517,0.0052142031490802,0.00248579448089
1768620448265,-0.1058502197265625,0.11248779296875,-0.98480224609375,-0.0125227160751819,0.0023217438720166,-0.0012431635987013
1768620448275,-0.09912109375,0.105438232421875,-0.987396240234375,-0.0172367766499519,-0.00919003598392,0.0047566718421876
1768620448285,-0.09539794921875,0.115020751953125,-0.9905548095703124,-0.0183057710528373,-0.0125959524884819,0.0115469340234994
1768620448295,-0.1049957275390625,0.11712646484375,-0.99017333984375,-0.0107506485655903,-0.0100702112540602,0.0085484804585576
1768620448305,-0.112060546875,0.124969482421875,-0.9871978759765624,-0.0049148639664053,-0.0080842915922403,0.0053758569993078
1768620448315,-0.11328125,0.12884521484375,-0.9848175048828124,-0.0063487095758318,-0.0062365904450416,0.0003627225232776
1768620448327,-0.10577392578125,0.1358795166015625,-0.9826812744140624,-0.0037481328472495,-0.010072873905301,-0.0005462143453769
1768620448335,-0.11126708984375,0.144195556640625,-0.9800262451171876,0.0019976370967924,-0.0038954056799411,-0.0023177489638328
1768620448346,-0.11663818359375,0.1363372802734375,-0.97705078125,0.0015584818320348,0.0037547908723354,-0.0065716160461306
1768620448355,-0.113861083984375,0.124237060546875,-0.9765777587890624,-0.002486593555659,0.0115594509989023,-0.0091705955564975
1768620448365,-0.107574462890625,0.1125946044921875,-0.9739227294921876,-0.0077327545732259,0.0159278344362974,-0.005503156222403
1768620448376,-0.100372314453125,0.1080780029296875,-0.978759765625,-0.0052978261373937,0.0119826272130012,0.0027995149139314
1768620448386,-0.1036834716796875,0.1112213134765625,-0.987396240234375,0.0011875035706907,0.0085530085489153,0.0042053977958858
1768620448396,-0.1112060546875,0.1102142333984375,-0.98846435546875,0.0064714811742305,0.0060919807292521,-0.0037550569977611
1768620448406,-0.10894775390625,0.1116943359375,-0.9882659912109376,0.0086166579276323,0.0059598879888653,-0.0084068002179265
1768620448416,-0.100738525390625,0.1170806884765625,-0.9876861572265624,0.015449795871973,0.0020841897930949,0.0020082897972315
1768620448426,-0.1004638671875,0.123931884765625,-0.987640380859375,0.0270864777266979,-0.0024469124618917,0.0040003340691328
1768620448436,-0.1052398681640625,0.1268463134765625,-0.9863739013671876,0.0283139292150735,-0.0014223942998796,0.0016554208705201
1768620448446,-0.1084747314453125,0.1273345947265625,-0.9814300537109376,0.0274372175335884,0.0065854648128151,0.0046714507043361
1768620448456,-0.112548828125,0.1307220458984375,-0.97998046875,0.0361486822366714,0.0100116217508912,0.0049777142703533
1768620448466,-0.1118011474609375,0.1306304931640625,-0.9814300537109376,0.0368280559778213,0.0140484413132071,0.0045121936127543
1768620448476,-0.11383056640625,0.1267547607421875,-0.98406982421875,0.0389213003218174,0.0129176629707217,-0.0010551444720476
1768620448486,-0.1134033203125,0.1262054443359375,-0.9837799072265624,0.0375732071697711,0.0154141103848814,-0.0016458334866911
1768620448496,-0.1095123291015625,0.12591552734375,-0.984283447265625,0.0338778048753738,0.0156282279640436,-0.0004434163274709
1768620448506,-0.106597900390625,0.121826171875,-0.982269287109375,0.0237652510404586,0.0237985402345657,0.0026471822056919
1768620448516,-0.0991973876953125,0.118896484375,-0.97930908203125,0.0128406975418329,0.0184999145567417,0.0077133132144808
1768620448526,-0.099822998046875,0.1201019287109375,-0.986175537109375,0.0033790187444537,0.0034141724463552,0.0092049501836299
1768620448536,-0.1018218994140625,0.1191558837890625,-0.9924774169921876,-0.00735724857077,-0.0052669337019324,0.00890161562711
1768620448546,-0.100799560546875,0.1195220947265625,-0.9956817626953124,-0.013670272193849,-0.0111314803361892,0.0109988553449511
1768620448556,-0.104095458984375,0.12005615234375,-0.9920196533203124,-0.0163241121917963,-0.0162197165191173,0.0103967143222689
1768620448566,-0.10699462890625,0.118072509765625,-0.988006591796875,-0.0238741729408502,-0.024442758411169,0.007978031411767
1768620448576,-0.1087493896484375,0.119903564453125,-0.989501953125,-0.022359101101756,-0.0251980312168598,0.0104204164817929
1768620448587,-0.108489990234375,0.1238555908203125,-0.98687744140625,-0.0196908805519342,-0.0139826610684394,0.012303271330893
1768620448597,-0.1085968017578125,0.1240386962890625,-0.97967529296875,-0.0205404292792081,-0.0039915456436574,0.0131408357992768
1768620448607,-0.108123779296875,0.122833251953125,-0.97607421875,-0.0182575676590204,0.0008934905636124,0.0153208989650011
1768620448617,-0.1089630126953125,0.1268463134765625,-0.9786529541015624,-0.0141227431595325,0.005976399872452,0.0181121584028005
1768620448627,-0.1153411865234375,0.119903564453125,-0.9818572998046876,-0.0146188903599977,0.0068954564630985,0.0126585373654961
1768620448637,-0.1132965087890625,0.1159820556640625,-0.984832763671875,-0.015238607302308,0.0005374259199015,0.0083436835557222
1768620448647,-0.10699462890625,0.1142578125,-0.9876861572265624,-0.0077924095094203,-0.0100875217467546,0.0058997008018195
1768620448657,-0.10369873046875,0.1114349365234375,-0.98980712890625,-0.0004407531523611,-0.0204400271177291,0.0067343353293836
1768620448667,-0.0996856689453125,0.113983154296875,-0.988922119140625,0.0081929489970207,-0.0229718945920467,0.0093519566580653
1768620448677,-0.1014862060546875,0.11590576171875,-0.986053466796875,0.0159091912209987,-0.0176761988550424,0.0130867734551429
1768620448687,-0.1052093505859375,0.116912841796875,-0.984619140625,0.01353897806257,-0.0068302094005048,0.0136998333036899
1768620448697,-0.1077880859375,0.1206207275390625,-0.981109619140625,0.0081860246136784,-0.0041891522705554,0.0151757569983601
1768620448707,-0.1123809814453125,0.1240081787109375,-0.981109619140625,0.005232844967395,0.0015182681381702,0.0151752242818474
1768620448717,-0.112640380859375,0.1271820068359375,-0.9848480224609376,0.0034384073223918,0.0082645881921052,0.012656140141189
1768620448727,-0.1146240234375,0.1303253173828125,-0.982513427734375,-0.0042655849829316,0.0076805567368865,0.0076331524178385
1768620448737,-0.1132659912109375,0.13037109375,-0.9832916259765624,-0.010351707227528,0.0057803909294307,0.0041390848346054
1768620448747,-0.10980224609375,0.1314544677734375,-0.98406982421875,-0.0138905150815844,-0.0011749867117032,-0.0035973980557173
1768620448757,-0.10394287109375,0.1248626708984375,-0.9865875244140624,-0.0211545545607805,-0.0041761030443012,-0.0013688647886738
1768620448767,-0.0967559814453125,0.12677001953125,-0.9904022216796876,-0.0284542776644229,-0.0124066025018692,0.0036165728233754
1768620448777,-0.1019439697265625,0.1247711181640625,-0.9915771484375,-0.0329683348536491,-0.0158950760960578,0.0027118970174342
1768620448787,-0.109649658203125,0.126800537109375,-0.9909515380859376,-0.0345862060785293,-0.0181662198156118,0.0009954896522685
1768620448798,-0.1156005859375,0.1291046142578125,-0.9906005859375,-0.0364251174032688,-0.0162356942892074,-0.004808603785932
1768620448807,-0.1128997802734375,0.12738037109375,-0.9889984130859376,-0.0365657359361648,-0.0088954903185367,-0.0053894389420747
1768620448818,-0.10992431640625,0.129425048828125,-0.984649658203125,-0.0287605412304401,-0.0056901099160313,-0.0073961308225989
1768620448828,-0.1133575439453125,0.127166748046875,-0.9803466796875,-0.0246632676571607,0.0027537085115909,-0.0042924829758703
1768620448838,-0.11663818359375,0.121246337890625,-0.977142333984375,-0.024582041427493,0.01003132853657,-0.0043364251032471
1768620448848,-0.112548828125,0.11767578125,-0.978363037109375,-0.018526280298829,0.0165315717458724,-0.004350806120783
1768620448858,-0.1106414794921875,0.116119384765625,-0.9772796630859376,-0.008970059454441,0.0176128149032592,-0.0019393138354644
1768620448868,-0.109588623046875,0.1166839599609375,-0.9817962646484376,0.0075649754144251,0.010856376029551,-0.0093644736334681
1768620448878,-0.10302734375,0.110626220703125,-0.98468017578125,0.0185361336916685,0.0131064811721444,-0.0093935020267963
1768620448888,-0.0929412841796875,0.117889404296875,-0.9861602783203124,0.0308242253959178,0.0146098351106047,-3.2490566809428856e-05
1768620448898,-0.1006011962890625,0.129180908203125,-0.9851226806640624,0.0411801934242248,0.0183558370918035,0.0024407871533185
1768620448908,-0.1090545654296875,0.13043212890625,-0.983245849609375,0.0410401113331317,0.016334231942892,-0.0065657570958137
1768620448918,-0.11236572265625,0.1265869140625,-0.9810028076171876,0.0295083578675985,0.0238589942455291,-0.0130644030869007
1768620448928,-0.1057586669921875,0.1285247802734375,-0.975189208984375,0.0188748873770236,0.0211715977638959,-0.0108590396121144
1768620448938,-0.1064605712890625,0.1279296875,-0.9860076904296876,0.0102273374795913,0.0130750555545091,-0.0116241658106446
1768620448948,-0.109649658203125,0.119384765625,-0.9868927001953124,-0.0007337008719332,0.0161257069557905,-0.0125083345919847
1768620448958,-0.10919189453125,0.1114959716796875,-0.9850921630859376,-0.0101269362494349,0.0152242267504334,-0.0084187844768166
1768620448968,-0.1114349365234375,0.113128662109375,-0.992401123046875,-0.0172559525817632,0.0065843993797898,-0.0095623461529612
1768620448978,-0.1118011474609375,0.115234375,-0.99700927734375,-0.0260595642030239,0.0002527339966036,-0.007570834364742
1768620448988,-0.1085662841796875,0.1204376220703125,-0.994293212890625,-0.0309957321733236,-0.0041537322103977,-0.0072062476538121
1768620448998,-0.105224609375,0.121551513671875,-0.9897918701171876,-0.0375002361834049,-0.0100763365626335,-0.0073908045887947
1768620449008,-0.096954345703125,0.124755859375,-0.9864959716796876,-0.0427029877901077,-0.0115983327850699,0.0029782131314277
1768620449019,-0.097015380859375,0.1319580078125,-0.9841156005859376,-0.0409524925053119,-0.0164495464414358,0.0092630069702863
1768620449029,-0.106658935546875,0.1310577392578125,-0.9827728271484376,-0.0441727861762046,-0.0205548088997602,0.008166316896677
1768620449039,-0.1129150390625,0.1250762939453125,-0.9831085205078124,-0.0417583659291267,-0.011208445765078,0.012508600950241
1768620449049,-0.1118621826171875,0.1241912841796875,-0.9830322265625,-0.0328831151127815,-0.004195543937385,0.0182988457381725
1768620449059,-0.115325927734375,0.122894287109375,-0.982513427734375,-0.0259272046387195,0.0025334651581943,0.0192884765565395
1768620449069,-0.1174163818359375,0.1183319091796875,-0.9793243408203124,-0.0228664334863424,0.0087740505114197,0.0228477921336889
1768620449079,-0.1186676025390625,0.1192779541015625,-0.978363037109375,-0.017822939902544,0.0073849456384778,0.0195723697543144
1768620449089,-0.116302490234375,0.11907958984375,-0.982147216796875,-0.0159004032611846,0.002331863855943,0.015461248345673
1768620449099,-0.1146697998046875,0.1206817626953125,-0.98907470703125,-0.0089996205642819,0.0006988134700804,0.010523747652769
1768620449109,-0.1100311279296875,0.122039794921875,-0.988494873046875,-0.0010290454374626,0.001054611755535,0.0077362167648971
1768620449119,-0.097869873046875,0.120086669921875,-0.9876861572265624,0.0030860709957778,-0.0126279108226299,0.0008705873624421
1768620449129,-0.099578857421875,0.114501953125,-0.9844818115234376,0.0047374973073601,-0.0093421023339033,-0.0015947008505463
1768620449139,-0.090118408203125,0.1233367919921875,-0.9845733642578124,0.0065766763873398,-0.0123520074412226,0.0030605047941207
1768620449149,-0.0918121337890625,0.1280975341796875,-0.9845123291015624,0.00930508505553,-0.014167483896017,0.0033561156596988
1768620449161,-0.102264404296875,0.1341094970703125,-0.981231689453125,0.0135357826948165,-0.0008772452711127,0.0007997472421266
1768620449169,-0.1108856201171875,0.1372528076171875,-0.977325439453125,0.0145472511649131,0.0059415125288069,-0.005070658866316
1768620449179,-0.1162872314453125,0.1353302001953125,-0.975616455078125,0.0095812547951936,0.0115522602573037,-0.0137698743492364
1768620449189,-0.1173553466796875,0.1283721923828125,-0.975433349609375,0.0069220880977809,0.0185987185686826,-0.022863769903779
1768620449199,-0.114013671875,0.1254425048828125,-0.9749908447265624,0.0063878581859171,0.0230248924344778,-0.0261983145028352
1768620449209,-0.110870361328125,0.1168365478515625,-0.9785614013671876,0.0023249397054314,0.0245034787803888,-0.0284795779734849
1768620449219,-0.105682373046875,0.112945556640625,-0.9818572998046876,-0.003877029987052,0.0123445503413677,-0.0312527269124984
1768620449230,-0.100677490234375,0.11669921875,-0.9883270263671876,-0.006711698602885,0.0047854343429207,-0.032014925032854
1768620449239,-0.1018218994140625,0.1153106689453125,-0.9929656982421876,-0.0099711418151855,0.0019843212794512,-0.0343779474496841
1768620449250,-0.101104736328125,0.1202239990234375,-0.9927978515625,-0.0077157104387879,0.0018447716720402,-0.0287062134593725
1768620449260,-0.0989837646484375,0.12744140625,-0.990020751953125,-0.0121336281299591,-0.0025012409314513,-0.0171049516648054
1768620449270,-0.10577392578125,0.1395263671875,-0.986297607421875,-0.012811935506761,-0.0047327033244073,-0.0158221069723367
1768620449280,-0.119476318359375,0.13916015625,-0.98223876953125,-0.0150468600913882,0.0017856494523584,-0.0221361946314573
1768620449290,-0.1270904541015625,0.1300506591796875,-0.980865478515625,-0.0227716248482465,0.0137200728058815,-0.0295991711318492
1768620449300,-0.124420166015625,0.1180877685546875,-0.9784088134765624,-0.0348527878522872,0.0198948793113231,-0.0353063270449638
1768620449310,-0.111724853515625,0.11273193359375,-0.984100341796875,-0.0397910885512828,0.0178426466882228,-0.0279389563947916
1768620449320,-0.1009368896484375,0.11572265625,-0.986541748046875,-0.034693531692028,0.0105128278955817,-0.0179097577929496
1768620449330,-0.099365234375,0.1171722412109375,-0.990386962890625,-0.0256813950836658,0.0041313618421554,-0.0084579335525631
1768620449340,-0.1032257080078125,0.1188812255859375,-0.9894256591796876,-0.0147951915860176,0.0049881008453667,0.0028019116725772
1768620449350,-0.1050872802734375,0.1184539794921875,-0.9875640869140624,-0.0012351741315796,0.0032517197541892,0.0105426553636789
1768620449360,-0.1085968017578125,0.1142120361328125,-0.984161376953125,0.0093807186931371,0.0060395165346562,0.0124689200893044
1768620449370,-0.1135711669921875,0.1146240234375,-0.9834442138671876,0.0187414642423391,0.0058746668510138,0.0088566085323691
1768620449380,-0.1123504638671875,0.1185150146484375,-0.9857330322265624,0.0256797969341278,0.0051348409615457,0.0068709556944668
1768620449390,-0.109832763671875,0.1248321533203125,-0.9876556396484376,0.0286889020353555,0.0071439296007156,0.0028349349740892
1768620449400,-0.106109619140625,0.1297454833984375,-0.98486328125,0.0283014122396707,0.0121525367721915,-0.0014245248166844
1768620449410,-0.1025390625,0.135406494140625,-0.9825286865234376,0.0199508052319288,0.0104063022881746,-8.708536915946752e-05
1768620449421,-0.1028594970703125,0.137237548828125,-0.98358154296875,0.012304869480431,0.0061457767151296,-0.0001259675191249
1768620449430,-0.1098175048828125,0.1345367431640625,-0.9859771728515624,0.0040999366901814,0.0009656621841713,-0.0030929953791201
1768620449440,-0.1136322021484375,0.1299591064453125,-0.9840545654296876,-0.0081958780065178,0.0004404868523124,-0.0066086342558264
1768620449451,-0.11029052734375,0.1268157958984375,-0.9848480224609376,-0.0152897406369447,0.0025467809755355,-0.0053817159496247
1768620449461,-0.110809326171875,0.1240997314453125,-0.9834442138671876,-0.0211295206099748,0.00457957200706,-0.0062741413712501
1768620449471,-0.110687255859375,0.1232757568359375,-0.9823455810546876,-0.0310708340257406,-0.0011121360585093,-0.0112001905217766
1768620449481,-0.107452392578125,0.1194610595703125,-0.9826812744140624,-0.0368680022656917,-0.0055311191827058,-0.013652428984642
1768620449491,-0.0967864990234375,0.1204376220703125,-0.9821014404296876,-0.0429085865616798,-0.0035931370221078,-0.0036796897184103
1768620449501,-0.0920562744140625,0.129913330078125,-0.984130859375,-0.0395026691257953,-0.0031529164407402,0.0111722266301512
1768620449511,-0.0986785888671875,0.1291046142578125,-0.984649658203125,-0.038187600672245,-0.0058626825921237,0.0160237066447734
1768620449521,-0.113037109375,0.1268157958984375,-0.983795166015625,-0.0351606495678424,-0.0076991985552012,0.0102744754403829
1768620449531,-0.1206512451171875,0.1208648681640625,-0.9826812744140624,-0.0366285853087902,-0.0100481063127517,0.0005720470217056
1768620449541,-0.11419677734375,0.1170806884765625,-0.9830322265625,-0.0337158851325511,-0.0114222979173064,-0.0014128069160506
1768620449551,-0.106964111328125,0.1240997314453125,-0.989471435546875,-0.0301174223423004,-0.0052434979006648,0.0035281558521091
1768620449561,-0.1053314208984375,0.130279541015625,-0.9907073974609376,-0.0248440969735384,-0.0035593148786574,0.0093921702355146
1768620449571,-0.1085052490234375,0.1295318603515625,-0.9878997802734376,-0.027998611330986,-0.0028969866689294,0.0097269294783473
1768620449581,-0.111785888671875,0.126800537109375,-0.9825439453125,-0.026903785765171,-0.0018722022650763,0.0073263561353087
1768620449591,-0.11181640625,0.125457763671875,-0.980255126953125,-0.0255823247134685,-0.00586294895038,0.0071476581506431
1768620449601,-0.1134490966796875,0.127838134765625,-0.980316162109375,-0.016898289322853,-0.0011270497925579,0.0039276299066841
1768620449611,-0.1180419921875,0.12493896484375,-0.9800262451171876,-0.0070344735868275,0.0024277376942336,-0.0045071337372064
1768620449621,-0.116180419921875,0.1197509765625,-0.9808349609375,-0.0007206514128483,0.0031209585722535,-0.0110145676881074
1768620449631,-0.1072998046875,0.11956787109375,-0.9840087890625,0.006990797817707,0.0057673417031764,-0.0048291101120412
1768620449641,-0.0985107421875,0.122802734375,-0.9840545654296876,0.0134047549217939,0.0016362462192773,0.002967826789245
1768620449651,-0.1002960205078125,0.1240386962890625,-0.9859161376953124,0.0135682728141546,-0.0038203045260161,0.0041332258842885
1768620449661,-0.10614013671875,0.1257781982421875,-0.986358642578125,0.0075876121409237,-0.0042280345223844,-0.0017539578257128
1768620449672,-0.1069793701171875,0.12591552734375,-0.984893798828125,-0.002855174941942,-0.0009560748003423,-0.0001595233479747
1768620449682,-0.1070556640625,0.1308441162109375,-0.984527587890625,-0.008274707943201,0.007522630970925,-0.0016690030461177
1768620449692,-0.1116180419921875,0.13555908203125,-0.9823760986328124,-0.0162862949073314,0.0106957871466875,-0.005086104851216
1768620449702,-0.1162109375,0.141387939453125,-0.9817047119140624,-0.0220080967992544,0.0103927198797464,-0.0097658112645149
1768620449712,-0.12213134765625,0.1395416259765625,-0.98223876953125,-0.0245647318661212,0.0151461958885192,-0.0182274729013443
1768620449722,-0.1221160888671875,0.132843017578125,-0.980133056640625,-0.0267929974943399,0.016113456338644,-0.0289980955421924
1768620449732,-0.11529541015625,0.126251220703125,-0.983306884765625,-0.0270707663148641,0.0072246235795319,-0.0333401151001453
1768620449742,-0.104705810546875,0.119171142578125,-0.989166259765625,-0.0293783955276012,-0.0023031015880405,-0.0300945192575454
1768620449752,-0.0959014892578125,0.120208740234375,-0.991607666015625,-0.0224677585065364,-0.0090377032756805,-0.0226278137415647
1768620449762,-0.0902557373046875,0.119964599609375,-0.9911041259765624,-0.0215151458978652,-0.0135304564610123,-0.0121506722643971
1768620449772,-0.0936431884765625,0.1237335205078125,-0.9878082275390624,-0.0224062390625476,-0.0170175991952419,-0.0050418963655829
1768620449782,-0.1041107177734375,0.129852294921875,-0.9842376708984376,-0.0241788402199745,-0.012679842300713,0.0015771239995956
1768620449792,-0.1139373779296875,0.1297454833984375,-0.9813995361328124,-0.0270782224833965,-0.0050778491422533,-0.0022157500497996
1768620449802,-0.1224212646484375,0.127471923828125,-0.9770355224609376,-0.031700138002634,0.0038727687206119,-0.0061500379815697
1768620449812,-0.122894287109375,0.1259613037109375,-0.9787139892578124,-0.0342818088829517,0.0060075586661696,-0.0087322387844324
1768620449822,-0.11822509765625,0.129180908203125,-0.9820556640625,-0.0339393243193626,0.0067982510663568,-0.0092102764174342
1768620449832,-0.1170806884765625,0.128753662109375,-0.9849395751953124,-0.0331265293061733,0.0062171495519578,-0.0089098718017339
1768620449842,-0.1111297607421875,0.12921142578125,-0.9848785400390624,-0.031599473208189,0.002934803487733,-0.0056802560575306
1768620449852,-0.1076507568359375,0.1283416748046875,-0.98529052734375,-0.0289024878293275,-0.0011504855938255,-0.0036341496743261
1768620449862,-0.1010894775390625,0.127044677734375,-0.9875335693359376,-0.0259309336543083,-0.0087873665615916,0.0031212246976792
1768620449872,-0.0976409912109375,0.1279144287109375,-0.987884521484375,-0.0194727666676044,-0.0126904947683215,0.0072818812914192
1768620449883,-0.0996246337890625,0.127593994140625,-0.98480224609375,-0.0142793366685509,-0.0137629499658942,0.0085356971248984
1768620449893,-0.1063385009765625,0.1271820068359375,-0.9832916259765624,-0.0092965625226497,-0.011272095143795,0.0079311598092317
1768620449902,-0.110626220703125,0.12725830078125,-0.9813690185546876,-0.0056392434053123,0.0037470676470547,0.0080494042485952
1768620449913,-0.113494873046875,0.1285552978515625,-0.975830078125,-0.0045185852795839,0.0151469949632883,0.0065111625008285
1768620449923,-0.115875244140625,0.1273651123046875,-0.9735870361328124,-0.0115501293912529,0.0163970831781625,0.0052229915745556
1768620449933,-0.1140289306640625,0.12713623046875,-0.9759674072265624,-0.0154117131605744,0.0180234760046005,0.0056435046717524
1768620449943,-0.1112060546875,0.128753662109375,-0.97930908203125,-0.0190890058875083,0.0133823845535516,0.0041579934768378
1768620449953,-0.1108551025390625,0.1278533935546875,-0.9831390380859376,-0.0217572264373302,0.010038785636425,0.0047995490022003
1768620449963,-0.1104736328125,0.1294097900390625,-0.98828125,-0.0163004100322723,0.0033057818654924,0.0012996225850656
1768620449973,-0.10992431640625,0.1319122314453125,-0.987457275390625,-0.011673167347908,-0.0058946409262716,-0.0070038475096225
1768620449983,-0.10528564453125,0.1289825439453125,-0.9873809814453124,-0.0054568168707191,-0.011782357469201,-0.0106465192511677
1768620449993,-0.1015472412109375,0.1312255859375,-0.986541748046875,0.0038892803713679,-0.0112055167555809,-0.0090052131563425
1768620450003,-0.1044769287109375,0.133148193359375,-0.98419189453125,0.0043739755637943,-0.0077311564236879,-0.0053891725838184
1768620450013,-0.10565185546875,0.13446044921875,-0.9811248779296876,0.0005592638044618,0.0004894890007562,0.0005286374944262
1768620450023,-0.10400390625,0.1327056884765625,-0.9762115478515624,-0.0050778491422533,0.0129863722249865,0.0079521993175148
1768620450033,-0.1044158935546875,0.1323089599609375,-0.97821044921875,-0.007651527877897,0.0090171974152326,0.0117647806182503
1768620450043,-0.1090850830078125,0.1329803466796875,-0.9841156005859376,-0.0105999140068888,0.0055215316824615,0.0128537472337484
1768620450053,-0.11578369140625,0.132293701171875,-0.9849853515625,-0.0063979779370129,0.0060411146841943,0.0097857853397727
1768620450063,-0.1182403564453125,0.134185791015625,-0.9847869873046876,-0.0040959417819976,0.0036988644860684,0.0059705409221351
1768620450073,-0.1198577880859375,0.1375732421875,-0.987030029296875,0.0009038768475875,-0.0007339671719819,0.0014998923288658
1768620450083,-0.1201171875,0.1342010498046875,-0.9849700927734376,0.0022663499694317,0.0004013383586425,-0.0013092099688947
1768620450093,-0.1168670654296875,0.1255340576171875,-0.9831390380859376,-0.001153415068984,-0.0016271914355456,-0.0094470316544175
1768620450104,-0.1034698486328125,0.122833251953125,-0.987152099609375,-0.0056032910943031,-0.0065681543201208,-0.0024237427860498
1768620450114,-0.09332275390625,0.1265106201171875,-0.9922637939453124,-0.0047217844985425,-0.0092861764132976,0.0056307213380932
1768620450124,-0.09442138671875,0.12445068359375,-0.9875946044921876,-0.0094643421471118,-0.0133754601702094,0.0107623664662241
1768620450134,-0.105194091796875,0.12042236328125,-0.9828338623046876,-0.0162412878125906,-0.0153664397075772,0.011037204414606
1768620450144,-0.1092987060546875,0.1303253173828125,-0.98321533203125,-0.0176604855805635,-0.0139357894659042,0.0118079232051968
1768620450154,-0.1143951416015625,0.144500732421875,-0.980438232421875,-0.0174061544239521,-0.0169238559901714,0.0093671362847089
1768620450164,-0.1215972900390625,0.1540069580078125,-0.98089599609375,-0.0146332709118723,-0.0170916356146335,-0.0046416232362389
1768620450174,-0.126373291015625,0.14471435546875,-0.9782562255859376,-0.0215934421867132,-0.007146060001105,-0.0174399763345718
1768620450184,-0.1123046875,0.1361541748046875,-0.9760284423828124,-0.0290369782596826,0.0046818372793495,-0.0150244897231459
1768620450194,-0.10382080078125,0.1312408447265625,-0.9776458740234376,-0.0317251719534397,0.0049763829447329,-0.008322911337018
1768620450204,-0.104644775390625,0.1229248046875,-0.9785003662109376,-0.0377827994525432,0.0039382823742926,-0.00243785767816
1768620450214,-0.1063079833984375,0.1228790283203125,-0.982696533203125,-0.0349175035953521,0.0006255765329115,0.0022527680266648
1768620450224,-0.1085968017578125,0.121978759765625,-0.98431396484375,-0.028137095272541,0.0051873051561415,0.0074214311316609
1768620450234,-0.1116180419921875,0.1220703125,-0.98193359375,-0.0194149762392044,0.0103724794462323,0.0069516492076218
1768620450244,-0.11419677734375,0.1251220703125,-0.9813690185546876,-0.0068951901048421,0.0085077341645956,0.005321794655174
1768620450254,-0.112457275390625,0.1251678466796875,-0.9801483154296876,0.0011004181578755,0.0170903038233518,0.006098638754338
1768620450264,-0.105926513671875,0.1302032470703125,-0.98089599609375,0.0121538685634732,0.0186618342995643,0.0070334081538021
1768620450274,-0.1091766357421875,0.13623046875,-0.9839324951171876,0.0229689646512269,0.0147533798590302,-0.0017821873771026
1768620450284,-0.1124267578125,0.133026123046875,-0.9857330322265624,0.0242986809462308,0.0086922915652394,-0.011419634334743
1768620450294,-0.104766845703125,0.1380462646484375,-0.9898681640625,0.0280028730630874,0.0086819054558873,-0.0121128559112548
1768620450304,-0.10247802734375,0.1439666748046875,-0.98895263671875,0.0274883490055799,0.0082704471424222,-0.0125200524926185
1768620450315,-0.1062774658203125,0.1421966552734375,-0.985198974609375,0.0193638447672128,0.0040538636967539,-0.0187688935548067
1768620450324,-0.1132965087890625,0.139312744140625,-0.9814453125,0.011926700361073,0.0026394589804112,-0.0230624414980411
1768620450335,-0.114501953125,0.134002685546875,-0.9800567626953124,0.0061505706980824,0.0055721318349242,-0.0260521061718463
1768620450345,-0.112640380859375,0.1323394775390625,-0.978851318359375,0.0035867453552782,0.0068701566196978,-0.0219633560627698
1768620450355,-0.114166259765625,0.1296234130859375,-0.9785614013671876,0.0036352148745208,0.0047295079566538,-0.0228725597262382
1768620450365,-0.1093902587890625,0.1231231689453125,-0.9764251708984376,-0.0017006946727633,0.0060301953926682,-0.0182988457381725
1768620450375,-0.097381591796875,0.124664306640625,-0.9788360595703124,-0.0034772893413901,0.0089442264288663,-0.0078171771019697
1768620450385,-0.095733642578125,0.1287994384765625,-0.978118896484375,-0.0001275654212804,0.0100853908807039,0.0021156151778995
1768620450395,-0.1028289794921875,0.1265716552734375,-0.9788818359375,-0.0061098239384591,0.0028248149901628,0.0015235944883897
1768620450405,-0.1112823486328125,0.126617431640625,-0.985137939453125,-0.0089154643937945,0.0003472761891316,0.0019877834711223
1768620450415,-0.1115570068359375,0.126556396484375,-0.985504150390625,-0.0045015411451458,0.0081135863438248,0.0030730215366929
1768620450425,-0.1114959716796875,0.1278228759765625,-0.9822845458984376,-0.0041457428596913,0.0093247918412089,0.0102443816140294
1768620450435,-0.1160125732421875,0.1295318603515625,-0.9816436767578124,-0.0043393545784056,0.0071026505902409,0.0058584217913448
1768620450445,-0.1203155517578125,0.129150390625,-0.9799346923828124,-0.0073545854538679,0.0034900726750493,-0.0019249328179284
1768620450455,-0.1147308349609375,0.1300201416015625,-0.983551025390625,-0.0078259650617837,0.0018929748330265,-0.0001296959380852
1768620450465,-0.1061859130859375,0.1331024169921875,-0.98760986328125,-0.0050568100996315,0.0019089538836851,0.0075971996411681
1768620450475,-0.1065521240234375,0.133026123046875,-0.986480712890625,-0.004097273107618,-0.0046341666020452,0.006351372692734
1768620450485,-0.112060546875,0.1273193359375,-0.986053466796875,-0.0085074678063392,-0.0107037769630551,-3.6751622246811166e-05
1768620450495,-0.1087188720703125,0.1248626708984375,-0.98828125,-0.0068808090873062,-0.0116939404979348,-0.0004253068182151
1768620450505,-0.1052093505859375,0.130279541015625,-0.987640380859375,-0.0066083678975701,-0.0065969163551926,0.0043934169225394
1768620450515,-0.106201171875,0.1330108642578125,-0.9839019775390624,-0.008088020607829,-0.0065817362628877,0.0095402421429753
1768620450525,-0.110504150390625,0.135467529296875,-0.9805450439453124,-0.012874785810709,0.0011281149927526,0.0116444053128361
1768620450535,-0.114410400390625,0.1352691650390625,-0.97906494140625,-0.0136316558346152,0.0043060649186372,0.0130588104948401
1768620450546,-0.1150360107421875,0.1332550048828125,-0.9829864501953124,-0.011740013025701,0.002085521351546,0.0085159903392195
1768620450556,-0.113800048828125,0.1325531005859375,-0.9835968017578124,-0.0112081794068217,0.0030740867368876,0.0039316248148679
1768620450566,-0.1091156005859375,0.133819580078125,-0.9833831787109376,-0.0096688726916909,0.0005704491049982,-0.0004511394945438
1768620450576,-0.1101226806640625,0.1363983154296875,-0.984588623046875,-0.0062381885945796,0.0005392901366576,-0.0085988147184252
1768620450586,-0.1106414794921875,0.138946533203125,-0.985107421875,-0.0003262372338213,0.0002761697978712,-0.0197622533887624
1768620450596,-0.109893798828125,0.1375885009765625,-0.98553466796875,0.0061353906057775,-0.0014948323369026,-0.0221061017364263
1768620450606,-0.107818603515625,0.137237548828125,-0.986114501953125,0.0123141901567578,0.0020700751338154,-0.0278398860245943
1768620450616,-0.105499267578125,0.1339569091796875,-0.9835357666015624,0.0165792424231767,0.004187820944935,-0.0277163162827491
1768620450626,-0.1049652099609375,0.1332550048828125,-0.9847869873046876,0.019201124086976,0.0044730454683303,-0.0234725698828697
1768620450636,-0.10699462890625,0.1325225830078125,-0.981903076171875,0.016457537189126,0.0077796261757612,-0.021556157618761
1768620450646,-0.1082305908203125,0.1292724609375,-0.9796295166015624,0.011387943290174,0.0117136472836136,-0.0185995176434516
1768620450656,-0.1102142333984375,0.13092041015625,-0.9762115478515624,0.005192897748202,0.0195183083415031,-0.0150604424998164
1768620450666,-0.1141815185546875,0.1318817138671875,-0.9765167236328124,0.0009704558760859,0.0208072774112224,-0.0152908051386475
1768620450676,-0.1182098388671875,0.13092041015625,-0.9813385009765624,-0.0027973842807114,0.019061841070652,-0.0152412708848714
1768620450686,-0.1166839599609375,0.1299896240234375,-0.983978271484375,-0.0028336034156382,0.0192224308848381,-0.0117224361747503
1768620450696,-0.114593505859375,0.1285247802734375,-0.9852142333984376,-0.0033276197500526,0.0179015025496482,-0.0076595176942646
1768620450706,-0.111480712890625,0.1287689208984375,-0.987030029296875,-0.0065471152774989,0.010113620199263,-0.005576126743108
1768620450716,-0.1089630126953125,0.1250457763671875,-0.9868011474609376,-0.0103607615455985,-0.0012559468159452,-0.0044663874432444
1768620450726,-0.1026458740234375,0.1271820068359375,-0.9904937744140624,-0.0149485897272825,-0.0096022933721542,-0.0004804342461284
1768620450736,-0.1015777587890625,0.130462646484375,-0.988983154296875,-0.0164764449000358,-0.0164138600230216,0.0016383767360821
1768620450746,-0.1025390625,0.129638671875,-0.9837799072265624,-0.0224294085055589,-0.0124737136065959,0.0057817227207124
1768620450756,-0.1069793701171875,0.134552001953125,-0.9812164306640624,-0.0264835394918918,-0.0102845951914787,0.0071380706503987
1768620450767,-0.1121368408203125,0.1317138671875,-0.976806640625,-0.0312226340174675,-0.0046325684525072,0.0069828084670007
1768620450777,-0.1144561767578125,0.1315460205078125,-0.9777679443359376,-0.0278132557868957,0.0036916739773005,0.0093506248667836
1768620450787,-0.112884521484375,0.1326751708984375,-0.9816131591796876,-0.01755316182971,0.0091719264164567,0.0124723818153142
1768620450797,-0.11566162109375,0.129608154296875,-0.9816436767578124,-0.0065077003091573,0.01329290214926,0.0125677231699228
1768620450807,-0.111602783203125,0.12335205078125,-0.9801025390625,0.0002695118892006,0.0112830149009823,0.0132878422737121
1768620450817,-0.1095733642578125,0.1244354248046875,-0.98089599609375,0.0089106708765029,0.0075966669246554,0.0163643267005682
1768620450827,-0.110565185546875,0.125457763671875,-0.9843597412109376,0.0141688156872987,0.0037936728913336,0.0158665813505649
1768620450837,-0.1115570068359375,0.126007080078125,-0.98419189453125,0.0146242165938019,0.0011028150329366,0.0113386744633317
1768620450847,-0.11187744140625,0.1290283203125,-0.9821929931640624,0.0122231105342507,-0.0015222628135234,0.0086169242858886
1768620450857,-0.1096954345703125,0.134124755859375,-0.980224609375,0.0129948947578668,-0.0004892227007076,0.0056363139301538
1768620450867,-0.1094512939453125,0.1375274658203125,-0.978057861328125,0.0117983361706137,0.0055236625485122,0.0033393376506865
1768620450877,-0.1114501953125,0.1383056640625,-0.9744415283203124,0.0083620594814419,0.0103525063022971,0.001055677072145
1768620450887,-0.1107635498046875,0.1349945068359375,-0.97467041015625,0.0098888492211699,0.0203699860721826,0.002649845322594
1768620450897,-0.1079864501953125,0.1321563720703125,-0.9772186279296876,0.0121187148615717,0.0243908278644084,0.0065716160461306
1768620450907,-0.107177734375,0.1283416748046875,-0.9846038818359376,0.0176021624356508,0.013188506476581,0.0033625070936977
1768620450917,-0.1044158935546875,0.1260528564453125,-0.9893341064453124,0.0192884765565395,0.0075833513401448,0.0065348646603524
1768620450927,-0.100738525390625,0.1327056884765625,-0.994232177734375,0.0300780069082975,-0.0021041636355221,0.0093285208567976
1768620450937,-0.1077728271484375,0.1359710693359375,-0.9933624267578124,0.0329781882464885,-0.0042887544259428,0.0049862363375723
1768620450947,-0.1159210205078125,0.134979248046875,-0.9854278564453124,0.0291206017136573,-0.0046522761695086,-0.0012207929976284
1768620450957,-0.1162567138671875,0.1298980712890625,-0.9810333251953124,0.0260806027799844,-0.002911101328209,-0.0028394623659551
1768620450967,-0.1122283935546875,0.1280517578125,-0.9818267822265624,0.0224877316504716,0.0021190773695707,-0.0031675638165324
1768620450977,-0.1097259521484375,0.117279052734375,-0.980743408203125,0.0135304564610123,0.0080664483830332,-0.0007667240570299
1768620450987,-0.104461669921875,0.1163330078125,-0.9806976318359376,0.0057865162380039,0.009196694009006,0.0090470248833298
1768620450998,-0.10577392578125,0.11968994140625,-0.981536865234375,-0.002968359272927,0.0107660945504903,0.0126271117478609
1768620451008,-0.109405517578125,0.124176025390625,-0.9851531982421876,-0.0042474754154682,0.0091887041926383,0.0134468330070376
1768620451018,-0.11029052734375,0.1372833251953125,-0.986968994140625,-0.0035902075469493,0.0047635962255299,0.0089719230309128
1768620451028,-0.113128662109375,0.1427154541015625,-0.9870452880859376,-0.0021046961192041,-3.1957933970261365e-06,-0.0005057342932559
1768620451038,-0.11273193359375,0.1419525146484375,-0.9846343994140624,-0.0058264639228582,-0.0013491574209183,-0.0051678642630577
1768620451048,-0.110107421875,0.1342926025390625,-0.98101806640625,-0.0051377704367041,0.0020485036075115,-0.0114249605685472
1768620451058,-0.103515625,0.12628173828125,-0.9808349609375,-0.0054714642465114,0.0036245621740818,-0.0103711485862731
1768620451068,-0.099395751953125,0.115631103515625,-0.9803924560546876,-0.0079458076506853,0.0075423386879265,-0.002919090911746
1768620451078,-0.098876953125,0.1150360107421875,-0.9799346923828124,-0.0093245254829525,0.0089721893891692,0.0053944992832839
1768620451088,-0.1049346923828125,0.115936279296875,-0.9809722900390624,-0.0052240565419197,0.0144804054871201,0.0092611424624919
1768620451098,-0.109283447265625,0.1154327392578125,-0.9828948974609376,-0.0046011433005332,0.0200695823878049,0.011052917689085
1768620451108,-0.10986328125,0.1173858642578125,-0.9846954345703124,-0.005895173177123,0.0228845439851284,0.0126513466238975
1768620451118,-0.1121978759765625,0.124786376953125,-0.9866790771484376,-0.0044211135245859,0.0231314189732074,0.0144340666010975
1768620451128,-0.1130828857421875,0.1274566650390625,-0.9847869873046876,0.0012908341595903,0.0284958239644765,0.0116678411141037
1768620451138,-0.114471435546875,0.1330413818359375,-0.985595703125,0.0074722971767187,0.0254270620644092,0.010104832239449
1768620451148,-0.11541748046875,0.135223388671875,-0.9882049560546876,0.0188336092978715,0.0174817889928817,-1.864212754298933e-05
1768620451158,-0.110687255859375,0.13543701171875,-0.99127197265625,0.0278193801641464,0.0121024688705801,-0.0031707596499472
1768620451168,-0.1049346923828125,0.1350555419921875,-0.9875946044921876,0.0348786227405071,0.0087596690282225,-0.0042030005715787
1768620451178,-0.09844970703125,0.133209228515625,-0.9836578369140624,0.0381311401724815,0.0136843863874673,-0.0056877131573855
1768620451189,-0.0970611572265625,0.13037109375,-0.980865478515625,0.0294782631099224,0.0194240324199199,-0.0034946000669151
1768620451199,-0.09893798828125,0.127105712890625,-0.97796630859375,0.0171776544302701,0.0189534518867731,-0.0057841194793581
1768620451209,-0.1047821044921875,0.1283111572265625,-0.9833221435546876,0.0106270778924226,0.0112396050244569,-0.006835535634309
1768620451219,-0.1093902587890625,0.1262359619140625,-0.98779296875,0.0050237872637808,0.0094997622072696,-0.009819340892136
1768620451229,-0.1084136962890625,0.1271514892578125,-0.988922119140625,-0.0043044672347605,-0.0041643851436674,-0.0119061945006251
1768620451239,-0.1104736328125,0.126708984375,-0.99114990234375,-0.0116361500695347,-0.012825783342123,-0.0112696988508105
1768620451249,-0.110443115234375,0.128997802734375,-0.990997314453125,-0.0139184789732098,-0.0135903768241405,-0.0076784258708357
1768620451259,-0.1099090576171875,0.1273040771484375,-0.985565185546875,-0.0180029682815074,-0.0104076331481337,-0.0050056776963174
1768620451269,-0.113861083984375,0.125244140625,-0.9788055419921876,-0.0218336600810289,-0.0142553681507706,-0.0098214717581868
1768620451279,-0.107147216796875,0.12078857421875,-0.97686767578125,-0.0258936490863561,-0.0057476344518363,-0.00585522595793
1768620451289,-0.0965576171875,0.12347412109375,-0.9782562255859376,-0.0256465077400207,-0.000713194545824,0.0032112395856529
1768620451299,-0.0948944091796875,0.1237640380859375,-0.9805908203125,-0.0246225222945213,-0.0041936798952519,0.01030776463449
1768620451309,-0.09967041015625,0.125518798828125,-0.9842071533203124,-0.0214373804628849,-0.0065196845680475,0.0143959838896989
1768620451319,-0.107025146484375,0.130035400390625,-0.986297607421875,-0.0185140296816825,-0.0055244611576199,0.0144521761685609
1768620451329,-0.1103973388671875,0.12554931640625,-0.986083984375,-0.0156697742640972,-0.0054594799876213,0.013252155855298
1768620451339,-0.1119384765625,0.125457763671875,-0.9865264892578124,-0.0123741114512085,-0.0091740572825074,0.0092683332040905
1768620451349,-0.1109771728515625,0.1212005615234375,-0.988555908203125,-0.0145203527063131,-0.0177513007074594,0.0056560216471552
1768620451359,-0.111053466796875,0.1197967529296875,-0.989532470703125,-0.0111402692273259,-0.0282313711941242,0.0036298886407166
1768620451369,-0.1135406494140625,0.1266937255859375,-0.9913177490234376,-0.0036128442734479,-0.0268369410187006,6.73779723001644e-05
1768620451379,-0.113494873046875,0.125885009765625,-0.9876708984375,-0.0001187769812531,-0.0150644369423389,0.0012540825409814
1768620451389,-0.108856201171875,0.1278533935546875,-0.98065185546875,0.0042016692459583,-0.0098859202116727,0.0014266553334891
1768620451400,-0.1036529541015625,0.129180908203125,-0.974212646484375,0.0058155446313321,-0.0006495449924841,0.0077596525661647
1768620451409,-0.0988616943359375,0.1290435791015625,-0.9733123779296876,0.0044373590499162,0.0097921770066022,0.0210922360420227
1768620451420,-0.1010284423828125,0.1337432861328125,-0.9743499755859376,0.0058962386101484,0.0110465260222554,0.0287988912314176
1768620451430,-0.1076812744140625,0.1351470947265625,-0.9795074462890624,0.0047020772472023,0.0055012917146086,0.0303049087524414
1768620451440,-0.1138458251953125,0.132110595703125,-0.9871673583984376,0.0021347899455577,0.0021728731226176,0.0261644925922155
1768620451450,-0.1169891357421875,0.1294097900390625,-0.988433837890625,-0.0012966931099072,2.3968450477696024e-06,0.0157304927706718
1768620451460,-0.1145782470703125,0.1313629150390625,-0.99066162109375,-0.0069953249767422,-0.0042972764931619,0.0076675070449709
1768620451470,-0.1146697998046875,0.1322784423828125,-0.9901885986328124,-0.0121038006618618,-0.0103056346997618,-0.0049153962172567
1768620451480,-0.111328125,0.1311798095703125,-0.987640380859375,-0.0180154852569103,-0.012489958666265,-0.0127163277938961
1768620451490,-0.1080780029296875,0.13482666015625,-0.9849090576171876,-0.0170905701816082,-0.009442769922316,-0.0140521693974733
1768620451500,-0.1083984375,0.1372528076171875,-0.9829864501953124,-0.0206426940858364,-0.011926700361073,-0.0182256083935499
1768620451510,-0.104827880859375,0.131561279296875,-0.9803619384765624,-0.0255769994109869,-0.0074398065917193,-0.0169752556830644
1768620451520,-0.1024932861328125,0.1297607421875,-0.976898193359375,-0.0247586090117692,-0.0009382316493429,-0.0136332539841532
1768620451530,-0.10205078125,0.1278839111328125,-0.9765167236328124,-0.0229402035474777,0.0006420881254598,-0.0105053717270493
1768620451540,-0.1042327880859375,0.125396728515625,-0.9786224365234376,-0.0189941972494125,0.001620799768716,-0.0063492422923445
1768620451550,-0.1091766357421875,0.124237060546875,-0.981689453125,-0.0100100236013531,0.0046490803360939,-0.0082677835598587
1768620451560,-0.11456298828125,0.125335693359375,-0.9833831787109376,-0.0066605657339096,-0.0018058895366266,-0.0120414830744266
1768620451570,-0.1160888671875,0.12420654296875,-0.98541259765625,-0.0001241033023688,-0.0062118233181536,-0.0174357146024703
1768620451580,-0.1154327392578125,0.1257476806640625,-0.9855499267578124,0.0061377873644232,-0.0033182986080646,-0.0199337601661682
1768620451590,-0.113433837890625,0.125732421875,-0.9836578369140624,0.0072664348408579,0.0020644825417548,-0.0187686271965503
1768620451600,-0.1057891845703125,0.126953125,-0.97967529296875,0.0057476344518363,0.0032972597982734,-0.0108031127601861
1768620451611,-0.1019287109375,0.1299285888671875,-0.979095458984375,0.0059734703972935,0.0061556305736303,-0.0042690471746027
1768620451620,-0.104156494140625,0.1297454833984375,-0.9790802001953124,0.0026354643050581,0.0066746803931891,0.0016953683225437
1768620451630,-0.109710693359375,0.1290740966796875,-0.984130859375,0.0015172028215602,0.0060541639104485,0.0067567061632871
1768620451641,-0.1159210205078125,0.12738037109375,-0.9877166748046876,0.0050602722913026,0.0085559375584125,0.0040405481122434
1768620451651,-0.12213134765625,0.125579833984375,-0.988433837890625,0.006068012677133,0.0083881588652729,-0.0006615291931666
1768620451661,-0.1208343505859375,0.1251678466796875,-0.9867706298828124,0.0087077375501394,0.003360110335052,-0.0087649952620267
1768620451671,-0.1169586181640625,0.1267547607421875,-0.987701416015625,0.0105557050555944,-0.0024367924779653,-0.0124276410788297
1768620451681,-0.10980224609375,0.12701416015625,-0.98760986328125,0.0154146421700716,-0.0033358754590153,-0.0123019395396113
1768620451691,-0.10406494140625,0.1284332275390625,-0.985260009765625,0.016012255102396,-0.002298840554431,-0.0070749535225331
1768620451701,-0.1038360595703125,0.127899169921875,-0.983001708984375,0.0154311545193195,-0.0007544735562987,-0.00046392265358
1768620451711,-0.10601806640625,0.1279449462890625,-0.979248046875,0.0119570605456829,-0.001644235686399,-0.0008159925346262
1768620451721,-0.106109619140625,0.1271209716796875,-0.977294921875,0.0041811629198491,0.0069923955015838,0.0031835427507758
1768620451731,-0.1042633056640625,0.12591552734375,-0.9787750244140624,-0.0020639498252421,0.0091391699388623,0.0067897289991378
1768620451741,-0.1043243408203125,0.126129150390625,-0.981475830078125,-0.0110124377533793,0.007619303651154,0.0076701701618731
1768620451751,-0.1085357666015625,0.1259307861328125,-0.984405517578125,-0.0219210106879472,0.0041417479515075,0.0060981060378253
1768620451761,-0.1122283935546875,0.1280517578125,-0.986328125,-0.0273085869848728,0.0001848233805503,0.005706887692213
1768620451771,-0.1135406494140625,0.1299896240234375,-0.987548828125,-0.0296135526150465,-0.0025907231029123,0.0039193741977214
1768620451782,-0.114715576171875,0.1291961669921875,-0.988311767578125,-0.0268651694059371,-0.0070597738958895,0.0017294568242505
1768620451791,-0.1158599853515625,0.1271514892578125,-0.9892120361328124,-0.020079169422388,-0.0110542485490441,0.0015997608425095
1768620451801,-0.1127471923828125,0.1241455078125,-0.9859771728515624,-0.0139831937849521,-0.0082123894244432,0.001383512164466
1768620451811,-0.1089324951171875,0.12078857421875,-0.9822235107421876,-0.010178867727518,-0.0074134413152933,0.004235491156578
1768620451821,-0.1037139892578125,0.122833251953125,-0.9811859130859376,-0.0067204870283603,-0.0099929794669151,0.0102100269868969
1768620451832,-0.1034393310546875,0.12567138671875,-0.982208251953125,-0.0053862431086599,-0.0071407337673008,0.0155496653169393
1768620451842,-0.1090545654296875,0.13031005859375,-0.9817657470703124,-0.0006103964988142,-0.0016080166678875,0.0177566260099411
1768620451852,-0.11163330078125,0.1370849609375,-0.980438232421875,-0.0016650082543492,0.0021957762073725,0.0152199659496545
1768620451862,-0.115325927734375,0.1369781494140625,-0.981536865234375,-0.0030314761679619,0.0069638998247683,0.0095852492377161
1768620451872,-0.117218017578125,0.1318359375,-0.9817352294921876,-0.0034439999144524,0.0091442298144102,0.0091274520382285
1768620451882,-0.1144866943359375,0.12713623046875,-0.9826202392578124,-0.0050762514583766,0.0130939641967415,0.0062722768634557
1768620451892,-0.1132049560546875,0.11590576171875,-0.983551025390625,-0.0088353035971522,0.0099975066259503,0.0054325824603438
1768620451902,-0.1059722900390625,0.1150665283203125,-0.9852294921875,-0.0095208007842302,-0.0050307111814618,0.0084760431200265
1768620451912,-0.1021881103515625,0.1155242919921875,-0.9916839599609376,-0.0075772260315716,-0.0032160333357751,0.0082661854103207
1768620451922,-0.1005706787109375,0.124237060546875,-0.994110107421875,0.0015699334908276,-0.0046251118183135,0.0143650909885764
1768620451932,-0.105316162109375,0.136566162109375,-0.99029541015625,0.0030895331874489,-0.0115448031574487,0.0140071623027324
1768620451942,-0.11431884765625,0.1433563232421875,-0.9820709228515624,0.0025670209433883,-0.0168423634022474,0.0039417445659637
1768620451952,-0.12005615234375,0.1423797607421875,-0.97967529296875,-0.0035422705113887,-0.013064669445157,-0.0040629184804856
1768620451962,-0.1151580810546875,0.141754150390625,-0.9786529541015624,-0.0088361017405986,-0.0037910097744315,-0.0082587292417883
1768620451972,-0.1084747314453125,0.134307861328125,-0.977081298828125,-0.0115567874163389,0.0005510080372914,-0.0118049941956996
1768620451982,-0.105560302734375,0.1225128173828125,-0.97357177734375,-0.0182754099369049,0.0051558800041675,-0.0100888535380363
1768620451992,-0.103363037109375,0.1155853271484375,-0.9769287109375,-0.0178764685988426,0.0012881710426881,-0.0036946034524589
1768620452002,-0.1071319580078125,0.1126556396484375,-0.98016357421875,-0.005291168577969,0.0039731701835989,-0.003001382574439
1768620452012,-0.1095428466796875,0.1116180419921875,-0.9822235107421876,0.0064829331822693,0.0089085400104522,-0.0010934938909485
1768620452022,-0.113128662109375,0.116546630859375,-0.9810028076171876,0.0171454306691885,0.0145429903641343,0.0006210491410456
1768620452032,-0.1138153076171875,0.1190185546875,-0.979248046875,0.0191364102065563,0.0154631119221448,-0.0009800433181226
1768620452042,-0.1128082275390625,0.1215667724609375,-0.9787139892578124,0.022776685655117,0.01413419470191,-0.0053809168748557
1768620452052,-0.1084442138671875,0.1302947998046875,-0.98077392578125,0.0232627112418413,0.0124279074370861,-0.0020570256747305
1768620452063,-0.1074066162109375,0.13818359375,-0.98199462890625,0.0274068564176559,0.0151440650224685,-0.0033356093335896
1768620452073,-0.1120452880859375,0.13861083984375,-0.9798736572265624,0.0280651897192001,0.0167962908744812,-0.0081013357266783
1768620452083,-0.114532470703125,0.1347808837890625,-0.9816741943359376,0.0342748835682868,0.0205920934677124,-0.0120196444913744
1768620452093,-0.1152191162109375,0.1297149658203125,-0.98272705078125,0.038565769791603,0.0283229835331439,-0.0138771999627351
1768620452103,-0.1143798828125,0.1245269775390625,-0.9828643798828124,0.037222471088171,0.0286715924739837,-0.0194985996931791
1768620452113,-0.112335205078125,0.120819091796875,-0.9830474853515624,0.0350072532892227,0.0275650490075349,-0.0202922224998474
1768620452123,-0.1060943603515625,0.1215362548828125,-0.988311767578125,0.0364943630993366,0.0183555707335472,-0.0122856944799423
1768620452133,-0.106231689453125,0.1245574951171875,-0.9934234619140624,0.0289488267153501,0.0064227455295622,-0.005550826434046
1768620452143,-0.1067047119140625,0.1221923828125,-0.9940032958984376,0.0196514651179313,-0.0010719223646447,-0.0040125846862792
1768620452153,-0.1056060791015625,0.1219024658203125,-0.989898681640625,0.0008005462004803,-0.0041103227995336,0.0002681803307496
1768620452163,-0.1061553955078125,0.12274169921875,-0.9853515625,-0.0152434017509222,-0.0081079937517642,0.009598565287888
1768620452173,-0.10858154296875,0.1250457763671875,-0.9864501953125,-0.0246235877275466,-0.0087865674868226,0.0148489875718951
1768620452183,-0.1136016845703125,0.1273345947265625,-0.9831695556640624,-0.0331667400896549,-0.0040346891619265,0.014240987598896
1768620452193,-0.11614990234375,0.1279296875,-0.9798583984375,-0.0387543216347694,-0.0048964880406856,0.012237224727869
1768620452203,-0.1160888671875,0.1278839111328125,-0.983062744140625,-0.0361465513706207,-0.0039004657883197,0.007938084192574
1768620452213,-0.1106414794921875,0.1301727294921875,-0.9837493896484376,-0.0298183485865592,-0.0015877765836194,0.0077607175335288
1768620452223,-0.1064605712890625,0.126922607421875,-0.9855194091796876,-0.0259557012468576,-0.0041883531957864,0.0121293673291802
1768620452233,-0.1030120849609375,0.127655029296875,-0.984283447265625,-0.0221721474081277,-0.0056986319832503,0.0141664193943142
1768620452243,-0.1053466796875,0.1287384033203125,-0.9857177734375,-0.0176591556519269,-0.0066400594078004,0.0136774629354476
1768620452253,-0.1124420166015625,0.125274658203125,-0.989471435546875,-0.0138849224895238,-0.0086427563801407,0.0080928141251206
1768620452264,-0.110687255859375,0.1213836669921875,-0.9888458251953124,-0.0109804794192314,-0.0089436937123537,0.0086685894057154
1768620452273,-0.10626220703125,0.12091064453125,-0.9874725341796876,-0.0044091292656958,-0.0004492752777878,0.0104118948802351
1768620452284,-0.1105499267578125,0.122406005859375,-0.98382568359375,-0.0020642161834985,0.006572681479156,0.0101485075429081
1768620452295,-0.1134033203125,0.124267578125,-0.978851318359375,0.0040935450233519,0.0163603313267231,0.0080808298662304
1768620452304,-0.1169891357421875,0.1293487548828125,-0.976226806640625,0.0101493066176772,0.0231274235993623,0.0013014868600293
1768620452314,-0.1121063232421875,0.12982177734375,-0.97747802734375,0.0107759488746523,0.0225713551044464,0.0070208916440606
1768620452324,-0.1069793701171875,0.1303253173828125,-0.9804534912109376,0.0087631316855549,0.0225545782595872,0.0061481734737753
1768620452334,-0.1073760986328125,0.1276092529296875,-0.98065185546875,0.00646588858217,0.0223332680761814,0.0038485340774059
1768620452344,-0.10809326171875,0.12322998046875,-0.9828338623046876,0.0068938587792217,0.0235950741916894,0.0060190102085471
1768620452354,-0.107330322265625,0.125885009765625,-0.98651123046875,0.0081551317125558,0.0180541016161441,0.0023558323737233
1768620452364,-0.1092529296875,0.127349853515625,-0.9893035888671876,0.0050035468302667,0.0124532077461481,0.0015611450653523
1768620452374,-0.1135711669921875,0.1273193359375,-0.98883056640625,0.0052693304605782,0.0063385898247361,-0.0011720572365447
1768620452384,-0.11492919921875,0.125762939453125,-0.987396240234375,0.0017417073249816,0.0053652040660381,-0.0043950146064162
1768620452394,-0.1082305908203125,0.126068115234375,-0.9907073974609376,-0.0018823222490027,0.0031664986163377,-0.0020341223571449
1768620452404,-0.1024169921875,0.130950927734375,-0.99285888671875,-0.006695719435811,0.0001155811914941,0.0008540757698938
1768620452414,-0.1046905517578125,0.133636474609375,-0.98553466796875,-0.0162807032465934,0.0004551342281047,0.0037731665652245
1768620452424,-0.107391357421875,0.1323394775390625,-0.9823150634765624,-0.0223846677690744,0.0023046995047479,0.004864530172199
1768620452434,-0.1100006103515625,0.1281585693359375,-0.9801788330078124,-0.0281022079288959,0.0044275051914155,0.0049199238419532
1768620452444,-0.11322021484375,0.1268768310546875,-0.9794769287109376,-0.0291919745504856,0.0014415690675377,0.003402188187465
1768620452454,-0.1168365478515625,0.1206817626953125,-0.98406982421875,-0.0285522826015949,0.0037025928031653,0.0021236045286059
1768620452464,-0.111907958984375,0.1186981201171875,-0.98388671875,-0.0275120511651039,0.0053420346230268,0.006623547989875
1768620452474,-0.1075286865234375,0.120574951171875,-0.980560302734375,-0.0256736725568771,0.003131611039862,0.0095386439934372
1768620452485,-0.105926513671875,0.1210479736328125,-0.9810791015625,-0.0242102649062871,-0.0039100530557334,0.0089879026636481
1768620452495,-0.1073455810546875,0.122528076171875,-0.9840087890625,-0.0219503063708543,-0.0080323601141572,0.0070627033710479
1768620452505,-0.109771728515625,0.1245269775390625,-0.9869842529296876,-0.0184690225869417,-0.0079149147495627,0.0031081752385944
1768620452515,-0.112152099609375,0.1248321533203125,-0.9866943359375,-0.0118489358574152,-0.0050719901919364,-0.0070075755938887
1768620452525,-0.1140289306640625,0.1244354248046875,-0.984283447265625,-0.005722067784518,0.0002849582233466,-0.0119642512872815
1768620452535,-0.109100341796875,0.128143310546875,-0.9814910888671876,0.0038562573026865,0.0070134345442056,-0.0098148137331008
1768620452545,-0.1070709228515625,0.13128662109375,-0.978302001953125,0.0141038345173001,0.0127269802615046,-0.0065644257701933
1768620452555,-0.107513427734375,0.12890625,-0.9765472412109376,0.0199532024562358,0.0225186254829168,-0.0001520664955023
1768620452565,-0.1078338623046875,0.1254730224609375,-0.9739837646484376,0.0218128878623247,0.0282223168760538,0.0031284152064472
1768620452575,-0.1105499267578125,0.12371826171875,-0.9747467041015624,0.0223290082067251,0.0240587312728166,0.0015608787070959
1768620452585,-0.1072540283203125,0.1178436279296875,-0.9834136962890624,0.0176706071943044,0.0209100749343633,0.006752444896847
1768620452595,-0.1040802001953125,0.1210174560546875,-0.9912109375,0.0156985353678464,0.0151611100882291,0.0090598072856664
1768620452605,-0.10565185546875,0.1225738525390625,-0.9920501708984376,0.0091247884556651,0.0084789721295237,0.0099463742226362
1768620452615,-0.107208251953125,0.1241607666015625,-0.99273681640625,0.0007222492713481,0.0042605251073837,0.0086411591619253
1768620452625,-0.106201171875,0.12982177734375,-0.990203857421875,-0.0069734873250126,-0.0020730046089738,0.006442985497415
1768620452635,-0.10321044921875,0.1312713623046875,-0.988128662109375,-0.0160761717706918,-0.0032253544777631,0.0076190372928977
1768620452645,-0.1016845703125,0.1325531005859375,-0.9856719970703124,-0.0232203677296638,-0.005814479663968,0.0076501965522766
1768620452655,-0.1045684814453125,0.13232421875,-0.982940673828125,-0.0281813032925128,-0.0062714777886867,0.0029744845815002
1768620452665,-0.10479736328125,0.129364013671875,-0.9835968017578124,-0.0301139596849679,-0.0049220542423427,-0.0014229270163923
1768620452675,-0.105224609375,0.12652587890625,-0.9839324951171876,-0.0257016345858573,-0.0022040321491658,0.000482564792037
1768620452686,-0.1072235107421875,0.127227783203125,-0.9832763671875,-0.0189065802842378,0.0002740392810665,0.0009936253773048
1768620452695,-0.1121826171875,0.1242523193359375,-0.9810028076171876,-0.0132020879536867,-0.000557133287657,-0.0046498794108629
1768620452705,-0.1112060546875,0.121612548828125,-0.9803619384765624,-0.0106182899326086,0.003352919826284,-0.0018583538476377
1768620452716,-0.1060333251953125,0.1255950927734375,-0.98272705078125,-0.0013784521725028,0.0042085936293005,-0.0033465281594544
1768620452726,-0.1040191650390625,0.1249237060546875,-0.983123779296875,0.0009203884401358,0.0076355491764843,0.0024136228021234
1768620452736,-0.1017913818359375,0.125823974609375,-0.9813232421875,0.0033838124945759,0.0079290298745036,0.0063697486184537
1768620452746,-0.1044464111328125,0.12701416015625,-0.9806671142578124,0.0028751487843692,0.0073284865356981,0.0065790731459856
1768620452756,-0.107147216796875,0.12469482421875,-0.981597900390625,0.0001512675517005,0.0096089513972401,0.0072009214200079
1768620452766,-0.1094818115234375,0.1256103515625,-0.9834136962890624,-0.001888713799417,0.0109221562743186,0.0067319385707378
1768620452776,-0.1160125732421875,0.1303253173828125,-0.9863739013671876,-0.005708485841751,0.0095684714615345,0.0027718180790543
1768620452786,-0.1180572509765625,0.126434326171875,-0.986083984375,-0.0164934899657964,0.0088073397055268,-0.0023630228824913
1768620452796,-0.112884521484375,0.125,-0.988311767578125,-0.0294742695987224,-0.0004029362753499,-0.003302852390334
1768620452806,-0.10260009765625,0.12200927734375,-0.9939422607421876,-0.0442324429750442,-0.0075050541199743,-0.0051175304688513
1768620452816,-0.0932159423828125,0.115997314453125,-0.9947509765625,-0.0548430085182189,-0.0194229669868946,0.007994276471436
1768620452826,-0.0891571044921875,0.1266021728515625,-0.9916534423828124,-0.0617650970816612,-0.0240454152226448,0.0186088383197784
1768620452836,-0.1008453369140625,0.1311187744140625,-0.9907989501953124,-0.0635560750961303,-0.0191563833504915,0.0224041081964969
1768620452846,-0.109893798828125,0.132659912109375,-0.987335205078125,-0.0614356622099876,-0.0181683506816625,0.0192392077296972
1768620452856,-0.1198883056640625,0.131500244140625,-0.9810638427734376,-0.0605363138020038,-0.017190970480442,0.013349893502891
1768620452866,-0.114105224609375,0.1410980224609375,-0.979156494140625,-0.0568923093378543,-0.0213026255369186,0.0099125513806939
1768620452876,-0.11273193359375,0.14251708984375,-0.982330322265625,-0.0502748899161815,-0.0233995988965034,0.0050355051644146
1768620452886,-0.117401123046875,0.138336181640625,-0.9781341552734376,-0.046115830540657,-0.0171294528990983,-0.0025204156991094
1768620452896,-0.108795166015625,0.1336517333984375,-0.9770660400390624,-0.0405460931360721,-0.0068978536874055,0.0002671150432433
1768620452906,-0.103668212890625,0.12713623046875,-0.9756622314453124,-0.0334655493497848,-0.0059569585137069,0.002961168764159
1768620452917,-0.1047515869140625,0.1212005615234375,-0.9749603271484376,-0.027624437585473,-0.0081370221450924,0.006615025922656
1768620452927,-0.1073150634765625,0.1209564208984375,-0.9782867431640624,-0.0111575797200202,-0.0062890546396374,0.0072810822166502
1768620452937,-0.1110992431640625,0.12664794921875,-0.9812774658203124,0.0099865878000855,0.0038168423343449,0.0075154406949877
1768620452947,-0.1115264892578125,0.127471923828125,-0.9775238037109376,0.025301095098257,0.0155770955607295,0.0065846657380461
1768620452957,-0.1108856201171875,0.131591796875,-0.9723052978515624,0.0393908135592937,0.0239785704761743,0.0047936900518834
1768620452967,-0.109771728515625,0.1352081298828125,-0.970062255859375,0.0479371659457683,0.0336399860680103,0.0062475097365677
1768620452977,-0.107818603515625,0.139068603515625,-0.9755859375,0.0572664849460125,0.0397117249667644,0.0092675341293215
1768620452987,-0.1095733642578125,0.13714599609375,-0.980682373046875,0.0612915866076946,0.038738340139389,0.0043076630681753
1768620452997,-0.1138458251953125,0.13116455078125,-0.9846038818359376,0.056484580039978,0.0371809229254722,-0.002339054364711
1768620453007,-0.1107635498046875,0.1298370361328125,-0.9888153076171876,0.0522709265351295,0.0322769805788993,-0.0060344566591084
1768620453017,-0.1085205078125,0.1305389404296875,-0.991455078125,0.0409210659563541,0.0251532904803752,-0.0113522568717598
1768620453027,-0.1085357666015625,0.1319122314453125,-0.992828369140625,0.0283320397138595,0.0114444019272923,-0.0171297173947095
1768620453037,-0.1070404052734375,0.1328277587890625,-0.9937286376953124,0.0168942939490079,-0.0039955405518412,-0.0195824895054101
1768620453047,-0.10107421875,0.1320037841796875,-0.9940948486328124,0.0043689156882464,-0.0095948362722992,-0.0177696757018566
1768620453057,-0.099609375,0.135162353515625,-0.993499755859375,-0.0045401570387184,-0.0169230569154024,-0.0120263025164604
1768620453067,-0.1013641357421875,0.1337890625,-0.989410400390625,-0.0165440887212753,-0.0160458125174045,-0.0076600504107773
1768620453077,-0.1036376953125,0.1316680908203125,-0.9846954345703124,-0.0220461804419755,-0.0116388127207756,-0.0035380094777792
1768620453087,-0.1053924560546875,0.1290130615234375,-0.982269287109375,-0.0301533751189708,-0.0145427240058779,-0.0046613309532403
1768620453097,-0.1089630126953125,0.128265380859375,-0.982635498046875,-0.0333893820643425,-0.0141970450058579,-0.0019057580502703
1768620453107,-0.1112213134765625,0.1290435791015625,-0.984100341796875,-0.0300279408693313,-0.0092052165418863,-0.0001984054979402
1768620453117,-0.1119842529296875,0.129547119140625,-0.983062744140625,-0.0251386426389217,-0.0033555829431861,-0.001914812834002
1768620453128,-0.1132659912109375,0.1273193359375,-0.981292724609375,-0.0202229805290699,-0.0034802188165485,-0.0032967270817607
1768620453137,-0.1113739013671875,0.1238555908203125,-0.981048583984375,-0.0216661468148231,-0.0032085764687508,-0.0011305118678137
1768620453148,-0.1073150634765625,0.121124267578125,-0.98187255859375,-0.018072210252285,-0.0080893514677882,0.000351537251845
1768620453158,-0.1024017333984375,0.1240386962890625,-0.9852142333984376,-0.0166735183447599,-0.0139043638482689,0.0033329459838569
1768620453168,-0.099578857421875,0.1295928955078125,-0.9886016845703124,-0.0140574956312775,-0.0149166313931345,0.0027254789602011
1768620453178,-0.0986480712890625,0.12646484375,-0.986053466796875,-0.0229332782328128,-0.0114462664350867,0.003255448071286
1768620453188,-0.0969085693359375,0.1287384033203125,-0.9855194091796876,-0.0333558246493339,-0.0101152183488011,0.0059889163821935
1768620453198,-0.097320556640625,0.1287384033203125,-0.9824981689453124,-0.041467547416687,-0.0098987035453319,0.0097732683643698
1768620453208,-0.1094818115234375,0.1314544677734375,-0.9846343994140624,-0.0491510331630706,-0.0131091438233852,0.0071218251250684
1768620453218,-0.119293212890625,0.1315155029296875,-0.9860076904296876,-0.050460509955883,-0.0217279326170682,0.0011736550368368
1768620453228,-0.12060546875,0.1295166015625,-0.986328125,-0.0460132993757724,-0.0206272471696138,-0.0032924660481512
