timestamp_ms,acc_x,acc_y,acc_z,gyro_x,gyro_y,gyro_z
1769251162248,-0.042144775390625,-0.0981597900390625,-1.00128173828125,-0.0273983348160982,-0.0078291613608598,0.0120718432590365
1769251162257,-0.03826904296875,-0.1014862060546875,-1.007781982421875,-0.010137322358787,0.0003968109958805,0.0147427273914217
1769251162265,-0.0379486083984375,-0.0925445556640625,-1.016387939453125,0.0171486269682645,0.012327772565186,0.0125272432342171
1769251162275,-0.0443267822265625,-0.08563232421875,-1.019866943359375,0.040204145014286,2.0506340661086145e-05,0.0183904580771923
1769251162285,-0.0489959716796875,-0.0902862548828125,-1.018890380859375,0.058159977197647,-0.0102342618629336,0.0296878535300493
1769251162295,-0.0486602783203125,-0.089019775390625,-1.0179290771484375,0.0761464312672615,-0.0159906838089227,0.0357817001640796
1769251162306,-0.0488739013671875,-0.0930633544921875,-1.014312744140625,0.0835707932710647,-0.0191819500178098,0.0386033169925212
1769251162316,-0.04913330078125,-0.094635009765625,-1.001556396484375,0.0819518566131591,-0.0165888294577598,0.0400928258895874
1769251162326,-0.0496673583984375,-0.100006103515625,-0.9912567138671876,0.0753389596939086,-0.0075620459392666,0.0459824055433273
1769251162336,-0.051422119140625,-0.0998077392578125,-0.9824676513671876,0.0638197287917137,0.0047864993102848,0.046679887920618
1769251162346,-0.0511474609375,-0.1004180908203125,-0.9802703857421876,0.062140867114067,0.0040040626190602,0.0482860393822193
1769251162356,-0.0505523681640625,-0.1040191650390625,-0.9826507568359376,0.0564286559820175,-0.0107602356001734,0.0454606935381889
1769251162366,-0.052642822265625,-0.1055450439453125,-0.978668212890625,0.0479736514389514,-0.0140407178550958,0.0392885506153106
1769251162376,-0.0572357177734375,-0.105987548828125,-0.977752685546875,0.0374264679849147,-0.0062712118960917,0.035119105130434
1769251162386,-0.057952880859375,-0.10321044921875,-0.9768218994140624,0.0270798206329345,0.0001318264694418,0.0318308994174003
1769251162396,-0.0602264404296875,-0.10064697265625,-0.977142333984375,0.0190096441656351,0.005208876915276,0.0264041759073734
1769251162406,-0.060516357421875,-0.104766845703125,-0.978668212890625,0.0162364933639764,0.0035329493694007,0.0226347390562295
1769251162416,-0.059814453125,-0.103363037109375,-0.980926513671875,0.0137861194089055,0.0004423510399647,0.0193390771746635
1769251162426,-0.0583648681640625,-0.0990753173828125,-0.9821319580078124,0.0081676486879587,0.002323341788724,0.0155179733410477
1769251162437,-0.0625762939453125,-0.09686279296875,-0.984161376953125,0.0076001291163265,0.0127730527892708,0.0058925100602209
1769251162447,-0.067718505859375,-0.103424072265625,-0.9871673583984376,0.0013390374369919,0.0034716967493295,0.0057841194793581
1769251162457,-0.0620880126953125,-0.1179962158203125,-0.9875640869140624,-0.0040147150866687,-0.0040812944062054,0.0047590686008334
1769251162466,-0.0536651611328125,-0.1014556884765625,-0.990020751953125,-0.0076808226294815,0.0073359436355531,-0.0133267240598797
1769251162476,-0.058624267578125,-0.07708740234375,-0.988037109375,0.0128782475367188,0.0050592068582773,-0.0401961542665958
1769251162487,-0.0771026611328125,-0.072265625,-0.98529052734375,0.0319592654705047,-0.0236632507294416,-0.0444750562310218
1769251162497,-0.0810089111328125,-0.10247802734375,-0.9837799072265624,0.0142766740173101,-0.0665068551898002,-0.0363494865596294
1769251162507,-0.05670166015625,-0.1414031982421875,-0.994598388671875,-0.0081617897376418,-0.0329305194318294,-0.0243799071758985
1769251162517,-0.031219482421875,-0.1192626953125,-1.0026702880859375,-0.0174002964049577,0.0182314682751894,-0.0352320224046707
1769251162527,-0.03558349609375,-0.10504150390625,-0.986724853515625,-0.0301296729594469,0.0229162350296974,-0.0525023564696311
1769251162537,-0.044921875,-0.107818603515625,-0.9822845458984376,-0.0125213842839002,0.0222054366022348,-0.0430196374654769
1769251162547,-0.0476531982421875,-0.0901947021484375,-0.9905548095703124,0.0130276512354612,-0.0013512879377231,-0.026128539815545
1769251162557,-0.0541229248046875,-0.0970916748046875,-0.99566650390625,0.0346296168863773,-0.0301288738846778,-0.01205959264189
1769251162567,-0.0491485595703125,-0.1104736328125,-1.00140380859375,0.0403375700116157,-0.0429655760526657,-0.0033422671258449
1769251162577,-0.041839599609375,-0.1158599853515625,-0.9953155517578124,0.0280803702771663,-0.0342842042446136,0.0056371130049228
1769251162587,-0.038909912109375,-0.1175384521484375,-0.9827728271484376,0.0015936355339363,-0.0144673557952046,0.0110156331211328
1769251162597,-0.0428619384765625,-0.117584228515625,-0.9714508056640624,-0.0214195381850004,0.0156798940151929,0.0162239763885736
1769251162607,-0.0443572998046875,-0.1111907958984375,-0.97344970703125,-0.0347292199730873,0.0319350287318229,0.0189798157662153
1769251162617,-0.0449981689453125,-0.104949951171875,-0.983642578125,-0.0352546609938144,0.0276310946792364,0.0238286331295967
1769251162627,-0.047943115234375,-0.10235595703125,-0.99212646484375,-0.0284207221120595,0.0217859894037246,0.0227130353450775
1769251162638,-0.0502777099609375,-0.0973052978515625,-1.0013885498046875,-0.0133799873292446,0.0093522230163216,0.0180652868002653
1769251162647,-0.0570831298828125,-0.0999298095703125,-1.0019989013671875,-0.0036839507520198,-0.0003733751946128,0.0115187047049403
1769251162657,-0.0612335205078125,-0.1041717529296875,-0.9981231689453124,0.0030144320335239,0.0001483380765421,0.0090638026595115
1769251162668,-0.058807373046875,-0.105438232421875,-0.9933319091796876,0.0088744517415761,0.0047164582647383,0.0113924704492092
1769251162677,-0.057891845703125,-0.1111297607421875,-0.9920196533203124,0.0130566796287894,0.0121464114636182,0.0131935663521289
1769251162688,-0.051849365234375,-0.114532470703125,-0.9905853271484376,0.0131757231429219,0.0066182217560708,0.0127264475449919
1769251162698,-0.047515869140625,-0.1064910888671875,-0.988494873046875,0.0136660113930702,0.0158095899969339,0.0069513828493654
1769251162708,-0.0527191162109375,-0.0959625244140625,-0.985748291015625,0.0112585136666893,0.0084515418857336,-0.0016426377696916
1769251162718,-0.06103515625,-0.1064910888671875,-0.9874420166015624,0.0134351151064038,0.0005699164466932,-0.0022439796011894
1769251162728,-0.060546875,-0.1089935302734375,-0.995025634765625,0.0129376361146569,-0.005175054538995,-0.000283360335743
1769251162738,-0.059600830078125,-0.107635498046875,-0.99066162109375,0.0070864050649106,-0.0078659122809767,-0.0011227887589484
1769251162748,-0.0560455322265625,-0.108428955078125,-0.983062744140625,-0.0067726848646998,0.0027614317368716,0.0036597158759832
1769251162758,-0.052215576171875,-0.1060943603515625,-0.975433349609375,-0.021548967808485,0.0091050816699862,0.0011318434262648
1769251162768,-0.0515289306640625,-0.109130859375,-0.971343994140625,-0.031825840473175,0.0139195444062352,0.0022791333030909
1769251162778,-0.048828125,-0.1110382080078125,-0.9770965576171876,-0.0395974777638912,0.0148271489888429,0.0023395870812237
1769251162788,-0.05133056640625,-0.112945556640625,-0.9839630126953124,-0.0369873121380806,0.0044240429997444,0.0033089776989072
1769251162798,-0.0547027587890625,-0.1136627197265625,-0.9879302978515624,-0.0391359515488147,-0.0010143980616703,0.002894057193771
1769251162808,-0.0541229248046875,-0.1087799072265625,-0.9879150390625,-0.042901661247015,-0.0020101540721952,0.0002942793071269
1769251162818,-0.054351806640625,-0.1086273193359375,-0.9860382080078124,-0.0487707331776618,-0.0019371833186596,0.0024288028944283
1769251162828,-0.0494384765625,-0.10430908203125,-0.9839019775390624,-0.0536637604236602,0.0024961808230727,0.007978031411767
1769251162838,-0.046905517578125,-0.1010894775390625,-0.986236572265625,-0.0531175471842289,0.0137842558324337,0.0074216974899172
1769251162848,-0.0517425537109375,-0.1059112548828125,-0.99212646484375,-0.0487409085035324,0.0197811610996723,0.0032943303231149
1769251162858,-0.057403564453125,-0.1055755615234375,-0.99346923828125,-0.0394286327064037,0.0127408290281891,0.0036706349346786
1769251162868,-0.059844970703125,-0.098602294921875,-0.99383544921875,-0.0325422286987304,0.0019118833588436,0.0009909622604027
1769251162878,-0.0592498779296875,-0.094970703125,-0.996002197265625,-0.0249647386372089,-0.0017009610310196,0.0033281524665653
1769251162888,-0.058013916015625,-0.1097259521484375,-1.0008544921875,-0.026551716029644,-0.0022333269007503,0.0071410001255571
1769251162898,-0.0496826171875,-0.116180419921875,-1.001556396484375,-0.0262539740651845,0.0155051900073885,0.0067684240639209
1769251162909,-0.043365478515625,-0.0810394287109375,-0.997039794921875,-0.0136377811431884,0.0251407735049724,-0.0128734540194273
1769251162919,-0.060821533203125,-0.06976318359375,-0.9946746826171876,0.0148324752226471,0.0047486824914813,-0.0201433505862951
1769251162929,-0.071685791015625,-0.0912322998046875,-0.99456787109375,0.0168620701879262,-0.0488591529428958,-0.0069793462753295
1769251162939,-0.0591278076171875,-0.131134033203125,-1.00018310546875,-6.711165769957006e-05,-0.0479195900261402,0.0081601915881037
1769251162949,-0.0354766845703125,-0.12945556640625,-1.0068206787109375,-0.0017054883064702,0.018148111179471,0.0094403736293315
1769251162959,-0.0354156494140625,-0.0933990478515625,-0.9879302978515624,-0.0201287046074867,0.013792511075735,-0.0086550069972872
1769251162970,-0.0455169677734375,-0.1043701171875,-0.969024658203125,-0.018849853426218,0.0213987659662961,-0.0051990230567753
1769251162979,-0.0493927001953125,-0.0899505615234375,-0.9816436767578124,-0.0080275665968656,0.0318173170089721,0.0044293696992099
1769251162989,-0.05908203125,-0.09234619140625,-0.987762451171875,0.0107874004170298,0.0052514872513711,0.0085119949653744
1769251162999,-0.06427001953125,-0.1052703857421875,-0.995330810546875,0.0253471676260232,-0.025332786142826,0.0120444120839238
1769251163009,-0.060089111328125,-0.1079254150390625,-0.99627685546875,0.0204951558262109,-0.0352024622261524,0.0192466657608747
1769251163019,-0.051727294921875,-0.1086273193359375,-0.9880218505859376,0.0017124125733971,-0.0244326386600732,0.0247820448130369
1769251163029,-0.0457763671875,-0.1102142333984375,-0.979705810546875,-0.0198703780770301,-0.0054123420268297,0.0211074165999889
1769251163039,-0.0463714599609375,-0.1094818115234375,-0.976654052734375,-0.0372789278626441,0.0207566767930984,0.0201058015227317
1769251163049,-0.05108642578125,-0.1056365966796875,-0.9818115234375,-0.0444428324699401,0.0273016616702079,0.0214506965130567
1769251163059,-0.053741455078125,-0.1029510498046875,-0.9872589111328124,-0.0387926697731018,0.0168953593820333,0.0220917202532291
1769251163070,-0.0587005615234375,-0.102691650390625,-0.9965362548828124,-0.0285123344510793,0.0060475063510239,0.0201058015227317
1769251163079,-0.0631103515625,-0.0987091064453125,-0.998687744140625,-0.0232315529137849,-0.0031680963002145,0.0170234590768814
1769251163090,-0.065521240234375,-0.1030731201171875,-0.998260498046875,-0.0236733704805374,0.0009382316493429,0.0153304869309067
1769251163099,-0.06201171875,-0.104217529296875,-0.9976348876953124,-0.0275360196828842,0.0093005569651722,0.0160977430641651
1769251163110,-0.0587310791015625,-0.1024932861328125,-0.995513916015625,-0.0225620344281196,0.0187763515859842,0.0141163514927029
1769251163120,-0.05755615234375,-0.10296630859375,-0.994415283203125,-0.017667943611741,0.0182458497583866,0.014763499610126
1769251163130,-0.0522918701171875,-0.1011810302734375,-0.9985504150390624,-0.002959837205708,0.020824322476983,0.0112137719988822
1769251163140,-0.05145263671875,-0.0904998779296875,-1.0072021484375,0.0204482842236757,0.0036298886407166,0.0080661820247769
1769251163150,-0.0584564208984375,-0.1014556884765625,-1.0108795166015625,0.0405287854373455,-0.015491341240704,0.0072635053656995
1769251163160,-0.059783935546875,-0.1043853759765625,-1.012481689453125,0.0458340682089328,-0.0144638940691947,0.0107077714055776
1769251163172,-0.058074951171875,-0.102630615234375,-1.003448486328125,0.0444177985191345,-0.0109274825081229,0.012787434272468
1769251163180,-0.0551300048828125,-0.1061553955078125,-0.9948272705078124,0.0441536121070385,-0.0128223216161131,0.0116108497604727
1769251163190,-0.0536346435546875,-0.1091156005859375,-0.988983154296875,0.0529401786625385,-0.0137216709554195,0.0156756322830915
1769251163200,-0.052001953125,-0.106719970703125,-0.984710693359375,0.0500109679996967,-0.0056192697957158,0.0199713110923767
1769251163210,-0.0550537109375,-0.1092987060546875,-0.9857025146484376,0.0475736446678638,0.0043529369868338,0.0153832174837589
1769251163220,-0.0592041015625,-0.10888671875,-0.9879608154296876,0.0434814319014549,0.0071985241957008,0.0144638940691947
1769251163230,-0.0581512451171875,-0.10455322265625,-0.98590087890625,0.0352626480162143,0.0026972496416419,0.0120361568406224
1769251163241,-0.0554656982421875,-0.100067138671875,-0.9816436767578124,0.0261232126504182,-0.0036256273742765,0.0074219633825123
1769251163250,-0.0552215576171875,-0.1020050048828125,-0.98040771484375,0.0189350750297307,-0.0072049158625304,-0.0016655409708619
1769251163260,-0.0581207275390625,-0.1073760986328125,-0.9784393310546876,0.0101541001349687,-0.0015097459545359,-0.0008849684381857
1769251163270,-0.05645751953125,-0.10479736328125,-0.9753265380859376,0.0029425267130136,0.0041907504200935,-0.0011643340112641
1769251163280,-0.0583648681640625,-0.1053619384765625,-0.977569580078125,-0.0024557008873671,0.0117639815434813,-0.0047492152079939
1769251163290,-0.061370849609375,-0.1104888916015625,-0.9822998046875,-0.0093884421512484,0.011659319512546,-0.0077396784909069
1769251163300,-0.062957763671875,-0.104827880859375,-0.9851531982421876,-0.0127352364361286,-0.0003523362101987,-0.0128071419894695
1769251163311,-0.0651397705078125,-0.10089111328125,-0.9890594482421876,-0.0077937408350408,-0.0093772560358047,-0.0196362864226102
1769251163320,-0.063262939453125,-0.1035003662109375,-0.994903564453125,-0.0017632789677008,-0.0125189879909157,-0.0133650740608572
1769251163331,-0.0602874755859375,-0.117279052734375,-0.9945220947265624,-0.011340538971126,-0.0092608761042356,-0.0011009507579728
1769251163341,-0.049835205078125,-0.1119232177734375,-0.9905853271484376,-0.0156543273478746,0.0245165284723043,-0.0065332665108144
1769251163351,-0.050872802734375,-0.0810546875,-0.990447998046875,-0.003654389642179,0.0417588986456394,-0.0261106956750154
1769251163361,-0.0663604736328125,-0.074432373046875,-0.9859466552734376,0.0147611033171415,0.0094712655991315,-0.033471405506134
1769251163371,-0.0777130126953125,-0.1002044677734375,-0.9801025390625,-0.0004034689045511,-0.0419447869062423,-0.0198248364031314
1769251163381,-0.0585174560546875,-0.1366119384765625,-0.9863128662109376,-0.025226792320609,-0.0183955188840627,-0.0063068978488445
1769251163391,-0.03369140625,-0.12469482421875,-0.9957427978515624,-0.0352927446365356,0.0420318730175495,-0.0091860415413975
1769251163404,-0.034637451171875,-0.0977630615234375,-0.9809722900390624,-0.052315667271614,0.0259692817926406,-0.0222472492605447
1769251163411,-0.0431365966796875,-0.106658935546875,-0.97540283203125,-0.0474154539406299,0.0294356532394886,-0.0191665031015872
1769251163421,-0.0493621826171875,-0.094268798828125,-0.9907379150390624,-0.0353329554200172,0.0280646570026874,-0.010963968001306
1769251163431,-0.0577239990234375,-0.0947265625,-0.99737548828125,-0.0199926160275936,0.0093170693144202,-0.0084667215123772
1769251163441,-0.0588531494140625,-0.1072235107421875,-1.00482177734375,-0.0043097934685647,-0.0052877063862979,0.000597613339778
1769251163451,-0.053436279296875,-0.1103973388671875,-1.0084991455078125,0.001807487453334,-0.0084845647215843,0.0122324312105774
1769251163461,-0.0417938232421875,-0.116729736328125,-1.006683349609375,0.0010825749486684,-0.0021555626299232,0.0197534654289484
1769251163471,-0.0375518798828125,-0.1228790283203125,-0.9986419677734376,-0.0021949773654341,0.008028632029891,0.0239695142954587
1769251163481,-0.0412750244140625,-0.112945556640625,-0.9915618896484376,-0.0143187521025538,0.0228946637362241,0.0259000398218631
1769251163492,-0.0485382080078125,-0.1046600341796875,-0.986083984375,-0.0167765822261571,0.0385567136108875,0.02523691393435
1769251163501,-0.05218505859375,-0.1029815673828125,-0.9857025146484376,-0.01016182359308,0.0375827960669994,0.0259988438338041
1769251163511,-0.05023193359375,-0.09716796875,-0.9884033203125,0.0010295780375599,0.024418257176876,0.0203345660120248
1769251163521,-0.0595703125,-0.1017608642578125,-0.9954376220703124,0.0151267545297741,0.008093879558146,0.0131994253024458
1769251163531,-0.0637664794921875,-0.1026763916015625,-0.99847412109375,0.0225495174527168,-0.0091018853709101,0.0030735542532056
1769251163542,-0.069183349609375,-0.10247802734375,-0.9947509765625,0.0238568633794784,-0.01035010907799,-0.0030021814163774
1769251163552,-0.0692596435546875,-0.1066131591796875,-0.99530029296875,0.025512283667922,-0.0009299758239649,-0.0057439059019088
1769251163562,-0.0634918212890625,-0.1077880859375,-0.9957122802734376,0.0231902748346328,0.0136894471943378,-0.0107229519635438
1769251163572,-0.0560455322265625,-0.10125732421875,-0.9964447021484376,0.0308609772473573,0.0336258709430694,-0.0153169045224785
1769251163582,-0.05853271484375,-0.0943450927734375,-0.996246337890625,0.0327342450618743,0.033585924655199,-0.024517860263586
1769251163592,-0.0602264404296875,-0.1051177978515625,-0.9924468994140624,0.0284406952559947,0.0288281850516796,-0.0250723306089639
1769251163602,-0.0550994873046875,-0.107574462890625,-0.9923553466796876,0.031492680311203,0.020420853048563,-0.0233940053731203
1769251163612,-0.0524139404296875,-0.112396240234375,-0.9897613525390624,0.0311507284641265,0.0114475982263684,-0.0175006967037916
1769251163622,-0.0494842529296875,-0.109893798828125,-0.986724853515625,0.0270049851387739,0.0063066319562494,-0.0155462026596069
1769251163632,-0.05029296875,-0.1130523681640625,-0.98028564453125,0.0143043706193566,0.0115440040826797,-0.0153259597718715
1769251163642,-0.0528106689453125,-0.11181640625,-0.9743804931640624,0.0037111148703843,0.0186346713453531,-0.01192909758538
1769251163652,-0.050567626953125,-0.1061553955078125,-0.9753875732421876,-0.0076904101297259,0.0176983028650283,-0.0087159937247633
1769251163662,-0.0498809814453125,-0.1076202392578125,-0.978424072265625,-0.018072210252285,0.0077007967047393,-0.0099407816305756
1769251163672,-0.0471343994140625,-0.10675048828125,-0.9764404296875,-0.0274004656821489,0.0007731156656518,-0.0094813862815499
1769251163682,-0.047210693359375,-0.10675048828125,-0.974090576171875,-0.0431125834584236,0.0116681074723601,-0.0108459899201989
1769251163692,-0.0500030517578125,-0.109222412109375,-0.9752197265625,-0.0612031705677509,0.0272329524159431,-0.0078770974650979
1769251163702,-0.049072265625,-0.1090545654296875,-0.9776458740234376,-0.0662498623132705,0.0334841907024383,-0.0081514036282897
1769251163712,-0.051605224609375,-0.1056976318359375,-0.9826812744140624,-0.0605259276926517,0.0441972874104976,0.0009483516332693
1769251163723,-0.0501708984375,-0.10009765625,-0.99359130859375,-0.0545279569923877,0.0380461849272251,0.0023699470330029
1769251163732,-0.05059814453125,-0.1050567626953125,-0.9989166259765624,-0.0506834164261817,0.0259269382804632,0.0020983046852052
1769251163743,-0.052001953125,-0.1002349853515625,-0.9964752197265624,-0.0496312007308006,0.0193180385977029,0.0034442662727087
1769251163753,-0.048187255859375,-0.0966796875,-0.9946746826171876,-0.0472223721444606,0.0182972475886344,0.0013544837711378
1769251163763,-0.0473175048828125,-0.0965728759765625,-0.9928131103515624,-0.044856421649456,0.0087000150233507,0.0043494747951626
1769251163773,-0.0452880859375,-0.1088104248046875,-0.99249267578125,-0.0429163090884685,0.0053723948076367,0.0174943059682846
1769251163783,-0.0416412353515625,-0.1234588623046875,-0.9945526123046876,-0.0444950312376022,0.0301152914762496,0.0211684014648199
1769251163793,-0.041900634765625,-0.0988311767578125,-0.996551513671875,-0.0393029302358627,0.0445424355566501,0.0046171224676072
1769251163803,-0.0551910400390625,-0.0752716064453125,-0.9939422607421876,-0.0094986967742443,0.0287304483354091,-0.014869493432343
1769251163813,-0.06951904296875,-0.077117919921875,-0.997528076171875,-0.0008892294717952,-0.0232216995209455,-0.0110198939219117
1769251163823,-0.0654754638671875,-0.120269775390625,-1.0036773681640625,-0.0097959050908684,-0.0317584611475467,0.0002844255941454
1769251163833,-0.04510498046875,-0.1291961669921875,-1.0115509033203125,-0.0079617863520979,0.0232049208134412,-0.0025963156949728
1769251163843,-0.0373382568359375,-0.0971221923828125,-0.997161865234375,-0.0207590740174055,0.0133562851697206,-0.0157816261053085
1769251163853,-0.0371551513671875,-0.097747802734375,-0.974578857421875,-0.0201348289847373,0.0175590198487043,-0.0183518435806036
1769251163863,-0.0399017333984375,-0.0909881591796875,-0.982025146484375,-0.0028341358993202,0.024861142039299,-0.0096012279391288
1769251163873,-0.0504302978515625,-0.0879058837890625,-0.9847412109375,0.013040967285633,-0.0076046562753617,-0.0036027242895215
1769251163883,-0.0577850341796875,-0.1035003662109375,-0.9890594482421876,0.0206283126026392,-0.0270755589008331,0.0048733185976743
1769251163893,-0.054656982421875,-0.113555908203125,-0.999908447265625,0.0151270208880305,-0.0294921118766069,0.0098736695945262
1769251163903,-0.0451202392578125,-0.1202239990234375,-0.9992218017578124,0.0011217234423384,-0.0254441071301698,0.0083287702873349
1769251163913,-0.03717041015625,-0.118255615234375,-0.9900360107421876,-0.0173955019563436,-0.0186019130051136,0.0057023605331778
1769251163923,-0.040283203125,-0.112091064453125,-0.982879638671875,-0.0295624192804098,-0.0034852789249271,0.0058195395395159
1769251163933,-0.048248291015625,-0.1016998291015625,-0.9832000732421876,-0.0305464565753936,0.009401224553585,0.006245378870517
1769251163943,-0.052459716796875,-0.0933990478515625,-0.9867095947265624,-0.0220003742724657,0.0145733496174216,0.0043084621429443
1769251163954,-0.0570068359375,-0.0948944091796875,-0.9937744140625,-0.0062099588103592,0.013145362958312,0.0024719461798667
1769251163964,-0.056243896484375,-0.0941162109375,-0.9958953857421876,0.0072600431740283,0.0064802695997059,0.000311589858029
1769251163974,-0.053863525390625,-0.0971832275390625,-0.9983673095703124,0.0190336126834154,-0.0098454402759671,-0.0017414409667253
1769251163984,-0.0506744384765625,-0.1038818359375,-0.9983673095703124,0.0292412415146827,-0.0238898862153291,-0.0002154497342417
1769251163994,-0.0506744384765625,-0.106201171875,-0.9990692138671876,0.0364373698830604,-0.0299387238919734,0.005658418405801
1769251164004,-0.0478668212890625,-0.107666015625,-0.9951171875,0.0313113182783126,-0.029927272349596,0.0093242591246962
1769251164014,-0.045013427734375,-0.1071624755859375,-0.99273681640625,0.0281413570046424,-0.0129328425973653,0.0082613918930292
1769251164024,-0.0506134033203125,-0.09869384765625,-0.99249267578125,0.0306210257112979,-0.0039063245058059,0.0065886606462299
1769251164034,-0.05816650390625,-0.0934600830078125,-0.988006591796875,0.0226334072649478,-0.0217050295323133,0.0056437710300087
1769251164044,-0.0558013916015625,-0.1026763916015625,-0.9894256591796876,0.0125163244083523,-0.0227279495447874,0.0101903192698955
1769251164054,-0.0527801513671875,-0.10736083984375,-0.99725341796875,0.0051124701276421,-0.0087261134758591,0.009026251733303
1769251164064,-0.049774169921875,-0.103759765625,-0.994384765625,-0.0003834952076431,-0.00907445512712,0.0098310587927699
1769251164074,-0.0484619140625,-0.10186767578125,-0.9875946044921876,-0.0002391518646618,-0.0107317399233579,0.009427323937416
1769251164084,-0.052337646484375,-0.105316162109375,-0.9899749755859376,-0.0001957423373823,-0.001880191732198,0.0082198465242981
1769251164094,-0.0531463623046875,-0.1018829345703125,-0.9888763427734376,0.0017363809747621,0.0008735168376006,0.008085623383522
1769251164105,-0.05224609375,-0.1002197265625,-0.9857177734375,0.0062392535619437,-0.0025518408510833,0.0065537733025848
1769251164115,-0.0544586181640625,-0.10479736328125,-0.9869537353515624,0.0123117938637733,-0.0048743835650384,0.0043279030360281
1769251164125,-0.05291748046875,-0.1039886474609375,-0.98712158203125,0.0164796411991119,-0.0062035676091909,0.001365668955259
1769251164134,-0.0524749755859375,-0.106903076171875,-0.98541259765625,0.0171121414750814,0.0018349179299548,0.0011496866354718
1769251164144,-0.0541229248046875,-0.1097259521484375,-0.983673095703125,0.0129283154383301,0.0190762225538492,-0.000437557377154
1769251164154,-0.059112548828125,-0.1083831787109375,-0.985504150390625,0.0079053277149796,0.0289703980088233,-0.0019297265680506
1769251164164,-0.058624267578125,-0.10504150390625,-0.9858551025390624,0.0097628822550177,0.0182328000664711,-0.003932689782232
1769251164175,-0.0564727783203125,-0.1052703857421875,-0.992156982421875,0.0161041356623172,0.0086038745939731,-0.0048357676714658
1769251164185,-0.055694580078125,-0.1065521240234375,-0.9956207275390624,0.0208533499389886,0.0019619506783783,-0.0074717649258673
1769251164195,-0.0557708740234375,-0.1048736572265625,-0.990966796875,0.0212224647402763,0.0022168152499943,-0.0086656594648957
1769251164205,-0.0569000244140625,-0.102996826171875,-0.9914398193359376,0.0193728990852832,0.0018391790799796,-0.0138012999668717
1769251164215,-0.05908203125,-0.1017608642578125,-0.9880828857421876,0.0164418239146471,0.0002958771947305,-0.015166169963777
1769251164225,-0.0589447021484375,-0.1136627197265625,-0.987152099609375,0.014903581701219,-0.003695135936141,-0.0057694721035659
1769251164235,-0.0506591796875,-0.1270904541015625,-0.9928131103515624,0.0108957905322313,0.014102236367762,-0.0017821873771026
1769251164245,-0.0432586669921875,-0.0958251953125,-0.9903717041015624,0.009451825171709,0.0219364576041698,-0.0187976565212011
1769251164255,-0.05889892578125,-0.074676513671875,-0.9795989990234376,0.0173089485615491,0.0044309673830866,-0.0368568189442157
1769251164265,-0.074188232421875,-0.0883026123046875,-0.9786529541015624,0.0113232284784317,-0.0390826873481273,-0.0307238232344388
1769251164275,-0.0651092529296875,-0.12969970703125,-0.98583984375,4.420847471919842e-05,-0.0225359350442886,-0.0168942939490079
1769251164285,-0.04302978515625,-0.125244140625,-0.9902801513671876,-0.0162245091050863,0.0158671140670776,-0.0204445552080869
1769251164295,-0.036407470703125,-0.1034698486328125,-0.9716033935546876,-0.0373020991683006,0.018796058371663,-0.0355460084974765
1769251164305,-0.03955078125,-0.1056365966796875,-0.9650421142578124,-0.035926841199398,0.036816868931055,-0.0388603135943412
1769251164315,-0.0462646484375,-0.0944976806640625,-0.9770965576171876,-0.020264258608222,0.0217218063771724,-0.0252153407782316
1769251164325,-0.0587615966796875,-0.1004791259765625,-0.9804534912109376,-0.0049548111855983,-0.0249444972723722,-0.0106987170875072
1769251164335,-0.0545806884765625,-0.12078857421875,-0.9888153076171876,-0.003466104157269,-0.0508163087069988,0.0039025961887091
1769251164345,-0.045379638671875,-0.12274169921875,-0.9931793212890624,-0.0185148287564516,-0.0522648021578788,0.0075932047329843
1769251164355,-0.0389862060546875,-0.121673583984375,-0.983917236328125,-0.0480391643941402,-0.0305816102772951,0.0083841634914278
1769251164365,-0.0350341796875,-0.11468505859375,-0.9782867431640624,-0.0710033327341079,0.0090805804356932,0.0080086579546332
1769251164376,-0.0389556884765625,-0.102386474609375,-0.9806671142578124,-0.0750574693083763,0.0383553765714168,0.0059481700882315
1769251164386,-0.052459716796875,-0.099884033203125,-0.9858856201171876,-0.0580941960215568,0.0453214086592197,0.0046586678363382
1769251164396,-0.0596771240234375,-0.096282958984375,-0.9943695068359376,-0.0362530797719955,0.0184059049934148,0.0017235978739336
1769251164406,-0.0616607666015625,-0.0942230224609375,-0.9991455078125,-0.015622635371983,-0.0068576396442949,-0.0049462891183793
1769251164416,-0.0605316162109375,-0.100616455078125,-0.9996337890625,-0.0065729478374123,-0.0103666204959154,-0.0116215022280812
1769251164426,-0.059722900390625,-0.1050567626953125,-0.994049072265625,-0.0076699038036167,-0.0038722362369298,-0.0152143724262714
1769251164436,-0.058074951171875,-0.105743408203125,-0.9898834228515624,-0.0041276332922279,-0.0013358416035771,-0.0137850539758801
1769251164446,-0.05181884765625,-0.1085052490234375,-0.9925079345703124,0.0023901870008558,-0.0088502168655395,-0.0115858158096671
1769251164456,-0.048370361328125,-0.1103973388671875,-0.993194580078125,0.0082659190520644,-0.0143826678395271,-0.0162988118827343
1769251164466,-0.04595947265625,-0.105743408203125,-0.99578857421875,0.0171816498041152,-0.018200309947133,-0.0149898687377572
1769251164476,-0.0453643798828125,-0.0983123779296875,-0.9935302734375,0.019056249409914,-0.021786255761981,-0.0162186510860919
1769251164486,-0.0515289306640625,-0.095977783203125,-0.9821929931640624,0.007978830486536,-0.0217151492834091,-0.0188700947910547
1769251164496,-0.057769775390625,-0.1091461181640625,-0.9824981689453124,-0.0043891556560993,-0.0130857080221176,-0.0120936809107661
1769251164506,-0.0526580810546875,-0.1085662841796875,-0.9853668212890624,-0.0162601955235004,0.007709052413702,-0.0033790187444537
1769251164516,-0.050201416015625,-0.10382080078125,-0.9876861572265624,-0.0218320619314908,0.0081535335630178,-0.0035270904190838
1769251164526,-0.048858642578125,-0.1093292236328125,-0.9868927001953124,-0.0178181454539299,-0.0010255833622068,-0.0029158950783312
1769251164536,-0.0519561767578125,-0.1047515869140625,-0.988037109375,-0.016471117734909,-0.0013342436868697,0.000205596035812
1769251164546,-0.05059814453125,-0.1007537841796875,-0.987060546875,-0.0149094406515359,-0.0004167847218923,-0.0019188075093552
1769251164556,-0.0491790771484375,-0.104278564453125,-0.99029541015625,-0.0086366310715675,-0.0036421390250325,0.0003805657033808
1769251164566,-0.044403076171875,-0.10711669921875,-0.9913482666015624,-0.0018967032665386,-0.0142686842009425,0.0042682480998337
1769251164576,-0.0460662841796875,-0.1090240478515625,-0.9879150390625,0.0014146711910143,-0.0124377608299255,0.0105469170957803
1769251164586,-0.044586181640625,-0.106170654296875,-0.9873046875,-0.0068818745203316,-0.0096350507810711,0.0108601041138172
1769251164596,-0.0514373779296875,-0.1058502197265625,-0.9837493896484376,-0.0101253380998969,-0.0068653631024062,0.0092776538804173
1769251164607,-0.054534912109375,-0.1088714599609375,-0.9874420166015624,-0.0085974829271435,0.0010985539993271,0.0076195700094103
1769251164617,-0.057403564453125,-0.103515625,-0.99200439453125,-0.0080901505425572,-0.0012631373247131,0.0021289309952408
1769251164627,-0.0618743896484375,-0.1040191650390625,-0.9934234619140624,-0.0063234097324311,-0.0060847904533147,-0.0008860336965881
1769251164637,-0.059783935546875,-0.1044464111328125,-0.9920806884765624,-0.0047100665979087,-0.0117386812344193,-0.0022852586116641
1769251164647,-0.0571136474609375,-0.10552978515625,-0.9910888671875,-0.0058195395395159,-0.0062989084981381,-0.0078448737040162
1769251164657,-0.058013916015625,-0.10723876953125,-0.9886932373046876,-0.0080435452982783,-0.0005424859118647,-0.0122822327539324
1769251164667,-0.0588226318359375,-0.103607177734375,-0.981689453125,-0.013358948752284,-0.0012508867075666,-0.0109328087419271
1769251164677,-0.05810546875,-0.1012420654296875,-0.979095458984375,-0.0257112216204404,0.0033675672020763,0.0022847258951514
1769251164687,-0.052337646484375,-0.114990234375,-0.984710693359375,-0.0351052582263946,0.0274574570357799,-0.001531051355414
1769251164697,-0.0498199462890625,-0.09710693359375,-0.990447998046875,-0.0341875329613685,0.0373332574963569,-0.0210719965398311
1769251164707,-0.05755615234375,-0.0685577392578125,-0.987823486328125,-0.0103016393259167,0.020806211978197,-0.0388760268688201
1769251164717,-0.0735931396484375,-0.073211669921875,-0.9908905029296876,0.0030650321859866,-0.0290023572742939,-0.0391836203634738
1769251164727,-0.0728302001953125,-0.1227264404296875,-0.997772216796875,-0.0050573428161442,-0.0460117012262344,-0.0209321789443492
1769251164737,-0.0486907958984375,-0.1384735107421875,-1.0079498291015625,-0.0064323330298066,-0.0006780407857149,-0.0165379643440246
1769251164747,-0.034027099609375,-0.1088104248046875,-0.9951629638671876,-0.0170165337622165,0.0059833237901329,-0.0241897590458393
1769251164758,-0.0380859375,-0.1033935546875,-0.9737548828125,-0.0218224748969078,0.0166338384151458,-0.0336660854518413
1769251164767,-0.0454254150390625,-0.0912322998046875,-0.9750213623046876,-0.0137400468811392,0.0228198282420635,-0.036577720195055
1769251164777,-0.0635528564453125,-0.09112548828125,-0.9785003662109376,-1.651159800530877e-05,-0.0073601780459284,-0.0232185032218694
1769251164787,-0.0659942626953125,-0.1019134521484375,-0.98895263671875,0.006793191190809,-0.0300236791372299,-0.0133221969008445
1769251164798,-0.0589141845703125,-0.1158905029296875,-1.0011138916015625,0.000745951430872,-0.0298058316111564,-0.014045245014131
1769251164808,-0.0517425537109375,-0.122314453125,-0.9996185302734376,-0.0166431590914726,-0.0238518025726079,-0.011313640512526
1769251164818,-0.039794921875,-0.117584228515625,-0.986968994140625,-0.0467789582908153,-0.0008298410102725,-0.0115780923515558
1769251164828,-0.039825439453125,-0.112091064453125,-0.981170654296875,-0.0590127184987068,0.024713335558772,-0.0141650876030325
1769251164838,-0.04638671875,-0.1091766357421875,-0.98516845703125,-0.0590457431972026,0.0289216637611389,-0.0159651171416044
1769251164848,-0.0520172119140625,-0.1052398681640625,-0.9927825927734376,-0.0408430360257625,0.0191997941583395,-0.0130023509263992
1769251164858,-0.0573577880859375,-0.0988616943359375,-1.0014190673828125,-0.0181156210601329,0.0048839710652828,-0.0137067576870322
1769251164868,-0.06097412109375,-0.097015380859375,-1.0065460205078125,0.0020658141002058,-0.0042261704802513,-0.0190543849021196
1769251164878,-0.06402587890625,-0.09490966796875,-1.0077056884765625,0.0165717862546443,-0.0065721487626433,-0.0268702302128076
1769251164888,-0.0638885498046875,-0.096435546875,-1.0057830810546875,0.0271783582866191,-0.0168165303766727,-0.0296580269932746
1769251164898,-0.0594940185546875,-0.1017913818359375,-1.0031585693359375,0.0422025807201862,-0.0208320450037717,-0.0269229598343372
1769251164908,-0.0568084716796875,-0.1033172607421875,-1.000213623046875,0.0434566624462604,-0.0227615050971508,-0.0282609332352876
1769251164918,-0.052459716796875,-0.101837158203125,-0.9955596923828124,0.0495108291506767,-0.0143696181476116,-0.0291400421410799
1769251164928,-0.051361083984375,-0.0963897705078125,-0.994232177734375,0.0518954209983348,-0.007473362609744,-0.0295491032302379
1769251164938,-0.0532684326171875,-0.090362548828125,-0.9907989501953124,0.0489377155900001,-0.0121922176331281,-0.0255069583654403
1769251164948,-0.0499267578125,-0.104766845703125,-0.9940032958984376,0.0481725893914699,-0.0236123856157064,-0.0202682539820671
1769251164958,-0.0487213134765625,-0.11004638671875,-0.994903564453125,0.0418622270226478,-0.0283980853855609,-0.0161131899803876
1769251164968,-0.05010986328125,-0.1116943359375,-0.9843597412109376,0.0320090651512146,-0.0184080358594656,-0.0109415976330637
1769251164978,-0.0492706298828125,-0.11163330078125,-0.9769134521484376,0.0187100376933813,-0.0062741413712501,-0.0012069445801898
1769251164988,-0.0492095947265625,-0.1098175048828125,-0.9744873046875,0.0049127331003546,-0.0009968212107196,0.006557501386851
1769251164998,-0.0483856201171875,-0.1099700927734375,-0.9771575927734376,-0.0022133530583232,0.0056315204128623,0.0105160241946578
1769251165009,-0.0479736328125,-0.1079864501953125,-0.9815826416015624,-0.0059130163863301,-0.0003930825623683,0.0145206190645694
1769251165019,-0.0503997802734375,-0.1068115234375,-0.98333740234375,-0.0075758942402899,-0.0030663637444376,0.0161677841097116
1769251165029,-0.0533447265625,-0.10552978515625,-0.983306884765625,-0.0116065889596939,-0.0038397456519305,0.0151557829231023
1769251165039,-0.054168701171875,-0.105804443359375,-0.981353759765625,-0.0201385580003261,0.0073676351457834,0.0191657040268182
1769251165049,-0.0522918701171875,-0.105560302734375,-0.9833526611328124,-0.0278651863336563,0.0187169630080461,0.0210011564195156
1769251165059,-0.0491485595703125,-0.106903076171875,-0.982940673828125,-0.0293618831783533,0.0148971900343894,0.0216275304555892
1769251165069,-0.0503387451171875,-0.1050872802734375,-0.98162841796875,-0.0297238063067197,0.0119418809190392,0.0224730838090181
1769251165079,-0.056854248046875,-0.1073150634765625,-0.9848175048828124,-0.0295983720570802,0.013080115430057,0.0182999111711978
1769251165089,-0.0596160888671875,-0.1067047119140625,-0.987457275390625,-0.0318439491093158,0.0075918734073638,0.0205966215580701
1769251165099,-0.0603790283203125,-0.1019744873046875,-0.9915618896484376,-0.0330239944159984,0.0041002025827765,0.0169363729655742
1769251165109,-0.0607452392578125,-0.1031951904296875,-0.99578857421875,-0.0292606838047504,0.0008002799004316,0.0146186240017414
1769251165119,-0.061248779296875,-0.1017608642578125,-0.998626708984375,-0.024682443588972,0.003476756857708,0.0099437106400728
1769251165129,-0.061492919921875,-0.098663330078125,-0.9970855712890624,-0.0164578035473823,-0.0046741138212382,0.0177257340401411
1769251165139,-0.0574493408203125,-0.1162261962890625,-0.999267578125,-0.0129746543243527,-0.0094358455389738,0.0245125330984592
1769251165149,-0.05047607421875,-0.1114349365234375,-1.000335693359375,-0.0079042622819542,0.0186282787472009,0.0195659771561622
1769251165159,-0.0480804443359375,-0.0756378173828125,-0.997406005859375,0.0141733428463339,0.0263716857880353,-0.0050845071673393
1769251165171,-0.0697784423828125,-0.0730133056640625,-0.9978179931640624,0.0432294942438602,-0.0025449167005717,-0.0142252752557396
1769251165179,-0.079437255859375,-0.1009368896484375,-0.996612548828125,0.0322700552642345,-0.0554081313312053,-0.0061055631376802
1769251165189,-0.0590057373046875,-0.137908935546875,-1.00030517578125,0.0147110354155302,-0.0326072126626968,0.0071146348491311
1769251165199,-0.036651611328125,-0.1241912841796875,-1.004547119140625,0.0053244577720761,0.0133898416534066,-0.0003933488915208
1769251165209,-0.03924560546875,-0.0967559814453125,-0.9791107177734376,-0.0106651615351438,0.0092560825869441,-0.0174394436180591
1769251165219,-0.051788330078125,-0.09521484375,-0.965728759765625,-0.0027582359034568,0.0245676599442958,-0.0192330833524465
1769251165230,-0.0616912841796875,-0.088653564453125,-0.9784393310546876,0.0118167120963335,0.0081530008465051,-0.0170029513537883
1769251165240,-0.0668182373046875,-0.098358154296875,-0.98834228515625,0.0304732210934162,-0.0233066547662019,-0.0084805702790617
1769251165250,-0.0625457763671875,-0.112640380859375,-1.0032196044921875,0.0444060787558555,-0.0344490520656108,-0.0011611381778493
1769251165260,-0.0559234619140625,-0.1157684326171875,-1.00347900390625,0.0354791656136512,-0.0416989773511886,0.0022780678700655
1769251165270,-0.0527191162109375,-0.1165313720703125,-0.9881591796875,0.0110896686092019,-0.0262457188218832,0.0071492558345198
1769251165280,-0.0480194091796875,-0.1175689697265625,-0.9774322509765624,-0.016760604456067,-0.0021214741282165,0.0072009214200079
1769251165290,-0.044708251953125,-0.110687255859375,-0.979248046875,-0.0356991402804851,0.0156796276569366,0.0105594340711832
1769251165300,-0.045989990234375,-0.110931396484375,-0.9850311279296876,-0.042162898927927,0.0304308757185935,0.0092933671548962
1769251165311,-0.0519866943359375,-0.107879638671875,-0.9890899658203124,-0.0370134115219116,0.0300817359238863,0.0097500989213585
1769251165320,-0.05718994140625,-0.097747802734375,-0.9904327392578124,-0.0271045882254838,0.0131142036989331,0.0048386971466243
1769251165330,-0.06036376953125,-0.099761962890625,-0.9900970458984376,-0.0180599596351385,0.0066089006140828,-0.0018021611031144
1769251165340,-0.062225341796875,-0.099395751953125,-0.9930267333984376,-0.0135938394814729,0.0032730249222368,-0.0066291405819356
1769251165350,-0.0628204345703125,-0.10150146484375,-0.9901275634765624,-0.0074043865315616,3.861583536490798e-05,-0.0106531772762537
1769251165360,-0.0632781982421875,-0.109832763671875,-0.9912261962890624,-0.0058131478726863,0.0006567355012521,-0.0102499742060899
1769251165370,-0.060638427734375,-0.1009368896484375,-0.9912872314453124,-0.0036381443496793,0.0177848562598228,-0.0085460841655731
1769251165380,-0.056060791015625,-0.08819580078125,-0.9966888427734376,0.0055582835339009,0.0135818552225828,-0.016645822674036
1769251165390,-0.0612030029296875,-0.0921783447265625,-0.99609375,0.0128390993922948,-0.0151011887937784,-0.0185838043689727
1769251165400,-0.05999755859375,-0.1004791259765625,-0.9979705810546876,0.0215526968240737,-0.026046248152852,-0.0140636209398508
1769251165411,-0.05902099609375,-0.10406494140625,-1.0010223388671875,0.0255943089723587,-0.0284500177949666,-0.0046277749352157
1769251165420,-0.0551605224609375,-0.1042022705078125,-0.9896240234375,0.018580075353384,-0.0287261866033077,-0.0038863508962094
1769251165431,-0.0555572509765625,-0.104766845703125,-0.9781341552734376,0.0040852888487279,-0.022782277315855,0.0026740799658
1769251165441,-0.056884765625,-0.107086181640625,-0.9701690673828124,-0.0097447726875543,-0.0104891257360577,0.0105498461052775
1769251165451,-0.0553436279296875,-0.10638427734375,-0.96685791015625,-0.0298135560005903,0.0098992362618446,0.0127203222364187
1769251165461,-0.0569000244140625,-0.0999298095703125,-0.9672088623046876,-0.0490178763866424,0.0183627624064683,0.0130279175937175
1769251165472,-0.0570831298828125,-0.1002044677734375,-0.9727935791015624,-0.0622604452073574,0.0107189565896987,0.0084544708952307
1769251165481,-0.05963134765625,-0.1067657470703125,-0.981048583984375,-0.0677982196211814,0.0027220170013606,0.0033073797821998
1769251165491,-0.0557861328125,-0.1034698486328125,-0.98773193359375,-0.0703327506780624,-0.0041537322103977,0.0048850364983081
1769251165501,-0.0533447265625,-0.1062164306640625,-0.9902191162109376,-0.0704435408115387,-0.0042104576714336,0.0057202037423849
1769251165511,-0.0506439208984375,-0.1074066162109375,-0.993804931640625,-0.0668594539165496,0.0025387913919985,0.0053745252080261
1769251165521,-0.052886962890625,-0.1047515869140625,-0.996246337890625,-0.0597480200231075,0.0160825625061988,0.0077769630588591
1769251165531,-0.0553741455078125,-0.1035614013671875,-1.0007171630859375,-0.0486956350505352,0.0245665963739156,0.0049633332528173
1769251165541,-0.0552215576171875,-0.1003265380859375,-1.0033416748046875,-0.0290188677608966,0.0070256851613521,0.0068877334706485
1769251165551,-0.0534820556640625,-0.095947265625,-1.0088653564453125,-0.0085580684244632,-0.0171425007283687,0.0057841194793581
1769251165561,-0.0538482666015625,-0.0955810546875,-1.00946044921875,0.006705040577799,-0.0285280477255582,0.006768689956516
1769251165571,-0.0527496337890625,-0.095733642578125,-1.008819580078125,0.0173704680055379,-0.0268308147788047,0.0071878717280924
1769251165581,-0.0540008544921875,-0.0937652587890625,-1.0016632080078125,0.0198370870202779,-0.0188642349094152,0.0125120636075735
1769251165591,-0.052337646484375,-0.0970306396484375,-0.99542236328125,0.0199401527643203,-0.0096438387408852,0.0188080426305532
1769251165602,-0.05267333984375,-0.1187896728515625,-0.9913330078125,0.0110033825039863,0.0077705713920295,0.0344605036079883
1769251165611,-0.0419158935546875,-0.1050872802734375,-0.9906158447265624,0.0073354109190404,0.0307075791060924,0.0275011323392391
1769251165621,-0.047149658203125,-0.072723388671875,-0.9862823486328124,0.0239482093602418,0.0387394055724144,0.0051199272274971
1769251165631,-0.07208251953125,-0.067626953125,-0.985504150390625,0.0354701094329357,0.0243977513164281,0.0003962783666793
1769251165642,-0.0765380859375,-0.0998992919921875,-0.9847259521484376,0.0159541983157396,-0.0124715836718678,0.0152908051386475
1769251165651,-0.0510711669921875,-0.1400146484375,-0.9989166259765624,0.0050072753801941,0.0187361370772123,0.0296095572412014
1769251165662,-0.031982421875,-0.1128082275390625,-1.0022430419921875,0.0044115264900028,0.0403277166187763,0.021999042481184
1769251165672,-0.04302978515625,-0.0923919677734375,-0.97735595703125,0.0031933963764458,0.0135261947289109,0.0075037227943539
1769251165682,-0.0532073974609375,-0.095550537109375,-0.975494384765625,0.0091535504907369,0.0140087595209479,0.0115578528493642
1769251165692,-0.0600738525390625,-0.0866546630859375,-0.98272705078125,0.0125453528016805,0.0027049726340919,0.0177379846572875
1769251165702,-0.0651702880859375,-0.09625244140625,-0.9865570068359376,0.0172607451677322,-0.0103623596951365,0.0263991169631481
1769251165712,-0.0610504150390625,-0.1099700927734375,-0.99261474609375,0.0148074422031641,-0.0215186085551977,0.029397303238511
1769251165722,-0.0595703125,-0.1161956787109375,-0.9886322021484376,-0.0019632822368294,-0.0149557795375585,0.0351385474205017
1769251165732,-0.055999755859375,-0.1163787841796875,-0.9779815673828124,-0.0257114879786968,0.0068318070843815,0.0389021262526512
1769251165742,-0.053070068359375,-0.113250732421875,-0.974029541015625,-0.0457427203655242,0.0265021808445453,0.0382118336856365
1769251165752,-0.0523529052734375,-0.10894775390625,-0.9788055419921876,-0.0545007921755313,0.0318567343056201,0.0423264168202877
1769251165762,-0.0534820556640625,-0.1021881103515625,-0.984222412109375,-0.0575104318559169,0.0282036755234003,0.0382893308997154
1769251165772,-0.0601959228515625,-0.099090576171875,-0.990631103515625,-0.051082357764244,0.0305256843566894,0.0300319343805313
1769251165782,-0.06781005859375,-0.096832275390625,-0.9920196533203124,-0.0401604697108268,0.0190429333597421,0.022030733525753
1769251165792,-0.070343017578125,-0.0966796875,-0.991363525390625,-0.0336831286549568,-0.0016330503858625,0.014910239726305
1769251165802,-0.070068359375,-0.09832763671875,-0.9908599853515624,-0.026770893484354,-0.0085061360150575,0.0036218990571796
1769251165812,-0.072265625,-0.101226806640625,-0.9920654296875,-0.0241833664476871,-0.007227286696434,-0.0020122844725847
1769251165822,-0.071563720703125,-0.1012725830078125,-0.995849609375,-0.027917917817831,-0.0089370356872677,-0.0065572350285947
1769251165832,-0.066497802734375,-0.09796142578125,-0.993072509765625,-0.0239359587430953,0.0017457021167501,-0.0153387421742081
1769251165843,-0.0644378662109375,-0.088836669921875,-0.999176025390625,-0.0161225106567144,0.0030391993932425,-0.0204666592180728
1769251165853,-0.063262939453125,-0.0875396728515625,-0.9994659423828124,-0.0094978976994752,-0.0201137904077768,-0.0254542268812656
1769251165863,-0.0633392333984375,-0.0958404541015625,-1.0030975341796875,-0.0021624867804348,-0.0219859927892684,-0.0234885476529598
1769251165873,-0.0592041015625,-0.1012420654296875,-1.0055694580078125,0.0032570459879934,-0.0145816057920455,-0.0199140533804893
1769251165883,-0.0550537109375,-0.10382080078125,-1.0021514892578125,0.0008772452711127,-0.0180058982223272,-0.013971209526062
1769251165893,-0.0518341064453125,-0.10009765625,-0.989990234375,-0.0033643713686615,-0.0146207539364695,-0.0050472230650484
1769251165903,-0.0481719970703125,-0.101776123046875,-0.9866485595703124,-0.0026522420812398,-0.0048962216824293,-0.0006820355774834
1769251165913,-0.0457611083984375,-0.10357666015625,-0.9884490966796876,0.0007805725326761,-0.003065831027925,0.0074059846810996
1769251165923,-0.042938232421875,-0.101470947265625,-0.987274169921875,0.0036653084680438,-0.0073274215683341,0.0153193017467856
1769251165933,-0.0457763671875,-0.100311279296875,-0.9916839599609376,0.0115900766104459,-0.008061122149229,0.0201193820685148
1769251165943,-0.04803466796875,-0.09979248046875,-0.993255615234375,0.0119325593113899,-0.0028370653744786,0.0236438103020191
1769251165953,-0.05206298828125,-0.0984649658203125,-0.993316650390625,0.0110736899077892,0.0093506248667836,0.0258997734636068
1769251165963,-0.051666259765625,-0.0957794189453125,-0.992828369140625,0.0116063226014375,0.0164231825619936,0.0251825843006372
1769251165973,-0.051605224609375,-0.1017913818359375,-0.9940032958984376,0.0173992309719324,0.0101567637175321,0.0296396519988775
1769251165983,-0.0513916015625,-0.09429931640625,-0.9904327392578124,0.019037339836359,0.0026059031952172,0.0289634745568037
1769251165993,-0.0551300048828125,-0.096435546875,-0.98919677734375,0.0225929263979196,0.0113810189068317,0.0262688882648944
1769251166003,-0.0585479736328125,-0.0988311767578125,-0.9935455322265624,0.0214070212095975,0.0151933338493108,0.0239266380667686
1769251166013,-0.0591888427734375,-0.0957183837890625,-0.9922332763671876,0.0153145072981715,0.0145810730755329,0.0216757338494062
1769251166023,-0.0616607666015625,-0.098114013671875,-0.9888763427734376,0.0114630442112684,0.0105860652402043,0.016519321128726
1769251166033,-0.062469482421875,-0.1027679443359375,-0.988006591796875,0.0059172776527702,0.002266083844006,0.0191854126751422
1769251166044,-0.05706787109375,-0.0985260009765625,-0.9864501953125,-0.0035705000627785,0.0051622712053358,0.0199002046138048
1769251166053,-0.058013916015625,-0.1004791259765625,-0.983978271484375,-0.0143392579630017,0.0141855934634804,0.0197995379567146
1769251166063,-0.058746337890625,-0.118927001953125,-0.982147216796875,-0.0312447380274534,0.0096350507810711,0.0335049629211425
1769251166074,-0.0472869873046875,-0.1162872314453125,-0.9807891845703124,-0.0393668487668037,0.0319893583655357,0.0265637002885341
1769251166084,-0.0460205078125,-0.08184814453125,-0.9848480224609376,-0.0289453659206628,0.0446620099246501,0.0057518952526152
1769251166094,-0.0699615478515625,-0.061553955078125,-0.9819793701171876,-0.0092502236366271,0.0215646810829639,-0.0097279949113726
1769251166104,-0.0855865478515625,-0.0874176025390625,-0.984619140625,-0.0224666930735111,-0.0327872410416603,-0.0047795753926038
1769251166114,-0.0677947998046875,-0.1359710693359375,-1.0003662109375,-0.0331246629357337,-0.0095378449186682,0.0117796938866376
1769251166124,-0.0441436767578125,-0.11871337890625,-1.01611328125,-0.0340791419148445,0.0252299886196851,0.0020708739757537
1769251166134,-0.0476837158203125,-0.0904693603515625,-0.990081787109375,-0.0357478782534599,0.0057526943273842,-0.0200453475117683
1769251166144,-0.05804443359375,-0.0937957763671875,-0.980072021484375,-0.0238845609128475,0.0166048090904951,-0.0216355212032794
1769251166154,-0.061981201171875,-0.085052490234375,-0.9929351806640624,-0.0119232386350631,0.025595374405384,-0.014805844053626
1769251166164,-0.067230224609375,-0.09722900390625,-0.9997406005859376,0.005217398982495,0.0065641594119369,-0.0112696988508105
1769251166174,-0.06414794921875,-0.1050567626953125,-1.0065765380859375,0.0148226218298077,-0.0160767044872045,-0.0082930838689208
1769251166184,-0.05865478515625,-0.1087188720703125,-1.0001068115234375,0.0107234846800565,-0.0244246497750282,-0.0013009541435167
1769251166194,-0.0490875244140625,-0.111480712890625,-0.9893951416015624,-0.0057811900041997,-0.0146529786288738,0.0043691820465028
1769251166204,-0.044708251953125,-0.1108856201171875,-0.983062744140625,-0.02235590480268,0.0135996984317898,0.0074936025775969
1769251166214,-0.0436553955078125,-0.1119842529296875,-0.9832611083984376,-0.0320641919970512,0.032669797539711,0.0058815912343561
1769251166224,-0.04803466796875,-0.102081298828125,-0.9892425537109376,-0.0332745984196662,0.0419988483190536,0.0088504832237958
1769251166234,-0.0564117431640625,-0.0942230224609375,-0.991546630859375,-0.0225902646780014,0.0353665128350257,0.0031361384317278
1769251166244,-0.065399169921875,-0.09613037109375,-0.9966583251953124,-0.0057255299761891,0.029470007866621,-0.0042149848304688
1769251166254,-0.0653076171875,-0.0918731689453125,-0.9989013671875,0.0038362834602594,0.0230579152703285,-0.0079231709241867
1769251166264,-0.06512451171875,-0.090606689453125,-0.9987945556640624,0.0179342590272426,0.0196024626493453,-0.0150825465098023
1769251166275,-0.0638275146484375,-0.0966949462890625,-1.0062103271484375,0.0364749208092689,0.0210986267775297,-0.0188807472586631
1769251166285,-0.0647125244140625,-0.095916748046875,-1.0064849853515625,0.0480117350816726,0.0091327782720327,-0.0173025578260421
1769251166295,-0.060638427734375,-0.0951385498046875,-1.000823974609375,0.0536941215395927,0.0061617558822035,-0.0225340705364942
1769251166305,-0.057464599609375,-0.0946197509765625,-0.9994659423828124,0.0601216591894626,0.0135600175708532,-0.0309973303228616
1769251166315,-0.060577392578125,-0.0938720703125,-0.9922027587890624,0.0602385737001895,0.0019987022969871,-0.0327978953719139
1769251166325,-0.0575103759765625,-0.09942626953125,-0.9875946044921876,0.0549287609755992,-0.0112957973033189,-0.0279304347932338
1769251166335,-0.051727294921875,-0.106048583984375,-0.98712158203125,0.0410243980586528,-0.0156785622239112,-0.0245399642735719
1769251166345,-0.04962158203125,-0.105560302734375,-0.9783782958984376,0.0223705526441335,-0.0093743270263075,-0.0167989544570446
1769251166355,-0.0486297607421875,-0.1070556640625,-0.9697113037109376,-0.0005145227187313,-0.0018937737913802,-0.0100696785375475
1769251166365,-0.0510711669921875,-0.10797119140625,-0.9638671875,-0.0224232841283082,0.0090542146936059,-0.0068821408785879
1769251166375,-0.05206298828125,-0.1060791015625,-0.963623046875,-0.0398976132273674,0.0255226697772741,-0.0017427726415917
1769251166385,-0.0530242919921875,-0.102752685546875,-0.97125244140625,-0.0424971282482147,0.0242627281695604,-0.0019489012192934
1769251166395,-0.0539398193359375,-0.0986785888671875,-0.982330322265625,-0.0398957505822181,0.0075913406908512,-0.0049564088694751
1769251166405,-0.054443359375,-0.09600830078125,-0.988739013671875,-0.0368624106049537,-0.004726312123239,-0.0076280920766294
1769251166415,-0.056243896484375,-0.0977783203125,-0.988861083984375,-0.0376725420355796,-0.00072864087997,-0.0086257122457027
1769251166425,-0.0567169189453125,-0.0975799560546875,-0.990264892578125,-0.0316079929471015,-3.941478280466981e-05,-0.0093069486320018
1769251166435,-0.053314208984375,-0.0980377197265625,-0.9915008544921876,-0.0235474035143852,-0.0058027617633342,-0.0061244713142514
1769251166445,-0.054840087890625,-0.1010894775390625,-0.9921417236328124,-0.0167962908744812,-0.0022264027502387,-0.0010583401890471
1769251166455,-0.054473876953125,-0.0955657958984375,-0.99322509765625,-0.0162628591060638,0.0027846011798828,0.0017688715597614
1769251166465,-0.0558319091796875,-0.09942626953125,-0.9938201904296876,-0.0139011684805154,-0.0026719495654106,-0.0043326965533196
1769251166475,-0.0587158203125,-0.10174560546875,-0.9939117431640624,-0.0105162905529141,-0.0109692942351102,-0.0008743157959543
1769251166486,-0.0543212890625,-0.0940399169921875,-0.9902191162109376,-0.0220757406204938,-0.0160348936915397,0.0022354573011398
1769251166496,-0.0533447265625,-0.09442138671875,-0.985595703125,-0.0293182078748941,-0.0032714270055294,-0.0026754115242511
1769251166506,-0.0548095703125,-0.10308837890625,-0.990814208984375,-0.030650321394205,0.0041473405435681,-0.0037185717374086
1769251166516,-0.0572052001953125,-0.0983428955078125,-0.990753173828125,-0.0303656291216611,-0.0050584082491695,-0.0045654568821191
1769251166526,-0.062744140625,-0.1016845703125,-0.989990234375,-0.0318490080535411,-0.0171805843710899,0.0095002949237823
1769251166536,-0.05755615234375,-0.115997314453125,-0.995452880859375,-0.0370645448565483,-0.0037321539130061,0.0166841708123683
1769251166546,-0.0477752685546875,-0.0964508056640625,-0.9991302490234376,-0.0342682264745235,0.0207873042672872,0.0033116408158093
1769251166556,-0.0544281005859375,-0.067718505859375,-0.9927978515625,-0.007896538823843,0.0186908636242151,-0.0233513955026865
1769251166566,-0.0738677978515625,-0.0648956298828125,-0.990264892578125,0.0063481768593192,-0.0354634523391723,-0.0224158260971307
1769251166576,-0.0749969482421875,-0.1096954345703125,-0.9928741455078124,-0.0013259878614917,-0.0536230131983757,-0.0068949242122471
1769251166586,-0.05120849609375,-0.1303558349609375,-1.0113372802734375,0.0053401705808937,0.00716124009341,0.0012157330056652
1769251166596,-0.0357513427734375,-0.0953369140625,-1.00787353515625,0.004930043593049,0.0154719008132815,-0.0152934687212109
1769251166606,-0.0455322265625,-0.0872650146484375,-0.9842071533203124,0.0111336112022399,0.0155107825994491,-0.0249346438795328
1769251166616,-0.054412841796875,-0.0843048095703125,-0.9871673583984376,0.0274316240102052,0.0243053399026393,-0.0116587867960333
1769251166626,-0.0614471435546875,-0.087066650390625,-0.9943695068359376,0.042357575148344,-0.0137166110798716,-0.0025459819007664
1769251166636,-0.062103271484375,-0.1078948974609375,-0.998565673828125,0.0523454956710338,-0.0543276853859424,0.0114236297085881
1769251166646,-0.0547943115234375,-0.1175689697265625,-1.0005950927734375,0.043993555009365,-0.0523577481508255,0.0192205663770437
1769251166656,-0.0483856201171875,-0.1195220947265625,-0.9902801513671876,0.015435148961842,-0.0269977953284978,0.0237926803529262
1769251166666,-0.04241943359375,-0.116973876953125,-0.977752685546875,-0.0147070409730076,0.0023252058308571,0.0259176176041364
1769251166676,-0.041961669921875,-0.1087493896484375,-0.97808837890625,-0.0267053805291652,0.0223436541855335,0.0273495987057685
1769251166687,-0.048553466796875,-0.10614013671875,-0.987060546875,-0.0205835718661546,0.0166186578571796,0.0280856974422931
1769251166697,-0.057037353515625,-0.09912109375,-0.9947052001953124,-0.0044512073509395,0.0041675809770822,0.0286356396973133
1769251166707,-0.064849853515625,-0.0898895263671875,-0.995574951171875,0.004694087896496,0.0157973393797874,0.0245436932891607
1769251166717,-0.0716094970703125,-0.0882415771484375,-0.9941864013671876,0.0041534658521413,0.0242640599608421,0.0134601490572094
1769251166727,-0.0726165771484375,-0.0909423828125,-0.9882659912109376,0.0038754320703446,0.0244885645806789,0.0064693507738411
1769251166737,-0.0694427490234375,-0.0918121337890625,-0.9852447509765624,0.0080488715320825,0.0156178418546915,6.285060226218775e-05
1769251166747,-0.067596435546875,-0.1010589599609375,-0.9898681640625,0.0156415440142154,0.0077439397573471,-0.0041071269661188
1769251166757,-0.064727783203125,-0.10772705078125,-0.9942779541015624,0.0145736159756779,-0.0069809439592063,-0.0022764701861888
1769251166767,-0.0572662353515625,-0.102325439453125,-0.9940643310546876,0.0135821215808391,0.0013952300650998,0.0010098706698045
1769251166777,-0.055877685546875,-0.09442138671875,-0.99383544921875,0.0095215998589992,0.0096699381247162,-0.0053822486661374
1769251166787,-0.0597686767578125,-0.0938262939453125,-0.9885406494140624,0.0019355855183675,-0.0030812772456556,-0.0095197353512048
1769251166797,-0.0588836669921875,-0.1029205322265625,-0.987457275390625,-0.0104563692584633,-0.009384180419147,-0.0068805427290499
1769251166807,-0.054046630859375,-0.1102447509765625,-0.9904632568359376,-0.0173196010291576,-0.0082448804751038,0.0026562367565929
1769251166817,-0.05023193359375,-0.1052703857421875,-0.9869232177734376,-0.023661121726036,-0.0108467889949679,0.0068027786910533
1769251166827,-0.05218505859375,-0.1042022705078125,-0.9823455810546876,-0.024165790528059,-0.0025347967166453,0.0071157002821564
1769251166837,-0.0545196533203125,-0.1033782958984375,-0.982757568359375,-0.0273336190730333,0.0122137889266014,0.0092933671548962
1769251166847,-0.0556640625,-0.100311279296875,-0.9859466552734376,-0.0301887951791286,0.0247202608734369,0.0097327884286642
1769251166857,-0.055633544921875,-0.096832275390625,-0.98870849609375,-0.0207577422261238,0.019415508955717,0.008233961649239
1769251166867,-0.054840087890625,-0.0987548828125,-0.993988037109375,-0.0049614692106842,0.0019169433508068,0.0069172945804893
1769251166877,-0.05426025390625,-0.099945068359375,-0.996917724609375,0.0056957025080919,-0.0044416198506951,0.0053292517550289
1769251166887,-0.054443359375,-0.0975341796875,-0.9960174560546876,0.0065814699046313,0.0032799490727484,0.0092022866010665
1769251166898,-0.054412841796875,-0.100830078125,-0.9938507080078124,0.0074536553584039,0.0104499775916337,0.0074469973333179
1769251166908,-0.0566558837890625,-0.1023406982421875,-0.9920501708984376,0.0053119412623345,0.0139839928597211,0.0093266563490033
1769251166918,-0.0580902099609375,-0.095855712890625,-0.98968505859375,0.0071340757422149,0.0089841736480593,0.003475425299257
1769251166928,-0.061431884765625,-0.097900390625,-0.9936370849609376,0.0154777597635984,0.0076485984027385,-6.444849714171141e-05
1769251166938,-0.0626373291015625,-0.100555419921875,-0.998565673828125,0.0216283295303583,-0.0068943914957344,-0.0037798245903104
1769251166948,-0.0619964599609375,-0.100250244140625,-0.994873046875,0.0262041725218296,-0.0204301737248897,-0.0101383877918124
1769251166958,-0.060577392578125,-0.0987701416015625,-0.9907379150390624,0.0212496276944875,-0.0158218406140804,-0.0084664551541209
1769251166968,-0.053741455078125,-0.09808349609375,-0.985443115234375,0.0140873230993747,-0.0010865697404369,-0.0095016257837414
1769251166978,-0.05401611328125,-0.1008758544921875,-0.9842529296875,0.0060954429209232,0.0203851666301488,-0.0116782272234559
1769251166988,-0.055938720703125,-0.09832763671875,-0.9822845458984376,0.0073702982626855,0.021313278004527,-0.0063204802572727
1769251166998,-0.0556182861328125,-0.1014556884765625,-0.9842529296875,0.0104784732684493,0.0037049897946417,0.0038051244337111
1769251167008,-0.052490234375,-0.1174163818359375,-0.9941558837890624,0.0208951625972986,0.0178951099514961,0.0084419539198279
1769251167018,-0.042449951171875,-0.0834503173828125,-0.99481201171875,0.0235948078334331,0.0169632714241743,-0.0087042758241295
1769251167028,-0.0551910400390625,-0.0636138916015625,-0.98248291015625,0.0394688472151756,0.0044956821948289,-0.0250962991267442
1769251167038,-0.076141357421875,-0.0836944580078125,-0.9788665771484376,0.0350506603717803,-0.042046520859003,-0.0216661468148231
1769251167048,-0.0689239501953125,-0.135894775390625,-0.9868011474609376,0.0271176379173994,-0.0175390467047691,0.0020964404102414
1769251167058,-0.0433349609375,-0.1265716552734375,-0.99774169921875,0.0185395963490009,0.0269631743431091,-0.00211135414429
1769251167068,-0.039886474609375,-0.100067138671875,-0.9813385009765624,0.0024029703345149,0.0318945497274398,-0.0173512939363718
1769251167078,-0.048675537109375,-0.088409423828125,-0.9691314697265624,9.05474735191092e-06,0.0394768342375755,-0.0244624651968479
1769251167088,-0.0622100830078125,-0.0840911865234375,-0.976531982421875,0.0119786318391561,0.010792726650834,-0.0172756593674421
1769251167098,-0.0659027099609375,-0.0950469970703125,-0.9832000732421876,0.0196607857942581,-0.0404025502502918,0.002200836315751
1769251167108,-0.0590057373046875,-0.1124267578125,-0.986663818359375,0.0142263397574424,-0.0547913424670696,0.0071862740442156
1769251167118,-0.0535125732421875,-0.127227783203125,-0.9844970703125,-0.0103170862421393,-0.0406385064125061,0.0135922413319349
1769251167129,-0.04595947265625,-0.120086669921875,-0.9715576171875,-0.0487172044813632,-0.0221372600644826,0.014404771849513
1769251167139,-0.046966552734375,-0.115509033203125,-0.9642333984375,-0.0807065665721893,0.0239897556602954,0.0155483335256576
1769251167149,-0.04736328125,-0.1060638427734375,-0.977752685546875,-0.090788759291172,0.0500333383679389,0.0221412554383277
1769251167159,-0.051849365234375,-0.1028289794921875,-0.990753173828125,-0.0732587650418281,0.0363886356353759,0.0228669662028551
1769251167169,-0.05584716796875,-0.0970458984375,-1.0035247802734375,-0.0425682328641414,0.0136742666363716,0.0193063206970691
1769251167179,-0.063995361328125,-0.094512939453125,-1.0077056884765625,-0.0151006560772657,-0.0105796735733747,0.0160934831947088
1769251167189,-0.0642242431640625,-0.0906524658203125,-1.002685546875,-0.0024413196370005,-0.0172628760337829,0.0056509613059461
1769251167199,-0.06573486328125,-0.0953369140625,-0.99853515625,0.0061159492470324,-0.0036341496743261,-0.0018855180824175
1769251167209,-0.066131591796875,-0.1034393310546875,-0.994842529296875,0.013391438871622,0.0020788635592907,-0.0067809405736625
1769251167219,-0.06878662109375,-0.10589599609375,-0.9925537109375,0.0201396234333515,-0.0102118914946913,-0.0086568715050816
1769251167229,-0.0657806396484375,-0.109283447265625,-0.991790771484375,0.0246752519160509,-0.0254329219460487,-0.0089570097625255
1769251167239,-0.060394287109375,-0.103790283203125,-0.996826171875,0.0228938646614551,-0.0192975308746099,-0.0069396649487316
1769251167249,-0.0589599609375,-0.0977630615234375,-0.9948577880859376,0.0199603922665119,-0.0110470587387681,-0.0141323301941156
1769251167259,-0.0615081787109375,-0.09783935546875,-0.9902801513671876,0.0156159773468971,-0.0153371449559926,-0.0150069128721952
1769251167269,-0.0568389892578125,-0.0985260009765625,-0.986053466796875,0.0024309335276484,-0.0193145759403705,-0.0090920319780707
1769251167279,-0.054901123046875,-0.107025146484375,-0.9874725341796876,-0.0047473507001996,-0.0069346050731837,-0.0105772772803902
1769251167289,-0.0554046630859375,-0.1076202392578125,-0.9865875244140624,-0.0090606063604354,0.0030226877424865,-0.0065646921284496
1769251167299,-0.056976318359375,-0.106964111328125,-0.981475830078125,-0.0147424610331654,0.0004609931784216,-0.0027803401462733
1769251167310,-0.057373046875,-0.105865478515625,-0.979278564453125,-0.0188509188592433,0.0039353528991341,0.0052530854009091
1769251167319,-0.0557098388671875,-0.100555419921875,-0.979888916015625,-0.022276010364294,0.0037361485883593,0.0006269080913625
1769251167330,-0.056793212890625,-0.1052093505859375,-0.981475830078125,-0.0211862456053495,0.0057556238025426,-0.0003568635729607
1769251167340,-0.054840087890625,-0.1007843017578125,-0.9857025146484376,-0.0215921103954315,0.0035473306197673,0.0013470269041135
1769251167350,-0.0572509765625,-0.099456787109375,-0.986572265625,-0.0201257746666669,-0.000720385054592,6.55137628200464e-05
1769251167360,-0.0582275390625,-0.10028076171875,-0.9907073974609376,-0.0179190784692764,-0.0046789078041911,0.0002990729990415
1769251167370,-0.0580902099609375,-0.10089111328125,-0.9933013916015624,-0.0135459024459123,-0.0041524008847773,-0.0013555489713326
1769251167380,-0.0614013671875,-0.1037750244140625,-0.9969024658203124,-0.0099234711378812,0.000429301551776,0.0014660701854154
1769251167390,-0.0592193603515625,-0.101837158203125,-0.9990692138671876,-0.0046818372793495,-0.0016136092599481,0.0009456885163672
1769251167400,-0.05755615234375,-0.101226806640625,-0.9963226318359376,-0.0038474688772112,-0.0012713931500911,0.0023459785152226
1769251167410,-0.057586669921875,-0.1004791259765625,-0.9921112060546876,-0.0044485442340373,-0.0041806302033364,-0.0005065332516096
1769251167420,-0.05792236328125,-0.1056671142578125,-0.991668701171875,-0.0015648734988644,-0.0062288674525916,0.0011472897604107
1769251167430,-0.0581207275390625,-0.104522705078125,-0.9918670654296876,-0.0045918221585452,-0.0113767581060528,-0.0012399677652865
1769251167440,-0.06121826171875,-0.10284423828125,-0.987823486328125,-0.0064544370397925,-0.0108547778800129,-0.0027654264122247
1769251167450,-0.0614013671875,-0.099273681640625,-0.9871673583984376,-0.0074912058189511,-0.0119333583861589,-0.0020407803822308
1769251167460,-0.05865478515625,-0.0948486328125,-0.988616943359375,-0.0060829264111816,-0.0097655449062585,0.0021534319967031
1769251167470,-0.0595855712890625,-0.113616943359375,-0.9914398193359376,-0.0110494550317525,0.0008791094878688,0.0122790364548563
1769251167480,-0.0527496337890625,-0.11669921875,-0.9931488037109376,-0.0074874772690236,0.0290071498602628,0.0029976540245115
1769251167490,-0.0551300048828125,-0.082855224609375,-0.9937744140625,0.0111583787947893,0.0247058793902397,-0.0256273318082094
1769251167500,-0.0768890380859375,-0.0646209716796875,-0.9885101318359376,0.0357777029275894,-0.0118699753656983,-0.042490467429161
1769251167510,-0.0876617431640625,-0.086395263671875,-0.9834747314453124,0.0229660365730524,-0.0739096403121948,-0.0339529067277908
1769251167520,-0.070465087890625,-0.1392059326171875,-0.9898223876953124,-0.0089207906275987,-0.0501366704702377,-0.0129376361146569
1769251167530,-0.0410308837890625,-0.128265380859375,-0.9978485107421876,-0.0250507574528455,0.0114736966788768,-0.0182237457484006
1769251167541,-0.0440216064453125,-0.09814453125,-0.9798736572265624,-0.0345033816993236,0.0171254575252532,-0.037066675722599
1769251167551,-0.058319091796875,-0.088836669921875,-0.9655609130859376,-0.0273690391331911,0.0230688340961933,-0.0417130924761295
1769251167561,-0.066253662109375,-0.081451416015625,-0.984344482421875,-0.0061897188425064,0.005288771353662,-0.0365819782018661
1769251167571,-0.0706024169921875,-0.0950164794921875,-1.001373291015625,0.0151922684162855,-0.0417876616120338,-0.0295499023050069
1769251167581,-0.063018798828125,-0.11004638671875,-1.0067596435546875,0.0234552584588527,-0.0632966831326484,-0.0228533837944269
1769251167591,-0.055145263671875,-0.115325927734375,-1.0014495849609375,0.0135696046054363,-0.0547774955630302,-0.0162905566394329
1769251167601,-0.048553466796875,-0.1167755126953125,-0.9844818115234376,-0.0127980867400765,-0.0251037552952766,-0.0103676859289407
1769251167611,-0.0462646484375,-0.1151885986328125,-0.9763336181640624,-0.0366067476570606,0.0057319216430187,0.0
1769251167621,-0.0428009033203125,-0.1126861572265625,-0.9820404052734376,-0.0477797724306583,0.0202528070658445,0.0087138628587126
1769251167631,-0.04608154296875,-0.111083984375,-0.992645263671875,-0.039276298135519,0.0185909941792488,0.0154085168614983
1769251167641,-0.054229736328125,-0.104095458984375,-0.9990692138671876,-0.0214552246034145,-0.0048581385053694,0.0146790770813822
1769251167651,-0.060546875,-0.09771728515625,-0.9997406005859376,-0.0080621875822544,-0.0172881763428449,0.0113740945234894
1769251167661,-0.066650390625,-0.0969390869140625,-0.99749755859375,-0.001577656599693,-0.0117203053086996,0.005960420705378
1769251167671,-0.0673370361328125,-0.0937042236328125,-0.9925384521484376,0.0016104135429486,-0.0052706622518599,-0.0004218447138555
1769251167681,-0.067138671875,-0.0948028564453125,-0.9920501708984376,0.0070930630899965,-0.0034096450544893,-0.0027164241764694
1769251167691,-0.066192626953125,-0.1000518798828125,-0.9940185546875,0.0165427569299936,-0.0068661617115139,-0.0057335193268954
1769251167701,-0.06634521484375,-0.102325439453125,-0.995941162109375,0.0193342827260494,-0.0076805567368865,-0.0083133233711123
1769251167711,-0.0631256103515625,-0.0953826904296875,-0.9973297119140624,0.0285168625414371,-0.0007518103811889,-0.0075268922373652
1769251167721,-0.059600830078125,-0.0899658203125,-0.998291015625,0.0343896634876728,-0.0159645844250917,-0.0153962671756744
1769251167731,-0.0600433349609375,-0.0976104736328125,-0.9958648681640624,0.0335297286510467,-0.0289810504764318,-0.0142215462401509
1769251167741,-0.058013916015625,-0.103363037109375,-0.9917449951171876,0.0242957528680562,-0.0270523894578218,-0.00698067760095
1769251167752,-0.056915283203125,-0.1045379638671875,-0.989166259765625,0.0154583184048533,-0.0245591383427381,5.619269722956233e-05
1769251167762,-0.055084228515625,-0.103515625,-0.9846038818359376,0.0059593557380139,-0.016578709706664,0.0042253714054822
1769251167772,-0.05963134765625,-0.108551025390625,-0.9818115234375,-0.0033569145016372,-0.0138356545940041,0.0074914721772074
1769251167782,-0.0578765869140625,-0.1086578369140625,-0.9820709228515624,-0.0074384752660989,-0.0126252472400665,0.018448781222105
1769251167792,-0.0552520751953125,-0.1053314208984375,-0.98583984375,-0.0106635633856058,-0.015687083825469,0.0197718404233455
1769251167802,-0.0540008544921875,-0.1042633056640625,-0.9862060546875,-0.0115485312417149,-0.0156537946313619,0.0223724171519279
1769251167812,-0.055908203125,-0.10125732421875,-0.984222412109375,-0.0133429700508713,-0.0124795725569128,0.0218373872339725
1769251167822,-0.0581207275390625,-0.1027374267578125,-0.986419677734375,-0.010536796413362,-0.0107860686257481,0.0225260816514492
1769251167832,-0.057861328125,-0.1036834716796875,-0.9866180419921876,-0.0124058034271001,-0.0058850534260272,0.0271645095199346
1769251167842,-0.058929443359375,-0.098785400390625,-0.9881591796875,-0.0106595689430832,0.0010263823205605,0.026371419429779
1769251167852,-0.06298828125,-0.101959228515625,-0.990997314453125,-0.0045225801877677,0.0092856436967849,0.0280694514513015
1769251167862,-0.06512451171875,-0.1000823974609375,-0.9945068359375,-0.0012721919920295,0.0041244374588131,0.0232304874807596
1769251167872,-0.06817626953125,-0.1026458740234375,-0.994537353515625,0.0039449403993785,-0.0075894761830568,0.017534252256155
1769251167882,-0.0693359375,-0.1027984619140625,-0.9944000244140624,0.0049683931283652,-0.0149347409605979,0.012720588594675
1769251167892,-0.067718505859375,-0.1014556884765625,-0.9912872314453124,0.0019110844004899,-0.0080592576414346,0.0086882971227169
1769251167902,-0.067474365234375,-0.10186767578125,-0.9892578125,-0.0069111692719161,0.0092041511088609,0.0095796566456556
1769251167912,-0.0653533935546875,-0.0988311767578125,-0.988433837890625,-0.0105304047465324,0.0205492172390222,0.008356200531125
1769251167922,-0.06610107421875,-0.09783935546875,-0.98883056640625,-0.0086784427985548,0.0098379831761121,0.005715409759432
1769251167932,-0.0674896240234375,-0.0976104736328125,-0.9889068603515624,-0.0025808694772422,-0.0090608727186918,0.0113743608817458
1769251167942,-0.066436767578125,-0.116943359375,-0.993011474609375,-0.001054611755535,-0.0172080155462026,0.0230693668127059
1769251167952,-0.056549072265625,-0.1191864013671875,-0.9984283447265624,0.0041872882284224,0.0059447083622217,0.0222357977181673
1769251167963,-0.0541534423828125,-0.0796661376953125,-0.9954986572265624,0.0173877794295549,0.0161219779402017,0.0039643817581236
1769251167973,-0.0716094970703125,-0.063323974609375,-0.9875335693359376,0.0409160070121288,0.0022421153262257,-0.0134010268375277
1769251167983,-0.08721923828125,-0.0945281982421875,-0.9835205078125,0.0256947111338377,-0.0463246218860149,-0.0016061523929238
1769251167993,-0.0694732666015625,-0.1414794921875,-0.9896697998046876,0.0010410296963527,-0.0174133442342281,0.0215082205832004
1769251168003,-0.040191650390625,-0.125091552734375,-0.9977874755859376,-0.0077362167648971,0.0318953469395637,0.0177073571830987
1769251168013,-0.0478668212890625,-0.0983123779296875,-0.9779052734375,-0.0161123909056186,0.0208379030227661,-0.002486593555659
1769251168023,-0.0637969970703125,-0.090850830078125,-0.958953857421875,-0.0135581530630588,0.0127549432218074,-0.0066698868758976
1769251168033,-0.07330322265625,-0.0830841064453125,-0.972625732421875,-0.0076491311192512,0.0011427623685449,-0.0073436666280031
1769251168043,-0.0789947509765625,-0.0993804931640625,-0.986328125,-0.0024431839119642,-0.0261727478355169,-0.002085521351546
1769251168053,-0.0739288330078125,-0.108856201171875,-0.9942779541015624,-0.0002308960683876,-0.0400677919387817,0.0035864789970219
1769251168063,-0.070465087890625,-0.110015869140625,-0.9889984130859376,-0.0183816701173782,-0.0291815865784883,0.0074621774256229
1769251168073,-0.0662078857421875,-0.1087799072265625,-0.97772216796875,-0.0434622578322887,-0.0021981731988489,0.0070121032185852
1769251168083,-0.0641021728515625,-0.1131744384765625,-0.976226806640625,-0.0646112188696861,0.0124766435474157,0.0091865742579102
1769251168093,-0.059112548828125,-0.113525390625,-0.981536865234375,-0.0699207633733749,0.0098145473748445,0.0194168407469987
1769251168103,-0.05230712890625,-0.10821533203125,-0.9924163818359376,-0.0631776377558708,0.0046815709210932,0.0204309727996587
1769251168113,-0.0597381591796875,-0.10882568359375,-1.0016326904296875,-0.048897236585617,0.0092923017218709,0.0190178994089365
1769251168123,-0.06829833984375,-0.0980987548828125,-1.00079345703125,-0.0386046506464481,0.0118990037590265,0.0167307760566473
1769251168133,-0.071075439453125,-0.0916595458984375,-0.9946441650390624,-0.0278899539262056,0.0085372952744364,0.0083167860284447
1769251168143,-0.074493408203125,-0.09515380859375,-0.996124267578125,-0.0160359572619199,0.0096086850389838,0.000446612102678
1769251168153,-0.0749053955078125,-0.096160888671875,-1.00244140625,0.0021497036796063,-0.0010649980977177,-0.0030676953028887
1769251168164,-0.076416015625,-0.101287841796875,-1.0074462890625,0.0210512224584817,-0.0213359147310256,-0.0074605792760849
1769251168174,-0.0746002197265625,-0.103546142578125,-1.00689697265625,0.0336519703269004,-0.024147680029273,-0.0080515351146459
1769251168184,-0.072845458984375,-0.096038818359375,-1.0060577392578125,0.0376541689038276,-0.000582699663937,-0.0109823439270257
1769251168194,-0.0741729736328125,-0.09161376953125,-0.9989013671875,0.0402749851346015,0.0069649652577936,-0.0167052112519741
1769251168204,-0.0685882568359375,-0.0968170166015625,-0.9949951171875,0.0422161631286144,-0.0084153227508068,-0.0145424576476216
1769251168214,-0.0632171630859375,-0.1009674072265625,-0.993865966796875,0.0423181615769863,-0.0143717490136623,-0.0076355491764843
1769251168224,-0.060760498046875,-0.1029510498046875,-0.991546630859375,0.0340442545711994,-0.0094456998631358,-0.0019608854781836
1769251168234,-0.061004638671875,-0.1045074462890625,-0.985931396484375,0.0248291827738285,-0.0002729740226641,0.0007390272221527
1769251168244,-0.059539794921875,-0.1079254150390625,-0.9802703857421876,0.0155299575999379,0.0037963360082358,0.0057841194793581
1769251168254,-0.060516357421875,-0.1091461181640625,-0.978973388671875,0.0036187032237648,0.0062483083456754,0.0151142375543713
1769251168264,-0.05682373046875,-0.10589599609375,-0.9732818603515624,-0.0044597294181585,0.0144636277109384,0.0180985759943723
1769251168274,-0.06243896484375,-0.105926513671875,-0.97698974609375,-0.0036120454315096,0.015925170853734,0.0215692073106765
1769251168284,-0.0582122802734375,-0.102294921875,-0.9825439453125,-0.0013933659065514,0.0081865573301911,0.0278579965233802
1769251168294,-0.058837890625,-0.1014404296875,-0.987762451171875,0.0010937602492049,0.0044496096670627,0.0271485298871994
1769251168304,-0.0641326904296875,-0.1000518798828125,-0.98675537109375,-0.0021611552219837,0.0026088326703757,0.019939886406064
1769251168314,-0.0705413818359375,-0.1005401611328125,-0.9848175048828124,-0.0033726270776242,-0.0013915016315877,0.020428042858839
1769251168324,-0.0668182373046875,-0.1015472412109375,-0.98687744140625,-0.0054083475843071,0.0045271073468029,0.0189055148512125
1769251168334,-0.068572998046875,-0.1005706787109375,-0.9875640869140624,-0.0091386372223496,0.0063204802572727,0.0182040371000766
1769251168344,-0.071746826171875,-0.1028594970703125,-0.9860687255859376,-0.0109125692397356,0.0134774595499038,0.0121448133140802
1769251168354,-0.0711517333984375,-0.103515625,-0.986419677734375,-0.0130497552454471,0.0179198775440454,0.0093684680759906
1769251168364,-0.0728759765625,-0.102569580078125,-0.9854278564453124,-0.0169550143182277,0.0097487671300768,0.0064427191391587
1769251168375,-0.0721588134765625,-0.102813720703125,-0.986328125,-0.0210150033235549,-0.0004410194815136,0.0007283745799213
1769251168385,-0.0705718994140625,-0.1014404296875,-0.98577880859375,-0.0309051852673292,0.0025206820573657,0.0013387710787355
1769251168395,-0.06915283203125,-0.0974273681640625,-0.9842987060546876,-0.037781998515129,0.0047532096505165,-0.0066736154258251
1769251168405,-0.0722198486328125,-0.100433349609375,-0.9817657470703124,-0.0467808209359645,0.00412257341668,-0.0039806268177926
1769251168415,-0.070037841796875,-0.114471435546875,-0.98211669921875,-0.060519803315401,-0.0029201561119407,0.0067290090955793
1769251168425,-0.062896728515625,-0.1161651611328125,-0.9836578369140624,-0.0587429404258728,0.0185028444975614,0.0022453111596405
1769251168435,-0.060943603515625,-0.0807342529296875,-0.987579345703125,-0.0399298407137393,0.0220981109887361,-0.0199353583157062
1769251168445,-0.081512451171875,-0.065399169921875,-0.9878387451171876,-0.012474512681365,-0.0030011162161827,-0.0344501174986362
1769251168455,-0.0947418212890625,-0.0878143310546875,-0.98980712890625,-0.0223444532603025,-0.0491451770067215,-0.0268302820622921
1769251168465,-0.074920654296875,-0.137847900390625,-1.0041351318359375,-0.0374658815562725,-0.016358733177185,-0.00637773796916
1769251168475,-0.0471038818359375,-0.1214752197265625,-1.0111083984375,-0.0385122373700141,0.0289568174630403,-0.0086965523660182
1769251168485,-0.049102783203125,-0.09039306640625,-0.98681640625,-0.0384464599192142,0.016495618969202,-0.0251026898622512
1769251168495,-0.0635223388671875,-0.0901031494140625,-0.97052001953125,-0.0302947890013456,0.0158050619065761,-0.0321262441575527
1769251168505,-0.0712432861328125,-0.0869903564453125,-0.9833831787109376,-0.0193294901400804,0.0123682525008916,-0.0233908090740442
1769251168515,-0.0718841552734375,-0.0988311767578125,-0.9988555908203124,-0.006753243971616,-0.0132042188197374,-0.0099985720589756
1769251168525,-0.0631866455078125,-0.1082305908203125,-1.00909423828125,-0.0008210525847971,-0.0286771841347217,-0.0100118881091475
1769251168535,-0.066070556640625,-0.1085662841796875,-1.0024261474609375,-0.0054980958811938,-0.0193547885864973,-0.0087479511275887
1769251168546,-0.06561279296875,-0.1035919189453125,-0.989593505859375,-0.0178466420620679,-0.0067130299285054,-0.0061524347402155
1769251168555,-0.0579071044921875,-0.10687255859375,-0.9870147705078124,-0.0305768176913261,0.0091365063562989,-0.0015121428295969
1769251168565,-0.0564117431640625,-0.108154296875,-0.989105224609375,-0.0364299118518829,0.0273016616702079,0.0048757153563201
1769251168576,-0.055267333984375,-0.1016845703125,-0.995697021484375,-0.028073713183403,0.0286713261157274,0.0076976008713245
1769251168586,-0.060455322265625,-0.1016845703125,-0.997161865234375,-0.0164026748389005,0.0190272200852632,0.0066499132663011
1769251168595,-0.0673675537109375,-0.0975341796875,-0.998260498046875,-0.0060869208537042,0.006900783162564,-8.255799002654385e-06
1769251168606,-0.069549560546875,-0.0944976806640625,-0.993927001953125,-0.003050118451938,0.0168689955025911,-0.0035257588606327
1769251168616,-0.069580078125,-0.0918121337890625,-0.9953460693359376,-0.0007086671539582,0.0250725969672203,-0.0125482827425003
1769251168626,-0.0716552734375,-0.0976104736328125,-0.996002197265625,0.0080502033233642,0.0295317936688661,-0.0144146252423524
1769251168636,-0.07049560546875,-0.096832275390625,-0.9970855712890624,0.010717892087996,0.0225886665284633,-0.0165739171206951
1769251168646,-0.07012939453125,-0.098785400390625,-0.99755859375,0.0128140654414892,0.0204416252672672,-0.0184461195021867
1769251168656,-0.06549072265625,-0.0962371826171875,-1.0001678466796875,0.022251509130001,0.0237822942435741,-0.0208573453128337
1769251168666,-0.06390380859375,-0.08648681640625,-0.9984130859375,0.0285520162433385,0.0101200118660926,-0.0250409040600061
1769251168676,-0.0637359619140625,-0.0925140380859375,-0.994354248046875,0.027759725227952,0.0042117894627153,-0.0252584852278232
1769251168686,-0.062255859375,-0.1010894775390625,-0.9940948486328124,0.0212054196745157,0.0047982172109186,-0.020821925252676
1769251168696,-0.0592041015625,-0.1011505126953125,-0.987884521484375,0.0096523612737655,0.0144702857360243,-0.0154255619272589
1769251168706,-0.05633544921875,-0.1026611328125,-0.9829254150390624,-0.002697782125324,0.0264611691236495,-0.0117706395685672
1769251168716,-0.0588836669921875,-0.106719970703125,-0.981781005859375,-0.0098784631118178,0.0326405018568038,-0.0121871577575802
1769251168726,-0.058197021484375,-0.104705810546875,-0.982208251953125,-0.010858773253858,0.026879284530878,-0.0097857853397727
1769251168736,-0.0569610595703125,-0.1005859375,-0.9889678955078124,-0.0105317365378141,0.0281141921877861,-0.0033398703671991
1769251168746,-0.0559844970703125,-0.0951080322265625,-0.990386962890625,-0.0149318110197782,0.030629014596343,-0.0091325119137763
1769251168756,-0.059722900390625,-0.1017303466796875,-0.989410400390625,-0.0091732582077384,0.0329020246863365,-0.0126393623650074
1769251168766,-0.0561370849609375,-0.099853515625,-0.991424560546875,-0.0097554251551628,0.0194008629769086,-0.0033510555513203
1769251168776,-0.0531005859375,-0.0975189208984375,-0.9894561767578124,-0.0103783383965492,0.0157784298062324,-0.0049750511534512
1769251168786,-0.054443359375,-0.10308837890625,-0.9910736083984376,-0.0088286455720663,0.0245452895760536,-0.0009025452891364
1769251168797,-0.054443359375,-0.1029815673828125,-0.9918975830078124,-0.0059588230215013,0.0302979853004217,0.0031084415968507
1769251168807,-0.057769775390625,-0.10205078125,-0.9938201904296876,0.0007539408979937,0.0365484245121479,0.0057148775085806
1769251168817,-0.0609588623046875,-0.09979248046875,-0.999237060546875,0.0081860246136784,0.0471611209213733,0.010308563709259
1769251168827,-0.0625,-0.0979766845703125,-1.0030670166015625,0.0171009562909603,0.0379207506775856,0.0073327478021383
1769251168837,-0.062225341796875,-0.10015869140625,-1.002197265625,0.0269264224916696,0.0220139548182487,0.0110787497833371
1769251168847,-0.0586090087890625,-0.098114013671875,-0.9998931884765624,0.0301379282027483,0.0109985889866948,0.0143107622861862
1769251168857,-0.0582275390625,-0.0982513427734375,-0.995635986328125,0.0296798646450042,0.0097775291651487,0.006271744146943
1769251168867,-0.062042236328125,-0.101715087890625,-0.9906005859375,0.0320554040372371,0.0120223080739378,0.0063449810259044
1769251168877,-0.06292724609375,-0.102264404296875,-0.98919677734375,0.0316711105406284,0.0149959940463304,0.0131565481424331
1769251168887,-0.0624847412109375,-0.112396240234375,-0.9877166748046876,0.0203566700220108,0.0191284213215112,0.0225452557206153
1769251168897,-0.055450439453125,-0.1128692626953125,-0.98779296875,0.0132755916565656,0.0513276346027851,0.0197148490697145
1769251168907,-0.0556488037109375,-0.0806121826171875,-0.98663330078125,0.0220610927790403,0.0530701428651809,-0.0097309239208698
1769251168917,-0.075286865234375,-0.0645904541015625,-0.98077392578125,0.0391439385712146,0.0159816294908523,-0.0291909091174602
1769251168927,-0.0886383056640625,-0.0923004150390625,-0.9805450439453124,0.0205713212490081,-0.0393487364053726,-0.0215428434312343
1769251168937,-0.0707244873046875,-0.138275146484375,-0.98974609375,0.0010575412306934,-0.0056187370792031,-0.0031909996178001
1769251168947,-0.04510498046875,-0.116363525390625,-0.99530029296875,-0.0160705782473087,0.0429061874747276,-0.0126899620518088
1769251168957,-0.04705810546875,-0.091278076171875,-0.9714202880859376,-0.0263320058584213,0.0423354730010032,-0.0354581251740455
1769251168967,-0.0612945556640625,-0.0931549072265625,-0.9630279541015624,-0.0183920562267303,0.0431642495095729,-0.0391426086425781
1769251168977,-0.0659332275390625,-0.09033203125,-0.9789886474609376,-0.0068475198931992,0.0269013885408639,-0.0278047323226928
1769251168987,-0.066986083984375,-0.1017913818359375,-0.9924468994140624,0.0077247652225196,-0.0130966268479824,-0.0182676874101161
1769251168997,-0.0605926513671875,-0.1136474609375,-1.0003204345703125,0.0033143039327114,-0.0315328910946846,-0.0075298217125236
1769251169008,-0.054443359375,-0.114227294921875,-0.9967803955078124,-0.0172796547412872,-0.0198264345526695,-0.003524693660438
1769251169017,-0.0503387451171875,-0.1109161376953125,-0.9832763671875,-0.0439682565629482,0.0048344363458454,-0.0041667819023132
1769251169028,-0.0471343994140625,-0.116607666015625,-0.9808807373046876,-0.0551359578967094,0.0213122125715017,0.0004524710529949
1769251169038,-0.046417236328125,-0.1109161376953125,-0.987579345703125,-0.0529401786625385,0.0267820786684751,0.0105354655534029
1769251169048,-0.049591064453125,-0.1044158935546875,-0.9960174560546876,-0.0383737534284591,0.0275962073355913,0.0144119625911116
1769251169058,-0.0550079345703125,-0.098846435546875,-1.0000762939453125,-0.0193641111254692,0.0157118514180183,0.0149914659559726
1769251169068,-0.0601348876953125,-0.0920257568359375,-0.9979248046875,-0.0092185316607356,0.0105522433295845,0.0077362167648971
1769251169078,-0.0648651123046875,-0.0894775390625,-0.9912109375,-0.0077615166082978,0.026314428076148,-0.0044296355918049
1769251169088,-0.06964111328125,-0.09527587890625,-0.992645263671875,0.0007629956235177,0.0324514172971248,-0.013357350602746
1769251169098,-0.066070556640625,-0.1000213623046875,-0.996856689453125,0.0125770447775721,0.0185446552932262,-0.0081961443647742
1769251169108,-0.0595550537109375,-0.1045989990234375,-0.9960174560546876,0.0207665301859378,-0.002355566015467,-0.0047268443740904
1769251169118,-0.0572357177734375,-0.1064300537109375,-0.9964752197265624,0.0254030954092741,-0.0025923210196197,-0.0082225101068615
1769251169128,-0.0576019287109375,-0.0985565185546875,-0.9945526123046876,0.0234392788261175,0.0121820978820323,-0.0194373466074466
1769251169138,-0.0634307861328125,-0.0959930419921875,-0.98956298828125,0.0199827626347541,0.0079748360440135,-0.017455955967307
1769251169148,-0.058868408203125,-0.0969390869140625,-0.9861297607421876,0.011322695761919,-0.0110414661467075,-0.017937721684575
1769251169158,-0.0576934814453125,-0.1053924560546875,-0.98675537109375,0.0009693906176835,-0.0079247681424021,-0.0138676119968295
1769251169168,-0.0550079345703125,-0.10888671875,-0.98675537109375,-0.0105506451800465,0.0039281626231968,-0.0097458381205797
1769251169178,-0.052337646484375,-0.1075286865234375,-0.980438232421875,-0.0169299803674221,0.0082129221409559,-0.0083175851032137
1769251169188,-0.0552978515625,-0.107025146484375,-0.9796295166015624,-0.0238808318972587,0.0119173796847462,-0.0028535770252346
1769251169198,-0.0545806884765625,-0.10107421875,-0.9801788330078124,-0.0318229123950004,0.0139831937849521,-0.0024698155466467
1769251169209,-0.0550079345703125,-0.1015777587890625,-0.987060546875,-0.0317347608506679,0.0180264040827751,-0.0017816547770053
1769251169219,-0.0533905029296875,-0.098724365234375,-0.9920501708984376,-0.0268646366894245,0.0121251055970788,-0.0046799727715551
1769251169229,-0.05169677734375,-0.0995025634765625,-0.9951629638671876,-0.0144513770937919,0.0013068130938336,-0.0065425876528024
1769251169239,-0.0510101318359375,-0.0995330810546875,-0.995849609375,-0.0116009963676333,0.0010231864871457,-0.0020018981304019
1769251169249,-0.0507354736328125,-0.1016693115234375,-0.9916229248046876,-0.0056917080655694,0.0048775793984532,-0.0019699402619153
1769251169259,-0.0534210205078125,-0.1061248779296875,-0.9914093017578124,-0.0025803367607295,0.0077018616721034,0.0016460998449474
1769251169269,-0.0540313720703125,-0.1013641357421875,-0.99188232421875,0.0018530274974182,0.0098997689783573,0.003042128868401
1769251169279,-0.0590667724609375,-0.1008148193359375,-0.99462890625,0.0097751328721642,0.0178074929863214,0.0023505059070885
1769251169289,-0.058319091796875,-0.0968017578125,-0.9980926513671876,0.0154673727229237,0.0121690481901168,-0.0010644654976204
1769251169299,-0.0614776611328125,-0.1001129150390625,-0.9978179931640624,0.0195273626595735,0.0009534116834402,-0.0068981195800006
1769251169309,-0.0610809326171875,-0.095367431640625,-0.9887847900390624,0.0112087121233344,-0.0048136636614799,-0.0099548958241939
1769251169319,-0.0601043701171875,-0.096343994140625,-0.9815826416015624,0.0011315771844238,0.0036064526066184,-0.0151107758283615
1769251169329,-0.0613555908203125,-0.101715087890625,-0.9816436767578124,-0.0069918632507324,0.0170080121606588,-0.0153467319905757
1769251169339,-0.05712890625,-0.098541259765625,-0.982513427734375,-0.0108087053522467,0.0180572979152202,-0.0165076032280921
1769251169349,-0.05584716796875,-0.10357666015625,-0.985809326171875,-0.0133983632549643,0.0066086342558264,-0.0075734974816441
1769251169359,-0.050689697265625,-0.1179656982421875,-0.98834228515625,-0.0201396234333515,0.0093144057318568,0.0013587448047474
1769251169369,-0.044342041015625,-0.1020355224609375,-0.9890289306640624,-0.0235311593860387,0.0343710221350193,-0.0099104214459657
1769251169379,-0.052978515625,-0.0798797607421875,-0.98614501953125,-0.0083809681236743,0.0281525421887636,-0.0309286210685968
1769251169389,-0.0686187744140625,-0.0799713134765625,-0.9866485595703124,0.0029300097376108,-0.0161113254725933,-0.0272561218589544
1769251169399,-0.069366455078125,-0.112823486328125,-0.9926605224609376,0.0062693473882973,-0.0309166368097066,-0.0093594128265976
1769251169409,-0.053924560546875,-0.126495361328125,-1.005035400390625,0.0041382857598364,0.0148692270740866,-0.0077543258666992
1769251169419,-0.0437164306640625,-0.0995941162109375,-0.99041748046875,-0.0087221190333366,0.0227950606495142,-0.0255793966352939
1769251169430,-0.047027587890625,-0.0911865234375,-0.972747802734375,-0.0118593228980898,0.0325731225311756,-0.0330927073955535
1769251169440,-0.05419921875,-0.081024169921875,-0.9761962890625,-0.0027547737117856,0.0338682197034359,-0.0339675545692443
1769251169450,-0.0677032470703125,-0.0933685302734375,-0.986297607421875,0.0137211382389068,0.0052400357089936,-0.0197811610996723
1769251169460,-0.0650787353515625,-0.1096343994140625,-0.995758056640625,0.0158396828919649,-0.0329566188156604,-0.0049276468344032
1769251169470,-0.058349609375,-0.1196746826171875,-0.999298095703125,0.0021568941883742,-0.037986796349287,-0.0027329358272254
1769251169480,-0.051361083984375,-0.120849609375,-0.991912841796875,-0.0262206848710775,-0.0214728005230426,-0.0070086410269141
1769251169490,-0.0450592041015625,-0.11572265625,-0.980682373046875,-0.057301640510559,0.0046650590375065,-0.0047398940660059
1769251169500,-0.0410614013671875,-0.109466552734375,-0.9797821044921876,-0.0712648555636406,0.0385979935526847,-0.0030581078026443
1769251169510,-0.0443115234375,-0.103851318359375,-0.9853363037109376,-0.06254593282938,0.047800812870264,-0.0004950816510245
1769251169520,-0.0497283935546875,-0.0988616943359375,-0.9937744140625,-0.0339800715446472,0.0290233958512544,0.0018538264557719
1769251169530,-0.056243896484375,-0.092376708984375,-1.0043487548828125,-0.0053966296836733,0.0038005972746759,0.0005552690709009
1769251169540,-0.0595703125,-0.094207763671875,-1.008087158203125,0.0125530762597918,-0.0065476479940116,-0.0044229780323803
1769251169550,-0.0601806640625,-0.0924835205078125,-1.0045166015625,0.0198796987533569,-0.0058483015745878,-0.0112846121191978
1769251169560,-0.0602264404296875,-0.0961151123046875,-0.9986419677734376,0.0233420748263597,0.0083548687398433,-0.0133003592491149
1769251169570,-0.0575714111328125,-0.103759765625,-0.997100830078125,0.0283791776746511,0.0124875623732805,-0.0086502134799957
1769251169580,-0.0532073974609375,-0.1087799072265625,-0.99212646484375,0.0318870916962623,-0.000974716967903,-0.0061550978571176
1769251169590,-0.0469207763671875,-0.1067352294921875,-0.9921112060546876,0.0347097776830196,-0.0039169774390757,-0.0001225054147653
1769251169600,-0.0447845458984375,-0.1033477783203125,-0.9950714111328124,0.0370874479413032,-0.0044581317342817,0.0032906017731875
1769251169611,-0.0460968017578125,-0.099029541015625,-0.9911956787109376,0.0380973182618618,-0.0032740901224315,0.0059862532652914
1769251169620,-0.04754638671875,-0.0983428955078125,-0.9856109619140624,0.0291770603507757,-0.0114904744550585,0.0085514103993773
1769251169630,-0.048736572265625,-0.1065216064453125,-0.984405517578125,0.0234699063003063,-0.0083002736791968,0.0090243872255086
1769251169641,-0.048614501953125,-0.1043701171875,-0.9821929931640624,0.0203611981123685,-0.003460245206952,0.0139957107603549
1769251169651,-0.0540313720703125,-0.100738525390625,-0.9802398681640624,0.0209223255515098,-0.0051976912654936,0.0138250021263957
1769251169661,-0.0599212646484375,-0.097412109375,-0.9793701171875,0.0195745006203651,-0.0009843043517321,0.0125155253335833
1769251169671,-0.060150146484375,-0.0941162109375,-0.9778900146484376,0.0110145676881074,0.0102547677233815,0.0108851380646228
1769251169681,-0.0579986572265625,-0.0940704345703125,-0.9803466796875,0.0057023605331778,0.0107035106047987,0.0044192494824528
1769251169691,-0.0556640625,-0.0988616943359375,-0.979583740234375,0.0072001223452389,-0.0018165421206504,-0.000697215553373
1769251169701,-0.0518951416015625,-0.100006103515625,-0.9803466796875,0.0066917249932885,-0.0144963841885328,-0.0025148231070488
1769251169711,-0.0527191162109375,-0.1052093505859375,-0.9786529541015624,-0.0007084008539095,-0.0153472647070884,-0.0035129757598042
1769251169721,-0.0530242919921875,-0.1048583984375,-0.978607177734375,-0.0157696418464183,0.0017025588313117,-0.000446612102678
1769251169731,-0.053253173828125,-0.1030731201171875,-0.9817047119140624,-0.0255527645349502,0.0073047843761742,-0.0037830201908946
1769251169741,-0.055145263671875,-0.1030426025390625,-0.9840240478515624,-0.0302106328308582,0.0033462618011981,0.0007408913807012
1769251169751,-0.053802490234375,-0.1033935546875,-0.98919677734375,-0.0287158004939556,0.0005382248782552,0.0014423680258914
1769251169761,-0.0538482666015625,-0.1042938232421875,-0.996978759765625,-0.0240896232426166,-0.0027366643771529,0.0042749061249196
1769251169772,-0.0528717041015625,-0.101898193359375,-0.99945068359375,-0.0165070705115795,-0.0086177233606576,0.005731388926506
1769251169781,-0.053558349609375,-0.1018524169921875,-0.9982757568359376,-0.0121868913993239,-0.0019489012192934,0.0100454436615109
1769251169791,-0.0547027587890625,-0.1020965576171875,-0.998382568359375,-0.0108260158449411,0.0056240637786686,0.0090542146936059
1769251169801,-0.056427001953125,-0.1009063720703125,-0.995880126953125,-0.0047609331086277,0.007087470497936,0.0103309340775012
1769251169811,-0.0572509765625,-0.0978851318359375,-0.9922943115234376,0.0031228226143866,-0.0070259515196084,0.0170871075242757
1769251169821,-0.055328369140625,-0.113433837890625,-0.9951934814453124,0.0081125209107995,-0.0153384758159518,0.0256430450826883
1769251169832,-0.0479583740234375,-0.1115264892578125,-0.998504638671875,0.0094899078831076,0.0196559932082891,0.0228674989193677
1769251169842,-0.0482635498046875,-0.0776824951171875,-0.9922943115234376,0.0198160484433174,0.0288947653025388,-0.0027675570454448
1769251169852,-0.068572998046875,-0.0722808837890625,-0.9884796142578124,0.0422332063317298,-0.0024498419370502,-0.0126843694597482
1769251169862,-0.07574462890625,-0.1004638671875,-0.98956298828125,0.0312684401869773,-0.0521990209817886,0.0019222697010263
1769251169872,-0.0636749267578125,-0.1425933837890625,-0.99932861328125,0.0190040506422519,-0.006604905705899,0.020478643476963
1769251169882,-0.0404052734375,-0.1185455322265625,-0.99725341796875,0.0008791094878688,0.0301152914762496,0.0128425620496273
1769251169892,-0.0427093505859375,-0.102142333984375,-0.970428466796875,-0.0156727023422718,0.0331299901008605,-0.0062776030972599
1769251169902,-0.052642822265625,-0.0946502685546875,-0.963897705078125,-0.0083830980584025,0.0368837155401706,-0.0101698134094476
1769251169912,-0.06365966796875,-0.08404541015625,-0.9745635986328124,0.0089703258126974,-0.0031656995415687,-0.0058405785821378
1769251169922,-0.070709228515625,-0.0987396240234375,-0.98468017578125,0.021305289119482,-0.0480724535882473,0.0043947482481598
1769251169932,-0.06854248046875,-0.11602783203125,-0.9943084716796876,0.0126193882897496,-0.0524056851863861,0.0116521287709474
1769251169942,-0.0626068115234375,-0.118133544921875,-0.9918212890625,-0.0229830797761678,-0.0251378435641527,0.0131749240681529
1769251169952,-0.0536041259765625,-0.113525390625,-0.97589111328125,-0.0636823028326034,0.0006271744496189,0.0117991352453827
1769251169962,-0.0470733642578125,-0.1143341064453125,-0.9692535400390624,-0.0903607904911041,0.0202317684888839,0.0128574753180146
1769251169972,-0.0450897216796875,-0.11346435546875,-0.979766845703125,-0.0941374152898788,0.0277650523930788,0.0188895352184772
1769251169982,-0.0489501953125,-0.106231689453125,-0.9904937744140624,-0.0833212584257125,0.0190069805830717,0.0229548513889312
1769251169992,-0.05615234375,-0.1023101806640625,-0.9980010986328124,-0.0677273795008659,0.0157225038856267,0.0205412283539772
1769251170002,-0.06201171875,-0.09710693359375,-1.00274658203125,-0.0596172586083412,0.017486048862338,0.0148646999150514
1769251170012,-0.063140869140625,-0.092010498046875,-0.9987030029296876,-0.0508658438920974,0.0198871549218893,0.0050245858728885
1769251170022,-0.06512451171875,-0.0977935791015625,-0.99871826171875,-0.0372645482420921,0.0151089113205671,0.0023355921730399
1769251170032,-0.06134033203125,-0.0960693359375,-1.0012664794921875,-0.0189388040453195,0.0036021915730088,0.0007299724384211
1769251170042,-0.062164306640625,-0.103179931640625,-1.003997802734375,-0.0016788567882031,0.0028186896815896,-0.0015363775892183
1769251170052,-0.0583648681640625,-0.10394287109375,-1.0078887939453125,0.0109719568863511,-0.0040349555201828,-0.0031435952987521
1769251170062,-0.0564117431640625,-0.100311279296875,-1.0047760009765625,0.0173430368304252,-0.0075258268043398,-0.0026919231750071
1769251170073,-0.0535736083984375,-0.0949859619140625,-1.0012054443359375,0.0220610927790403,0.006901049055159,-0.0048299087211489
1769251170083,-0.0584869384765625,-0.0912628173828125,-0.9980621337890624,0.0182493105530738,0.0089221224188804,-0.0104981809854507
1769251170093,-0.0601654052734375,-0.1035919189453125,-0.9962310791015624,0.0177475716918706,0.0010468886466696,-0.0079154474660754
1769251170103,-0.0540924072265625,-0.1026763916015625,-0.997100830078125,0.0173441022634506,-0.001947037060745,-0.0008008125587366
1769251170113,-0.0522003173828125,-0.1007537841796875,-0.992156982421875,0.0165922921150922,-0.0003656520275399,-0.002747849561274
1769251170123,-0.0561981201171875,-0.106597900390625,-0.987274169921875,0.0134806549176573,0.0029214876703917,-0.002747849561274
1769251170133,-0.0549468994140625,-0.1041412353515625,-0.9816436767578124,0.0087724523618817,0.003572630463168,0.0027047062758356
1769251170143,-0.0518646240234375,-0.099578857421875,-0.9782867431640624,-0.0012093414552509,0.0127488179132342,-0.000835966260638
1769251170153,-0.055694580078125,-0.1038360595703125,-0.980133056640625,-0.0034202977549284,0.016202138736844,-0.0058610849082469
1769251170163,-0.0540313720703125,-0.097625732421875,-0.9802093505859376,-0.0071916002780199,0.004455734975636,-0.0074808192439377
1769251170173,-0.0556793212890625,-0.094970703125,-0.9821014404296876,-0.0112646389752626,0.0054296529851853,-0.006940730381757
1769251170183,-0.052764892578125,-0.098785400390625,-0.9896087646484376,-0.006729541812092,0.0048631983809173,-0.0072059812955558
1769251170193,-0.0504913330078125,-0.10101318359375,-0.9930419921875,-0.0035681033041328,-0.0033159018494188,-0.0077961375936865
1769251170203,-0.0517425537109375,-0.098297119140625,-0.991241455078125,-0.0049273804761469,-0.0051108724437654,-0.0080747045576572
1769251170213,-0.0556793212890625,-0.099853515625,-0.9894256591796876,-0.0023494407068938,-0.0012932310346513,-0.0061614895239472
1769251170223,-0.0545196533203125,-0.100250244140625,-0.99078369140625,-0.0016245282022282,-0.0015422365395352,-0.003589941188693
1769251170233,-0.049530029296875,-0.09906005859375,-0.9919891357421876,-0.0047313719987869,-0.0074475300498306,-0.0010993528412654
1769251170243,-0.04986572265625,-0.10101318359375,-0.9919281005859376,-0.0049817091785371,-0.0016935041639953,0.0007368966471403
1769251170253,-0.0512542724609375,-0.0986785888671875,-0.9941558837890624,-0.0071180970408022,0.0057753310538828,0.0061612231656908
1769251170263,-0.051239013671875,-0.09765625,-0.992279052734375,-0.0026719495654106,0.0032336101867258,0.0058040930889546
1769251170274,-0.05615234375,-0.1009979248046875,-0.9916229248046876,-0.0004567321157082,-0.0099698100239038,0.0157038625329732
1769251170284,-0.05377197265625,-0.113494873046875,-0.9916534423828124,-0.0059588230215013,-0.0004836300504393,0.0300455167889595
1769251170294,-0.04559326171875,-0.0984649658203125,-0.992706298828125,-0.0062821307219564,0.0239532701671123,0.0172021556645631
1769251170304,-0.0530242919921875,-0.070892333984375,-0.988494873046875,0.0123831667006015,0.0203518774360418,-0.008675780147314
1769251170314,-0.0728607177734375,-0.06707763671875,-0.9858856201171876,0.0338136218488216,-0.018658373504877,-0.0151688326150178
1769251170324,-0.07720947265625,-0.10308837890625,-0.98760986328125,0.025218004360795,-0.0554336979985237,-0.0004274373641237
1769251170334,-0.0556793212890625,-0.1428985595703125,-1.0023040771484375,0.0080712419003248,-0.0314314253628253,0.0193063206970691
1769251170344,-0.0372161865234375,-0.11944580078125,-0.9983673095703124,-0.0008064051507972,0.0029640982393175,0.0123512083664536
1769251170354,-0.0430145263671875,-0.087493896484375,-0.9746551513671876,-0.0114396084100008,0.0083226449787616,-0.0024264061357825
1769251170364,-0.05352783203125,-0.0815277099609375,-0.9650726318359376,-0.0067545752972364,0.011354386806488,-0.0108209559693932
1769251170374,-0.064178466796875,-0.081695556640625,-0.9774627685546876,0.0041683795861899,-0.0036724992096424,-0.0066874637268483
1769251170384,-0.0658416748046875,-0.0985565185546875,-0.9920501708984376,0.0177406482398509,-0.0316231735050678,-0.001349956379272
1769251170394,-0.0612945556640625,-0.11370849609375,-1.003173828125,0.0202115289866924,-0.0405271872878074,0.0055795889347791
1769251170404,-0.0579986572265625,-0.11212158203125,-0.995880126953125,0.0054400390945374,-0.0308889392763376,0.0089415628463029
1769251170414,-0.0543212890625,-0.11004638671875,-0.9815521240234376,-0.024707743898034,-0.0109951263293623,0.0123866284266114
1769251170424,-0.050506591796875,-0.1116485595703125,-0.97637939453125,-0.0483321137726306,0.0058285943232476,0.0172583498060703
1769251170434,-0.0446929931640625,-0.1123199462890625,-0.9823455810546876,-0.0601229928433895,0.0189854092895984,0.0274729039520025
1769251170444,-0.042022705078125,-0.1102294921875,-0.9897613525390624,-0.0522440299391746,0.0123157883062958,0.031958732753992
1769251170454,-0.0478057861328125,-0.109161376953125,-0.9942779541015624,-0.0382573753595352,-0.0009827064350247,0.0304825417697429
1769251170464,-0.057708740234375,-0.0980987548828125,-0.9942169189453124,-0.0256608892232179,-0.0077380808070302,0.026340527459979
1769251170474,-0.0637969970703125,-0.0959625244140625,-0.9926300048828124,-0.0208943635225296,-0.0061652180738747,0.0196562595665454
1769251170485,-0.064117431640625,-0.09423828125,-0.9937896728515624,-0.0191273558884859,0.0057249972596764,0.0166442245244979
1769251170495,-0.065704345703125,-0.0930023193359375,-0.9946136474609376,-0.0120271015912294,0.0086185215041041,0.0073407371528446
1769251170505,-0.0659027099609375,-0.103271484375,-0.9955902099609376,-0.0048301750794053,-0.0084563354030251,0.0052722599357366
1769251170515,-0.063995361328125,-0.101837158203125,-0.99554443359375,0.0053702644072473,-0.0193401426076889,0.0002508697798475
1769251170525,-0.0630645751953125,-0.0947418212890625,-0.998382568359375,0.0139672141522169,-0.0070480559952557,-0.0053950315341353
1769251170535,-0.065521240234375,-0.0877227783203125,-0.9983978271484376,0.0163890924304723,-0.0098486356437206,-0.0092126727104187
1769251170545,-0.0624542236328125,-0.094085693359375,-0.9960174560546876,0.0181848630309104,-0.0193095151335001,-0.0084717813879251
1769251170555,-0.05682373046875,-0.103607177734375,-0.9991302490234376,0.0167153310030698,-0.0202378928661346,-0.0036232306156307
1769251170565,-0.0516357421875,-0.1027679443359375,-0.992919921875,0.0095314532518386,-0.0185092352330684,0.0019435749854892
1769251170575,-0.0541229248046875,-0.1043548583984375,-0.9829559326171876,0.0018524948973208,-0.0103197488933801,0.0025640914682298
1769251170585,-0.0569610595703125,-0.105010986328125,-0.9787445068359376,-0.0095591507852077,-0.0035172367934137,0.0083458144217729
1769251170595,-0.05780029296875,-0.1033782958984375,-0.9780426025390624,-0.0169403683394193,-0.0039659794420003,0.0116318883374333
1769251170605,-0.0566558837890625,-0.1009063720703125,-0.9797515869140624,-0.0261077675968408,-0.0009238505735993,0.0116518624126911
1769251170615,-0.0562286376953125,-0.0991363525390625,-0.9832916259765624,-0.0288287177681922,-0.0018080200534313,0.0053364420309662
1769251170625,-0.058258056640625,-0.101806640625,-0.985198974609375,-0.0295368526130914,-0.0081798993051052,0.0051833102479577
1769251170635,-0.0558624267578125,-0.0975341796875,-0.9843902587890624,-0.0328018888831138,-0.0091399690136313,0.004008057527244
1769251170645,-0.055389404296875,-0.1014862060546875,-0.986541748046875,-0.0303240828216075,-0.0005097290268167,0.0054759918712079
1769251170655,-0.0548248291015625,-0.1027679443359375,-0.990264892578125,-0.0280385594815015,0.0084837656468153,0.004163319710642
1769251170665,-0.0601043701171875,-0.103973388671875,-0.9925994873046876,-0.0232262257486581,0.0016586167039349,0.0059809270314872
1769251170676,-0.058441162109375,-0.0979156494140625,-0.99432373046875,-0.0180556997656822,-0.0079745696857571,0.0061178137548267
1769251170686,-0.058990478515625,-0.0956573486328125,-0.9964447021484376,-0.017667943611741,-0.0054719969630241,0.0057316552847623
1769251170696,-0.0600738525390625,-0.0967254638671875,-0.998443603515625,-0.0158031973987817,0.00384400668554,0.00721130752936
1769251170706,-0.057159423828125,-0.0942535400390625,-0.9977264404296876,-0.0169640704989433,0.008879511617124,0.0076635121367871
1769251170716,-0.0573272705078125,-0.09228515625,-0.993621826171875,-0.0138700092211365,0.0124207166954875,0.0009917612187564
1769251170726,-0.0627899169921875,-0.0941314697265625,-0.9928741455078124,-0.0054176687262952,0.0104616954922676,0.0022865901701152
1769251170736,-0.0609130859375,-0.099395751953125,-0.9962158203125,1.304948909819359e-05,-0.0135602839291095,0.0126287098973989
1769251170746,-0.0535888671875,-0.1149444580078125,-0.9978179931640624,0.0002434129273751,-0.0123506756499409,0.0176876503974199
1769251170756,-0.0501708984375,-0.0916748046875,-0.99578857421875,0.0058304583653807,0.0053407032974064,0.0076017268002033
1769251170766,-0.059906005859375,-0.064056396484375,-0.9875946044921876,0.0221551023423671,0.0077082533389329,-0.0161542017012834
1769251170776,-0.07818603515625,-0.0699615478515625,-0.9817352294921876,0.0267671663314104,-0.0336101576685905,-0.0152010573074221
1769251170786,-0.0741424560546875,-0.114166259765625,-0.985992431640625,0.0046988814137876,-0.0574688836932182,0.0094241276383399
1769251170796,-0.0482940673828125,-0.1373748779296875,-0.9997100830078124,-0.0132090123370289,-0.0016911072889342,0.0183662232011556
1769251170806,-0.038848876953125,-0.1082305908203125,-0.9928741455078124,-0.02861406840384,0.022994264960289,0.008191617205739
1769251170816,-0.0538482666015625,-0.09075927734375,-0.966766357421875,-0.040918406099081,0.0189286842942237,-0.006590524688363
1769251170826,-0.06329345703125,-0.08563232421875,-0.969024658203125,-0.0313600525259971,0.0308170337229967,-0.0063559003174304
1769251170836,-0.0650482177734375,-0.08184814453125,-0.986083984375,-0.016914801672101,0.0001960086519829,-0.000990163302049
1769251170846,-0.06585693359375,-0.0942535400390625,-0.9945068359375,-0.0007028082036413,-0.0351084508001804,0.0037718350067734
1769251170856,-0.063507080078125,-0.1062164306640625,-0.9997711181640624,0.0031076427549123,-0.0433554649353027,0.0061116884462535
1769251170866,-0.063079833984375,-0.107330322265625,-0.994140625,-0.0124364299699664,-0.0279477443546056,0.0072696306742727
1769251170876,-0.0607147216796875,-0.1044769287109375,-0.983062744140625,-0.0278715789318084,-0.0124079333618283,0.0100156161934137
1769251170886,-0.057647705078125,-0.105377197265625,-0.9860992431640624,-0.0371931754052639,-0.0030796795617789,0.0179861914366483
1769251170896,-0.0519866943359375,-0.1034393310546875,-0.9951019287109376,-0.0363992862403392,0.0016727314796298,0.0188405327498912
1769251170907,-0.056060791015625,-0.099395751953125,-0.9983673095703124,-0.0304561760276556,0.0048876996152102,0.0205193888396024
1769251170916,-0.060211181640625,-0.093505859375,-0.998626708984375,-0.0213830526918172,0.01137968711555,0.0189079102128744
1769251170927,-0.06256103515625,-0.086944580078125,-0.9963531494140624,-0.0139951780438423,0.0152431353926658,0.0124316355213522
1769251170937,-0.066497802734375,-0.0917205810546875,-0.9995269775390624,-0.0050837080925703,0.0099570266902446,0.0054419031366705
1769251170947,-0.069091796875,-0.092010498046875,-0.997100830078125,0.0042163166217505,-0.0049803773872554,-0.0012008192716166
1769251170957,-0.069854736328125,-0.090911865234375,-0.9949493408203124,0.013914749957621,-0.0128979552537202,-0.0030850057955831
1769251170967,-0.07147216796875,-0.0951080322265625,-0.9958343505859376,0.0153432702645659,-0.0140396524220705,-0.0052147358655929
1769251170977,-0.066375732421875,-0.0955810546875,-0.9964141845703124,0.0181909874081611,0.001242897240445,-0.0078512653708457
1769251170987,-0.062957763671875,-0.090301513671875,-0.9977264404296876,0.0256859213113784,0.009214537218213,-0.0096904439851641
1769251170997,-0.0651397705078125,-0.0885467529296875,-0.9948272705078124,0.0241205152124166,0.0046480149030685,-0.0136162098497152
1769251171007,-0.0641937255859375,-0.095611572265625,-0.9930572509765624,0.0261924546211957,-0.0079157138243317,-0.0094715319573879
1769251171017,-0.058807373046875,-0.098236083984375,-0.9957733154296876,0.0286689288914203,-0.0260656885802745,-0.0018053569365292
1769251171027,-0.055877685546875,-0.10076904296875,-0.9913177490234376,0.0246883016079664,-0.0326743237674236,0.003385144053027
1769251171037,-0.0549163818359375,-0.0979766845703125,-0.9827728271484376,0.0085985483601689,-0.0223497804254293,0.0081215761601924
1769251171047,-0.055572509765625,-0.098388671875,-0.97540283203125,-0.0083245085552334,-8.841694943839684e-05,0.0118457404896616
1769251171057,-0.0552978515625,-0.101043701171875,-0.973876953125,-0.0209652036428451,0.0139895854517817,0.0160079952329397
1769251171067,-0.05462646484375,-0.096160888671875,-0.97998046875,-0.0233620479702949,0.0068712220527231,0.0196328237652778
1769251171077,-0.0571746826171875,-0.095733642578125,-0.986419677734375,-0.0199859589338302,0.0069191586226224,0.0181904546916484
1769251171087,-0.059326171875,-0.09527587890625,-0.9904022216796876,-0.0155890798196196,0.0001419464824721,0.0179401189088821
1769251171097,-0.059814453125,-0.09698486328125,-0.990570068359375,-0.0131850438192486,-0.0205343030393123,0.0159344915300607
1769251171108,-0.057342529296875,-0.0987548828125,-0.9918670654296876,-0.0074917385354638,-0.0141056990250945,0.0146178249269723
1769251171118,-0.06414794921875,-0.099029541015625,-0.9943389892578124,-0.0047308392822742,-0.007505586836487,0.0143898585811257
1769251171128,-0.0642852783203125,-0.096282958984375,-0.994140625,0.0034455978311598,-0.0133048864081501,0.0195047259330749
1769251171138,-0.058563232421875,-0.0914764404296875,-0.9973602294921876,0.0090707270428538,-0.0135794579982757,0.0216879844665527
1769251171148,-0.060821533203125,-0.0941925048828125,-1.00103759765625,0.006197708658874,0.0122047346085309,0.0220768060535192
1769251171158,-0.060089111328125,-0.0919952392578125,-1.00030517578125,-0.0030242856591939,0.0266811456531286,0.0208842419087886
1769251171168,-0.0615386962890625,-0.0954437255859375,-0.9940338134765624,0.0004308994684834,0.0300300698727369,0.0179795324802398
1769251171178,-0.0616455078125,-0.0950775146484375,-0.9951324462890624,0.0082795014604926,0.0168689955025911,0.0180098935961723
1769251171188,-0.0618438720703125,-0.09381103515625,-0.99310302734375,0.0186929944902658,-0.0016415724530816,0.0224206205457448
1769251171198,-0.0628204345703125,-0.10943603515625,-0.993896484375,0.0195662435144186,-0.0057441722601652,0.0315419472754001
1769251171208,-0.0578765869140625,-0.11529541015625,-0.9951019287109376,0.0192171037197113,0.0247538164258003,0.030650321394205
1769251171218,-0.0608673095703125,-0.07965087890625,-0.992828369140625,0.0295001007616519,0.0365801155567169,0.0056578856892883
1769251171228,-0.082366943359375,-0.061309814453125,-0.9831085205078124,0.0520181953907012,0.0074451332911849,-0.0177321247756481
1769251171238,-0.094512939453125,-0.079010009765625,-0.98065185546875,0.0410731360316276,-0.0527463033795356,-0.0124638602137565
1769251171248,-0.0770263671875,-0.129058837890625,-0.9875946044921876,0.0198280327022075,-0.0408012270927429,0.0101628890261054
1769251171258,-0.04974365234375,-0.12646484375,-0.9984130859375,0.0096465023234486,0.0192503929138183,0.01192909758538
1769251171268,-0.0482025146484375,-0.0890960693359375,-0.978729248046875,-0.0096635464578866,0.015623434446752,-0.0078494008630514
1769251171278,-0.0602569580078125,-0.0927734375,-0.9612579345703124,-0.0129485558718442,0.0241242442280054,-0.0186019130051136
1769251171288,-0.0660400390625,-0.0835418701171875,-0.97491455078125,-0.0062802662141621,0.0252491645514965,-0.0130161996930837
1769251171298,-0.0724029541015625,-0.09173583984375,-0.988983154296875,0.0068323398008942,-0.0030144320335239,-0.010536796413362
1769251171308,-0.0721588134765625,-0.105926513671875,-0.9980926513671876,0.0131360422819852,-0.0330298542976379,-0.0038948729634284
1769251171318,-0.06805419921875,-0.1076507568359375,-0.993621826171875,-0.0004631237243302,-0.0386483259499073,-0.0063391220755875
1769251171329,-0.0643768310546875,-0.10833740234375,-0.9821929931640624,-0.0214549582451581,-0.0179350581020116,-0.0026818031910806
1769251171339,-0.057342529296875,-0.109375,-0.974456787109375,-0.0446771904826164,0.0002237055305158,0.0053095440380275
1769251171349,-0.0522308349609375,-0.1105804443359375,-0.9763031005859376,-0.0567010976374149,0.0132572157308459,0.0078845545649528
1769251171359,-0.0540008544921875,-0.10546875,-0.9876708984375,-0.05729391425848,0.0237079933285713,0.011044661514461
1769251171369,-0.060455322265625,-0.100830078125,-0.9964599609375,-0.0467163734138011,0.0217966418713331,0.0150934653356671
1769251171379,-0.0668487548828125,-0.09429931640625,-1.000518798828125,-0.0340738147497177,0.0089902989566326,0.0141831971704959
1769251171389,-0.06939697265625,-0.0931243896484375,-1.000244140625,-0.0242044050246477,-0.0014429006259888,0.0145387286320328
1769251171399,-0.0659637451171875,-0.087677001953125,-0.9966278076171876,-0.0220629572868347,-0.0028485171496868,0.0060371197760105
1769251171409,-0.0685272216796875,-0.0948028564453125,-0.99560546875,-0.019514312967658,0.0145975844934582,0.0047771781682968
1769251171419,-0.0680694580078125,-0.09466552734375,-0.9972381591796876,-0.009213738143444,0.0202003438025712,0.0038671761285513
1769251171429,-0.0683441162109375,-0.101348876953125,-0.9985504150390624,-0.0024610271211713,0.0178197436034679,0.0018333201296627
1769251171439,-0.064453125,-0.09991455078125,-1.004058837890625,0.0147856036201119,0.018493790179491,-0.0001565938728163
1769251171449,-0.06378173828125,-0.087310791015625,-1.0056610107421875,0.028081702068448,0.0057353838346898,-0.0083423517644405
1769251171459,-0.0693817138671875,-0.0944671630859375,-0.9990081787109376,0.0317603275179863,-0.009818541817367,-0.0070954598486423
1769251171469,-0.0623931884765625,-0.0976715087890625,-0.994659423828125,0.0244369003921747,-0.0211601462215185,-0.000606668065302
1769251171479,-0.0556793212890625,-0.101348876953125,-0.9901580810546876,0.0130361737683415,-0.0102598275989294,-0.0026104305870831
1769251171489,-0.0587615966796875,-0.1099395751953125,-0.9840087890625,0.0053460295312106,0.0069588399492204,-0.0022951122373342
1769251171499,-0.0594482421875,-0.1031646728515625,-0.9764862060546876,-0.0045476136729121,0.0120611898601055,0.0056144762784242
1769251171509,-0.05865478515625,-0.0977325439453125,-0.9788055419921876,-0.0111786182969808,0.0259724780917167,0.005502357147634
1769251171519,-0.0619659423828125,-0.10357666015625,-0.985260009765625,-0.013562680222094,0.0285075418651103,0.0037262949626892
1769251171530,-0.0600433349609375,-0.0978240966796875,-0.9900360107421876,-0.014454573392868,0.020591827109456,0.0049071405082941
1769251171540,-0.059417724609375,-0.0916748046875,-0.988861083984375,-0.0157555267214775,0.0108366683125495,7.936220208648592e-05
1769251171550,-0.06158447265625,-0.0955657958984375,-0.988250732421875,-0.0160916186869144,0.0136431083083152,-0.0072400695644319
1769251171560,-0.0628814697265625,-0.1027679443359375,-0.9900970458984376,-0.0161315649747848,0.0200554672628641,-0.0058315237984061
