timestamp_ms,acc_x,acc_y,acc_z,gyro_x,gyro_y,gyro_z
1770449770395,-0.022979736328125,-0.1732940673828125,-0.9979400634765624,0.038344457745552,-0.0030439931433647,-0.0106808738783001
1770449770402,-0.01934814453125,-0.17413330078125,-0.988433837890625,0.038344457745552,-0.0030439931433647,-0.0106808738783001
1770449770412,-0.017333984375,-0.1666259765625,-0.985870361328125,0.0445269867777824,-0.0027877970132976,-0.0085010761395096
1770449770422,-0.0195465087890625,-0.1664886474609375,-0.9827423095703124,0.049311090260744,-0.0037334854714572,-0.0102672846987843
1770449770432,-0.02337646484375,-0.1643829345703125,-0.9807586669921876,0.0465744249522686,-0.0027603665366768,-0.0125299068167805
1770449770442,-0.0238494873046875,-0.1657257080078125,-0.9783782958984376,0.0377247408032417,-0.0037601171061396,-0.0137072904035449
1770449770453,-0.0203704833984375,-0.1697235107421875,-0.971435546875,0.0208882372826337,-0.0030605047941207,-0.0132119422778487
1770449770462,-0.0166015625,-0.1722412109375,-0.965850830078125,0.0048221857286989,-0.0013933659065514,-0.0094976313412189
1770449770472,-0.0163421630859375,-0.1724853515625,-0.9639129638671876,-0.0077607175335288,-0.0004444815858732,-0.0049508162774145
1770449770483,-0.0178985595703125,-0.1748504638671875,-0.9679412841796876,-0.0151453968137502,-0.0022543659433722,0.0003211772127542
1770449770493,-0.0164031982421875,-0.173187255859375,-0.972503662109375,-0.0184048395603895,-0.0015156050212681,0.0016615461790934
1770449770503,-0.0165557861328125,-0.1731414794921875,-0.9766082763671876,-0.0206277798861265,-0.0006761765689589,0.006786533165723
1770449770513,-0.01708984375,-0.1744842529296875,-0.9790191650390624,-0.017642643302679,0.0022032330743968,0.0074190339073538
1770449770523,-0.0223846435546875,-0.174774169921875,-0.9801177978515624,-0.015846075490117,-4.926848123432137e-05,0.0088097369298338
1770449770533,-0.025604248046875,-0.1717376708984375,-0.9809722900390624,-0.0123512083664536,0.0014873754698783,0.0054962318390607
1770449770543,-0.02569580078125,-0.1694488525390625,-0.9814453125,-0.0081801656633615,0.0019851203542202,0.0022719427943229
1770449770553,-0.0280914306640625,-0.170654296875,-0.9846649169921876,-0.0054229949600994,0.0004524710529949,-0.0001962749665835
1770449770563,-0.02947998046875,-0.171722412109375,-0.9894561767578124,0.0009022789890877,-0.0015337144723162,-0.004423776641488
1770449770573,-0.0293121337890625,-0.1726531982421875,-0.9901580810546876,0.005699164699763,-0.0030213561840355,-0.0078587215393781
1770449770583,-0.0286102294921875,-0.171600341796875,-0.989471435546875,0.0119448099285364,-0.0046757119707763,-0.010495251044631
1770449770593,-0.026580810546875,-0.173126220703125,-0.990142822265625,0.013129916973412,-0.0053526875562965,-0.0136393792927265
1770449770603,-0.0260162353515625,-0.174530029296875,-0.9856414794921876,0.0148785486817359,-0.0070043797604739,-0.0134319188073277
1770449770613,-0.0261993408203125,-0.1734771728515625,-0.9814300537109376,0.0087298415601253,-0.0073892069049179,-0.0125213842839002
1770449770623,-0.0232086181640625,-0.1755218505859375,-0.9766082763671876,0.004611796233803,-0.0060187438502907,-0.0109589081257581
1770449770633,-0.01898193359375,-0.174346923828125,-0.9746856689453124,0.0007368966471403,-0.0028783443849533,-0.0104313353076577
1770449770643,-0.0206298828125,-0.17279052734375,-0.975982666015625,-0.0036418726667761,-0.0019691411871463,-0.0088622011244297
1770449770653,-0.01983642578125,-0.1726226806640625,-0.977447509765625,-0.0076073193922638,-0.0031031153630465,-0.0089950924739241
1770449770663,-0.020294189453125,-0.172332763671875,-0.9770050048828124,-0.0111716939136385,0.0008356999605894,-0.0090044140815734
1770449770673,-0.0196533203125,-0.1718597412109375,-0.9758148193359376,-0.0159699115902185,0.0017928400775417,-0.0124867632985115
1770449770683,-0.020599365234375,-0.1722412109375,-0.9754638671875,-0.0179156176745891,0.0030866037122905,-0.011478223837912
1770449770694,-0.0222930908203125,-0.1711883544921875,-0.978668212890625,-0.0194663759320974,0.0030232204589992,-0.0094792554154992
1770449770703,-0.0223541259765625,-0.1702117919921875,-0.980804443359375,-0.0159808304160833,0.0025497104506939,-0.0103280050680041
1770449770713,-0.0227813720703125,-0.1696014404296875,-0.9852447509765624,-0.0122252404689788,0.0044959485530853,-0.0086131952702999
1770449770724,-0.02117919921875,-0.16998291015625,-0.9880828857421876,-0.0053188651800155,0.004481301177293,-0.0121445469558238
1770449770734,-0.0233612060546875,-0.1690826416015625,-0.984893798828125,-0.0061175473965704,0.0046735815703868,-0.0139685459434986
1770449770744,-0.02337646484375,-0.173614501953125,-0.97894287109375,-0.0119309611618518,0.0074816183187067,-0.0097240004688501
1770449770754,-0.0154571533203125,-0.185272216796875,-0.9710845947265624,-0.0245772488415241,0.0100662158802151,0.0005009406013414
1770449770764,-0.0083465576171875,-0.17828369140625,-0.96868896484375,-0.030334735289216,0.0104193510487675,0.0036322853993624
1770449770774,-0.0175323486328125,-0.164154052734375,-0.9705352783203124,-0.0350770279765129,0.0068941251374781,-0.0048866341821849
1770449770784,-0.031158447265625,-0.16552734375,-0.9805908203125,-0.0268774200230836,0.0121520040556788,-0.0165651272982358
1770449770794,-0.034942626953125,-0.164337158203125,-0.988433837890625,-0.0241751112043857,0.0145200863480567,-0.0261636935174465
1770449770804,-0.0311431884765625,-0.155548095703125,-0.9841461181640624,-0.0266947280615568,0.0102358600124716,-0.0372477695345878
1770449770814,-0.0308074951171875,-0.1640167236328125,-0.980010986328125,-0.0244640633463859,0.011330684646964,-0.0334234721958637
1770449770824,-0.02655029296875,-0.186370849609375,-0.9862518310546876,-0.0217210073024034,0.0036687706597149,-0.0099471732974052
1770449770834,-0.0049285888671875,-0.19964599609375,-0.990142822265625,-0.011779161170125,0.0027848675381392,0.0049899648874998
1770449770844,-0.002349853515625,-0.17510986328125,-0.9911956787109376,-0.00291243288666,0.0131267206743359,-0.013578925281763
1770449770854,-0.028228759765625,-0.1504669189453125,-0.993988037109375,0.0008407599525526,0.0135570876300334,-0.0383697599172592
1770449770864,-0.0405426025390625,-0.1552276611328125,-0.9921875,-0.0001382180635118,0.0075242291204631,-0.0493190810084342
1770449770874,-0.0282745361328125,-0.165557861328125,-0.98577880859375,-0.0054666707292199,0.0118143148720264,-0.0442130006849765
1770449770884,-0.017486572265625,-0.17132568359375,-0.9774627685546876,-0.0062973108142614,0.0149051798507571,-0.0344394668936729
1770449770894,-0.014495849609375,-0.1777496337890625,-0.97625732421875,-0.0094941696152091,0.0144774764776229,-0.0204983502626419
1770449770905,-0.0146636962890625,-0.179168701171875,-0.9807281494140624,-0.013579724356532,0.0116329537704586,-0.0115858158096671
1770449770914,-0.0131378173828125,-0.1833648681640625,-0.984161376953125,-0.0179068278521299,0.0106720849871635,0.0011235876008868
1770449770925,-0.0067596435546875,-0.1834259033203125,-0.9799652099609376,-0.0236190427094697,0.01490278262645,0.0058198058977723
1770449770935,-0.0084228515625,-0.18084716796875,-0.972137451171875,-0.033108152449131,0.019648004323244,0.0073631075210869
1770449770945,-0.0161895751953125,-0.17718505859375,-0.9711456298828124,-0.0352112501859664,0.0227884035557508,0.0009486179915256
1770449770955,-0.0254669189453125,-0.168670654296875,-0.9784393310546876,-0.0297485738992691,0.0227045137435197,-0.0132497586309909
1770449770965,-0.0374298095703125,-0.160491943359375,-0.984375,-0.0245090704411268,0.0180186815559864,-0.0255034957081079
1770449770975,-0.043731689453125,-0.1580657958984375,-0.990814208984375,-0.0173464994877576,0.0116886142641305,-0.0384888015687465
1770449770985,-0.039154052734375,-0.1613311767578125,-0.993499755859375,-0.0091455616056919,0.0096749980002641,-0.0416124239563941
1770449770995,-0.031890869140625,-0.16827392578125,-0.9954986572265624,0.0014865765115246,0.006712497677654,-0.0398414209485054
1770449771005,-0.0233154296875,-0.1746063232421875,-1.0001068115234375,0.0133080817759037,0.0049311090260744,-0.0322484821081161
1770449771015,-0.017578125,-0.17962646484375,-1.000946044921875,0.0208011530339717,-0.0008921589469537,-0.027655329555273
1770449771025,-0.011871337890625,-0.1777801513671875,-0.9987945556640624,0.0245341043919324,-0.0002998719282913,-0.0188463926315307
1770449771035,-0.0079803466796875,-0.173675537109375,-0.991363525390625,0.0246768500655889,1.997370782191865e-05,-0.0156969372183084
1770449771045,-0.0087127685546875,-0.1708526611328125,-0.9840240478515624,0.0219819974154233,0.0063772057183086,-0.0187840741127729
1770449771055,-0.0154571533203125,-0.1660614013671875,-0.9804840087890624,0.0178519673645496,0.0063170180656015,-0.0255591552704572
1770449771065,-0.017059326171875,-0.1651153564453125,-0.9784393310546876,0.012884372845292,0.0074177025817334,-0.0258723441511392
1770449771075,-0.0159759521484375,-0.1664276123046875,-0.976593017578125,0.0052983588539063,0.0072669675573706,-0.026153840124607
1770449771085,-0.0165557861328125,-0.1664581298828125,-0.9761505126953124,-0.0001523328101029,0.0047931573353707,-0.0252134781330823
1770449771095,-0.0180816650390625,-0.1684722900390625,-0.974761962890625,-0.0009622001089155,0.0035531895700842,-0.0217708088457584
1770449771105,-0.01513671875,-0.17010498046875,-0.9809112548828124,0.0004037352045997,0.0018202705541625,-0.0149576440453529
1770449771116,-0.011810302734375,-0.173004150390625,-0.9803314208984376,-0.0034799524582922,0.007292800117284,-0.0096049569547176
1770449771126,-0.0106658935546875,-0.17315673828125,-0.9790802001953124,-0.006148706190288,0.006344448775053,-0.0071631041355431
1770449771136,-0.0101470947265625,-0.1734619140625,-0.9757080078125,-0.010766627267003,0.0051646684296429,-0.0045710494741797
1770449771146,-0.012786865234375,-0.1722412109375,-0.973541259765625,-0.015858856961131,0.0073604444041848,-0.0083077307790517
1770449771156,-0.0189056396484375,-0.171722412109375,-0.9742889404296876,-0.0208530835807323,0.0071228905580937,-0.0114601142704486
1770449771166,-0.0195465087890625,-0.170928955078125,-0.976104736328125,-0.0275410804897546,0.0076920082792639,-0.0134268589317798
1770449771176,-0.0191650390625,-0.1701507568359375,-0.97509765625,-0.0292364489287138,0.0082768378779292,-0.0167004168033599
1770449771186,-0.021484375,-0.1685028076171875,-0.9817657470703124,-0.0204094015061855,0.0067444555461406,-0.0231396742165088
1770449771196,-0.0249176025390625,-0.16888427734375,-0.9910736083984376,-0.0134391095489263,0.0043502734042704,-0.0242462176829576
1770449771206,-0.0237274169921875,-0.1681365966796875,-0.9919891357421876,-0.0049745184369385,0.0030866037122905,-0.0264526456594467
1770449771216,-0.02154541015625,-0.1717529296875,-0.9918670654296876,0.0046722497791051,0.0007057376787997,-0.0250353123992681
1770449771226,-0.0215606689453125,-0.1725006103515625,-0.9931488037109376,0.0130428317934274,-0.0040527987293899,-0.0230422019958496
1770449771236,-0.0210723876953125,-0.1698455810546875,-0.991607666015625,0.0207068771123886,-0.0054818508215248,-0.021010210737586
1770449771246,-0.0221099853515625,-0.1702880859375,-0.98846435546875,0.0234360843896865,-0.0060155480168759,-0.0185771472752094
1770449771256,-0.0203857421875,-0.1710052490234375,-0.983062744140625,0.0200746413320302,-0.0088025461882352,-0.017671937122941
1770449771266,-0.017608642578125,-0.1705780029296875,-0.97784423828125,0.0153190353885293,-0.0066318036988377,-0.0166412945836782
1770449771276,-0.0178680419921875,-0.16888427734375,-0.97674560546875,0.010940265841782,-0.0069865365512669,-0.0174631457775831
1770449771286,-0.0199127197265625,-0.17279052734375,-0.977783203125,0.0063066319562494,-0.0081474082544446,-0.0188906006515026
1770449771296,-0.018829345703125,-0.1710662841796875,-0.976531982421875,-0.0022540995851159,-0.0081154508516192,-0.0188293475657701
1770449771306,-0.0182342529296875,-0.170074462890625,-0.97247314453125,-0.011461978778243,-0.0078478027135133,-0.0188136342912912
1770449771316,-0.0181884765625,-0.1710357666015625,-0.97271728515625,-0.013372796587646,-0.0057175406254827,-0.0161928180605173
1770449771326,-0.0196075439453125,-0.170684814453125,-0.9778289794921876,-0.0163150578737258,-0.0061537660658359,-0.0177654139697551
1770449771337,-0.01849365234375,-0.168670654296875,-0.97857666015625,-0.0129418978467583,-0.0110603738576173,-0.0161757748574018
1770449771346,-0.0183258056640625,-0.16815185546875,-0.9820709228515624,-0.0101319961249828,-0.0060669472441077,-0.0143933203071355
1770449771357,-0.0204925537109375,-0.1800537109375,-0.9854736328125,-0.0129850404337048,0.0003448793722782,-0.0124747790396213
1770449771367,-0.015380859375,-0.1884307861328125,-0.983184814453125,-0.0147557761520147,-0.0048102014698088,-0.0024868599139153
1770449771377,-0.0110015869140625,-0.170257568359375,-0.97918701171875,-0.0219985097646713,-0.0081657841801643,-0.0053409696556627
1770449771388,-0.0193939208984375,-0.162567138671875,-0.9774322509765624,-0.0227106381207704,-0.0098478365689516,-0.0172511581331491
1770449771397,-0.03057861328125,-0.163330078125,-0.9832611083984376,-0.0150207607075572,0.0006495449924841,-0.0321608670055866
1770449771407,-0.0299072265625,-0.155029296875,-0.9869232177734376,-0.0124771762639284,0.00617400649935,-0.0432422794401645
1770449771417,-0.026885986328125,-0.157379150390625,-0.983489990234375,-0.0060895839706063,0.0041180457919836,-0.0403729900717735
1770449771427,-0.02093505859375,-0.1755523681640625,-0.9869232177734376,0.0035758262965828,0.0122065991163253,-0.0237617883831262
1770449771437,-0.0087890625,-0.1984405517578125,-0.9903717041015624,0.0049273804761469,0.0089407647028565,0.0032655680552124
1770449771447,0.009246826171875,-0.1949005126953125,-0.9862823486328124,0.0056879795156419,0.0154388770461082,0.0113703664392232
1770449771457,-1.52587890625e-05,-0.16278076171875,-0.9815216064453124,0.0027816717047244,0.0265690255910158,-0.0110049806535243
1770449771467,-0.0282440185546875,-0.152923583984375,-0.976226806640625,-0.0045548044145107,0.0185678247362375,-0.027759725227952
1770449771477,-0.0266571044921875,-0.1639404296875,-0.9765777587890624,-0.0100363884121179,0.0145749477669596,-0.0263197552412748
1770449771487,-0.0158843994140625,-0.1736907958984375,-0.97320556640625,-0.0170892383903265,0.018624285236001,-0.0194397438317537
1770449771497,-0.0128173828125,-0.175537109375,-0.9705963134765624,-0.024336764588952,0.0158000010997056,-0.0081601915881037
1770449771507,-0.0145111083984375,-0.1746063232421875,-0.9717254638671876,-0.0300654899328947,0.0162343643605709,-0.0008255799184553
1770449771517,-0.0160980224609375,-0.1756591796875,-0.9792022705078124,-0.0361311063170433,0.0157536622136831,0.0073151709511876
1770449771527,-0.010711669921875,-0.17877197265625,-0.9826812744140624,-0.0403455570340156,0.0163611304014921,0.0189246889203786
1770449771537,-0.005126953125,-0.183441162109375,-0.9857635498046876,-0.0399820357561111,0.0211705323308706,0.0268542505800724
1770449771547,-0.0078887939453125,-0.179962158203125,-0.9874267578125,-0.0347161702811718,0.0256643500179052,0.0227351393550634
1770449771557,-0.0164031982421875,-0.171173095703125,-0.98968505859375,-0.0248816478997468,0.0313158445060253,0.0106284096837043
1770449771568,-0.0256195068359375,-0.1640472412109375,-0.989044189453125,-0.0237812288105487,0.0257477071136236,0.0002697782183531
1770449771578,-0.0338592529296875,-0.1633148193359375,-0.9861297607421876,-0.0144718838855624,0.0227527171373367,-0.0111695639789104
1770449771588,-0.0345001220703125,-0.1645660400390625,-0.9912109375,-0.0058176754973828,0.0171174686402082,-0.0170021522790193
1770449771598,-0.031005859375,-0.16876220703125,-0.9904632568359376,-0.0030858046375215,0.0124987475574016,-0.0186080392450094
1770449771608,-0.0299072265625,-0.1739349365234375,-0.9855499267578124,-0.0023046995047479,0.0098736695945262,-0.0189619734883308
1770449771618,-0.024749755859375,-0.1766510009765625,-0.9847259521484376,-0.001570466090925,0.0168892350047826,-0.0201284382492303
1770449771628,-0.0248870849609375,-0.175689697265625,-0.98370361328125,-0.0023901870008558,0.0122867599129676,-0.0214203372597694
1770449771638,-0.0221099853515625,-0.1696624755859375,-0.982635498046875,-0.0002271676348755,0.0090869721025228,-0.0262459851801395
1770449771648,-0.0231170654296875,-0.1703338623046875,-0.9854278564453124,-0.00154649768956,0.0129759861156344,-0.0378155559301376
1770449771658,-0.0316162109375,-0.1625213623046875,-0.975433349609375,-0.0039422772824764,0.008854211308062,-0.036189429461956
1770449771668,-0.0217437744140625,-0.1571197509765625,-0.9778289794921876,-0.011428689584136,0.0092808501794934,-0.04373150318861
1770449771678,-0.0198516845703125,-0.17132568359375,-0.9766845703125,-0.0119850235059857,0.0079511338844895,-0.0427155047655105
1770449771688,-0.0140533447265625,-0.172119140625,-0.9837188720703124,-0.024975124746561,0.0157400816679,-0.0391934737563133
1770449771698,-0.007965087890625,-0.177490234375,-0.9698944091796876,-0.0164484810084104,0.0176269300282001,-0.0344354733824729
1770449771708,-0.00848388671875,-0.1760711669921875,-0.98724365234375,-0.0202999450266361,0.0088970884680747,-0.0197220388799905
1770449771718,-0.00347900390625,-0.178466796875,-0.9832763671875,-0.0161589961498975,0.0034085798542946,-0.0139283323660492
1770449771728,-0.0081787109375,-0.179901123046875,-0.9846038818359376,-0.0236837584525346,0.0024825986474752,-0.0082033351063728
1770449771738,-0.00787353515625,-0.1757354736328125,-0.97412109375,-0.0318306349217891,0.0087226517498493,-0.0096172075718641
1770449771748,-0.0107574462890625,-0.17303466796875,-0.9699859619140624,-0.0343180261552333,0.0124316355213522,-0.0107778124511241
1770449771759,-0.0101318359375,-0.1723785400390625,-0.9770660400390624,-0.0315677784383297,0.0127738518640398,-0.008887767791748
1770449771769,-0.0139617919921875,-0.167510986328125,-0.9828338623046876,-0.0232118461281061,0.0097804591059684,-0.0124675882980227
1770449771779,-0.0195465087890625,-0.16644287109375,-0.989593505859375,-0.013619671575725,0.0083018718287348,-0.0145789422094821
1770449771789,-0.02069091796875,-0.1653900146484375,-0.990203857421875,-0.0094369109719991,0.0064291371963918,-0.0192440021783113
1770449771799,-0.0181884765625,-0.16485595703125,-0.988067626953125,-0.0079402150586247,0.0042975428514182,-0.0163273084908723
1770449771809,-0.01666259765625,-0.167205810546875,-0.9833984375,-0.0060536316595971,0.0021454426459968,-0.0166599359363317
1770449771819,-0.01739501953125,-0.1701812744140625,-0.9821929931640624,-0.0077846860513091,-0.0011259844759479,-0.0161102600395679
1770449771829,-0.01580810546875,-0.1708526611328125,-0.980865478515625,-0.0090957600623369,-0.0017148094484582,-0.0130641367286443
1770449771839,-0.015380859375,-0.171295166015625,-0.9821014404296876,-0.0084797712042927,-0.0072576464153826,-0.0120033994317054
1770449771849,-0.0167999267578125,-0.1711273193359375,-0.98382568359375,-0.0116361500695347,-0.012410863302648,-0.0128047447651624
1770449771859,-0.0169525146484375,-0.1695404052734375,-0.98223876953125,-0.0125040737912058,-0.0118904812261462,-0.0119301630184054
1770449771869,-0.015655517578125,-0.168731689453125,-0.9790802001953124,-0.0148939946666359,-0.0127347037196159,-0.0128702586516737
1770449771879,-0.01470947265625,-0.16827392578125,-0.981781005859375,-0.0137144802138209,-0.0093056177720427,-0.0126023441553115
1770449771889,-0.01312255859375,-0.1681365966796875,-0.983551025390625,-0.0125472173094749,-0.0111471936106681,-0.0132606774568557
1770449771899,-0.013458251953125,-0.165771484375,-0.9841766357421876,-0.0072632390074431,-0.0129104722291231,-0.009556220844388
1770449771909,-0.0149688720703125,-0.1645965576171875,-0.9860992431640624,0.0001075917098205,-0.012386362068355,-0.0114553207531571
1770449771919,-0.0177764892578125,-0.164031982421875,-0.9865570068359376,0.0052765212021768,-0.014724351465702,-0.0144194196909666
1770449771929,-0.018218994140625,-0.1626434326171875,-0.9848480224609376,0.008110124617815,-0.0129932966083288,-0.0155398109927773
1770449771939,-0.0188751220703125,-0.1618499755859375,-0.983642578125,0.0083277048543095,-0.0131935663521289,-0.0152577823027968
1770449771949,-0.017120361328125,-0.1629791259765625,-0.976837158203125,0.0015030881622806,-0.0133341811597347,-0.0165323708206415
1770449771960,-0.0170135498046875,-0.1724090576171875,-0.9752197265625,-0.0027992485556751,-0.0155885471031069,-0.0083202477544546
1770449771969,-0.0070343017578125,-0.1773681640625,-0.977203369140625,-0.0065468489192426,-0.0146375326439738,2.423476507829037e-05
1770449771979,-0.0056304931640625,-0.16033935546875,-0.977508544921875,-0.0099114868789911,-0.0180647540837526,-0.0006905576447024
1770449771990,-0.0175323486328125,-0.1575775146484375,-0.976470947265625,-0.0150615070015192,-0.0186059083789587,-0.0080613885074853
1770449772000,-0.0227813720703125,-0.1649627685546875,-0.9815826416015624,-0.0109951263293623,-0.0113519905135035,-0.0142151545733213
1770449772010,-0.0174407958984375,-0.158203125,-0.9815826416015624,-0.0169150680303573,-0.0095405085012316,-0.0229471269994974
1770449772020,-0.017486572265625,-0.1564178466796875,-0.97418212890625,-0.0188048463314771,-0.0044307010248303,-0.0180186815559864
1770449772030,-0.0185089111328125,-0.1768798828125,-0.9802703857421876,-0.0205196551978588,-0.0129102058708667,-0.0027196200098842
1770449772040,-0.007049560546875,-0.1965484619140625,-0.985809326171875,-0.0224744156002998,-0.0151760233566164,0.022121014073491
1770449772050,0.0081787109375,-0.1942138671875,-0.985748291015625,-0.0180817991495132,-0.0036639769095927,0.02367390319705
1770449772060,-0.0099334716796875,-0.1479034423828125,-0.9832000732421876,-0.0086297066882252,0.0034650389570742,-0.0047241812571883
1770449772070,-0.040740966796875,-0.13873291015625,-0.990692138671875,-0.006050169467926,-0.0123200491070747,-0.0268068462610244
1770449772080,-0.0411224365234375,-0.1510772705078125,-0.9942169189453124,0.0035681033041328,-0.017211478203535,-0.0300513766705989
1770449772090,-0.0242919921875,-0.162994384765625,-0.997589111328125,0.0047023436054587,-0.0179390534758567,-0.0211684014648199
1770449772100,-0.01605224609375,-0.16790771484375,-0.986419677734375,0.0018008295446634,-0.0197667796164751,-0.0108715556561946
1770449772110,-0.014312744140625,-0.166412353515625,-0.9811859130859376,-0.0037246970459818,-0.0176330562680959,-0.0032437301706522
1770449772120,-0.0155181884765625,-0.169647216796875,-0.9817657470703124,-0.014396515674889,-0.0140569629147648,0.0057732006534934
1770449772130,-0.0083770751953125,-0.1790924072265625,-0.982147216796875,-0.0264742169529199,-0.01085717510432,0.0161510072648525
1770449772140,-0.0015411376953125,-0.1807403564453125,-0.975555419921875,-0.033448502421379,-0.0035555863287299,0.0222203508019447
1770449772150,-0.0038604736328125,-0.174896240234375,-0.97515869140625,-0.0325121358036994,0.005011270288378,0.018116420134902
1770449772160,-0.015777587890625,-0.1666259765625,-0.9815521240234376,-0.0248321127146482,0.0098294615745544,0.0110984575003385
1770449772170,-0.0272064208984375,-0.15753173828125,-0.9887237548828124,-0.0135264610871672,0.0120675815269351,0.0010988202411681
1770449772180,-0.031219482421875,-0.1562042236328125,-0.9935455322265624,-0.002003229688853,0.0102576976642012,-0.0098587563261389
1770449772190,-0.032440185546875,-0.15966796875,-0.9937286376953124,0.0100030992180109,0.0039167110808193,-0.0112622417509555
1770449772201,-0.0284271240234375,-0.1628875732421875,-0.9920806884765624,0.0158082582056522,0.0066893277689814,-0.0117189735174179
1770449772211,-0.025146484375,-0.1666259765625,-0.9885101318359376,0.0137733360752463,0.0035396073944866,-0.0094552868977189
1770449772221,-0.019989013671875,-0.171722412109375,-0.9861297607421876,0.0147091709077358,-0.0025164207909256,-0.0042722430080175
1770449772231,-0.017364501953125,-0.1723480224609375,-0.9842376708984376,0.0106555735692381,-0.0021377194207161,0.0005193164106458
1770449772241,-0.015899658203125,-0.16802978515625,-0.9798583984375,0.0055321846157312,0.0017379788914695,0.0002037318190559
1770449772251,-0.0174560546875,-0.1641387939453125,-0.97723388671875,0.0024224112275987,0.0057734670117497,-0.001284708851017
1770449772261,-0.021759033203125,-0.158966064453125,-0.9803314208984376,0.0004274373641237,0.0045888926833868,-0.0069617694243788
1770449772271,-0.022674560546875,-0.162353515625,-0.9825439453125,-0.0037976677995175,0.0049673281610012,-0.0056051551364362
1770449772281,-0.0186920166015625,-0.1634979248046875,-0.9813385009765624,-0.0070536485873162,0.0047087352722883,-0.0027680895291268
1770449772291,-0.0160064697265625,-0.166412353515625,-0.9828338623046876,-0.0085325017571449,0.0028117655310779,0.0051936968229711
1770449772301,-0.0108642578125,-0.1704864501953125,-0.9850006103515624,-0.0068922606296837,0.005354817956686,0.0135315209627151
1770449772311,-0.0093231201171875,-0.1714324951171875,-0.98638916015625,0.0008285093936137,0.0082970783114433,0.0134830521419644
1770449772321,-0.00970458984375,-0.1707611083984375,-0.988922119140625,0.0068544438108801,0.0133323166519403,0.0161081291735172
1770449772331,-0.0108489990234375,-0.1701812744140625,-0.987884521484375,0.0096235992386937,0.015261510387063,0.0158050619065761
1770449772342,-0.0130767822265625,-0.168426513671875,-0.9856414794921876,0.0117424102500081,0.0166516806930303,0.0138881187885999
1770449772351,-0.014617919921875,-0.168060302734375,-0.9839324951171876,0.014470019377768,0.0224379301071167,0.0135767953470349
1770449772361,-0.02178955078125,-0.167510986328125,-0.9814605712890624,0.0134638771414756,0.0221907887607812,0.0093753924593329
1770449772371,-0.0241546630859375,-0.163848876953125,-0.9797210693359376,0.009680057875812,0.0214475020766258,0.0024735440965741
1770449772381,-0.0251617431640625,-0.162872314453125,-0.97802734375,0.003990214318037,0.0218871887773275,-0.0012194614391773
1770449772391,-0.027130126953125,-0.1635894775390625,-0.9783935546875,0.0045406897552311,0.0198304299265146,-0.0063074305653572
1770449772401,-0.02740478515625,-0.1635894775390625,-0.98284912109375,0.0047971522435545,0.0157118514180183,-0.0087301079183816
1770449772411,-0.0258636474609375,-0.165435791015625,-0.982177734375,0.0036040558479726,0.0159933473914861,-0.009034507907927
1770449772421,-0.021240234375,-0.1666107177734375,-0.98095703125,0.0033976607955992,0.0150750894099473,-0.0094198668375611
1770449772432,-0.0195159912109375,-0.1665802001953125,-0.982025146484375,0.00444907695055,0.0133501598611474,-0.0101799331605434
1770449772442,-0.0198822021484375,-0.1675567626953125,-0.9823760986328124,0.0011025486746802,0.0120737068355083,-0.0055324509739875
1770449772452,-0.0177764892578125,-0.166107177734375,-0.98126220703125,-0.001774197909981,0.013275858014822,-0.0066797407343983
1770449772462,-0.014801025390625,-0.1645660400390625,-0.977935791015625,-0.0022429141681641,0.0142404548823833,-0.0051793158054351
1770449772472,-0.01416015625,-0.1649322509765625,-0.9805755615234376,0.0010815097484737,0.0164426229894161,-0.0054783886298537
1770449772482,-0.01495361328125,-0.1647186279296875,-0.985565185546875,0.0053766560740768,0.0149720255285501,-0.0073290192522108
1770449772492,-0.01434326171875,-0.16455078125,-0.987030029296875,0.0067015783861279,0.0138220721855759,-0.0062874569557607
1770449772502,-0.011505126953125,-0.163848876953125,-0.9831390380859376,0.0093780551105737,0.0144798727706074,-0.0023776702582836
1770449772512,-0.0120086669921875,-0.165069580078125,-0.982147216796875,0.0132798524573445,0.0148143656551837,-0.0026623620651662
1770449772522,-0.014678955078125,-0.1665802001953125,-0.98406982421875,0.0126952892169356,0.0127496169880032,0.0003696467611007
1770449772532,-0.0153350830078125,-0.16650390625,-0.97991943359375,0.0049276468344032,0.0115964682772755,0.0031105722300708
1770449772542,-0.0128173828125,-0.163726806640625,-0.9734344482421876,-0.0036490634083747,0.0122662531211972,0.0050080744549632
1770449772552,-0.0113677978515625,-0.167816162109375,-0.9702606201171876,-0.0141488425433635,0.0121514713391661,0.0108720883727073
1770449772562,-0.0092926025390625,-0.177764892578125,-0.9745025634765624,-0.0135605502873659,0.0088763162493705,0.0230243597179651
1770449772572,-0.00250244140625,-0.17437744140625,-0.9803466796875,-0.0123810358345508,0.0100052300840616,0.0261495783925056
1770449772582,-0.0097198486328125,-0.156951904296875,-0.98052978515625,-0.0140508376061916,0.0042330943979322,0.0196852870285511
1770449772592,-0.02032470703125,-0.1554107666015625,-0.9799346923828124,-0.0121591947972774,0.0073780212551355,0.0083109270781278
1770449772602,-0.02191162109375,-0.1657562255859375,-0.98529052734375,-0.0009403621661476,0.0138460407033562,0.0051207263022661
1770449772612,-0.01416015625,-0.14990234375,-0.9842529296875,-0.003352919826284,0.0129043469205498,-0.0032748891972005
1770449772623,-0.0171966552734375,-0.16485595703125,-0.976104736328125,-0.0080749709159135,0.0128345722332596,0.0131112746894359
1770449772633,-0.0063018798828125,-0.1844940185546875,-0.980926513671875,-0.0118609201163053,0.0104683535173535,0.0413349233567714
1770449772643,0.010528564453125,-0.199249267578125,-0.983154296875,-0.0129192611202597,0.0097900461405515,0.0680842474102974
1770449772653,0.016845703125,-0.18829345703125,-0.9824066162109376,-0.0111738247796893,0.0269677024334669,0.0624178387224674
1770449772663,-0.0031585693359375,-0.1464691162109375,-0.9786529541015624,-0.0114662395790219,0.0343108363449573,0.0329062826931476
1770449772673,-0.0317840576171875,-0.1407012939453125,-0.9813232421875,-0.0096579538658261,0.0202653240412473,0.0180676840245723
1770449772683,-0.02874755859375,-0.1529541015625,-0.9903106689453124,-0.005225921049714,0.0117522636428475,0.0209193956106901
1770449772693,-0.017547607421875,-0.1647491455078125,-0.9917449951171876,0.001489505986683,0.0069809439592063,0.030229540541768
1770449772703,-0.0134429931640625,-0.166351318359375,-0.9890899658203124,0.0024229439441114,0.0088627338409423,0.0342402607202529
1770449772713,-0.015594482421875,-0.165283203125,-0.984649658203125,-0.0008042746339924,0.0078968051820993,0.0366022177040576
1770449772723,-0.0187225341796875,-0.16998291015625,-0.982147216796875,-0.0081239724531769,0.00637773796916,0.0390725694596767
1770449772733,-0.0116119384765625,-0.1751861572265625,-0.983184814453125,-0.013064669445157,0.0046922233887016,0.0466231629252433
1770449772743,-0.0040740966796875,-0.1776123046875,-0.977264404296875,-0.0224935915321111,0.0096936402842402,0.0451504327356815
1770449772753,-0.0089569091796875,-0.174713134765625,-0.975311279296875,-0.0263154935091733,0.0143744116649031,0.0382584407925605
1770449772763,-0.0176849365234375,-0.1650543212890625,-0.9809112548828124,-0.0240448825061321,0.0161504745483398,0.0248230583965778
1770449772773,-0.026092529296875,-0.156768798828125,-0.9882354736328124,-0.012605806812644,0.0139128863811492,0.0117946080863475
1770449772783,-0.031097412109375,-0.15484619140625,-0.9947357177734376,0.0037750308401882,0.0090326434001326,0.002242381684482
1770449772793,-0.03192138671875,-0.157867431640625,-1.0017242431640625,0.0215867850929498,0.0066951867192983,-0.0062278020195662
1770449772803,-0.0267333984375,-0.162628173828125,-1.0017852783203125,0.0340405255556106,0.0029337382875382,-0.0075503280386328
1770449772813,-0.020111083984375,-0.1684112548828125,-0.9985809326171876,0.0490498356521129,0.0006748450105078,-0.0042898198589682
1770449772823,-0.0142669677734375,-0.1736297607421875,-0.9946136474609376,0.057181529700756,-0.0010412959381937,0.0007355650886893
1770449772834,-0.0111541748046875,-0.1747283935546875,-0.9889678955078124,0.0564158707857131,-0.0041846251115202,0.0071849422529339
1770449772843,-0.010986328125,-0.1721038818359375,-0.98150634765625,0.0486421026289463,-0.0065220813266932,0.0078968051820993
1770449772854,-0.01348876953125,-0.1703033447265625,-0.9739532470703124,0.0342482514679431,-0.0053942329250276,0.0057335193268954
1770449772864,-0.0139007568359375,-0.1661376953125,-0.9651641845703124,0.0131538854911923,-0.0037963360082358,0.0049026133492589
1770449772874,-0.01226806640625,-0.1666259765625,-0.960906982421875,-0.0057817227207124,-0.0053865094669163,0.0034107104875147
1770449772884,-0.0110321044921875,-0.1653900146484375,-0.961669921875,-0.0230384729802608,-0.0061937137506902,0.0065188854932785
1770449772894,-0.009857177734375,-0.1637115478515625,-0.9684295654296876,-0.0268995240330696,-0.0090805804356932,0.013038570061326
1770449772904,-0.0081634521484375,-0.16729736328125,-0.978179931640625,-0.0183736812323331,-0.0095141427591443,0.0205369666218757
1770449772914,-0.0074310302734375,-0.169586181640625,-0.9925384521484376,-0.0026828683912754,-0.0095860483124852,0.0255727376788854
1770449772924,-0.008819580078125,-0.1696929931640625,-1.001220703125,0.0121160512790083,-0.0125365648418664,0.0293363165110349
1770449772934,-0.0080718994140625,-0.1705474853515625,-0.9973907470703124,0.01646632514894,-0.0109096392989158,0.0304476544260978
1770449772944,-0.0061492919921875,-0.170623779296875,-0.9869384765625,0.0175917763262987,-0.0081231743097305,0.0349590480327606
1770449772954,-0.0104217529296875,-0.171966552734375,-0.978424072265625,0.0118358870968222,-0.0026189526543021,0.0327560827136039
1770449772964,-0.0118255615234375,-0.1682586669921875,-0.974853515625,0.006729541812092,-0.0012335762148723,0.0279842298477888
1770449772974,-0.01806640625,-0.1668853759765625,-0.9748382568359376,-0.0019800602458417,-0.0030637003947049,0.0239996090531349
1770449772984,-0.01873779296875,-0.1658477783203125,-0.9745941162109376,-0.0110443951562047,-0.0033358754590153,0.0204890295863151
1770449772994,-0.018218994140625,-0.169158935546875,-0.974700927734375,-0.0172157380729913,-0.0018269284628331,0.0171462297439575
1770449773004,-0.017578125,-0.1702880859375,-0.9775238037109376,-0.0160396862775087,-0.0015662050573155,0.0181955154985189
1770449773014,-0.019561767578125,-0.169586181640625,-0.982818603515625,-0.0092795183882117,-0.0026059031952172,0.0155009292066097
1770449773024,-0.0209808349609375,-0.1688079833984375,-0.9922332763671876,0.0009843043517321,-0.0089889671653509,0.0147291449829936
1770449773034,-0.023162841796875,-0.169097900390625,-0.994293212890625,0.0102648884057998,-0.012073440477252,0.0116033926606178
1770449773044,-0.023223876953125,-0.16949462890625,-0.992767333984375,0.0188088417053222,-0.0119386846199631,0.0079684443771839
1770449773054,-0.02130126953125,-0.1693572998046875,-0.991058349609375,0.0235665794461965,-0.0132186003029346,0.0080089243128895
1770449773065,-0.0199127197265625,-0.169952392578125,-0.9877166748046876,0.0252539571374654,-0.0087940245866775,0.008150870911777
1770449773075,-0.0190887451171875,-0.1705322265625,-0.98565673828125,0.0259330626577138,-0.0066736154258251,0.0071708275936543
1770449773085,-0.017608642578125,-0.17193603515625,-0.9848175048828124,0.0270907394587993,-0.0094784563407301,0.0049002165906131
1770449773095,-0.0179901123046875,-0.172760009765625,-0.98260498046875,0.0201247092336416,-0.0096805905923247,0.004040281753987
1770449773105,-0.015228271484375,-0.17523193359375,-0.974151611328125,0.0086627304553985,-0.0082539347931742,0.0067737502977252
1770449773115,-0.015533447265625,-0.1739044189453125,-0.968017578125,-0.0004700479330495,-0.0052131377160549,0.0039880839176476
1770449773125,-0.0200042724609375,-0.171966552734375,-0.9682769775390624,-0.0054789213463664,-0.0045987465418875,-0.0005081311101093
1770449773135,-0.0236053466796875,-0.1710357666015625,-0.970611572265625,-0.0128966234624385,-0.0064941183663904,-0.0048658614978194
1770449773145,-0.024078369140625,-0.1705474853515625,-0.969818115234375,-0.0231284890323877,-0.0062003717757761,-0.0028895298019051
1770449773155,-0.0240020751953125,-0.1752166748046875,-0.9713287353515624,-0.0367753244936466,-0.0061452439986169,-0.0006181196658872
1770449773165,-0.0161590576171875,-0.186614990234375,-0.9707183837890624,-0.0426742248237133,-0.0068973209708929,0.0094566186890006
1770449773175,-0.0101318359375,-0.1713409423828125,-0.974395751953125,-0.0473206453025341,-0.0068421931937336,0.0004226436722092
1770449773185,-0.02239990234375,-0.157806396484375,-0.9770355224609376,-0.04989805072546,-0.0142724132165312,-0.0102342618629336
1770449773195,-0.0318450927734375,-0.1597900390625,-0.98004150390625,-0.045716356486082,-0.0072296834550797,-0.0185686238110065
1770449773205,-0.0270233154296875,-0.161651611328125,-0.9857330322265624,-0.0389228984713554,-0.0055260593071579,-0.0243404936045408
1770449773215,-0.02105712890625,-0.1558685302734375,-0.9857940673828124,-0.0376403182744979,-0.0072677666321396,-0.0302841365337371
1770449773226,-0.0206756591796875,-0.1734771728515625,-0.983001708984375,-0.0384046472609043,-0.0017409083666279,-0.02055374532938
1770449773235,-0.0097503662109375,-0.1829071044921875,-0.9804229736328124,-0.0435650534927845,-0.0032708945218473,0.0016578177455812
1770449773245,0.006500244140625,-0.2012786865234375,-0.978729248046875,-0.0489038936793804,0.0056152748875319,0.0197920799255371
1770449773255,0.008453369140625,-0.17254638671875,-0.97906494140625,-0.0479211881756782,0.0231721643358469,0.0059353872202336
1770449773266,-0.0184173583984375,-0.14361572265625,-0.9808349609375,-0.0469688400626182,0.0174423735588789,-0.0115954028442502
1770449773276,-0.031982421875,-0.149169921875,-0.9887542724609376,-0.0345782153308391,-0.0003171824791934,-0.0058312574401497
1770449773286,-0.015777587890625,-0.15911865234375,-1.00201416015625,-0.01310461666435,-0.0129879703745245,-0.0026442527305334
1770449773296,-0.017547607421875,-0.175048828125,-1.0015869140625,-5.512743518920615e-05,0.0063769393600523,0.0113791543990373
1770449773306,-0.011444091796875,-0.167449951171875,-1.0032501220703125,0.0151659036055207,0.0079210400581359,0.0239490084350109
1770449773316,-0.0126495361328125,-0.168670654296875,-1.0040435791015625,0.0277240388095378,0.0084299696609377,0.0319675207138061
1770449773326,-0.012451171875,-0.1747283935546875,-1.0016632080078125,0.0303557757288217,0.0104513093829154,0.0420790091156959
1770449773336,-0.0048370361328125,-0.1807403564453125,-0.9911956787109376,0.021282386034727,0.013920608907938,0.0530291311442852
1770449773346,-0.0027618408203125,-0.1808624267578125,-0.976104736328125,0.0067425910383462,0.0225524473935365,0.0512293651700019
1770449773356,-0.011444091796875,-0.17578125,-0.967742919921875,-0.0043769050389528,0.0267043150961399,0.0411018952727317
1770449773366,-0.024810791015625,-0.167877197265625,-0.968841552734375,-0.0129581429064273,0.0259019043296575,0.0257056299597024
1770449773376,-0.03424072265625,-0.1610565185546875,-0.971832275390625,-0.0193145759403705,0.0214751977473497,0.0137400468811392
1770449773387,-0.0382537841796875,-0.160308837890625,-0.9759979248046876,-0.0240813679993152,0.0162237100303173,0.0028458540327847
1770449773396,-0.0347747802734375,-0.1663970947265625,-0.980255126953125,-0.0223750807344913,0.0124321682378649,0.0009470200748182
1770449773407,-0.03143310546875,-0.1670989990234375,-0.9854888916015624,-0.0138910477980971,0.0091295829042792,0.0026312030386179
1770449773416,-0.02740478515625,-0.1669769287109375,-0.9918365478515624,-0.0032317459117621,0.0087881656363606,0.0006684534018859
1770449773426,-0.0248260498046875,-0.169158935546875,-0.9969635009765624,0.0149387354031205,0.0065322015434503,-0.0002548645134083
1770449773436,-0.023284912109375,-0.1672210693359375,-0.9988861083984376,0.0276673138141632,0.0083575323224067,-0.0003542004269547
1770449773446,-0.0220489501953125,-0.1658935546875,-0.995941162109375,0.0375511050224304,0.0107999173924326,-0.0059729376807808
1770449773456,-0.02398681640625,-0.1643829345703125,-0.9913330078125,0.038061898201704,0.0099831251427531,-0.0101216100156307
1770449773466,-0.0233306884765625,-0.166107177734375,-0.984649658203125,0.0291597489267587,0.0102140214294195,-0.0107125658541917
1770449773477,-0.017913818359375,-0.1676483154296875,-0.9773712158203124,0.0190517213195562,0.0079593891277909,-0.0115890121087431
1770449773487,-0.014129638671875,-0.1727752685546875,-0.97515869140625,0.0079394159838557,0.0095796566456556,-0.0076728332787752
1770449773497,-0.0111083984375,-0.172943115234375,-0.97442626953125,0.0017696705181151,0.010145578533411,-0.0005273058777675
1770449773507,-0.011627197265625,-0.1719818115234375,-0.9766387939453124,0.0020064255222678,0.0119075253605842,0.0029800771735608
1770449773517,-0.0113525390625,-0.1722869873046875,-0.982177734375,0.0056887785904109,0.011846805922687,0.0052283178083598
1770449773527,-0.0128326416015625,-0.1719970703125,-0.9853363037109376,0.0073447320610284,0.0121717117726802,0.0105037735775113
1770449773537,-0.0120086669921875,-0.17132568359375,-0.985626220703125,0.0124215157702565,0.0111487908288836,0.0120532009750604
1770449773547,-0.013946533203125,-0.1717529296875,-0.98516845703125,0.0136617496609687,0.0099700763821601,0.0130846425890922
1770449773557,-0.018707275390625,-0.1698455810546875,-0.98443603515625,0.0164743140339851,0.0082097267732024,0.0098904473707079
1770449773567,-0.021820068359375,-0.1688995361328125,-0.983489990234375,0.016172045841813,0.0057750646956264,0.0052781188860535
1770449773577,-0.020599365234375,-0.1660614013671875,-0.9802093505859376,0.0153975980356335,0.0081261033192276,0.0009329052991233
1770449773587,-0.020904541015625,-0.1671905517578125,-0.9796142578125,0.0143357962369918,0.0088068069890141,-0.0047209854237735
1770449773597,-0.021942138671875,-0.16815185546875,-0.97882080078125,0.011021758429706,0.0077476683072745,-0.0059745353646576
1770449773607,-0.0184783935546875,-0.1686859130859375,-0.978302001953125,0.0074909394606947,0.0070595075376331,-0.0055313855409622
1770449773617,-0.0171966552734375,-0.1712493896484375,-0.98065185546875,0.0073639065958559,0.0051667988300323,-0.0044605284929275
1770449773627,-0.016265869140625,-0.1741943359375,-0.981689453125,0.00403016153723,0.0040006004273891,-0.0011603393359109
1770449773637,-0.0144805908203125,-0.174896240234375,-0.9769439697265624,-0.0038408108521252,0.0056786583736538,0.0042948797345161
1770449773647,-0.0137786865234375,-0.1746673583984375,-0.974395751953125,-0.0102465124800801,0.0044717136770486,0.0052152681164443
1770449773657,-0.0164794921875,-0.1720123291015625,-0.97796630859375,-0.0103341303765773,0.0034053840208798,0.0047979508526623
1770449773667,-0.0207672119140625,-0.169036865234375,-0.9824371337890624,-0.0094789890572428,0.0011715245200321,0.0019347865600138
1770449773678,-0.02142333984375,-0.1683807373046875,-0.98553466796875,-0.0046805054880678,-0.0014924354618415,-0.0013062804937362
1770449773688,-0.0201873779296875,-0.167572021484375,-0.987091064453125,-0.0011795139871537,-0.0010743191232904,-0.0023728765081614
1770449773697,-0.0186920166015625,-0.1672210693359375,-0.9847564697265624,0.0016154735349118,-0.0003787015157286,-0.0062544336542487
1770449773708,-0.0173797607421875,-0.1685333251953125,-0.9846954345703124,0.0027414578944444,0.0026216157712042,-0.0040163132362067
1770449773718,-0.0170440673828125,-0.169921875,-0.9844818115234376,0.0071394019760191,0.0020037624053657,-0.0040757018141448
1770449773728,-0.0159454345703125,-0.169830322265625,-0.9858551025390624,0.0132630746811628,0.0023715449497103,-0.002110555069521
1770449773738,-0.015899658203125,-0.1721343994140625,-0.985687255859375,0.0148031804710626,0.00037657096982,-0.0038613171782344
1770449773748,-0.0161590576171875,-0.1740264892578125,-0.984649658203125,0.0162189174443483,0.0010282464791089,-0.0005518069956451
1770449773758,-0.01361083984375,-0.1848602294921875,-0.98199462890625,0.010683536529541,0.0011736550368368,0.0100470418110489
1770449773768,-0.002685546875,-0.1872711181640625,-0.9796295166015624,0.0083082634955644,0.0010575412306934,0.0209492240101099
1770449773778,-0.005462646484375,-0.1697235107421875,-0.9777679443359376,-0.0009129316313192,0.0019720706623047,0.0126167256385087
1770449773790,-0.019378662109375,-0.163543701171875,-0.9747161865234376,-0.0066714850254356,5.060006060375599e-06,0.0016080166678875
1770449773798,-0.0266571044921875,-0.1628570556640625,-0.977447509765625,-9.800432599149644e-05,0.0078584561124444,-0.0089660640805959
1770449773808,-0.026641845703125,-0.1620025634765625,-0.982147216796875,-0.000998685369268,0.0056573529727756,-0.0168540813028812
1770449773818,-0.0230865478515625,-0.164306640625,-0.9779510498046876,0.0016639430541545,0.0038623826112598,-0.0161254405975341
1770449773828,-0.0203857421875,-0.1762542724609375,-0.981658935546875,0.004701011814177,-0.0002522013674024,-0.0044054011814296
1770449773838,-0.0114593505859375,-0.1926422119140625,-0.985992431640625,0.0052498895674943,-0.0039143143221735,0.0178343914449214
1770449773848,0.00360107421875,-0.19708251953125,-0.9839019775390624,0.0093343798071146,0.0022021678742021,0.0236251689493656
1770449773858,-0.0045928955078125,-0.1614532470703125,-0.9803619384765624,0.010210826061666,0.0136359175667166,-0.0034328147303313
1770449773868,-0.0323333740234375,-0.1505279541015625,-0.9810638427734376,0.0075969332829117,0.0061897188425064,-0.022162826731801
1770449773878,-0.0320587158203125,-0.1602020263671875,-0.983642578125,0.008478439413011,-0.0022714100778102,-0.0220754742622375
1770449773889,-0.0178375244140625,-0.1708984375,-0.983856201171875,0.0126406941562891,-0.0025571673177182,-0.0149520514532923
1770449773898,-0.0120086669921875,-0.1746826171875,-0.982330322265625,0.0146572394296526,-0.0020785972010344,-0.0050951596349477
1770449773908,-0.01153564453125,-0.173614501953125,-0.9811859130859376,0.0168988220393657,0.0004785700584761,0.0001257012045243
1770449773919,-0.0143890380859375,-0.1779327392578125,-0.98321533203125,0.014152836985886,0.0003368898760527,0.0075231636874377
1770449773928,-0.0082855224609375,-0.18218994140625,-0.9790191650390624,0.0058424426242709,0.0017757958266884,0.0159299634397029
1770449773939,-0.0042572021484375,-0.18731689453125,-0.9753265380859376,-0.0094587495550513,0.0002798982313834,0.0230334140360355
1770449773949,-0.0068511962890625,-0.184051513671875,-0.967864990234375,-0.0236768331378698,0.0047452202998101,0.0234470032155513
1770449773959,-0.0123138427734375,-0.174591064453125,-0.966705322265625,-0.031861525028944,0.007749798707664,0.0138124851509928
1770449773969,-0.0247344970703125,-0.1674346923828125,-0.973297119140625,-0.0331257283687591,0.0064661549404263,0.0031313446816056
1770449773979,-0.0318450927734375,-0.162139892578125,-0.9825592041015624,-0.0263826046139001,0.0003930825623683,-0.0051156659610569
1770449773989,-0.0323486328125,-0.1642608642578125,-0.9878387451171876,-0.0175883155316114,-0.0039023298304528,-0.0096981674432754
1770449773999,-0.028839111328125,-0.170654296875,-0.991790771484375,-0.0057329866103827,-0.0091519532725214,-0.0092313149943947
1770449774009,-0.020904541015625,-0.1739654541015625,-0.9936370849609376,0.0044394894503057,-0.011607919819653,-0.0062989084981381
1770449774019,-0.0161590576171875,-0.176544189453125,-0.9921417236328124,0.0151528539136052,-0.0123429521918296,-0.0038453382439911
1770449774029,-0.013641357421875,-0.1782684326171875,-0.989288330078125,0.0159102566540241,-0.01284362655133,-0.0001581917604198
1770449774039,-0.011505126953125,-0.1715087890625,-0.981353759765625,0.0126050077378749,-0.006264021154493,0.0024559672456234
1770449774049,-0.0141143798828125,-0.1678314208984375,-0.9778289794921876,0.0092504899948835,-0.0048608016222715,0.0017212009988725
1770449774059,-0.016815185546875,-0.167144775390625,-0.974609375,-0.0013915016315877,-0.0011779161868616,0.0009707222343422
1770449774069,-0.0184326171875,-0.16937255859375,-0.972930908203125,-0.0124095315113663,-0.0027838023379445,-0.0027371968608349
1770449774079,-0.016510009765625,-0.171234130859375,-0.9723358154296876,-0.0197617206722497,-0.0063228770159184,0.0006077333819121
1770449774089,-0.0147857666015625,-0.1718292236328125,-0.9753265380859376,-0.0240044016391038,-0.0078371502459049,0.0039782300591468
1770449774099,-0.0134735107421875,-0.1756134033203125,-0.978729248046875,-0.0255682095885276,-0.0078675104305148,0.0085548721253871
1770449774109,-0.0120849609375,-0.1769256591796875,-0.981201171875,-0.0227641686797142,-0.004946022760123,0.0123948846012353
1770449774119,-0.0098419189453125,-0.1776275634765625,-0.9849700927734376,-0.0198538657277822,-0.0071449950337409,0.0192836821079254
1770449774130,-0.00970458984375,-0.178436279296875,-0.9857177734375,-0.0171651374548673,-0.0059686764143407,0.0245452895760536
1770449774140,-0.0089111328125,-0.178924560546875,-0.98699951171875,-0.0115831531584262,-0.0034181671217083,0.0260574333369731
1770449774150,-0.012786865234375,-0.177703857421875,-0.9893798828125,-0.0051534827798604,-0.0016237293602898,0.0259306672960519
1770449774160,-0.0180206298828125,-0.1737823486328125,-0.9918670654296876,0.0019864519126713,-0.0003174488083459,0.0204645283520221
1770449774170,-0.0196685791015625,-0.1710662841796875,-0.9898681640625,0.0050232545472681,0.0013965616235509,0.0168058779090642
1770449774180,-0.022003173828125,-0.1721038818359375,-0.9850921630859376,0.0068653631024062,0.0010375675046816,0.0129959592595696
1770449774190,-0.0231781005859375,-0.171142578125,-0.9820098876953124,0.007390271872282,0.0020881847012788,0.0089740538969635
1770449774200,-0.0231475830078125,-0.170196533203125,-0.982421875,0.0085287736728787,0.000785898824688,0.0061029000207781
1770449774210,-0.0247802734375,-0.170867919921875,-0.98419189453125,0.0106228170916438,0.0001235706731677,0.0009637979674153
1770449774220,-0.0265960693359375,-0.1715240478515625,-0.98150634765625,0.010807373560965,-0.0011840413790196,-0.0015105449128895
1770449774230,-0.02239990234375,-0.172607421875,-0.9786376953125,0.0054264571517705,-0.002380599733442,0.0010412959381937
1770449774240,-0.0189208984375,-0.1715240478515625,-0.9759063720703124,0.0006245112745091,-0.0020088222809135,0.0011816446203738
1770449774250,-0.0204010009765625,-0.170654296875,-0.9724884033203124,-0.0085713835433125,0.0014713965356349,-0.0032013859599828
1770449774261,-0.0211944580078125,-0.171417236328125,-0.971893310546875,-0.0157651137560606,-0.0007254450465552,-0.0043342947028577
1770449774270,-0.0205535888671875,-0.1714630126953125,-0.970611572265625,-0.0269708968698978,-0.0005118595436215,-0.0062328623607754
1770449774280,-0.0186309814453125,-0.172576904296875,-0.96929931640625,-0.0368352457880973,-0.0003504719934426,-0.0068738851696252
1770449774290,-0.0182037353515625,-0.172393798828125,-0.9701080322265624,-0.0458609648048877,0.0003717772779054,-0.009066998027265
1770449774300,-0.018646240234375,-0.1719207763671875,-0.9711151123046876,-0.050110038369894,0.0005065332516096,-0.0103610279038548
1770449774310,-0.02178955078125,-0.1716461181640625,-0.9774627685546876,-0.0491310618817806,0.0026871294248849,-0.0102166850119829
1770449774320,-0.0221099853515625,-0.1695098876953125,-0.9824371337890624,-0.0421581044793129,-0.0011219898005947,-0.011673167347908
1770449774330,-0.0240936279296875,-0.1687164306640625,-0.9913330078125,-0.031411450356245,-0.0027190875262022,-0.0148247526958584
1770449774341,-0.0218658447265625,-0.168121337890625,-0.9936676025390624,-0.0203460175544023,-0.0061556305736303,-0.0157283637672662
1770449774350,-0.0218353271484375,-0.1700592041015625,-0.9932098388671876,-0.015289207920432,-0.0053662694990634,-0.012598349712789
1770449774361,-0.01654052734375,-0.183319091796875,-0.9899139404296876,-0.0105125624686479,-0.00464508542791,-0.0019675435032695
1770449774371,-0.004058837890625,-0.17767333984375,-0.9873046875,-0.0110619720071554,0.0002031991898547,-0.0024823325220495
1770449774381,-0.0128173828125,-0.1627197265625,-0.98358154296875,-0.0103370593860745,-0.0025550366844981,-0.0085325017571449
1770449774391,-0.0261383056640625,-0.1584014892578125,-0.9839630126953124,-0.0031260184478014,0.004644020460546,-0.0192687697708606
1770449774401,-0.0305938720703125,-0.1599884033203125,-0.9887542724609376,0.0060006347484886,0.0089668631553649,-0.0286782495677471
1770449774411,-0.0251312255859375,-0.1614837646484375,-0.9885406494140624,0.0123205818235874,0.006801713258028,-0.0302244815975427
1770449774421,-0.0213623046875,-0.1665191650390625,-0.9868011474609376,0.0178463757038116,0.0071175643242895,-0.023610521107912
1770449774431,-0.0186614990234375,-0.18426513671875,-0.9885101318359376,0.0176852531731128,-0.0005387574783526,-0.0029148298781365
1770449774441,-0.003143310546875,-0.20281982421875,-0.9844207763671876,0.0139254033565521,0.0026237461715936,0.0189441293478012
1770449774451,0.0054473876953125,-0.183807373046875,-0.978240966796875,0.0105181550607085,0.0181584972888231,0.0077135795727372
1770449774461,-0.017120361328125,-0.1516876220703125,-0.9770660400390624,0.0082254391163587,0.0178711414337158,-0.0179619565606117
1770449774471,-0.0364532470703125,-0.1540679931640625,-0.9827880859375,0.0053691989742219,0.0078129153698682,-0.0328189320862293
1770449774481,-0.03155517578125,-0.1673736572265625,-0.9860687255859376,0.0084091974422335,0.0024999093730002,-0.0303067732602357
1770449774491,-0.0172576904296875,-0.173431396484375,-0.9825439453125,0.0076251626014709,0.0027084348257631,-0.0238352920860052
1770449774501,-0.0140838623046875,-0.174468994140625,-0.9782257080078124,0.0078435419127345,0.0030482541769742,-0.0161680504679679
1770449774511,-0.0197601318359375,-0.1754608154296875,-0.982269287109375,0.0100856572389602,0.0011528824688866,-0.007669371087104
1770449774521,-0.015716552734375,-0.179290771484375,-0.9871673583984376,0.0061036986298859,0.0018298579379916,-0.0026383937802165
1770449774531,-0.007232666015625,-0.1841888427734375,-0.9822540283203124,0.0061036986298859,0.0018298579379916,-0.0026383937802165
1770449774541,-0.002105712890625,-0.1844482421875,-0.9720611572265624,-0.0056797238066792,0.0041745048947632,0.0029947245493531
1770449774551,-0.0088043212890625,-0.180511474609375,-0.96343994140625,-0.0333169437944889,0.0095234643667936,0.0009880327852442
1770449774562,-0.0227203369140625,-0.172576904296875,-0.966278076171875,-0.0409620814025402,0.0105240140110254,-0.0103714140132069
1770449774572,-0.0293731689453125,-0.1657867431640625,-0.9713287353515624,-0.0443661324679851,0.0089889671653509,-0.018285796046257
1770449774582,-0.0335235595703125,-0.1630401611328125,-0.977691650390625,-0.0414885878562927,0.0038943404797464,-0.0231457985937595
1770449774592,-0.0321044921875,-0.1643829345703125,-0.987152099609375,-0.0302838701754808,-0.00131799839437,-0.0246994867920875
1770449774602,-0.0279388427734375,-0.16888427734375,-0.996795654296875,-0.0126811740919947,-0.00547865498811,-0.0196370836347341
1770449774612,-0.0236053466796875,-0.1741485595703125,-1.00396728515625,0.004146275576204,-0.0058498997241258,-0.0189987253397703
1770449774622,-0.014984130859375,-0.1774749755859375,-1.003204345703125,0.0158615205436944,-0.0073101106099784,-0.0130207268521189
1770449774632,-0.0087890625,-0.1734771728515625,-0.995330810546875,0.0250555519014596,-0.0071330107748508,-0.0092166680842638
1770449774642,-0.012054443359375,-0.16912841796875,-0.9881439208984376,0.0265130996704101,-0.0013598100049421,-0.0133688021451234
1770449774652,-0.0164642333984375,-0.1650848388671875,-0.98358154296875,0.0190096441656351,0.0008447546861134,-0.0175853855907917
1770449774662,-0.0164337158203125,-0.1681060791015625,-0.974853515625,0.003876230912283,0.0023193468805402,-0.0180037673562765
1770449774672,-0.0127105712890625,-0.1678466796875,-0.9685211181640624,-0.0102094942703843,0.0074744280427694,-0.0121783688664436
1770449774682,-0.0131378173828125,-0.1696014404296875,-0.969482421875,-0.0167507510632276,0.0049465554766356,-0.0104385260492563
1770449774692,-0.0150604248046875,-0.1701507568359375,-0.978424072265625,-0.0154167730361223,0.001880457974039,-0.0075687039643526
1770449774702,-0.0153656005859375,-0.16864013671875,-0.984954833984375,-0.0101008368656039,0.0003304982965346,-0.0036876790691167
1770449774712,-0.01214599609375,-0.1703338623046875,-0.9878387451171876,-0.0050512175075709,0.0019403791520744,0.0013377057621255
1770449774722,-0.0107879638671875,-0.173126220703125,-0.98809814453125,-3.6485307646216825e-05,0.0033965955954045,0.0046919570304453
1770449774732,-0.011199951171875,-0.174072265625,-0.9866790771484376,0.0033915357198566,0.0065023740753531,0.0034786208998411
1770449774742,-0.0155487060546875,-0.17327880859375,-0.9842376708984376,0.0039707729592919,0.005878928117454,0.0014468954177573
1770449774752,-0.0197601318359375,-0.1731109619140625,-0.980743408203125,0.0006290386663749,0.0046328348107635,-0.0005073322099633
1770449774763,-0.0189666748046875,-0.1712799072265625,-0.977752685546875,-0.0035699673462659,0.0064025055617094,-0.0052525526843965
1770449774773,-0.01953125,-0.1710357666015625,-0.977264404296875,-0.0063367253169417,0.0071519189514219,-0.0060520335100591
1770449774783,-0.020050048828125,-0.169677734375,-0.980255126953125,-0.0067796092480421,0.008078166283667,-0.0048810415901243
1770449774793,-0.018096923828125,-0.1715545654296875,-0.98248291015625,-0.0044378917664289,0.0090534156188368,-0.0060072923079133
1770449774803,-0.017730712890625,-0.174774169921875,-0.9856414794921876,0.0025252092164009,0.0071809473447501,-0.0029984530992805
1770449774813,-0.0161895751953125,-0.1755523681640625,-0.9907989501953124,0.0093471631407737,0.004513525404036,-0.0014660701854154
1770449774823,-0.0172576904296875,-0.1734466552734375,-0.9904937744140624,0.012091283686459,0.0033316144254058,0.0007795072160661
1770449774833,-0.0189056396484375,-0.1722259521484375,-0.9863433837890624,0.014697453007102,0.0034301513805985,0.0015329155139625
1770449774843,-0.0188751220703125,-0.1702728271484375,-0.9821014404296876,0.0137304598465561,0.0053372411057353,0.0029587720055133
1770449774853,-0.0207977294921875,-0.1695404052734375,-0.980499267578125,0.0137304598465561,0.0053372411057353,0.0029587720055133
1770449774863,-0.01983642578125,-0.16943359375,-0.9788818359375,0.0119099225848913,0.0045809033326804,4.5806369598722085e-05
1770449774873,-0.017486572265625,-0.1693115234375,-0.974395751953125,-0.0017710020765662,0.0035305526107549,-0.0036032570060342
1770449774883,-0.0174713134765625,-0.1702117919921875,-0.9717559814453124,-0.0083780381828546,0.0033294840250164,-0.0012631373247131
1770449774893,-0.0160675048828125,-0.17156982421875,-0.9723968505859376,-0.0155688393861055,0.0036895433440804,-0.0012287824647501
1770449774903,-0.0139312744140625,-0.170654296875,-0.97509765625,-0.0170205291360616,0.0057018278166651,0.0049976878799498
1770449774913,-0.01361083984375,-0.1709442138671875,-0.9786376953125,-0.0173694025725126,0.00631222454831,0.0068701566196978
1770449774923,-0.0152435302734375,-0.170684814453125,-0.9814300537109376,-0.0140255382284522,0.0056954361498355,0.0078584561124444
1770449774933,-0.0189056396484375,-0.17095947265625,-0.983612060546875,-0.0100664822384715,0.0066176890395581,0.0076997312717139
1770449774943,-0.0205535888671875,-0.1714324951171875,-0.985992431640625,-0.0103642242029309,0.0062661515548825,0.00721130752936
1770449774953,-0.0157318115234375,-0.1829833984375,-0.984039306640625,-0.0104845985770225,0.0051944958977401,0.0157805606722831
1770449774963,-0.0069732666015625,-0.1796875,-0.9806976318359376,-0.0162716470658779,0.0085775088518857,0.0154295563697814
1770449774974,-0.01336669921875,-0.164459228515625,-0.9776153564453124,-0.0210376400500535,0.0054347128607332,0.0115213673561811
1770449774984,-0.0223236083984375,-0.16070556640625,-0.98089599609375,-0.0152138406410813,0.0079452749341726,-0.0006524744676426
1770449774994,-0.030181884765625,-0.163543701171875,-0.9867401123046876,-0.0057732006534934,0.0137024959549307,-0.0125895617529749
1770449775004,-0.02581787109375,-0.1608428955078125,-0.986480712890625,-0.0064115603454411,0.0127549432218074,-0.016308132559061
1770449775014,-0.0207977294921875,-0.1628570556640625,-0.98211669921875,-0.0036418726667761,0.0154149085283279,-0.013039369136095
1770449775024,-0.019073486328125,-0.1822357177734375,-0.9843597412109376,-0.0038235003594309,0.0074941352941095,0.0061580273322761
1770449775034,-0.0030517578125,-0.203277587890625,-0.9862518310546876,-0.0024053670931607,0.0045918221585452,0.0364448279142379
1770449775044,0.0088958740234375,-0.1898345947265625,-0.986053466796875,-0.0023587618488818,0.0174937732517719,0.0293144788593053
1770449775054,-0.0107879638671875,-0.1558380126953125,-0.98126220703125,-0.0059713395312428,0.0237058624625206,0.0030956584960222
1770449775064,-0.0372161865234375,-0.15386962890625,-0.979522705078125,-0.0075029237195849,0.0160370226949453,-0.0104313353076577
1770449775074,-0.0314788818359375,-0.16583251953125,-0.982513427734375,-0.0080001354217529,0.0116388127207756,-0.008445949293673
1770449775084,-0.018524169921875,-0.1720123291015625,-0.980072021484375,-0.0099338572472333,0.0123493438586592,-0.0023928501177579
1770449775094,-0.0180816650390625,-0.174041748046875,-0.978179931640625,-0.008353803306818,0.0096070868894457,0.0018061558948829
1770449775104,-0.0201873779296875,-0.1741943359375,-0.9823150634765624,-0.0104616954922676,0.0069207567721605,0.009066998027265
1770449775114,-0.0164337158203125,-0.17535400390625,-0.9861907958984376,-0.0139807965606451,0.0069982544519007,0.0170210618525743
1770449775124,-0.0069580078125,-0.1796875,-0.9829254150390624,-0.0156031940132379,0.0105032408609986,0.0251783244311809
1770449775134,-0.005340576171875,-0.1798248291015625,-0.982330322265625,-0.0163518097251653,0.0156394131481647,0.0252875126898288
1770449775144,-0.0104827880859375,-0.1766204833984375,-0.981201171875,-0.0109000522643327,0.0169353075325489,0.0232256948947906
1770449775156,-0.0203857421875,-0.170318603515625,-0.98382568359375,-0.0069905314594507,0.0155941396951675,0.0142644234001636
1770449775164,-0.02838134765625,-0.166046142578125,-0.985382080078125,-0.0054751927964389,0.0157960075885057,0.002190982690081
1770449775174,-0.03375244140625,-0.1651611328125,-0.9845123291015624,-0.0032333438284695,0.0136447055265307,-0.0074387416243553
1770449775185,-0.0327911376953125,-0.1665191650390625,-0.9836578369140624,-0.0036011263728141,0.0104672880843281,-0.011951201595366
1770449775195,-0.0272216796875,-0.1699066162109375,-0.985076904296875,-0.0018511632224544,0.0064078317955136,-0.0117325559258461
1770449775205,-0.0192718505859375,-0.176605224609375,-0.9854583740234376,0.0034637073986232,0.0062315305694937,-0.0055321846157312
1770449775215,-0.0140228271484375,-0.1783447265625,-0.985870361328125,0.0072477930225431,0.0048288437537848,-0.0001810949470382
1770449775225,-0.0115203857421875,-0.1759796142578125,-0.986114501953125,0.0096904439851641,0.0029859361238777,0.0035566515289247
1770449775235,-0.013641357421875,-0.170623779296875,-0.984375,0.0069441925734281,0.0042855585925281,0.0030767500866204
1770449775245,-0.018646240234375,-0.164520263671875,-0.98095703125,0.0025276062078773,0.004946821834892,-0.0026186862960457
1770449775255,-0.0177001953125,-0.1684112548828125,-0.977264404296875,-0.0051060789264738,0.0075037227943539,-0.0005613943794742
1770449775265,-0.0142822265625,-0.173675537109375,-0.979217529296875,-0.0142439166083931,0.006336192600429,0.0014317154418677
1770449775275,-0.01165771484375,-0.1754608154296875,-0.977020263671875,-0.0194703713059425,0.0057191383093595,0.0037880802992731
1770449775285,-0.011566162109375,-0.1752166748046875,-0.9793243408203124,-0.0218395181000232,0.0049670618027448,0.0053628073073923
1770449775295,-0.0117340087890625,-0.1738128662109375,-0.9822998046875,-0.0204618647694587,0.0091705955564975,0.0076629798859357
1770449775305,-0.010345458984375,-0.1751251220703125,-0.9853515625,-0.0167760513722896,0.0118111195042729,0.0101503720507025
1770449775315,-0.01123046875,-0.1780242919921875,-0.987823486328125,-0.007686149328947,0.0132873095571994,0.0124276410788297
1770449775325,-0.0114593505859375,-0.1771087646484375,-0.98883056640625,-0.0039713056758046,0.0141397872939705,0.0132550848647952
1770449775335,-0.014892578125,-0.1756439208984375,-0.984893798828125,-0.0004364920896477,0.0169552806764841,0.0136513635516166
1770449775345,-0.0167388916015625,-0.171905517578125,-0.9810638427734376,0.0002623213513288,0.0190501231700181,0.0101466439664363
1770449775355,-0.021148681640625,-0.1717987060546875,-0.9790496826171876,0.0016554208705201,0.0203643944114446,0.0066981161944568
1770449775365,-0.0243072509765625,-0.17034912109375,-0.9786224365234376,-0.0003797667741309,0.0177164133638143,-0.0008077367674559
1770449775375,-0.0266265869140625,-0.1714324951171875,-0.97772216796875,-0.0034107104875147,0.015539544634521,-0.004162520635873
1770449775386,-0.0242767333984375,-0.1708221435546875,-0.978515625,-0.0082597937434911,0.0143517749384045,-0.0069654979743063
1770449775396,-0.02337646484375,-0.1744537353515625,-0.9783782958984376,-0.0109719568863511,0.0095104146748781,-0.0090803140774369
1770449775405,-0.019805908203125,-0.1760406494140625,-0.9791259765625,-0.012224175967276,0.0070054451934993,-0.0080097233876585
1770449775416,-0.0186920166015625,-0.1746673583984375,-0.97869873046875,-0.018100706860423,0.0057899784296751,-0.0102553004398942
1770449775426,-0.01885986328125,-0.1733551025390625,-0.9764556884765624,-0.0215793270617723,0.0053742588497698,-0.007791344076395
1770449775436,-0.0188446044921875,-0.1727142333984375,-0.977935791015625,-0.0214232672005891,0.0063569652847945,-0.0079657807946205
1770449775446,-0.0172882080078125,-0.1715240478515625,-0.9835205078125,-0.0180519707500934,0.0040200417861342,-0.008961004205048
1770449775457,-0.019195556640625,-0.170654296875,-0.986541748046875,-0.0151110421866178,0.0013683321885764,-0.0077223679982125
1770449775466,-0.017730712890625,-0.1688995361328125,-0.98602294921875,-0.0147483199834823,0.0025782061275094,-0.0082629900425672
1770449775476,-0.0162353515625,-0.170745849609375,-0.981964111328125,-0.0171704646199941,0.0043095271103084,-0.0117687750607728
1770449775486,-0.01666259765625,-0.1714935302734375,-0.9812164306640624,-0.0185867343097925,0.0043385555036365,-0.0096174739301204
1770449775496,-0.0164794921875,-0.171051025390625,-0.9804229736328124,-0.0168660655617713,0.0026000442449003,-0.0113125760108232
1770449775506,-0.02001953125,-0.1710662841796875,-0.9811859130859376,-0.0192634426057338,-0.002396312309429,-0.012139487080276
1770449775516,-0.021453857421875,-0.1683197021484375,-0.980377197265625,-0.0220714807510375,-0.0036495958920568,-0.0135443042963743
1770449775526,-0.0222625732421875,-0.165191650390625,-0.9759979248046876,-0.0228666998445987,-0.0023262712638825,-0.017993114888668
1770449775536,-0.0231781005859375,-0.1717529296875,-0.9780426025390624,-0.0183459836989641,-0.0019981698133051,-0.0147078400477766
1770449775546,-0.01739501953125,-0.176727294921875,-0.9859161376953124,-0.0077543258666992,-0.0028245486319065,-0.0100363884121179
1770449775556,-0.017059326171875,-0.1622467041015625,-0.9897918701171876,0.0041718417778611,-0.0077292923815548,-0.0173912402242422
1770449775566,-0.0284423828125,-0.1594085693359375,-0.9909515380859376,0.0153206326067447,-0.0123373595997691,-0.0285903662443161
1770449775576,-0.033599853515625,-0.157257080078125,-0.9925384521484376,0.02665850892663,-0.0088190576061606,-0.0455397889018058
1770449775586,-0.0328216552734375,-0.1588134765625,-0.9879150390625,0.0236962754279375,-0.0046621295623481,-0.0594489462673664
1770449775596,-0.0256500244140625,-0.1572265625,-0.9754180908203124,0.0099695436656475,-0.0052789179608225,-0.0622295513749122
1770449775606,-0.0193023681640625,-0.1805572509765625,-0.9683990478515624,-0.0057138120755553,-0.0024005733430385,-0.0483339764177799
1770449775616,-0.0045166015625,-0.196990966796875,-0.9694671630859376,-0.0197814274579286,-0.0084126591682434,-0.0213167406618595
1770449775627,0.0106658935546875,-0.2066497802734375,-0.974639892578125,-0.0265626348555088,-0.0033097765408456,-0.012083294801414
1770449775637,0.00262451171875,-0.1695404052734375,-0.977813720703125,-0.0294875837862491,0.0039212382398545,-0.0318543352186679
1770449775646,-0.0247802734375,-0.1477508544921875,-0.98077392578125,-0.0303416606038808,-0.0013265205780044,-0.052310075610876
1770449775657,-0.0328826904296875,-0.1573486328125,-0.989227294921875,-0.0237785670906305,-0.0045097968541085,-0.0576609000563621
1770449775667,-0.019012451171875,-0.1685791015625,-0.9976654052734376,-0.0090938964858651,-0.0081050647422671,-0.0516794398427009
1770449775677,-0.0116119384765625,-0.172271728515625,-1.0012664794921875,0.0094161387532949,-0.0089088063687086,-0.0426435992121696
1770449775687,-0.01422119140625,-0.171051025390625,-1.0028533935546875,0.0237484723329544,-0.010627344250679,-0.0408531576395034
1770449775697,-0.016510009765625,-0.1688079833984375,-1.0040435791015625,0.0356791689991951,-0.0092249233275651,-0.0360956862568855
1770449775707,-0.010467529296875,-0.1747589111328125,-1.0008087158203125,0.0370078198611736,-0.0050216563977301,-0.0289285872131586
1770449775717,-0.0003814697265625,-0.17926025390625,-0.9909515380859376,0.0317744426429271,0.0020580908749252,-0.0198525339365005
1770449775727,0.00384521484375,-0.1783905029296875,-0.9767913818359376,0.024228373542428,0.012590093538165,-0.0212171375751495
1770449775737,-0.0029144287109375,-0.1742706298828125,-0.971771240234375,0.0162279717624187,0.0173723325133323,-0.0269945990294218
1770449775747,-0.0133209228515625,-0.167449951171875,-0.972259521484375,0.011027617380023,0.0167933609336614,-0.035255990922451
1770449775757,-0.02117919921875,-0.16473388671875,-0.9734954833984376,0.006351372692734,0.0168849732726812,-0.0437360294163227
1770449775767,-0.0238494873046875,-0.16595458984375,-0.9767303466796876,0.0028993834275752,0.0080941449850797,-0.0434441454708576
1770449775777,-0.0215911865234375,-0.1687164306640625,-0.978912353515625,0.0029534455388784,0.0012876383261755,-0.0409796573221683
1770449775787,-0.0189666748046875,-0.1723785400390625,-0.9786529541015624,0.0017142767319455,-0.000146473859786,-0.0359044708311557
1770449775797,-0.01556396484375,-0.177520751953125,-0.9806671142578124,0.0045833000913262,-0.0024975123815238,-0.031155789270997
1770449775807,-0.013671875,-0.1763153076171875,-0.983917236328125,0.0081335604190826,-0.0057353838346898,-0.0276393499225378
1770449775817,-0.013671875,-0.1702117919921875,-0.9848175048828124,0.0098012313246726,-0.00811811350286,-0.0227202251553535
1770449775827,-0.0167388916015625,-0.1649932861328125,-0.9842681884765624,0.0107597038149833,-0.0055457665584981,-0.0280643906444311
1770449775837,-0.0201263427734375,-0.166351318359375,-0.98187255859375,0.0078488681465387,-0.0075252940878272,-0.0332434400916099
1770449775848,-0.016845703125,-0.1699981689453125,-0.9796142578125,0.0012183962389826,-0.0102182831615209,-0.0322431586682796
1770449775858,-0.0127410888671875,-0.173095703125,-0.9777374267578124,-0.0069215558469295,-0.0149565786123275,-0.0289038196206092
1770449775868,-0.0105133056640625,-0.1752471923828125,-0.9752960205078124,-0.013399695046246,-0.013644172810018,-0.0262766107916831
1770449775878,-0.008636474609375,-0.1766204833984375,-0.9801788330078124,-0.0193297564983367,-0.0132548185065388,-0.0232099816203117
1770449775888,-0.0080108642578125,-0.175933837890625,-0.9837493896484376,-0.0164018757641315,-0.012917130254209,-0.0227202251553535
1770449775898,-0.0100555419921875,-0.17401123046875,-0.9847564697265624,-0.0146713545545935,-0.0116808908060193,-0.0198043305426836
1770449775908,-0.008026123046875,-0.17303466796875,-0.98309326171875,-0.0135275265201926,-0.0069870692677795,-0.0178551636636257
1770449775918,-0.00909423828125,-0.1717376708984375,-0.982635498046875,-0.0047617321833968,-0.0036634444259107,-0.0146977193653583
1770449775928,-0.0106201171875,-0.171051025390625,-0.986480712890625,0.0041670482605695,-0.0045814360491931,-0.0194621141999959
1770449775938,-0.0175323486328125,-0.168731689453125,-0.986968994140625,0.0124484142288565,-0.0058690742589533,-0.0249913688749074
1770449775948,-0.0189056396484375,-0.1669464111328125,-0.9842681884765624,0.0153664397075772,-0.0026469158474355,-0.0284620020538568
1770449775958,-0.019012451171875,-0.16815185546875,-0.9774932861328124,0.0084744449704885,-0.0035579830873757,-0.030810110270977
1770449775968,-0.016510009765625,-0.1702728271484375,-0.970458984375,0.0005470133037306,-6.205165118444711e-05,-0.0327124074101448
1770449775978,-0.0140838623046875,-0.171783447265625,-0.9719085693359376,-0.0077002639882266,-0.0023747407831251,-0.0321249142289161
1770449775988,-0.012054443359375,-0.1745147705078125,-0.9712677001953124,-0.0133381756022572,-0.0025643578264862,-0.028105404227972
1770449775998,-0.010894775390625,-0.1739044189453125,-0.97515869140625,-0.0182242766022682,-0.0049404301680624,-0.0263812728226184
1770449776009,-0.0111083984375,-0.1739959716796875,-0.9774627685546876,-0.0223923902958631,-0.0066307382658123,-0.0221148896962404
1770449776018,-0.01007080078125,-0.1727447509765625,-0.9795074462890624,-0.0223487149924039,-0.0060296631418168,-0.0167001504451036
1770449776028,-0.008148193359375,-0.1713104248046875,-0.9826202392578124,-0.0215593539178371,-0.0039345542900264,-0.0102925850078463
1770449776038,-0.0071563720703125,-0.1670379638671875,-0.9831085205078124,-0.0159613899886608,-0.0032426649704575,-0.0087117329239845
1770449776048,-0.0112457275390625,-0.1641387939453125,-0.9852447509765624,-0.0091098751872777,0.0001009338011499,-0.0069537800736725
1770449776059,-0.0091552734375,-0.16522216796875,-0.98486328125,-0.0068493839353322,-0.0015425028977915,-0.0052293832413852
1770449776069,-0.0073089599609375,-0.1683197021484375,-0.9816131591796876,-0.0042818305082619,0.0027268105186522,0.0023598270490765
1770449776079,-0.0063629150390625,-0.1688690185546875,-0.9806365966796876,-0.002903910819441,0.0010708570480346,0.0079676453024148
1770449776089,-0.0073699951171875,-0.167816162109375,-0.9828033447265624,0.0025638251099735,0.0012269183062016,0.0069079734385013
1770449776099,-0.0138702392578125,-0.168426513671875,-0.98583984375,0.0015544871566817,-0.0016556872287765,0.0093229282647371
1770449776109,-0.0134124755859375,-0.1669769287109375,-0.982452392578125,-0.0010761833982542,0.0006000102148391,0.0096941730007529
1770449776119,-0.0122222900390625,-0.173431396484375,-0.9783935546875,-0.0084363613277673,0.001497761812061,0.0178972408175468
1770449776129,-0.004058837890625,-0.18572998046875,-0.9767913818359376,-0.0109711587429046,0.0021848573815077,0.0256204083561897
1770449776139,-0.0026397705078125,-0.1678466796875,-0.9777374267578124,-0.0164990816265344,0.0024354606866836,0.0251327827572822
1770449776149,-0.0174560546875,-0.164642333984375,-0.9769287109375,-0.0179550312459468,-0.0046615973114967,0.0229830797761678
1770449776159,-0.022674560546875,-0.1628570556640625,-0.9828948974609376,-0.0093274554237723,0.0030700920615345,0.0083143888041377
1770449776169,-0.02655029296875,-0.1637115478515625,-0.988494873046875,-0.0045774411410093,0.0070003853179514,-0.0028892634436488
1770449776179,-0.0273590087890625,-0.1525421142578125,-0.981658935546875,-0.01000043656677,0.0032032502349466,-0.0086400937288999
1770449776189,-0.0235748291015625,-0.1804351806640625,-0.9801025390625,-0.0124393589794635,0.0056818542070686,0.0099128177389502
1770449776199,-0.0018463134765625,-0.197113037109375,-0.9847259521484376,-0.0160998739302158,0.0013872405979782,0.0358575992286205
1770449776209,0.0107879638671875,-0.20458984375,-0.984039306640625,-0.0117868846282362,0.0083689838647842,0.0428792908787727
1770449776219,0.0006256103515625,-0.1694183349609375,-0.984161376953125,-0.0092683332040905,0.0137504329904913,0.020968398079276
1770449776229,-0.026947021484375,-0.1486358642578125,-0.9807281494140624,-0.0136870499700307,0.0116113824769854,-0.0033108417410403
1770449776239,-0.0339508056640625,-0.1569671630859375,-0.980194091796875,-0.0189539827406406,0.0070752198807895,-0.0090086748823523
1770449776249,-0.022491455078125,-0.167724609375,-0.9781646728515624,-0.0241857636719942,0.0057241981849074,-0.0018809906905516
1770449776259,-0.012176513671875,-0.1726531982421875,-0.975830078125,-0.0229082442820072,0.0060728061944246,0.0073841465637087
1770449776269,-0.0147552490234375,-0.167999267578125,-0.97723388671875,-0.0190549176186323,0.0046706520952284,0.0107304081320762
1770449776279,-0.015960693359375,-0.1710205078125,-0.9854583740234376,-0.0171494260430336,0.0018932411912828,0.0130103407427668
1770449776290,-0.00897216796875,-0.1754302978515625,-0.988067626953125,-0.0221343301236629,0.0029617014806717,0.0236874856054782
1770449776300,0.000579833984375,-0.1773529052734375,-0.982666015625,-0.0261104293167591,0.0076635121367871,0.0327211953699588
1770449776310,0.0007781982421875,-0.1744842529296875,-0.9788055419921876,-0.0286494884639978,0.015745673328638,0.0301168896257877
1770449776320,-0.0123748779296875,-0.165496826171875,-0.9783172607421876,-0.0285008829087018,0.0189036503434181,0.0217479057610034
1770449776330,-0.020355224609375,-0.1609344482421875,-0.980224609375,-0.0237660501152277,0.0192304197698831,0.0123637253418564
1770449776340,-0.02606201171875,-0.1588287353515625,-0.986053466796875,-0.0192037876695394,0.0169787164777517,0.0078291613608598
1770449776350,-0.026275634765625,-0.162841796875,-0.9865264892578124,-0.0138657484203577,0.0109676960855722,0.0051207263022661
1770449776360,-0.0220489501953125,-0.167510986328125,-0.987274169921875,-0.0133062181994318,0.0088321072980761,0.0063705476932227
1770449776370,-0.0193023681640625,-0.1717376708984375,-0.982940673828125,-0.0139776011928915,0.0067071709781885,0.0109935291111469
1770449776380,-0.0119781494140625,-0.177398681640625,-0.980621337890625,-0.0175760649144649,0.005288771353662,0.0206581410020589
1770449776390,-0.006744384765625,-0.17547607421875,-0.9822998046875,-0.0161933507770299,0.003729490796104,0.0278832968324422
1770449776400,-0.0113372802734375,-0.1708221435546875,-0.9851226806640624,-0.0145102329552173,0.0065764100290834,0.0242185201495885
1770449776410,-0.0154876708984375,-0.16204833984375,-0.9841156005859376,-0.0163150578737258,0.0074754930101335,0.0213079508394002
1770449776420,-0.01922607421875,-0.163787841796875,-0.9852752685546876,-0.015690280124545,0.0061444453895092,0.0215463042259216
1770449776430,-0.0137481689453125,-0.1674041748046875,-0.986083984375,-0.0177683439105749,0.0073441993445158,0.021099692210555
1770449776440,-0.0124359130859375,-0.16650390625,-0.981781005859375,-0.02428057231009,0.0083844298496842,0.0194858163595199
1770449776450,-0.0138702392578125,-0.1669464111328125,-0.9768524169921876,-0.0287562813609838,0.0082012042403221,0.0212251283228397
1770449776460,-0.013702392578125,-0.1664581298828125,-0.9773101806640624,-0.0315336920320987,0.010489392094314,0.022269619628787
1770449776470,-0.0108642578125,-0.1685638427734375,-0.98162841796875,-0.0272420067340135,0.0121259046718478,0.0233844183385372
1770449776480,-0.0105438232421875,-0.1687469482421875,-0.9855194091796876,-0.0232320856302976,0.0114726312458515,0.0239775050431489
1770449776491,-0.0132293701171875,-0.1688232421875,-0.984649658203125,-0.0208280496299266,0.012787434272468,0.0222895927727222
1770449776500,-0.0149993896484375,-0.1674041748046875,-0.9826812744140624,-0.0197231043130159,0.0138937113806605,0.0197172462940216
1770449776511,-0.0168914794921875,-0.16729736328125,-0.983367919921875,-0.0148460576310753,0.0114505272358655,0.0153304869309067
1770449776521,-0.0187530517578125,-0.165924072265625,-0.9853668212890624,-0.0117522636428475,0.0129352398216724,0.010759437456727
1770449776531,-0.020294189453125,-0.164581298828125,-0.9870147705078124,-0.0067745489068329,0.009492571465671,0.006844856776297
1770449776541,-0.0196533203125,-0.1640167236328125,-0.9849395751953124,-0.0052917008288204,0.0090875048190355,0.0039153792895376
1770449776551,-0.0185546875,-0.16558837890625,-0.9859466552734376,-0.0008612662786617,0.0084576671943068,0.0045406897552311
1770449776561,-0.016326904296875,-0.166717529296875,-0.9888763427734376,0.0012389025650918,0.0080728400498628,0.0049236523918807
1770449776571,-0.01483154296875,-0.168975830078125,-0.98565673828125,0.0032618397381156,0.0074832164682447,0.0040647825226187
1770449776581,-0.016143798828125,-0.16839599609375,-0.986328125,0.0055257929489016,0.0051974253728985,0.0050421627238392
1770449776591,-0.0166778564453125,-0.16839599609375,-0.9859161376953124,0.0078893480822443,0.0035220305435359,0.0055907741189002
1770449776601,-0.016693115234375,-0.1674041748046875,-0.98443603515625,0.0052687977440655,0.0018373148050159,0.0050458912737667
1770449776611,-0.016357421875,-0.1659088134765625,-0.98101806640625,-0.0004471447318792,0.0012964267516508,0.0064773401245474
1770449776621,-0.0144805908203125,-0.1654205322265625,-0.9774322509765624,-0.0066951867192983,-0.0005406216951087,0.0046639940701425
1770449776631,-0.0128326416015625,-0.1635284423828125,-0.975860595703125,-0.0130628049373626,0.000802676717285,0.0035768917296081
1770449776641,-0.012847900390625,-0.163818359375,-0.9810028076171876,-0.0122563997283577,-0.0007374293054454,0.0036567864008247
1770449776651,-0.0146026611328125,-0.1633758544921875,-0.9832305908203124,-0.0112385395914316,0.0008777778712101,0.0021049624774605
1770449776661,-0.0131988525390625,-0.163665771484375,-0.9844970703125,-0.0084712486714124,0.0010500843636691,0.0002769687562249
1770449776671,-0.012786865234375,-0.1636199951171875,-0.9818572998046876,-0.0095018921419978,0.0035127094015479,0.0016522251535207
1770449776681,-0.011016845703125,-0.1618499755859375,-0.9807281494140624,-0.011043862439692,0.0058054248802363,0.0004274373641237
1770449776691,-0.0127716064453125,-0.1624908447265625,-0.979278564453125,-0.0108071072027087,0.0064757424406707,-0.0024541029706597
1770449776702,-0.0149383544921875,-0.16510009765625,-0.978271484375,-0.0138609539717435,0.0058056912384927,0.0008993495139293
1770449776712,-0.010406494140625,-0.176483154296875,-0.98040771484375,-0.0137818586081266,0.0033683660440146,0.0086936233565211
1770449776722,-0.0063018798828125,-0.170440673828125,-0.9808807373046876,-0.0148356715217232,0.0034629083238542,0.0063958475366234
1770449776732,-0.0157318115234375,-0.1577606201171875,-0.9787750244140624,-0.0214461702853441,-0.0038237667176872,0.002975549781695
1770449776742,-0.0217437744140625,-0.1566162109375,-0.9783477783203124,-0.0195822231471538,-0.0023409186396747,-0.0053452304564416
1770449776752,-0.0252532958984375,-0.1617584228515625,-0.988006591796875,-0.0083841634914278,0.0022793996613472,-0.0154649764299392
1770449776762,-0.0228118896484375,-0.152496337890625,-0.99237060546875,-0.0022905848454684,-0.0018144116038456,-0.0244986843317747
1770449776772,-0.0233917236328125,-0.15972900390625,-0.9876556396484376,-0.0019784623291343,-0.0015307849971577,-0.0211465638130903
1770449776782,-0.01483154296875,-0.1787567138671875,-0.9889068603515624,-0.0003235740587115,-0.0106787430122494,0.0010570086305961
1770449776792,0.003753662109375,-0.197418212890625,-0.9876251220703124,0.0019182749092578,-0.0069223544560372,0.0224424581974744
1770449776802,0.0108642578125,-0.17681884765625,-0.9830474853515624,0.0004098604840692,0.0070432620123028,0.0099341236054897
1770449776812,-0.017242431640625,-0.145233154296875,-0.9770965576171876,-0.0046472162939608,0.0047153928317129,-0.0198461432009935
1770449776822,-0.0353546142578125,-0.1466217041015625,-0.978973388671875,-0.009729060344398,-5.832322858623229e-05,-0.0295879859477281
1770449776832,-0.024627685546875,-0.1567535400390625,-0.9821929931640624,-0.011714712716639,-0.0067820060066878,-0.0229274202138185
1770449776842,-0.0108184814453125,-0.1666412353515625,-0.980682373046875,-0.0081332940608263,-0.0104470485821366,-0.010938667692244
1770449776852,-0.01019287109375,-0.1667633056640625,-0.9843597412109376,-0.0053755906410515,-0.0122534707188606,-0.0063886572606861
1770449776862,-0.0155181884765625,-0.1638946533203125,-0.988067626953125,-0.0012298477813601,-0.012009791098535,-0.0021188110113143
1770449776872,-0.0098114013671875,-0.1686248779296875,-0.99188232421875,-0.0014136058744043,-0.0094712655991315,0.0086134616285562
1770449776882,0.000762939453125,-0.1768951416015625,-0.9869537353515624,-0.0082118567079305,-0.0022040321491658,0.0183254778385162
1770449776892,0.0068511962890625,-0.17779541015625,-0.9828033447265624,-0.0075189024209976,0.0045651905238628,0.0223881304264068
1770449776902,-0.0023193359375,-0.1718597412109375,-0.9815826416015624,-0.0083362264558672,0.0074746944010257,0.0153278233483433
1770449776912,-0.0150909423828125,-0.160980224609375,-0.982421875,-0.0066773439757525,0.0093514239415526,0.0028314727824181
1770449776923,-0.0244140625,-0.1557464599609375,-0.986236572265625,-0.00341949891299,0.0076035913079977,-0.006599046755582
1770449776933,-0.0279388427734375,-0.1569976806640625,-0.9885711669921876,0.0025148231070488,0.0032586439047008,-0.0109466575086116
1770449776943,-0.0236663818359375,-0.16180419921875,-0.9886474609375,0.0057604173198342,0.0015928366919979,-0.0105109643191099
1770449776953,-0.02020263671875,-0.16571044921875,-0.98748779296875,0.0100667485967278,-0.0024125576019287,-0.0086084017530083
1770449776963,-0.01422119140625,-0.1691436767578125,-0.9861907958984376,0.0136164762079715,-0.0042525357566773,-0.0033353429753333
1770449776973,-0.0118408203125,-0.1735382080078125,-0.9847869873046876,0.0143046369776129,-0.0078685758635401,0.0011275823926553
1770449776983,-0.011199951171875,-0.1692962646484375,-0.98486328125,0.0087713869288563,-0.0091490233317017,0.0035902075469493
1770449776993,-0.0128326416015625,-0.1638031005859375,-0.9781951904296876,0.0009361011325381,-0.0053617423400282,0.0039268308319151
1770449777003,-0.01544189453125,-0.157928466796875,-0.976837158203125,-0.0026242788881063,-0.0054837148636579,-0.0013853764394298
1770449777013,-0.0164947509765625,-0.159210205078125,-0.9776611328125,-0.008821721188724,-0.0055918390862643,-0.0033848776947706
1770449777023,-0.0139617919921875,-0.15948486328125,-0.980010986328125,-0.0109927300363779,-0.0078081218525767,-0.0024264061357825
1770449777033,-0.011260986328125,-0.1615142822265625,-0.982208251953125,-0.0102553004398942,-0.0096110822632908,-0.0031260184478014
1770449777043,-0.0119171142578125,-0.163909912109375,-0.9833984375,-0.0076320869848132,-0.0093096122145652,-0.001914812834002
1770449777053,-0.0080108642578125,-0.1658477783203125,-0.9840850830078124,-0.0055223307572305,-0.0096193375065922,0.00375372543931
1770449777063,-0.006805419921875,-0.1669464111328125,-0.985107421875,-0.0039790291339159,-0.0060200756415724,0.0099607547745108
1770449777073,-0.0069732666015625,-0.16845703125,-0.9853668212890624,-0.0064349961467087,-0.0041121868416666,0.013964551500976
1770449777083,-0.007598876953125,-0.170013427734375,-0.980926513671875,-0.0105181550607085,-0.0018873822409659,0.0189859420061111
1770449777093,-0.008056640625,-0.166961669921875,-0.978271484375,-0.0126468194648623,0.0004953479510731,0.0225215535610914
1770449777103,-0.0118865966796875,-0.16571044921875,-0.9846954345703124,-0.0047673247754573,-0.0007438209140673,0.0209292508661746
1770449777113,-0.0208740234375,-0.1619873046875,-0.98944091796875,0.0023837955668568,-0.0032498554792255,0.0133621441200375
1770449777124,-0.024444580078125,-0.1589813232421875,-0.9895172119140624,0.0056706690229475,-0.0042027346789836,0.0069159627892076
1770449777133,-0.022735595703125,-0.1583251953125,-0.986083984375,0.006433664355427,-0.0044365599751472,0.0037675739731639
1770449777144,-0.02203369140625,-0.1618194580078125,-0.98333740234375,0.0072179655544459,-0.006925550289452,0.001603755634278
1770449777154,-0.0191802978515625,-0.163909912109375,-0.9840850830078124,0.00599344400689,-0.0086744483560323,0.0024482440203428
1770449777164,-0.0163421630859375,-0.1678466796875,-0.9825592041015624,0.0021339908707886,-0.0106558399274945,0.0063609601929783
1770449777174,-0.0136871337890625,-0.168975830078125,-0.982574462890625,-0.0036788906436413,-0.0118372179567813,0.0096760634332895
1770449777184,-0.0141143798828125,-0.1707916259765625,-0.9820709228515624,-0.0063258064910769,-0.0137871848419308,0.0157294273376464
1770449777194,-0.01300048828125,-0.1684112548828125,-0.982635498046875,-0.0113770244643092,-0.0125930234789848,0.0201350953429937
1770449777205,-0.0123443603515625,-0.1656951904296875,-0.9852294921875,-0.0109762186184525,-0.010063286870718,0.0200408194214105
1770449777214,-0.0157470703125,-0.164764404296875,-0.986724853515625,-0.0080296965315938,-0.0072885393165051,0.018151307478547
1770449777224,-0.0149383544921875,-0.160003662109375,-0.9859466552734376,-0.0044338968582451,-0.0032410670537501,0.0185012463480234
1770449777234,-0.015960693359375,-0.1597747802734375,-0.987640380859375,0.00637001497671,-0.0020785972010344,0.0171827152371406
1770449777244,-0.01751708984375,-0.1605377197265625,-0.9903106689453124,0.0166114680469036,-0.0001864212681539,0.0129871712997555
1770449777254,-0.0202789306640625,-0.159210205078125,-0.9912872314453124,0.0228291489183902,-0.0003043993201572,0.0107628991827368
1770449777264,-0.019775390625,-0.159637451171875,-0.9893341064453124,0.0231508594006299,0.0010591391474008,0.0101125547662377
1770449777274,-0.019744873046875,-0.1602783203125,-0.9841766357421876,0.0223785433918237,-3.5686356568476185e-05,0.0096371807157993
1770449777284,-0.0209197998046875,-0.1640167236328125,-0.9813079833984376,0.0161374248564243,0.0005512743373401,0.0086424900218844
1770449777294,-0.021240234375,-0.1682586669921875,-0.979278564453125,0.0097889807075262,-0.0009289105655625,0.0117195062339305
1770449777305,-0.01513671875,-0.1808929443359375,-0.978546142578125,0.0045974147506058,-0.0021712752059102,0.0221053026616573
1770449777314,-0.0069732666015625,-0.1679229736328125,-0.977569580078125,-0.0023984429426491,-0.0004599279200192,0.0168021488934755
1770449777325,-0.0194549560546875,-0.1547088623046875,-0.9777069091796876,-0.0036187032237648,-0.0063923853449523,0.0117687750607728
1770449777335,-0.02752685546875,-0.1536865234375,-0.9843902587890624,0.0036293559242039,0.0008245146600529,-0.0032666332554072
1770449777344,-0.031280517578125,-0.1533203125,-0.990447998046875,0.0156303588300943,0.0046341666020452,-0.0117559917271137
1770449777355,-0.0269622802734375,-0.149688720703125,-0.984466552734375,0.0133450999855995,0.0010788465151563,-0.0160157177597284
1770449777365,-0.0229339599609375,-0.1672210693359375,-0.9809722900390624,0.0148844076320528,0.0048117996193468,-0.007809187285602
1770449777375,-0.0153656005859375,-0.1794281005859375,-0.984344482421875,0.013416739180684,-0.0071223578415811,0.0163526087999343
1770449777385,-0.0025482177734375,-0.199005126953125,-0.9805908203125,0.0077316891402006,7.98948312876746e-05,0.028424983844161
1770449777395,0.0008087158203125,-0.1658477783203125,-0.976837158203125,0.0031249532476067,0.0105639612302184,0.0062693473882973
1770449777405,-0.0291595458984375,-0.1414337158203125,-0.973876953125,-0.0050709252245724,0.0039294939488172,-0.0193111132830381
1770449777415,-0.039825439453125,-0.1454620361328125,-0.9750823974609376,-0.0120891537517309,-0.0046378951519727,-0.0252584852278232
1770449777425,-0.024810791015625,-0.1578521728515625,-0.978118896484375,-0.0148370033130049,-0.0054421694949269,-0.0199510715901851
1770449777435,-0.015228271484375,-0.169464111328125,-0.9756011962890624,-0.0158665813505649,-0.0044530713930726,-0.0057233995757997
1770449777445,-0.014068603515625,-0.16619873046875,-0.9799652099609376,-0.0133197996765375,-0.0033531861845403,0.0018948391079902
1770449777455,-0.0190887451171875,-0.1658477783203125,-0.987884521484375,-0.009237440302968,-0.0075495289638638,0.0102688828483223
1770449777465,-0.0139617919921875,-0.1708984375,-0.9899444580078124,-0.0122705148532986,-0.0070334081538021,0.0213106144219636
1770449777475,-0.004241943359375,-0.1765899658203125,-0.9838409423828124,-0.0176373161375522,-0.0016793893883004,0.0333920456469059
1770449777485,-0.002410888671875,-0.1768951416015625,-0.9761962890625,-0.0245591383427381,0.0053795855492353,0.0374216735363006
1770449777495,-0.01031494140625,-0.1717681884765625,-0.9725799560546876,-0.0293895807117223,0.0083348955959081,0.0272904764860868
1770449777505,-0.0213775634765625,-0.1628570556640625,-0.97662353515625,-0.0307557824999094,0.0087428912520408,0.0188855398446321
1770449777515,-0.02862548828125,-0.157470703125,-0.9835357666015624,-0.0252401083707809,0.0093990946188569,0.0094744618982076
1770449777525,-0.0298309326171875,-0.1591796875,-0.9924774169921876,-0.0119551960378885,0.006065615452826,0.0070837419480085
1770449777535,-0.02880859375,-0.1620330810546875,-1.0003204345703125,0.0084254425019025,0.0052142031490802,0.0079820267856121
1770449777545,-0.0233001708984375,-0.165740966796875,-1.0056915283203125,0.0284782461822032,0.0034261567052453,0.011152253486216
1770449777555,-0.0219879150390625,-0.16888427734375,-1.005615234375,0.0446116775274276,0.0028160265646874,0.0104585001245141
1770449777566,-0.0205535888671875,-0.1723785400390625,-1.0001983642578125,0.0495584979653358,-0.0004301005101297,0.0134068857878446
1770449777576,-0.0176239013671875,-0.168548583984375,-0.9896087646484376,0.0475526042282581,0.0016812535468488,0.0148047786206007
1770449777586,-0.0180511474609375,-0.1657257080078125,-0.97869873046875,0.0346711613237857,0.0056730657815933,0.0104294717311859
1770449777596,-0.0200958251953125,-0.16204833984375,-0.97039794921875,0.0178314615041017,0.0086773773655295,0.0033049827907234
1770449777606,-0.0238494873046875,-0.164520263671875,-0.9633026123046876,-0.0030503845773637,0.0076137110590934,0.0021030982024967
1770449777616,-0.0185394287109375,-0.1651153564453125,-0.962646484375,-0.0216626841574907,0.004195543937385,0.0043635894544422
1770449777626,-0.0151824951171875,-0.16717529296875,-0.9659881591796876,-0.0313153117895126,0.0037454697303473,0.0076909428462386
1770449777636,-0.0153961181640625,-0.1685333251953125,-0.9740447998046876,-0.0321624651551246,0.0038962047547101,0.0111860753968358
1770449777646,-0.015106201171875,-0.168426513671875,-0.9834136962890624,-0.0243061389774084,0.0067135626450181,0.0182216148823499
1770449777656,-0.0137176513671875,-0.168487548828125,-0.990966796875,-0.012221778742969,0.0088366344571113,0.0232773590832948
1770449777666,-0.013641357421875,-0.17095947265625,-0.9932403564453124,-0.0015188007382676,0.0113754263147711,0.0238571297377347
1770449777676,-0.016357421875,-0.1708221435546875,-0.9931488037109376,0.0099604884162545,0.0105304047465324,0.0222621615976095
1770449777686,-0.020172119140625,-0.1698150634765625,-0.9947509765625,0.0181142892688512,0.0111213605850934,0.0219164844602346
1770449777696,-0.02178955078125,-0.1709442138671875,-0.99163818359375,0.0242747124284505,0.0111386710777878,0.0189233571290969
1770449777706,-0.0240325927734375,-0.1705322265625,-0.9874114990234376,0.0252366475760936,0.0114800883457064,0.0142175517976284
1770449777716,-0.0261383056640625,-0.1685333251953125,-0.98272705078125,0.0243889633566141,0.0094456998631358,0.007087470497936
1770449777727,-0.0286102294921875,-0.1693115234375,-0.979095458984375,0.0171273220330476,0.0082941483706235,0.0033214944414794
1770449777736,-0.026031494140625,-0.1708526611328125,-0.97845458984375,0.0105842007324099,0.0078121167607605,0.0012623383663594
1770449777746,-0.0228271484375,-0.1733856201171875,-0.9732818603515624,0.0026972496416419,0.0087825721129775,0.0014724617358297
1770449777756,-0.0196075439453125,-0.173858642578125,-0.97430419921875,0.0019108180422335,0.0054195327684283,0.0038794267456978
1770449777767,-0.0207366943359375,-0.1734161376953125,-0.9813079833984376,0.0027987160719931,0.0028967203106731,0.0053191315382719
1770449777777,-0.021881103515625,-0.171905517578125,-0.982635498046875,0.0021430456545203,-0.0017821873771026,0.0050173955969512
1770449777787,-0.020599365234375,-0.171539306640625,-0.981414794921875,-0.0018381137633696,-0.0007470166892744,0.0097676757723093
1770449777797,-0.018157958984375,-0.1715087890625,-0.97772216796875,-0.0037169738207012,-0.0022642195690423,0.0135578867048025
1770449777807,-0.020050048828125,-0.1696319580078125,-0.9814300537109376,-0.0032381375785917,-0.0017454357584938,0.0078339548781514
1770449777817,-0.0213775634765625,-0.1686859130859375,-0.983856201171875,-0.0014692660188302,-0.001242897240445,0.0065705510787665
1770449777827,-0.0222320556640625,-0.16717529296875,-0.98162841796875,-0.001528920722194,0.0014362427173182,0.004848551005125
1770449777837,-0.01922607421875,-0.1673431396484375,-0.9803619384765624,-0.0026565031148493,0.0002881540276575,0.0029326728545129
1770449777847,-0.0215606689453125,-0.16925048828125,-0.98248291015625,0.002036252990365,-0.0009416937828063,0.0026269420050084
1770449777857,-0.022003173828125,-0.168426513671875,-0.9848785400390624,0.0034772893413901,-0.0017339842161163,0.0030892668291926
1770449777867,-0.0207672119140625,-0.1677703857421875,-0.98309326171875,0.0032437301706522,-0.003975034225732,-0.0012386362068355
1770449777877,-0.0234832763671875,-0.16778564453125,-0.979736328125,0.0004029362753499,-0.0034876756835728,-0.0060488376766443
1770449777887,-0.0253143310546875,-0.1690673828125,-0.975738525390625,-0.0053124735131859,-0.0051982239820063,-0.0071274181827902
1770449777897,-0.0216522216796875,-0.1789093017578125,-0.9745025634765624,-0.015451394021511,-0.007981227710843,0.0018506306223571
1770449777907,-0.0119781494140625,-0.179718017578125,-0.9727783203125,-0.0213830526918172,-0.0074169035069644,0.0037643781397491
1770449777917,-0.01593017578125,-0.16107177734375,-0.9697265625,-0.0297246053814888,-0.0088555430993437,-0.0002455434587318
1770449777927,-0.0265960693359375,-0.15789794921875,-0.975006103515625,-0.0210336465388536,-0.0058392467908561,-0.0139901181682944
1770449777939,-0.03399658203125,-0.1590118408203125,-0.9883880615234376,-0.0040352218784391,-0.0027659591287374,-0.028807945549488
1770449777947,-0.0338897705078125,-0.154693603515625,-0.9915771484375,0.00075314193964,-0.0083447489887475,-0.0340820699930191
1770449777957,-0.0260162353515625,-0.1597442626953125,-0.9794921875,-0.0027161580510437,-0.002404834376648,-0.0318705812096595
1770449777967,-0.0189208984375,-0.17724609375,-0.974822998046875,-0.0066291405819356,-0.0062903864309191,-0.0111626395955681
1770449777977,-0.0054168701171875,-0.2030792236328125,-0.97760009765625,-0.0148210236802697,-0.0095330514013767,0.0196288283914327
1770449777989,0.00933837890625,-0.194427490234375,-0.9786834716796876,-0.0154127785935997,0.0007648598402738,0.0201007407158613
1770449777998,-0.010162353515625,-0.156280517578125,-0.9792938232421876,-0.024254472926259,0.0049982205964624,-0.0080347573384642
1770449778009,-0.0365753173828125,-0.1497955322265625,-0.9799041748046876,-0.0272579863667488,-0.004250671248883,-0.0206280462443828
1770449778018,-0.030914306640625,-0.158966064453125,-0.9851837158203124,-0.02570216730237,-0.0094542214646935,-0.0235545951873064
1770449778028,-0.0194854736328125,-0.166290283203125,-0.987945556640625,-0.0154820205643773,-0.008502141572535,-0.0167840402573347
1770449778038,-0.020355224609375,-0.1711883544921875,-0.988037109375,-0.0081178471446037,-0.003262638580054,-0.0085625955834984
1770449778048,-0.022369384765625,-0.169219970703125,-0.9905548095703124,-0.0036914076190441,-0.0104004433378577,0.0016756609547883
1770449778058,-0.02081298828125,-0.1718902587890625,-0.9954833984375,0.0039207055233418,-0.011863850057125,0.011043862439692
1770449778068,-0.012359619140625,-0.1782073974609375,-0.997039794921875,0.0052477587014436,-0.0094334492459893,0.0213055554777383
1770449778078,-0.0072479248046875,-0.1795196533203125,-0.9899749755859376,0.0040477383881807,-0.0039931437931954,0.0190826151520013
1770449778088,-0.013641357421875,-0.1753387451171875,-0.982513427734375,0.002951315138489,0.0012514194240793,0.0115834195166826
1770449778098,-0.02386474609375,-0.168060302734375,-0.9769287109375,-0.000239684493863,0.0031872710678726,-0.0020991035271435
1770449778108,-0.032562255859375,-0.163665771484375,-0.9735260009765624,-0.008273109793663,0.0045417547225952,-0.014496118761599
1770449778118,-0.0360260009765625,-0.1605377197265625,-0.9713592529296876,-0.0173297207802534,0.0022620889358222,-0.022969763725996
1770449778128,-0.0329742431640625,-0.1651611328125,-0.97479248046875,-0.0189356077462434,-0.0001984054979402,-0.0212964992970228
1770449778138,-0.02947998046875,-0.1699981689453125,-0.9816131591796876,-0.0162024050951004,-0.0031161648221313,-0.0158873535692691
1770449778148,-0.0234527587890625,-0.1727447509765625,-0.9868927001953124,-0.0111077781766653,-0.0032573123462498,-0.0129610719159245
1770449778158,-0.02301025390625,-0.172454833984375,-0.991058349609375,-0.0002279665932292,-0.0039585228078067,-0.0123749105259776
1770449778168,-0.024505615234375,-0.1692352294921875,-0.9956817626953124,0.0087625989690423,-0.0059881177730858,-0.0123373595997691
1770449778178,-0.0256500244140625,-0.1641693115234375,-0.996307373046875,0.0193848833441734,-0.0050815776921808,-0.014560567215085
1770449778188,-0.028717041015625,-0.1617889404296875,-0.9927978515625,0.0239354260265827,-0.0037372140213847,-0.0207138005644083
1770449778199,-0.032135009765625,-0.16363525390625,-0.9883270263671876,0.0235593877732753,-0.0044538704678416,-0.0260651558637619
1770449778208,-0.0297698974609375,-0.1651611328125,-0.9847564697265624,0.0197609215974807,-0.0077367490157485,-0.0284308418631553
1770449778219,-0.0257110595703125,-0.1689605712890625,-0.9847869873046876,0.0149019844830036,-0.0104955174028873,-0.0261011086404323
1770449778229,-0.0218048095703125,-0.1697845458984375,-0.9850006103515624,0.01716167666018,-0.0096616819500923,-0.0222701523452997
1770449778241,-0.01666259765625,-0.1725616455078125,-0.986297607421875,0.0198991391807794,-0.0069143651053309,-0.0217327252030372
1770449778249,-0.0140838623046875,-0.1742706298828125,-0.9848175048828124,0.0201750434935092,-0.0051244543865323,-0.0170010868459939
1770449778259,-0.0127105712890625,-0.17340087890625,-0.9815826416015624,0.0218776017427444,-0.0025755430106073,-0.0121362917125225
1770449778269,-0.0129241943359375,-0.1753692626953125,-0.982666015625,0.0199060644954442,-0.000875114754308,-0.0110185630619525
1770449778279,-0.01446533203125,-0.172271728515625,-0.977569580078125,0.0165065377950668,2.0772657080669887e-05,-0.0074033215641975
1770449778289,-0.0179595947265625,-0.1710357666015625,-0.9755706787109376,0.0128478882834315,0.0006119944155216,-0.0082925511524081
1770449778299,-0.0223541259765625,-0.1691436767578125,-0.97491455078125,0.0074283550493419,0.002191515173763,-0.0079615199938416
1770449778309,-0.0230712890625,-0.166290283203125,-0.97552490234375,0.0008045409340411,0.0037079192698001,-0.0108438590541481
1770449778319,-0.02374267578125,-0.1679229736328125,-0.974090576171875,-0.0063806674443185,0.0045193843543529,-0.014894793741405
1770449778329,-0.0241241455078125,-0.1682281494140625,-0.9745635986328124,-0.0080009344965219,0.005534581374377,-0.0160442143678665
1770449778339,-0.020294189453125,-0.1705322265625,-0.978118896484375,-0.0106220180168747,0.0058291270397603,-0.0139656169340014
1770449778349,-0.0203857421875,-0.1725006103515625,-0.98077392578125,-0.0135962357744574,0.0066994479857385,-0.0114582506939768
1770449778359,-0.0163116455078125,-0.172607421875,-0.98095703125,-0.0145235490053892,0.0048464206047356,-0.0046445527113974
1770449778369,-0.0168914794921875,-0.1720733642578125,-0.98321533203125,-0.0106992498040199,0.0060262009501457,-0.0017763284267857
1770449778379,-0.018218994140625,-0.1717376708984375,-0.9848785400390624,-0.0104779405519366,0.0048264469951391,0.0001898833870654
1770449778389,-0.017852783203125,-0.170562744140625,-0.984588623046875,-0.0176698081195354,0.0213484317064285,-0.0055311191827058
1770449778399,-0.0189208984375,-0.168731689453125,-0.9851837158203124,-0.0123805031180381,0.0087745832279324,-0.0044844970107078
1770449778410,-0.0195159912109375,-0.1689453125,-0.9839324951171876,-0.0017291904659941,0.0026389262638986,-0.0055953012779355
1770449778419,-0.02398681640625,-0.1695709228515625,-0.9893951416015624,0.0049566752277314,0.0104201501235365,-0.006564958486706
1770449778430,-0.024627685546875,-0.1667633056640625,-0.9844207763671876,0.0032040490768849,0.0089559443295001,-0.0092028193175792
1770449778440,-0.0236358642578125,-0.168060302734375,-0.9804840087890624,0.0021680793724954,0.0087524792179465,-0.0101058976724743
1770449778450,-0.0243072509765625,-0.1641387939453125,-0.9808197021484376,1.0652644277797665e-06,0.0111088436096906,-0.00847923848778
1770449778460,-0.024505615234375,-0.1656494140625,-0.979705810546875,-0.0001675128296483,0.0093101449310779,-0.0133115444332361
1770449778470,-0.021331787109375,-0.1665802001953125,-0.9832763671875,1.8642127770363004e-06,0.0084520746022462,-0.0107453223317861
1770449778480,-0.0203094482421875,-0.1681365966796875,-0.9828338623046876,0.0002748382103163,0.0054991613142192,-0.0087791103869676
1770449778490,-0.01953125,-0.1722259521484375,-0.979461669921875,-0.0050086071714758,0.0064712152816355,-0.0072043831460177
1770449778500,-0.0186614990234375,-0.1773681640625,-0.9759979248046876,-0.0118795624002814,0.0039500002749264,0.0007882956997491
1770449778510,-0.0122222900390625,-0.1876220703125,-0.9729156494140624,-0.0189995244145393,0.0077026607468724,0.0093508912250399
1770449778520,-0.0081634521484375,-0.1715545654296875,-0.975921630859375,-0.0258041657507419,0.006768689956516,0.0069039785303175
1770449778530,-0.0205535888671875,-0.161834716796875,-0.9795379638671876,-0.022415293380618,0.0029126992449164,-0.0012338425731286
1770449778540,-0.031280517578125,-0.1591644287109375,-0.9907989501953124,-0.0043209786526858,0.0106209525838494,-0.016741694882512
1770449778550,-0.0364532470703125,-0.15875244140625,-1.0003814697265625,0.0123781058937311,0.0091825798153877,-0.0267900694161653
1770449778560,-0.0287933349609375,-0.158843994140625,-0.9948577880859376,0.0196818262338638,0.0068978536874055,-0.0302399285137653
1770449778575,-0.026275634765625,-0.1675567626953125,-0.9908599853515624,0.026094451546669,0.0119368201121687,-0.0224810745567083
1770449778580,-0.017364501953125,-0.18963623046875,-0.98870849609375,0.0215471033006906,0.0050171292386949,0.00331936404109
1770449778591,0.002716064453125,-0.2013092041015625,-0.98223876953125,0.0223673563450574,0.0098174773156642,0.0172293204814195
1770449778600,-0.00079345703125,-0.1696929931640625,-0.9805145263671876,0.0207992885261774,0.0178897846490144,-0.0013363742036744
1770449778610,-0.0263519287109375,-0.150177001953125,-0.977752685546875,0.0120774358510971,0.0144322020933032,-0.0230951998382806
1770449778620,-0.03692626953125,-0.1593780517578125,-0.9767608642578124,0.0052408347837626,0.0046405582688748,-0.0292452368885278
1770449778631,-0.0230255126953125,-0.1704254150390625,-0.9722442626953124,-0.001414404832758,-0.0015448997728526,-0.0263149607926607
1770449778641,-0.0159912109375,-0.1737823486328125,-0.966705322265625,-0.0094193341210484,-0.0001190433031297,-0.0165606010705232
1770449778651,-0.0185394287109375,-0.1749725341796875,-0.9700469970703124,-0.0163251776248216,0.0007118629291653,-0.0105218831449747
1770449778661,-0.0184783935546875,-0.1737518310546875,-0.977813720703125,-0.0200043339282274,0.0023766048252582,-0.0005736448802053
1770449778671,-0.0124359130859375,-0.1768951416015625,-0.9813995361328124,-0.019653595983982,8.52211524033919e-05,0.0110273510217666
1770449778681,-0.0040283203125,-0.1832427978515625,-0.983001708984375,-0.0210104770958423,-5.725796290789731e-05,0.0202099308371543
1770449778691,-0.0022735595703125,-0.182403564453125,-0.9815216064453124,-0.0240765735507011,0.0034871431998908,0.0239173173904418
1770449778701,-0.011077880859375,-0.175750732421875,-0.9779510498046876,-0.0246036127209663,0.0084001421928405,0.0194938071072101
1770449778711,-0.019500732421875,-0.1725616455078125,-0.9785919189453124,-0.0211201980710029,0.0078003988601267,0.0081495391204953
1770449778721,-0.0275726318359375,-0.1695098876953125,-0.98468017578125,-0.0174002964049577,0.0066403257660567,-0.0013164004776626
1770449778731,-0.0289154052734375,-0.170379638671875,-0.98968505859375,-0.0106188217177987,0.0026831347495317,-0.0033582460600882
1770449778741,-0.025482177734375,-0.1738739013671875,-0.9925079345703124,-0.003017095150426,-0.0024032364599406,-1.2250540748937055e-05
1770449778751,-0.02093505859375,-0.1795806884765625,-0.9912109375,0.001529986038804,-0.0051548145711421,0.0056072855368256
1770449778761,-0.015228271484375,-0.1828765869140625,-0.9888916015625,0.0032266860362142,-0.0011374361347407,0.0058099520392715
1770449778771,-0.01824951171875,-0.1813507080078125,-0.9857635498046876,0.0043563987128436,-0.0062198126688599,0.0035025894176214
1770449778781,-0.0199432373046875,-0.1737213134765625,-0.979400634765625,-0.0008902947301976,-0.0070019830018281,0.0019017633749172
1770449778792,-0.0238800048828125,-0.1662750244140625,-0.9733734130859376,-0.005461610853672,-0.0054296529851853,-0.0070035811513662
1770449778801,-0.029937744140625,-0.16357421875,-0.9687957763671876,-0.0145579036325216,-0.0093322489410638,-0.0146362008526921
1770449778811,-0.0292816162109375,-0.1645965576171875,-0.967681884765625,-0.0241865627467632,-0.0113663710653781,-0.0197473391890525
1770449778821,-0.026611328125,-0.166717529296875,-0.969482421875,-0.0336048305034637,-0.0134787904098629,-0.0179001707583665
1770449778831,-0.022735595703125,-0.1689910888671875,-0.97222900390625,-0.0399370305240154,-0.0142945172265172,-0.0145030422136187
1770449778842,-0.0212860107421875,-0.169189453125,-0.976593017578125,-0.0388978645205497,-0.013358149677515,-0.0081583280116319
1770449778851,-0.016082763671875,-0.17047119140625,-0.983428955078125,-0.0352557264268398,-0.011020160280168,-0.0014953649369999
1770449778862,-0.0123138427734375,-0.1722869873046875,-0.9879913330078124,-0.030229540541768,-0.011028416454792,0.003720169654116
1770449778872,-0.0088348388671875,-0.173065185546875,-0.9908447265625,-0.0241263750940561,-0.0059708072803914,0.0090006850659847
1770449778882,-0.0090179443359375,-0.1741180419921875,-0.9896392822265624,-0.0169907007366418,-0.0016178702935576,0.0118856877088546
1770449778892,-0.010101318359375,-0.173492431640625,-0.98797607421875,-0.0137557592242956,0.002134257229045,0.012303271330893
1770449778902,-0.016510009765625,-0.1722259521484375,-0.9869232177734376,-0.0118393488228321,0.0034426683560013,0.0138542968779802
1770449778912,-0.017242431640625,-0.1699371337890625,-0.9846649169921876,-0.0098417121917009,0.0038559909444302,0.0124193849042057
1770449778922,-0.0205535888671875,-0.1692657470703125,-0.9829559326171876,-0.0108004501089453,0.0048637310974299,0.0090693952515721
1770449778932,-0.0230255126953125,-0.16998291015625,-0.9798736572265624,-0.0133738620206713,0.0041646515019237,0.0075351479463279
1770449778942,-0.02099609375,-0.1708526611328125,-0.9801483154296876,-0.0166186578571796,0.0042014028877019,0.007702394388616
1770449778952,-0.022674560546875,-0.170501708984375,-0.9814605712890624,-0.0137008987367153,0.0005392901366576,0.0073732277378439
1770449778962,-0.02349853515625,-0.168243408203125,-0.9847869873046876,-0.009318932890892,0.0010032127611339,0.0063721453770995
1770449778974,-0.0252532958984375,-0.16680908203125,-0.9886932373046876,-0.0020871192682534,0.0009555422002449,0.0062403189949691
1770449778982,-0.0260772705078125,-0.1674652099609375,-0.9899749755859376,0.003623496973887,-0.0019270633347332,0.0054488275200128
1770449778992,-0.0242919921875,-0.166717529296875,-0.9904327392578124,0.0072515211068093,-0.0015129417879506,0.0052815810777246
1770449779002,-0.0221405029296875,-0.17010498046875,-0.985595703125,0.0053795855492353,7.829693640815094e-05,0.0048613343387842
1770449779012,-0.0207672119140625,-0.16973876953125,-0.9814605712890624,0.0051782503724098,0.0052730590105056,0.0013861752813681
1770449779022,-0.0211639404296875,-0.1710357666015625,-0.9823760986328124,0.0040006004273891,0.0045622610487043,-0.0031510521657764
1770449779032,-0.02203369140625,-0.170684814453125,-0.9816741943359376,-0.0024823325220495,0.0059463060460984,-0.0033334787003695
1770449779042,-0.01898193359375,-0.1714630126953125,-0.9778594970703124,-0.0130825126543641,0.0068765482865273,-0.0027854002546519
1770449779052,-0.0190582275390625,-0.1724853515625,-0.976287841796875,-0.0173747297376394,0.0108427936211228,-0.0031457259319722
1770449779063,-0.0202789306640625,-0.171173095703125,-0.9784698486328124,-0.0166279785335063,0.0131259215995669,-0.0045984801836311
1770449779073,-0.023681640625,-0.1687469482421875,-0.9847564697265624,-0.0123586654663085,0.0105088334530591,-0.0050048786215484
1770449779083,-0.0266265869140625,-0.165924072265625,-0.990081787109375,-0.0035374767612665,0.0108901979401707,-0.0076307551935315
1770449779093,-0.0274658203125,-0.1689910888671875,-0.9905548095703124,0.0027907264884561,0.0093397060409188,-0.0095208007842302
1770449779103,-0.0255279541015625,-0.178955078125,-0.990692138671875,0.0064339307136833,0.0066110310144722,-0.0018844527658075
1770449779113,-0.0157318115234375,-0.1784210205078125,-0.989105224609375,0.0092097437009215,0.0040400153957307,-0.0014956312952563
1770449779123,-0.0205535888671875,-0.162200927734375,-0.9837493896484376,0.0075631109066307,0.0009765811264514,-0.0096278600394725
1770449779133,-0.0301055908203125,-0.1603546142578125,-0.9817047119140624,0.009614011272788,0.0051739891059696,-0.025971945375204
1770449779143,-0.036956787109375,-0.163970947265625,-0.9828948974609376,0.0165086686611175,0.0090310452505946,-0.0398209169507026
1770449779153,-0.0326080322265625,-0.159942626953125,-0.981201171875,0.0101588945835828,0.0075125112198293,-0.0432164445519447
1770449779163,-0.026123046875,-0.162200927734375,-0.975250244140625,0.0048141963779926,0.0104651581496,-0.0445174016058445
1770449779173,-0.025848388671875,-0.1802825927734375,-0.9767608642578124,-0.002502306131646,0.0011760519118979,-0.0220256727188825
1770449779183,-0.007904052734375,-0.201446533203125,-0.9785919189453124,-0.0107162939384579,-0.0031041805632412,0.0041910167783498
1770449779193,0.0076751708984375,-0.191070556640625,-0.9758453369140624,-0.0154764279723167,0.0071042482741177,0.0043811663053929
1770449779203,-0.0103607177734375,-0.1573638916015625,-0.9749908447265624,-0.022562300786376,0.0096619483083486,-0.0177025645971298
1770449779213,-0.0338592529296875,-0.15350341796875,-0.9765167236328124,-0.0247586090117692,0.0020586235914379,-0.0275211073458194
1770449779223,-0.02862548828125,-0.1637725830078125,-0.9823150634765624,-0.0262792743742465,-0.0016959009226411,-0.0227354057133197
1770449779233,-0.0157470703125,-0.1702880859375,-0.9802398681640624,-0.0244076047092676,0.0013108078856021,-0.0124771762639284
1770449779243,-0.0155181884765625,-0.1703948974609375,-0.9796905517578124,-0.0180181488394737,0.0011486213188618,-0.0037747644819319
1770449779253,-0.020751953125,-0.1712646484375,-0.9876861572265624,-0.0100033655762672,-0.0007235808880068,0.0003478088474366
1770449779263,-0.0194244384765625,-0.172821044921875,-0.9936676025390624,-0.0075404741801321,0.0001502022787462,0.0079167792573571
1770449779274,-0.007659912109375,-0.1776123046875,-0.9910125732421876,-0.0091942977160215,0.0060142166912555,0.019863985478878
1770449779283,-0.0034027099609375,-0.180908203125,-0.984130859375,-0.0140654854476451,0.0116068553179502,0.0237844251096248
1770449779294,-0.009979248046875,-0.1770172119140625,-0.9803619384765624,-0.0182876605540514,0.0164189208298921,0.0194908771663904
1770449779304,-0.020050048828125,-0.1723175048828125,-0.977691650390625,-0.0185952559113502,0.0196645148098468,0.0099016325548291
1770449779314,-0.027618408203125,-0.16558837890625,-0.9792938232421876,-0.0171624757349491,0.0188453271985054,-0.0013203952694311
1770449779324,-0.034637451171875,-0.1643829345703125,-0.9852294921875,-0.014002101495862,0.0150599097833037,-0.0083410209044814
1770449779334,-0.0338134765625,-0.1653594970703125,-0.9890594482421876,-0.0071284831501543,0.0098989699035882,-0.0124028734862804
1770449779344,-0.0285491943359375,-0.1667633056640625,-0.9926300048828124,0.0030844730790704,0.008525843732059,-0.0094217313453555
1770449779354,-0.02203369140625,-0.1703948974609375,-0.9971466064453124,0.0165110658854246,0.0135152759030461,-0.0089154643937945
1770449779364,-0.02105712890625,-0.1720733642578125,-0.9991912841796876,0.0270297527313232,0.0107272127643227,-0.0105336010456085
1770449779374,-0.020416259765625,-0.1681060791015625,-0.9949188232421876,0.0320317037403583,0.0102619584649801,-0.0098901810124516
1770449779384,-0.0208282470703125,-0.164825439453125,-0.985321044921875,0.0291062202304601,0.0160825625061988,-0.0139203425496816
1770449779394,-0.0240936279296875,-0.1601409912109375,-0.9784393310546876,0.0213652104139328,0.0188202932476997,-0.0199305657297372
1770449779404,-0.0255584716796875,-0.1621856689453125,-0.9721527099609376,0.0068648303858935,0.0202229805290699,-0.0250547528266906
1770449779414,-0.02239990234375,-0.1656951904296875,-0.967987060546875,-0.0084933536127209,0.0179164167493581,-0.0219316631555557
1770449779424,-0.016357421875,-0.17010498046875,-0.9676055908203124,-0.0180016364902257,0.0161579307168722,-0.0163986813277006
1770449779434,-0.0127716064453125,-0.1718597412109375,-0.9707794189453124,-0.0232730973511934,0.015801066532731,-0.0116004636511206
1770449779444,-0.010498046875,-0.1725616455078125,-0.979522705078125,-0.0195702388882637,0.0168207921087741,-0.0052054147236049
1770449779454,-0.010345458984375,-0.174163818359375,-0.986785888671875,-0.0179276019334793,0.0177369192242622,0.0006865629111416
1770449779464,-0.0066986083984375,-0.174346923828125,-0.988311767578125,-0.0144702857360243,0.0190155021846294,0.0072046495042741
1770449779475,-0.006103515625,-0.1742706298828125,-0.984405517578125,-0.0119525333866477,0.0235889498144388,0.008046475239098
1770449779484,-0.010711669921875,-0.173492431640625,-0.9853057861328124,-0.0080901505425572,0.0227734893560409,0.0082115912809968
1770449779495,-0.016021728515625,-0.1710357666015625,-0.98504638671875,-0.0048666605725884,0.0216027628630399,0.0057556238025426
1770449779505,-0.021240234375,-0.1676788330078125,-0.9849700927734376,-6.311691686278209e-05,0.0214693397283554,0.0011161308502778
1770449779515,-0.0243682861328125,-0.1672821044921875,-0.984649658203125,0.0002316950121894,0.0173291899263858,-0.0024498419370502
1770449779525,-0.0263519287109375,-0.1682891845703125,-0.9844207763671876,0.0003041329910047,0.0153864128515124,-0.0074904067441821
1770449779535,-0.022552490234375,-0.168304443359375,-0.9832763671875,-0.0013861752813681,0.0125770447775721,-0.0106579707935452
1770449779545,-0.020843505859375,-0.1705322265625,-0.98199462890625,-0.0011323761427775,0.0101085603237152,-0.005804359447211
1770449779555,-0.01922607421875,-0.17083740234375,-0.9823455810546876,0.0010817759903147,0.0074259582906961,-0.0018250643042847
1770449779565,-0.016510009765625,-0.1704254150390625,-0.982574462890625,0.0013925669481977,0.007359645795077,0.0029811426065862
1770449779575,-0.015960693359375,-0.1687164306640625,-0.983917236328125,0.0032732912804931,0.00579743552953,0.0054722633212804
1770449779585,-0.018707275390625,-0.16815185546875,-0.9839630126953124,0.0022455775178968,0.0029904635157436,0.0030634342692792
1770449779595,-0.018829345703125,-0.1676483154296875,-0.9798583984375,-0.0009142631897702,0.0029651634395122,0.000532632227987
1770449779605,-0.019073486328125,-0.166351318359375,-0.9786834716796876,-0.0072211613878607,0.0048962216824293,-0.0007185208378359
1770449779615,-0.0180816650390625,-0.1661376953125,-0.9781494140625,-0.0132718635722994,0.0064339307136833,-0.0026162895374
1770449779625,-0.0175018310546875,-0.1654510498046875,-0.97589111328125,-0.021072793751955,0.0049966229125857,-0.0060925134457647
1770449779635,-0.0167236328125,-0.166412353515625,-0.97564697265625,-0.0222906582057476,0.0068307416513562,-0.0039212382398545
1770449779645,-0.017242431640625,-0.1658477783203125,-0.9774017333984376,-0.0263969860970973,0.0054131411015987,-0.0031435952987521
1770449779655,-0.0175628662109375,-0.162750244140625,-0.978759765625,-0.0231809522956609,0.004146275576204,-0.0038400120101869
1770449779665,-0.0189666748046875,-0.16412353515625,-0.9861297607421876,-0.0149366054683923,0.0032021848019212,-0.0051841093227267
1770449779675,-0.0202789306640625,-0.1647796630859375,-0.9913330078125,-0.0086448872461915,-0.0004316983977332,-0.0045406897552311
1770449779685,-0.0194244384765625,-0.1645050048828125,-0.9900054931640624,-0.0009171926649287,0.0031641016248613,-0.0061827949248254
1770449779696,-0.019012451171875,-0.166839599609375,-0.9893035888671876,0.0053774546831846,0.0011566109023988,-0.0080685792490839
