timestamp_ms,acc_x,acc_y,acc_z,gyro_x,gyro_y,gyro_z
1769249610267,-0.1158447265625,-0.0577850341796875,-0.9863739013671876,-0.0880928412079811,-0.0036938043776899,0.0688379183411598
1769249610277,-0.11492919921875,-0.028167724609375,-1.0052337646484375,-0.1114034876227378,0.1068617329001426,0.0747171118855476
1769249610285,-0.1176605224609375,-0.0111083984375,-1.00543212890625,-0.1236822605133056,0.2185081094503402,0.0728222727775573
1769249610295,-0.1272430419921875,0.004486083984375,-0.9991455078125,-0.1348512917757034,0.2798817157745361,0.070178285241127
1769249610305,-0.1314239501953125,0.01092529296875,-0.9980926513671876,-0.1323436647653579,0.2523760497570038,0.0662591829895973
1769249610315,-0.13800048828125,0.0081939697265625,-1.0152130126953125,-0.1031466275453567,0.1907262802124023,0.0544232949614524
1769249610326,-0.1428070068359375,-0.0115509033203125,-1.0371551513671875,-0.058696337044239,0.1333676427602768,0.0515116602182388
1769249610336,-0.1368560791015625,-0.0181427001953125,-1.0387725830078125,-0.0283272452652454,0.1003383249044418,0.0597520135343074
1769249610346,-0.1248779296875,-0.01318359375,-1.0102691650390625,-0.0189646370708942,0.0754465535283088,0.0721093490719795
1769249610356,-0.1141204833984375,-0.022918701171875,-0.9916534423828124,-0.0083444826304912,0.0802567526698112,0.083219788968563
1769249610366,-0.1067657470703125,-0.017974853515625,-0.989837646484375,-0.0008934905636124,0.0789206475019455,0.0879418402910232
1769249610376,-0.10296630859375,-0.0156097412109375,-0.9820098876953124,0.0060959756374359,0.0948077365756034,0.0879780575633049
1769249610386,-0.1072998046875,-0.005584716796875,-0.9770660400390624,0.0189989916980266,0.1086572408676147,0.0873349085450172
1769249610396,-0.108978271484375,0.0036163330078125,-0.974609375,0.0208285823464393,0.0789882913231849,0.0848664194345474
1769249610406,-0.11328125,-0.0243072509765625,-0.975250244140625,0.0386278182268142,0.1112322509288787,0.0815326794981956
1769249610416,-0.12237548828125,-0.025115966796875,-0.986602783203125,0.0380760133266449,0.0922532305121421,0.0843236669898033
1769249610426,-0.119354248046875,-0.0042266845703125,-0.9808349609375,0.0387412719428539,0.0514996759593486,0.0810282751917839
1769249610436,-0.1252899169921875,0.00335693359375,-0.9877777099609376,0.03598303347826,0.0565192028880119,0.0657571777701377
1769249610446,-0.13397216796875,-0.0057525634765625,-0.9895172119140624,0.0285464227199554,0.062420766800642,0.045932337641716
1769249610456,-0.1351318359375,-0.0092620849609375,-0.9897918701171876,0.0264379996806383,0.0545652396976947,0.0308601781725883
1769249610466,-0.12811279296875,-0.00634765625,-0.985076904296875,0.0240219794213771,0.0423453263938427,0.014935540035367
1769249610476,-0.1246795654296875,-0.00872802734375,-0.9796905517578124,0.0237567275762558,0.0329054854810237,0.0050195259973406
1769249610486,-0.1221160888671875,-0.008758544921875,-0.983734130859375,0.0176748670637607,0.0262403916567564,0.0034405377227813
1769249610496,-0.114654541015625,-0.0074310302734375,-0.9739837646484376,0.0043944818899035,0.0341851338744163,0.0027044401504099
1769249610506,-0.115264892578125,-0.0046234130859375,-0.97021484375,-0.0110164321959018,0.0556219816207885,0.003237604862079
1769249610516,-0.115509033203125,-0.003173828125,-0.97735595703125,-0.0222208835184574,0.071752481162548,0.0024567660875618
1769249610527,-0.1150970458984375,-0.00299072265625,-0.9813385009765624,-0.0259538367390632,0.0696882680058479,0.0033089776989072
1769249610536,-0.1194610595703125,-0.004638671875,-0.9897003173828124,-0.0184234827756881,0.0558275803923606,0.0006617955514229
1769249610547,-0.120697021484375,-0.005950927734375,-0.999420166015625,-0.0093793869018554,0.0436036698520183,0.0034197650384157
1769249610557,-0.1135406494140625,-0.003265380859375,-1.000244140625,-0.0019558256026357,0.0412893816828727,0.0057873153127729
1769249610567,-0.106201171875,-0.002288818359375,-0.9949493408203124,-0.0004572647449094,0.0311081185936927,0.0138353882357478
1769249610577,-0.101409912109375,-0.0227203369140625,-0.98699951171875,-0.0172197334468364,0.0153118446469306,0.026473419740796
1769249610587,-0.0920867919921875,-0.0513458251953125,-0.9893341064453124,-0.0073660369962453,0.0508674420416355,0.0385178327560424
1769249610597,-0.0932464599609375,0.0103302001953125,-1.007476806640625,0.0190810170024633,0.0829598605632782,0.0322524793446064
1769249610607,-0.115570068359375,0.0753173828125,-0.9965057373046876,0.0389742963016033,0.0796636715531349,0.0068885325454175
1769249610617,-0.1398468017578125,-0.0244293212890625,-0.9763336181640624,0.0125823710113763,0.0147877344861626,0.0120135191828012
1769249610627,-0.11517333984375,-0.08758544921875,-0.9763336181640624,0.0161294341087341,0.0391830876469612,0.0226046442985534
1769249610637,-0.095184326171875,-0.0189208984375,-1.010894775390625,0.0401295758783817,0.094919852912426,0.0239199809730052
1769249610647,-0.0884246826171875,0.0419769287109375,-0.9962615966796876,0.0646285265684127,0.0670229792594909,0.0214938409626483
1769249610657,-0.0956268310546875,0.0367889404296875,-0.975250244140625,0.0928428545594215,0.0371311232447624,0.0158119853585958
1769249610667,-0.118682861328125,-0.01275634765625,-0.9842376708984376,0.1085544377565383,0.0134758614003658,0.0170002877712249
1769249610677,-0.1225738525390625,-0.0365753173828125,-0.99169921875,0.102236621081829,-0.0521500185132026,0.0351199023425579
1769249610687,-0.107208251953125,-0.05902099609375,-0.9996795654296876,0.0923187434673309,-0.095838114619255,0.0549010671675205
1769249610697,-0.09686279296875,-0.0508880615234375,-1.012359619140625,0.0859559178352356,-0.0886457115411758,0.0572896562516689
1769249610707,-0.098846435546875,-0.031463623046875,-1.0110626220703125,0.0678719878196716,-0.0696278139948844,0.0483089424669742
1769249610717,-0.1031494140625,-0.019287109375,-0.990997314453125,0.046903058886528,-0.0439930222928524,0.0454902537167072
1769249610727,-0.1072998046875,-0.0068359375,-0.98138427734375,0.0308639071881771,-0.01488733664155,0.0411690063774585
1769249610738,-0.1124267578125,-0.0003814697265625,-0.98724365234375,0.0259194821119308,0.008814264088869,0.0284028798341751
1769249610747,-0.119659423828125,-0.0036163330078125,-0.996185302734375,0.0173731315881013,0.0143749443814158,0.0150196962058544
1769249610758,-0.1216888427734375,-0.0146026611328125,-0.994598388671875,0.0103610279038548,0.0165936239063739,0.0105450525879859
1769249610768,-0.1179046630859375,-0.023468017578125,-0.9940643310546876,0.0124510768800973,0.0039950078353285,0.0099301282316446
1769249610778,-0.1121826171875,-0.0222320556640625,-0.9986724853515624,0.0215982366353273,-0.0141389882192015,0.0134867802262306
1769249610788,-0.1104888916015625,-0.0323333740234375,-0.9996337890625,0.0411716699600219,-0.0216997023671865,0.0185931250452995
1769249610798,-0.1059417724609375,-0.035736083984375,-1.005889892578125,0.0661723613739013,-0.029365612193942,0.0222405903041362
1769249610808,-0.1013336181640625,-0.0125732421875,-0.998931884765625,0.0757461562752723,-0.0239125229418277,0.0260347966104745
1769249610818,-0.1009521484375,-0.000885009765625,-0.9835052490234376,0.0786759033799171,-0.0076379459351301,0.0182224139571189
1769249610828,-0.106109619140625,-0.0137939453125,-0.969482421875,0.0723325163125991,-0.0298614930361509,0.0122931515797972
1769249610838,-0.1034393310546875,-0.0378875732421875,-0.97021484375,0.0675377622246742,-0.0513468123972415,0.013759221881628
1769249610848,-0.103118896484375,-0.0301361083984375,-0.9792938232421876,0.0667571946978569,-0.0695609673857688,0.0121504059061408
1769249610858,-0.1081695556640625,-0.0204315185546875,-0.980712890625,0.0730547681450843,-0.0876036211848259,0.0095626125112175
1769249610868,-0.113128662109375,-0.0294952392578125,-0.985198974609375,0.0792812407016754,-0.1130839437246322,0.0068150293081998
1769249610878,-0.11590576171875,-0.033721923828125,-0.984527587890625,0.0822405442595481,-0.1352286636829376,0.0145738823339343
1769249610888,-0.1141204833984375,-0.02899169921875,-0.98187255859375,0.0735557079315185,-0.1420649886131286,0.0297871902585029
1769249610898,-0.1049652099609375,-0.022491455078125,-0.9833221435546876,0.0597128644585609,-0.1251011937856674,0.0422518476843833
1769249610908,-0.10223388671875,-0.0279388427734375,-0.9816436767578124,0.0416457131505012,-0.0968189537525177,0.0539734847843647
1769249610918,-0.106903076171875,-0.030670166015625,-0.980072021484375,0.0223854668438434,-0.0666509345173835,0.0561239905655384
1769249610929,-0.113616943359375,-0.0297698974609375,-0.9748077392578124,0.0065942532382905,-0.0323606021702289,0.0655499845743179
1769249610938,-0.1148681640625,-0.0252532958984375,-0.9820098876953124,-0.0038317560683935,-0.010605240240693,0.072345033288002
1769249610948,-0.12237548828125,-0.027801513671875,-0.989410400390625,-0.0067180902697145,-0.0081958780065178,0.0702818855643272
1769249610959,-0.136810302734375,-0.0262451171875,-0.992095947265625,0.0129722580313682,-0.0337667502462863,0.0637536793947219
1769249610969,-0.1462860107421875,-0.0270843505859375,-1.0059051513671875,0.0383263491094112,-0.079328641295433,0.0591498725116252
1769249610979,-0.1436614990234375,-0.0306243896484375,-1.0115203857421875,0.0557508803904056,-0.1088772118091583,0.0589666478335857
1769249610990,-0.1419830322265625,-0.0272674560546875,-1.00048828125,0.061691328883171,-0.1133787557482719,0.0497361309826374
1769249610999,-0.143310546875,-0.0250091552734375,-0.9887847900390624,0.0572483763098716,-0.1120698153972625,0.0419035069644451
1769249611009,-0.1377716064453125,-0.0464935302734375,-0.9801788330078124,0.0284143313765525,-0.1209037825465202,0.0468838848173618
1769249611019,-0.123992919921875,-0.0747528076171875,-0.97650146484375,0.0100923152640461,-0.0736217573285102,0.0486221313476562
1769249611029,-0.1207733154296875,0.0025177001953125,-0.9851531982421876,-0.0025574336759746,-0.0140841277316212,0.0191451981663703
1769249611039,-0.1436920166015625,0.037628173828125,-0.982452392578125,0.0137725379317998,0.0573961809277534,-0.0249913688749074
1769249611049,-0.16845703125,-0.0289764404296875,-0.9837646484375,-0.0035910063888877,-0.0089820437133312,-0.0355441458523273
1769249611059,-0.1522674560546875,-0.08892822265625,-0.9785003662109376,0.0053668022155761,-0.0381015799939632,-0.0337350592017173
1769249611069,-0.128570556640625,-0.06976318359375,-1.01385498046875,0.0337395891547203,-0.0139493709430098,-0.0310125108808279
1769249611079,-0.113739013671875,0.0120391845703125,-1.0056610107421875,0.0415828637778759,-0.0198227073997259,-0.0436622612178325
1769249611089,-0.1296844482421875,0.0112457275390625,-0.9746856689453124,0.0410214699804782,-0.0473091937601566,-0.0601927675306797
1769249611099,-0.1422576904296875,-0.036651611328125,-0.9726104736328124,0.048443965613842,-0.0808852612972259,-0.0591485425829887
1769249611109,-0.1398162841796875,-0.049407958984375,-0.983062744140625,0.042734146118164,-0.1127302795648574,-0.0461813434958457
1769249611119,-0.127288818359375,-0.0773773193359375,-0.9857940673828124,0.0232688374817371,-0.1007963865995407,-0.0178647506982088
1769249611129,-0.1077728271484375,-0.082794189453125,-0.9826202392578124,-0.004856273997575,-0.0616782791912555,0.0103005748242139
1769249611139,-0.10400390625,-0.05841064453125,-0.9848480224609376,-0.0374666824936866,-0.0114446682855486,0.0200706478208303
1769249611150,-0.114166259765625,-0.04443359375,-0.9829864501953124,-0.0702376738190651,0.04942187666893,0.0228232908993959
1769249611160,-0.1211700439453125,-0.0256500244140625,-0.98455810546875,-0.0930516496300697,0.0908305719494819,0.0165424905717372
1769249611170,-0.1278076171875,-0.01385498046875,-0.9874267578125,-0.1064510717988014,0.1020512655377388,0.0069314092397689
1769249611180,-0.1313018798828125,-0.0222015380859375,-0.9901123046875,-0.1092133074998855,0.0908364281058311,0.0016285229939967
1769249611190,-0.1303863525390625,-0.0336456298828125,-0.996826171875,-0.1006429865956306,0.078107051551342,-0.0013832458062097
1769249611200,-0.13189697265625,-0.0360565185546875,-0.99871826171875,-0.0905876904726028,0.07475146651268,-0.0059004998765885
1769249611210,-0.1341705322265625,-0.03045654296875,-0.9979095458984376,-0.0766865238547325,0.0683870464563369,-0.0107719535008072
1769249611220,-0.13482666015625,-0.0400848388671875,-0.9943084716796876,-0.0652320012450218,0.0633145272731781,-0.0099333245307207
1769249611230,-0.1303253173828125,-0.040496826171875,-0.9919281005859376,-0.0522456280887126,0.0703913420438766,-0.0107149621471762
1769249611240,-0.122406005859375,-0.00323486328125,-0.9913177490234376,-0.0415016375482082,0.0895533189177513,-0.0146231511607766
1769249611250,-0.120361328125,-0.0006561279296875,-0.9833221435546876,-0.0423586405813694,0.0857263579964637,-0.0205915607511997
1769249611260,-0.1165618896484375,-0.0301971435546875,-0.975250244140625,-0.0409341156482696,0.0744910091161727,-0.0110851414501667
1769249611270,-0.1119384765625,-0.03289794921875,-0.9853515625,-0.0284870341420173,0.073090985417366,-0.0020008329302072
1769249611280,-0.1096038818359375,-0.0282745361328125,-0.9955596923828124,-0.0149864060804247,0.072910688817501,0.0072158346883952
1769249611290,-0.1119232177734375,-0.0267791748046875,-0.9951934814453124,-0.0146220857277512,0.0701841488480568,0.0144601659849286
1769249611300,-0.1175537109375,-0.026580810546875,-0.985992431640625,-0.0151866758242249,0.0632956176996231,0.0168719235807657
1769249611311,-0.12469482421875,-0.0311126708984375,-0.984832763671875,-0.0157201066613197,0.0491252020001411,0.0066027753055095
1769249611320,-0.1341094970703125,-0.0397491455078125,-0.98455810546875,-0.0116281602531671,0.0265434607863426,-0.0003549993562046
1769249611330,-0.1332855224609375,-0.0369415283203125,-0.9853515625,-0.0129173966124653,0.0031071100383996,5.326322207110934e-05
1769249611340,-0.123443603515625,-0.029144287109375,-0.9857330322265624,-0.0183784738183021,-0.0047092675231397,-0.0018924422329291
1769249611350,-0.1215972900390625,-0.0274505615234375,-0.984100341796875,-0.0339206829667091,0.0089050782844424,-0.0049050101079046
1769249611361,-0.1197052001953125,-0.0315399169921875,-0.978515625,-0.0603139400482177,0.0249879080802202,-0.0058395131491124
1769249611370,-0.1190643310546875,-0.031036376953125,-0.971343994140625,-0.0795044153928756,0.0352163091301918,-0.0050099384970963
1769249611381,-0.1181182861328125,-0.0203857421875,-0.9735107421875,-0.0962274670600891,0.0421607680618763,-0.0031854070257395
1769249611391,-0.120513916015625,-0.014129638671875,-0.979217529296875,-0.1036081537604332,0.0507137775421142,-0.0079394159838557
1769249611401,-0.12384033203125,-0.0152435302734375,-0.99005126953125,-0.096066877245903,0.0460654944181442,-0.0094662057235836
1769249611411,-0.1255035400390625,-0.017059326171875,-1.001220703125,-0.0794351696968078,0.028668662533164,-0.0106134954839944
1769249611421,-0.1266937255859375,-0.010986328125,-1.0003662109375,-0.0689511075615882,0.0136753320693969,-0.0101799331605434
1769249611431,-0.1248779296875,-0.0057525634765625,-0.9928741455078124,-0.0729114934802055,0.0006671218434348,-0.0066840015351772
1769249611441,-0.115264892578125,-0.0404205322265625,-0.9853668212890624,-0.0958767309784889,-0.0040690437890589,0.0065372614189982
1769249611451,-0.1024017333984375,-0.062469482421875,-0.98883056640625,-0.0950404927134513,0.0454529672861099,0.013212208636105
1769249611461,-0.1070709228515625,0.0333251953125,-0.99603271484375,-0.0992056801915168,0.0899152383208274,-0.0165627319365739
1769249611471,-0.1346588134765625,0.041656494140625,-0.98406982421875,-0.0697740241885185,0.1436754018068313,-0.0537652261555194
1769249611481,-0.152374267578125,-0.0051116943359375,-0.9711456298828124,-0.1012696325778961,0.0454284660518169,-0.0499454550445079
1769249611491,-0.1259613037109375,-0.07366943359375,-0.9658050537109376,-0.1079317927360534,0.0553348958492279,-0.0316793657839298
1769249611501,-0.0956878662109375,-0.0384674072265625,-1.01129150390625,-0.1038480997085571,0.102263256907463,-0.0233695041388273
1769249611511,-0.08892822265625,0.035797119140625,-0.9971771240234376,-0.0952873677015304,0.092629000544548,-0.035278096795082
1769249611521,-0.1071014404296875,0.011993408203125,-0.9844512939453124,-0.0820445343852043,0.0586230978369712,-0.0470575243234634
1769249611531,-0.1229400634765625,-0.0150146484375,-0.9940643310546876,-0.0592753067612648,0.0314948074519634,-0.0435120575129985
1769249611541,-0.1245574951171875,-0.021026611328125,-1.0110015869140625,-0.0399735160171985,-0.008920257911086,-0.0260419864207506
1769249611551,-0.1085357666015625,-0.0489959716796875,-1.0136260986328125,-0.0268119070678949,-0.0447775907814502,0.0016666061710566
1769249611562,-0.093292236328125,-0.0452880859375,-1.012451171875,-0.0190927349030971,-0.0399761795997619,0.0266976580023765
1769249611571,-0.0880889892578125,-0.022247314453125,-1.0086517333984375,-0.025702966377139,-0.004008057527244,0.0461946576833725
1769249611582,-0.0895538330078125,-0.0160064697265625,-1.002899169921875,-0.0324884355068206,0.0512970089912414,0.0574329309165477
1769249611592,-0.099151611328125,-0.0060882568359375,-0.99859619140625,-0.0383428633213043,0.0998376458883285,0.0547330193221569
1769249611602,-0.108551025390625,0.0031890869140625,-0.9979095458984376,-0.03645521402359,0.1089568436145782,0.042513370513916
1769249611612,-0.114532470703125,0.000335693359375,-1.00274658203125,-0.0270438678562641,0.0867194458842277,0.0259509067982435
1769249611622,-0.121826171875,-0.0091400146484375,-1.0092620849609375,-0.0149693619459867,0.0608276650309562,0.0135680064558982
1769249611632,-0.1222686767578125,-0.0111846923828125,-1.0088043212890625,0.0052799829281866,0.0352213717997074,0.0082424832507967
1769249611642,-0.1219635009765625,-0.0091705322265625,-1.0061798095703125,0.0285376347601413,-0.0011065434664487,0.0057271276600658
1769249611652,-0.120391845703125,-0.0213775634765625,-1.0042266845703125,0.0490596890449523,-0.030114758759737,0.0073801521211862
1769249611662,-0.1113739013671875,-0.016387939453125,-0.9970550537109376,0.0613568350672721,-0.0204623974859714,0.0056139435619115
1769249611672,-0.1031646728515625,0.02325439453125,-0.9865264892578124,0.0523124746978282,0.002298308070749,-0.0078177088871598
1769249611682,-0.1042938232421875,0.00799560546875,-0.977020263671875,0.0390864163637161,0.0217495039105415,-0.0185188222676515
1769249611692,-0.098663330078125,-0.0177001953125,-0.9769134521484376,0.0394845604896545,0.0291927736252546,-0.0175390467047691
1769249611702,-0.0934295654296875,-0.01531982421875,-0.984619140625,0.0482972264289855,0.0096600838005542,-0.0164314378052949
1769249611712,-0.099578857421875,-0.0177459716796875,-0.983306884765625,0.0482921637594699,-0.004154797643423,-0.0134364468976855
1769249611722,-0.1033935546875,-0.0126495361328125,-0.972320556640625,0.0364829115569591,-0.0078547270968556,-0.0122401546686887
1769249611732,-0.1065826416015625,-0.0095977783203125,-0.969635009765625,0.02367390319705,-0.0118526648730039,-0.0081074610352516
1769249611742,-0.1073760986328125,-0.0127716064453125,-0.9731292724609376,0.0094134751707315,-0.023233151063323,-0.0026871294248849
1769249611752,-0.1066436767578125,-0.0185394287109375,-0.9747314453125,-0.0065186191350221,-0.034775823354721,0.0010564760304987
1769249611763,-0.1057281494140625,-0.02294921875,-0.9731292724609376,-0.0255346540361642,-0.037306360900402,0.0109479892998933
1769249611772,-0.099700927734375,-0.0191497802734375,-0.9711456298828124,-0.0542238242924213,-0.0278896875679492,0.0181438494473695
1769249611782,-0.0997314453125,-0.0191497802734375,-0.9739532470703124,-0.0716829746961593,-0.0061039649881422,0.0188453271985054
1769249611793,-0.1048431396484375,-0.01495361328125,-0.9827117919921876,-0.0862427428364753,0.003269829088822,0.0258718114346265
1769249611803,-0.1065673828125,-0.00433349609375,-0.986663818359375,-0.095987781882286,0.0025710156187415,0.0224693566560745
1769249611813,-0.1161346435546875,-0.0084228515625,-0.9870452880859376,-0.0969065725803375,-0.0049612028524279,0.0192711669951677
1769249611823,-0.1172332763671875,-0.0041046142578125,-0.99127197265625,-0.0919584184885025,-0.0143413888290524,0.0184405259788036
1769249611833,-0.1150054931640625,-0.0014190673828125,-0.9975738525390624,-0.0884148180484771,-0.0109700933098793,0.009826797991991
1769249611843,-0.121795654296875,-0.0050201416015625,-1.0015869140625,-0.07972252368927,0.0016184030100703,0.0059585566632449
1769249611853,-0.1206817626953125,-0.003326416015625,-1.00848388671875,-0.0671803653240203,0.0057875816710293,-0.0003992078418377
1769249611863,-0.1157989501953125,-0.0101165771484375,-1.0110931396484375,-0.0628143846988678,-0.0077503314241766,0.001163002452813
1769249611873,-0.1042327880859375,-0.0437469482421875,-1.0044403076171875,-0.0683383122086525,-0.0027622305788099,0.0169278513640165
1769249611883,-0.0933837890625,-0.0374755859375,-1.0120086669921875,-0.0401122644543647,0.0404584780335426,0.0088712554425001
1769249611893,-0.1068115234375,0.05596923828125,-1.0206756591796875,-0.0042882221750915,0.0723250657320022,-0.0248347762972116
1769249611903,-0.129852294921875,0.0323944091796875,-1.011505126953125,0.0507726334035396,0.0636082738637924,-0.0493654198944568
1769249611913,-0.1354522705078125,0.0009918212890625,-0.990386962890625,0.0409937724471092,-0.0425703637301921,-0.0511422790586948
1769249611924,-0.116455078125,-0.0704803466796875,-0.9989166259765624,0.0589794293045997,-0.0068674935027956,-0.0383740216493606
1769249611933,-0.0983123779296875,-0.022369384765625,-1.021484375,0.0743189752101898,0.0021414477378129,-0.0337694138288497
1769249611943,-0.096405029296875,0.0294342041015625,-0.991058349609375,0.0767642855644226,-0.0139994388446211,-0.0427067168056964
1769249611953,-0.11212158203125,-0.0007171630859375,-0.977874755859375,0.0743967369198799,-0.0224256794899702,-0.053963366895914
1769249611963,-0.1209716796875,-0.0087432861328125,-0.980621337890625,0.0818309485912323,-0.0393697768449783,-0.0490008331835269
1769249611973,-0.111572265625,-0.002685546875,-0.9866943359375,0.0760313868522644,-0.0555785745382308,-0.0311280917376279
1769249611983,-0.0958251953125,-0.032989501953125,-0.98291015625,0.0597378984093666,-0.0443094074726104,-0.0079242354258894
1769249611994,-0.0910186767578125,-0.0348968505859375,-0.979095458984375,0.029608491808176,-0.0119533324614167,0.0058192731812596
1769249612004,-0.0966644287109375,-0.020477294921875,-0.9744110107421876,-0.0112537201493978,0.03275927901268,0.0150551162660121
1769249612014,-0.098419189453125,-0.0161285400390625,-0.974578857421875,-0.0410488992929458,0.0660991221666336,0.0156452730298042
1769249612024,-0.1067962646484375,-0.0106964111328125,-0.9838409423828124,-0.0596068724989891,0.0676858350634574,0.0139562953263521
1769249612034,-0.1112060546875,-0.0071258544921875,-0.9923858642578124,-0.0661763548851013,0.0468244962394237,0.012818593531847
1769249612044,-0.11431884765625,-0.0192718505859375,-1.004150390625,-0.0625326186418533,0.0263620987534523,0.0077844196930527
1769249612054,-0.11834716796875,-0.02166748046875,-1.0157012939453125,-0.0541817471385002,0.0197438765317201,0.0034498588647693
1769249612064,-0.119964599609375,-0.0083160400390625,-1.0092620849609375,-0.0436726473271846,0.0226890668272972,0.0027065705507993
1769249612074,-0.1188201904296875,-0.0014801025390625,-0.99615478515625,-0.0322258472442626,0.0102105597034096,0.0048006139695644
1769249612084,-0.115020751953125,-0.012451171875,-0.9944915771484376,-0.015205318108201,0.0096430396661162,0.0099213402718305
1769249612094,-0.10540771484375,0.00152587890625,-1.001190185546875,-0.0043215113691985,0.029103023931384,0.0050104712136089
1769249612104,-0.105865478515625,0.0207366943359375,-0.99371337890625,-0.00140614900738,0.0370200686156749,-0.0054107443429529
1769249612114,-0.105865478515625,-0.001678466796875,-0.9821014404296876,0.0019757992122322,0.0294188745319843,-0.0072485916316509
1769249612124,-0.099029541015625,-0.01373291015625,-0.9810028076171876,0.0114398747682571,0.0090848412364721,-0.0031952606514096
1769249612134,-0.0988311767578125,-0.010986328125,-0.981903076171875,0.0218965094536542,-0.0125845009461045,-0.002306031063199
1769249612144,-0.1046600341796875,-0.014068603515625,-0.97943115234375,0.0229676328599452,-0.0282247141003608,-0.0017520936671644
1769249612154,-0.1062774658203125,-0.01312255859375,-0.977996826171875,0.0123956827446818,-0.0373252667486667,0.0046661244705319
1769249612164,-0.1015472412109375,-0.0069580078125,-0.974761962890625,0.0023265376221388,-0.0344306789338588,0.0093783214688301
1769249612174,-0.1020660400390625,-0.00994873046875,-0.9796142578125,-0.0010287790792062,-0.0373284630477428,0.0125666577368974
1769249612185,-0.1065521240234375,-0.0158843994140625,-0.989044189453125,-0.0051963599398732,-0.0440265797078609,0.0147246178239583
1769249612195,-0.1102142333984375,-0.0121307373046875,-0.9866180419921876,-0.0179009698331356,-0.0347579792141914,0.012867328710854
1769249612205,-0.1105194091796875,-0.0068817138671875,-0.9868011474609376,-0.0308942664414644,-0.0230824165046215,0.0120731741189956
1769249612215,-0.1114654541015625,-0.0077362060546875,-0.985198974609375,-0.0516253784298896,-0.0051926313899457,0.0147826746106147
1769249612225,-0.1082611083984375,-0.0005035400390625,-0.9777374267578124,-0.0689258053898811,0.0156069230288267,0.0191720966249704
1769249612235,-0.1095733642578125,-0.003936767578125,-0.9842376708984376,-0.0666037946939468,0.0113882096484303,0.0197436101734638
1769249612245,-0.1125946044921875,-0.0113372802734375,-0.9920654296875,-0.0599506869912147,-0.0145158255472779,0.0207912977784872
1769249612255,-0.1180419921875,-0.011474609375,-0.9891357421875,-0.0610348582267761,-0.0333020314574241,0.0247391685843467
1769249612265,-0.1121826171875,0.004425048828125,-0.98291015625,-0.0621648356318473,-0.0307017192244529,0.0278244409710168
1769249612275,-0.1114044189453125,0.0037841796875,-0.997283935546875,-0.0584750287234783,-0.0156687088310718,0.0211361777037382
1769249612285,-0.117462158203125,-0.0025634765625,-1.00152587890625,-0.0546142421662807,-0.0147035783156752,0.0114284232258796
1769249612295,-0.11834716796875,-0.0139312744140625,-0.9952239990234376,-0.0652146860957145,-0.0354722402989864,0.0209524203091859
1769249612305,-0.10687255859375,-0.043182373046875,-0.9947509765625,-0.0596723854541778,-0.0034445326309651,0.0332695394754409
1769249612315,-0.0995025634765625,0.00579833984375,-1.0171356201171875,-0.0297544337809085,0.030026875436306,0.0179212093353271
1769249612325,-0.11822509765625,0.0696868896484375,-1.0215911865234375,0.0181214790791273,0.0530882515013217,-0.0206794459372758
1769249612335,-0.1454315185546875,0.015869140625,-1.0018768310546875,0.0383215546607971,-0.0192924719303846,-0.0304143652319908
1769249612345,-0.1305694580078125,-0.032684326171875,-0.9743499755859376,0.0245634000748395,-0.0473227761685848,-0.0147310094907879
1769249612355,-0.0990447998046875,-0.0463104248046875,-1.0041961669921875,0.0279935505241155,0.0266704931855201,-0.0026450515724718
1769249612365,-0.0850830078125,0.0174102783203125,-1.008056640625,0.0306031834334135,0.045684665441513,-0.0171805843710899
1769249612375,-0.1037750244140625,0.0203857421875,-0.9793701171875,0.0362147279083728,0.0222099646925926,-0.041583128273487
1769249612385,-0.127227783203125,-0.0016632080078125,-0.9726104736328124,0.051506333053112,-0.0128412302583456,-0.0510930120944976
1769249612395,-0.1344451904296875,-0.00506591796875,-0.9909515380859376,0.0705090537667274,-0.0592667870223522,-0.0407367758452892
1769249612405,-0.11956787109375,-0.023101806640625,-1.0010528564453125,0.067467987537384,-0.0904526710510253,-0.0113735618069767
1769249612416,-0.10150146484375,-0.038604736328125,-0.98931884765625,0.0465528555214405,-0.0808740779757499,0.0055494951084256
1769249612426,-0.0998382568359375,-0.033172607421875,-0.9862213134765624,0.0146314073354005,-0.0514911524951458,0.0149776181206107
1769249612436,-0.101654052734375,-0.0233154296875,-0.983123779296875,-0.0131227262318134,-0.017854630947113,0.0207574758678674
1769249612446,-0.1024322509765625,-0.0089569091796875,-0.9881744384765624,-0.0255338549613952,0.0156476683914661,0.0191784873604774
1769249612456,-0.1105804443359375,0.004638671875,-1.001190185546875,-0.0267695616930723,0.0304218214005231,0.015475096181035
1769249612466,-0.1166839599609375,0.0030670166015625,-1.007965087890625,-0.0188258849084377,0.0233721677213907,0.0068957228213548
1769249612476,-0.1240997314453125,-0.007354736328125,-1.0077362060546875,-0.0110449278727173,0.009108543395996,-0.0011763182701542
1769249612486,-0.1278076171875,-0.0048065185546875,-1.0007476806640625,-0.0095223989337682,0.010301106609404,-0.0068222195841372
1769249612496,-0.130096435546875,0.000579833984375,-0.9902496337890624,-0.007669371087104,0.0167552772909402,-0.0121069969609379
1769249612506,-0.1266326904296875,-0.0103759765625,-0.984588623046875,-0.0072011873126029,0.0161073300987482,-0.0103040365502238
1769249612516,-0.118988037109375,-0.01971435546875,-0.9826507568359376,-0.0075687039643526,0.0267525184899568,-0.0180245395749807
1769249612526,-0.117462158203125,0.003143310546875,-0.9827880859375,-0.0108499843627214,0.0347878076136112,-0.0305413976311683
1769249612536,-0.1190948486328125,0.0094451904296875,-0.9745635986328124,-0.0090177301317453,0.0196799617260694,-0.0425096414983272
1769249612546,-0.12384033203125,-0.010986328125,-0.9764251708984376,0.0010993528412654,-0.0134942373260855,-0.0474905520677566
1769249612556,-0.119049072265625,-0.0084228515625,-0.9878692626953124,0.0081743067130446,-0.0325448922812938,-0.0410616844892501
1769249612566,-0.1106414794921875,-0.0059051513671875,-0.9853363037109376,0.0024181501939892,-0.0307584442198276,-0.0380203537642955
1769249612576,-0.10711669921875,-0.0118255615234375,-0.975830078125,-0.0120731741189956,-0.0207918304949998,-0.0402861684560775
1769249612586,-0.1123809814453125,-0.00714111328125,-0.9735870361328124,-0.0266321431845426,-0.0122811673209071,-0.0402965582907199
1769249612596,-0.1179656982421875,-0.00604248046875,-0.9823150634765624,-0.0343667604029178,-0.0081889536231756,-0.0398028045892715
1769249612606,-0.1182403564453125,-0.0087127685546875,-0.99609375,-0.036746297031641,-0.0148633681237697,-0.0421751514077186
1769249612616,-0.1197509765625,-0.0092315673828125,-1.001190185546875,-0.0537689551711082,-0.0060176788829267,-0.0454790666699409
1769249612627,-0.115692138671875,-0.00543212890625,-0.9914398193359376,-0.0804469063878059,0.0335771329700946,-0.0478037409484386
1769249612637,-0.1076507568359375,-0.0112457275390625,-0.98638916015625,-0.1015338152647018,0.0664163082838058,-0.0383921302855014
1769249612647,-0.0944366455078125,-0.00494384765625,-0.989959716796875,-0.1187077388167381,0.0859583169221878,-0.0328543521463871
1769249612657,-0.09613037109375,0.0008544921875,-0.9878997802734376,-0.1334488689899444,0.1037791222333908,-0.0248233247548341
1769249612667,-0.0994720458984375,0.000885009765625,-0.9847869873046876,-0.1101592630147934,0.1053692996501922,-0.0267269518226385
1769249612677,-0.1084747314453125,-0.0047149658203125,-1.0151214599609375,-0.0752175226807594,0.0708992034196853,-0.0203268434852361
1769249612687,-0.10443115234375,0.0031280517578125,-1.0184478759765625,-0.0452146157622337,0.0407341122627258,-0.0091058807447552
1769249612697,-0.1045074462890625,0.002838134765625,-1.006072998046875,-0.0208333767950534,0.0207324419170618,-0.0065188854932785
1769249612707,-0.1121063232421875,0.004180908203125,-1.0017242431640625,-0.0045886263251304,0.0111330784857273,-0.005225921049714
1769249612717,-0.1161041259765625,0.008087158203125,-0.9947357177734376,0.0033949976786971,0.0042695798911154,0.0016343819443136
1769249612727,-0.106781005859375,-0.0186767578125,-0.9954376220703124,-0.0019105518003925,-0.001096423366107,0.0182168204337358
1769249612737,-0.093841552734375,-0.0437774658203125,-1.00323486328125,0.015435148961842,0.0433075278997421,0.0231252927333116
1769249612747,-0.10113525390625,0.053955078125,-1.0065765380859375,0.0269072484225034,0.0638929605484008,-0.0013840447645634
1769249612757,-0.12371826171875,0.067779541015625,-0.993804931640625,0.0716150626540184,0.0799480974674224,-0.0310503281652927
1769249612767,-0.1397552490234375,-0.008209228515625,-0.989959716796875,0.0669710412621498,-0.0217348560690879,-0.0199958123266696
1769249612777,-0.1125640869140625,-0.0555572509765625,-0.9866790771484376,0.0697889328002929,0.0142710814252495,-0.0080416807904839
1769249612787,-0.088348388671875,-0.001708984375,-1.011993408203125,0.0583242923021316,0.0609443113207817,-0.0085066687315702
1769249612797,-0.0822601318359375,0.040771484375,-0.983489990234375,0.0509169772267341,0.0664338842034339,-0.0294156800955533
1769249612808,-0.102752685546875,0.0220489501953125,-0.9681854248046876,0.0534661561250686,0.0451680123805999,-0.0385985262691974
1769249612817,-0.1140594482421875,-0.0028076171875,-0.9774932861328124,0.0745629146695137,0.0038972699549049,-0.0368698686361312
1769249612828,-0.11334228515625,-0.0069122314453125,-0.9923553466796876,0.0873404964804649,-0.0581551827490329,-0.023928502574563
1769249612837,-0.1072540283203125,-0.0323333740234375,-0.9888458251953124,0.078677237033844,-0.0977654382586479,-0.0034690336324274
1769249612848,-0.100677490234375,-0.036956787109375,-0.9810638427734376,0.0512051321566104,-0.0923855900764465,0.0157912131398916
1769249612858,-0.097503662109375,-0.0221710205078125,-0.978424072265625,0.0057385796681046,-0.0585048533976078,0.0331297218799591
1769249612868,-0.0940093994140625,-0.022247314453125,-0.9795074462890624,-0.0440984852612018,-0.0108124343678355,0.040048349648714
1769249612878,-0.0957489013671875,-0.0127716064453125,-0.986724853515625,-0.0766013041138649,0.0308122411370277,0.0389122441411018
1769249612888,-0.1068878173828125,0.01055908203125,-1.001190185546875,-0.0960311889648437,0.0574925877153873,0.0253354497253894
1769249612898,-0.1136322021484375,0.0113067626953125,-1.0070953369140625,-0.11868217587471,0.080682061612606,0.0167704578489065
1769249612908,-0.1099090576171875,0.00634765625,-0.998626708984375,-0.1319407224655151,0.1165282130241394,0.0102691492065787
1769249612918,-0.1126251220703125,0.012969970703125,-0.99761962890625,-0.130082905292511,0.1348433047533035,0.0100560961291193
1769249612928,-0.10931396484375,0.0029754638671875,-1.004730224609375,-0.1160879880189895,0.1318994462490081,0.016309730708599
1769249612938,-0.106231689453125,-0.0216522216796875,-1.0076446533203125,-0.0952239856123924,0.1170669645071029,0.029746975749731
1769249612948,-0.0952911376953125,-0.003814697265625,-1.01080322265625,-0.0732036381959915,0.0878923013806343,0.037392646074295
1769249612958,-0.0892181396484375,0.0207672119140625,-1.0090789794921875,-0.0515713170170784,0.085308238863945,0.0309366099536418
1769249612968,-0.093597412109375,4.57763671875e-05,-1.0022125244140625,-0.0254707392305135,0.0545489937067031,0.0260640904307365
1769249612978,-0.09228515625,-0.0122833251953125,-0.9991455078125,0.009008408524096,0.0251964330673217,0.0393849574029445
1769249612989,-0.0898590087890625,-0.009735107421875,-1.0030364990234375,0.0389154404401779,0.0003312972257845,0.0462513864040374
1769249612998,-0.093994140625,-0.012725830078125,-1.0029144287109375,0.0549950748682022,-0.0048962216824293,0.0570544973015785
1769249613008,-0.096435546875,-0.0066986083984375,-0.99749755859375,0.0546733662486076,0.0049865026958286,0.0632740408182144
1769249613018,-0.0983428955078125,-0.0098724365234375,-0.9892578125,0.0441671945154666,0.018955048173666,0.0695409923791885
1769249613029,-0.099212646484375,-0.0095672607421875,-0.9831085205078124,0.0387444645166397,0.0230920035392045,0.0696626976132392
1769249613039,-0.105255126953125,-0.0075836181640625,-0.9861602783203124,0.0276888851076364,0.0328261218965053,0.0664005950093269
1769249613049,-0.10833740234375,-0.01055908203125,-0.982940673828125,0.0135304564610123,0.038312766700983,0.0576486475765705
1769249613059,-0.110809326171875,-0.00921630859375,-0.978485107421875,-0.007146859075874,0.0502003207802772,0.0597203224897384
1769249613069,-0.1020965576171875,-0.0007171630859375,-0.9786529541015624,-0.0261013749986886,0.055534366518259,0.0606859847903251
1769249613079,-0.099456787109375,-0.0043182373046875,-0.97918701171875,-0.0408022925257682,0.0624258257448673,0.0539431273937225
1769249613089,-0.1049957275390625,-0.0040435791015625,-0.9806365966796876,-0.0455784052610397,0.0543220937252044,0.0378810688853263
1769249613099,-0.1156158447265625,-0.0050201416015625,-0.9850311279296876,-0.0421770140528678,0.0296979751437902,0.0215463042259216
1769249613109,-0.1238250732421875,0.0014801025390625,-0.99224853515625,-0.0267815459519624,-0.0079447422176599,0.0038224351592361
1769249613119,-0.125213623046875,0.003387451171875,-1.00299072265625,-0.0185435898602008,-0.0385947972536087,-0.0040251016616821
1769249613129,-0.112701416015625,0.005767822265625,-0.996429443359375,-0.0254840552806854,-0.0447371117770671,-0.0041486723348498
1769249613139,-0.1038055419921875,0.0147857666015625,-0.9830780029296876,-0.0378922559320926,-0.0265096370130777,-0.0178945790976285
1769249613149,-0.105255126953125,0.00665283203125,-0.9879913330078124,-0.0532352589070797,-0.0222784075886011,-0.0240629911422729
1769249613159,-0.095458984375,-0.0339508056640625,-1.0016632080078125,-0.0617869347333908,-0.0027824707794934,-0.0213023591786623
1769249613169,-0.085418701171875,-0.003021240234375,-1.0090484619140625,-0.0547324866056442,0.0286899674683809,-0.0268665011972188
1769249613179,-0.098388671875,0.093414306640625,-0.9993743896484376,-0.0461621694266796,0.0633331686258316,-0.0606239326298236
1769249613189,-0.1177978515625,0.0219879150390625,-0.9964752197265624,-0.0289640072733163,0.0475025363266468,-0.0700432658195495
1769249613199,-0.10626220703125,-0.0446624755859375,-0.9939422607421876,-0.0180381219834089,0.0205604024231433,-0.0497853979468345
1769249613210,-0.079437255859375,-0.0136260986328125,-1.0097808837890625,0.0085900258272886,0.0635235831141471,-0.0448460355401039
1769249613219,-0.075439453125,0.026092529296875,-1.0121307373046875,0.0351675748825073,0.0705599188804626,-0.0551340915262699
1769249613229,-0.083648681640625,0.044342041015625,-0.985931396484375,0.0566473007202148,0.0214789267629385,-0.0630993396043777
1769249613240,-0.1018829345703125,0.0134124755859375,-0.9772491455078124,0.0755805075168609,-0.0366184636950492,-0.0547460690140724
1769249613249,-0.10614013671875,-0.0071563720703125,-0.9879608154296876,0.0810415893793106,-0.0905330926179885,-0.0317595265805721
1769249613260,-0.0944366455078125,-0.024566650390625,-0.996612548828125,0.0591996721923351,-0.1004432514309883,-0.0004021373169962
1769249613270,-0.0792388916015625,-0.0419921875,-0.9941253662109376,0.0239743087440729,-0.0624668411910533,0.0245610028505325
1769249613280,-0.073028564453125,-0.02392578125,-0.985198974609375,-0.0242392923682928,-0.0035377431195229,0.0350978001952171
1769249613290,-0.077880859375,-0.0097198486328125,-0.9759979248046876,-0.0614420548081398,0.0538216866552829,0.0392222367227077
1769249613300,-0.08758544921875,0.010009765625,-0.98126220703125,-0.0801512971520423,0.0807627588510513,0.0394139848649501
1769249613310,-0.09820556640625,0.0245513916015625,-0.9971160888671876,-0.0754936933517456,0.0824647843837738,0.0339369289577007
1769249613320,-0.1089019775390625,0.0264434814453125,-1.0030517578125,-0.0733104348182678,0.0746225714683532,0.0213992986828088
1769249613330,-0.1129913330078125,0.01751708984375,-0.9974365234375,-0.0736752822995185,0.0743181705474853,0.0157603211700916
1769249613340,-0.110443115234375,0.0135498046875,-0.994598388671875,-0.07355597615242,0.0822578519582748,0.0211058184504508
1769249613350,-0.0967559814453125,0.003631591796875,-1.0021820068359375,-0.0633366256952285,0.0705418139696121,0.0334916487336158
1769249613360,-0.086395263671875,-0.01678466796875,-1.0049285888671875,-0.0413173474371433,0.0562861748039722,0.0392496660351753
1769249613370,-0.0860443115234375,-0.012237548828125,-1.0021514892578125,-0.0233042575418949,0.0446148738265037,0.0423807464540004
1769249613380,-0.0885162353515625,0.0102996826171875,-0.9934539794921876,-0.0001318264694418,0.0424079112708568,0.0357790365815162
1769249613390,-0.09271240234375,0.0120391845703125,-0.99566650390625,0.0263218842446804,0.0356022007763385,0.0292348507791757
1769249613400,-0.0928802490234375,0.0106658935546875,-0.9852294921875,0.0312085188925266,-0.003998736385256,0.0273559913039207
1769249613410,-0.087249755859375,-0.00927734375,-0.97418212890625,0.0293315239250659,-0.0138364536687731,0.0317304991185665
1769249613420,-0.0870361328125,-0.0045623779296875,-0.9847259521484376,0.0306279510259628,-0.0115171065554022,0.0377516411244869
1769249613430,-0.09051513671875,0.0069732666015625,-0.990966796875,0.0263828709721565,-0.0136819900944828,0.0346120409667491
1769249613440,-0.0977935791015625,0.0080413818359375,-0.9812164306640624,0.0146939912810921,-0.0049542784690856,0.0282404255121946
1769249613450,-0.1036834716796875,0.0088043212890625,-0.9810791015625,0.0115077849477529,0.0078422101214528,0.0221545714884996
1769249613461,-0.1046905517578125,0.012451171875,-0.9944000244140624,0.016358733177185,0.0102960467338562,0.0154535248875617
1769249613471,-0.10321044921875,0.009124755859375,-1.0038299560546875,0.0123706497251987,0.0018146779621019,0.0172032210975885
1769249613481,-0.0921630859375,0.0012054443359375,-0.9874114990234376,-0.0132827823981642,0.0052131377160549,0.0154873467981815
1769249613491,-0.090362548828125,0.00299072265625,-0.965576171875,-0.0433051288127899,0.0177257340401411,0.0114830182865262
1769249613501,-0.0936126708984375,0.001953125,-0.9652252197265624,-0.0623824186623096,0.0266941953450441,0.0106457201763987
1769249613511,-0.090240478515625,-0.003326416015625,-0.976348876953125,-0.0733999162912368,0.0161920189857482,0.0116659766063094
1769249613521,-0.0919952392578125,0.0013885498046875,-0.9850311279296876,-0.071427047252655,0.0017872473690658,0.0115405423566699
1769249613531,-0.0964202880859375,0.004730224609375,-0.9917755126953124,-0.0664799585938453,-0.0049217878840863,0.0112942000851035
1769249613541,-0.097900390625,0.007293701171875,-0.9953460693359376,-0.0597381666302681,-0.0080768344923853,0.0077151777222752
1769249613551,-0.09912109375,0.0101776123046875,-0.9976348876953124,-0.0524799861013889,-0.0054229949600994,-0.0033491912763565
1769249613561,-0.10552978515625,0.0153961181640625,-0.9969024658203124,-0.0423479899764061,-0.0071721589192748,-0.0124132595956325
1769249613571,-0.1055450439453125,0.01959228515625,-0.9950408935546876,-0.0451283305883407,-0.020666129887104,-0.0213843844830989
1769249613581,-0.101898193359375,-0.00665283203125,-0.995635986328125,-0.0665744990110397,-0.0104861967265605,-0.0219814646989107
1769249613591,-0.0904388427734375,-0.0240478515625,-0.9978485107421876,-0.0707958787679672,0.0441200584173202,-0.0190842114388942
1769249613601,-0.0894622802734375,0.0526123046875,-0.9930419921875,-0.0600747875869274,0.0782015919685363,-0.0442920960485935
1769249613611,-0.114715576171875,0.0922088623046875,-0.9857940673828124,-0.0496322661638259,0.0833886340260505,-0.0702475309371948
1769249613621,-0.1205902099609375,-0.039459228515625,-0.9879150390625,-0.0593400225043296,0.0525849126279354,-0.0511771664023399
1769249613631,-0.0789642333984375,-0.061553955078125,-1.0057830810546875,-0.0413367860019207,0.0843777284026146,-0.0159177128225564
1769249613641,-0.0560150146484375,0.0170745849609375,-1.0170745849609375,-0.0129538821056485,0.1061559990048408,-0.01310461666435
1769249613651,-0.0612945556640625,0.0487823486328125,-0.991424560546875,0.0291261933743953,0.0601152703166008,-0.0239993426948785
1769249613661,-0.0792236328125,0.041259765625,-0.980010986328125,0.0688544288277626,-0.0370046235620975,-0.0297898538410663
1769249613672,-0.09747314453125,-0.0070343017578125,-0.9971923828125,0.0935398042201995,-0.1196193397045135,-0.0090648680925369
1769249613682,-0.0922088623046875,-0.0269012451171875,-1.013336181640625,0.084112748503685,-0.149710401892662,0.0246861707419157
1769249613692,-0.0769195556640625,-0.0440826416015625,-1.0098876953125,0.0497065708041191,-0.1074622794985771,0.0476476810872554
1769249613702,-0.07208251953125,-0.0256195068359375,-0.99371337890625,0.0073785539716482,-0.0282745156437158,0.0466119758784771
1769249613712,-0.076629638671875,0.0115509033203125,-0.981475830078125,-0.0179292000830173,0.038018487393856,0.0290004927664995
1769249613722,-0.0911712646484375,0.0269012451171875,-0.994384765625,-0.0003281014505773,0.0668517351150512,0.0085072014480829
1769249613732,-0.1019134521484375,0.033416748046875,-1.0209197998046875,0.0375473760068416,0.0518038086593151,-0.0039366846904158
1769249613742,-0.1035308837890625,0.02996826171875,-1.0295257568359375,0.072997510433197,0.0320239774882793,-0.0096632800996303
1769249613752,-0.099945068359375,0.0229339599609375,-1.015380859375,0.0837098136544227,0.0235412791371345,-0.0121077951043844
1769249613762,-0.0974884033203125,0.009429931640625,-0.989166259765625,0.0739075168967247,0.0219383221119642,-0.0138742700219154
1769249613772,-0.0957489013671875,-0.00103759765625,-0.97625732421875,0.0581541173160076,0.0162229128181934,-0.0167430266737937
1769249613782,-0.094329833984375,-0.0061187744140625,-0.974273681640625,0.0436918213963508,0.0068267472088336,-0.0153352804481983
1769249613792,-0.089385986328125,-0.020294189453125,-0.9825286865234376,0.0455376580357551,0.0045489454641938,-0.0159142520278692
1769249613802,-0.0883026123046875,-0.003173828125,-0.981231689453125,0.0417051017284393,-0.0144420564174652,-0.011486480012536
1769249613812,-0.0821990966796875,0.003936767578125,-0.9711761474609376,0.0418105646967887,-0.0181566327810287,-0.0098907137289643
1769249613822,-0.0847625732421875,0.0098724365234375,-0.968170166015625,0.0425589121878147,-0.0157818924635648,-0.0068722870200872
1769249613832,-0.0865478515625,0.0246429443359375,-0.9658203125,0.031913723796606,-0.0395202450454235,-0.0079553946852684
1769249613842,-0.0879364013671875,-0.00506591796875,-0.9763336181640624,0.0214158091694116,-0.0391487330198287,-0.0011803129455074
1769249613852,-0.0816497802734375,-0.00018310546875,-0.9855804443359376,0.0108574414625763,-0.0371106155216693,0.0043910201638937
1769249613862,-0.0838470458984375,0.0121002197265625,-0.9820404052734376,-0.0034032536204904,-0.0318175852298736,0.0059641492553055
1769249613872,-0.0868682861328125,0.0036468505859375,-0.9781036376953124,-0.0171816498041152,-0.0336543656885623,0.0060064936988055
1769249613883,-0.0941009521484375,-0.0041351318359375,-0.980316162109375,-0.0213763955980539,-0.0437919571995735,0.0055809202603995
1769249613893,-0.0973358154296875,-0.0036773681640625,-0.9842681884765624,-0.0274896807968616,-0.0487606152892112,0.0052568134851753
1769249613903,-0.098480224609375,0.000823974609375,-0.988128662109375,-0.0360906273126602,-0.0349459983408451,0.0061660166829824
1769249613913,-0.094879150390625,0.008941650390625,-0.990264892578125,-0.0416041687130928,-0.019939886406064,0.0032400018535554
1769249613923,-0.09600830078125,0.007843017578125,-0.998077392578125,-0.0397506095468997,-0.0209255218505859,-0.0030927290208637
1769249613933,-0.099884033203125,0.007659912109375,-1.0008544921875,-0.0298367254436016,-0.0254089534282684,-0.0060538975521922
1769249613943,-0.101043701171875,0.0083770751953125,-1.0013427734375,-0.0154639109969139,-0.0324524827301502,-0.0056349826045334
1769249613953,-0.099273681640625,0.0096435546875,-1.0051116943359375,-0.0011507519520819,-0.0451325923204422,-0.0052538840100169
1769249613963,-0.10150146484375,0.0081939697265625,-1.0075225830078125,0.0113719636574387,-0.0503672994673252,-0.0064829331822693
1769249613973,-0.1049346923828125,0.00787353515625,-1.0045166015625,0.0244041420519351,-0.054776694625616,-0.0062001054175198
1769249613983,-0.1002349853515625,0.0145416259765625,-1.0038299560546875,0.0377247408032417,-0.0617547109723091,-0.0088265147060155
1769249613993,-0.09912109375,0.012451171875,-1.001007080078125,0.043763194233179,-0.0644548907876014,-0.0127594713121652
1769249614003,-0.100128173828125,-0.0041656494140625,-0.995391845703125,0.0245815087109804,-0.0544331483542919,-0.0095069520175457
1769249614013,-0.090728759765625,-0.038177490234375,-0.9982757568359376,0.0180019028484821,-0.0043958136811852,-0.0026847326662391
1769249614023,-0.0876922607421875,0.0107574462890625,-1.0032806396484375,0.0308564491569995,0.0158029310405254,-0.0127959558740258
1769249614033,-0.10369873046875,0.089324951171875,-0.9910125732421876,0.040794301778078,0.0270270910114049,-0.0367404371500015
1769249614043,-0.1266326904296875,-0.0070343017578125,-0.980743408203125,0.0204972848296165,-0.0119967414066195,-0.0449245981872081
1769249614053,-0.1069793701171875,-0.07763671875,-0.97235107421875,-0.0111621068790555,-0.0179885886609554,-0.0265629012137651
1769249614063,-0.0792694091796875,-0.02410888671875,-0.990447998046875,-0.0048147290945053,0.0229660365730524,-0.0212477650493383
1769249614073,-0.075225830078125,0.0502471923828125,-0.98931884765625,0.0206608027219772,0.0346402674913406,-0.0357430838048458
1769249614083,-0.092193603515625,0.0558013916015625,-0.976470947265625,0.049384593963623,-0.0324812456965446,-0.0459531098604202
1769249614094,-0.10552978515625,-0.0001983642578125,-0.979156494140625,0.0793523490428924,-0.1023213118314743,-0.0416963137686252
1769249614104,-0.1089324951171875,-0.012054443359375,-0.989166259765625,0.0823388174176216,-0.1444392055273056,-0.0173763278871774
1769249614114,-0.09405517578125,-0.0349884033203125,-0.9943695068359376,0.066898874938488,-0.1369128376245498,0.0055396412499248
1769249614124,-0.08502197265625,-0.049774169921875,-0.9984283447265624,0.0429770275950431,-0.0974663719534874,0.02393089979887
1769249614134,-0.0832672119140625,-0.0170440673828125,-0.9886474609375,0.0082539347931742,-0.0563282519578933,0.028724055737257
1769249614144,-0.08770751953125,-0.0013427734375,-0.97918701171875,-0.0194703713059425,-0.0198453441262245,0.0288625415414571
1769249614154,-0.0970611572265625,0.0076904296875,-0.9794158935546876,-0.0344296135008335,-0.004422711674124,0.0250947009772062
1769249614164,-0.10626220703125,0.0147247314453125,-0.9877166748046876,-0.0445775873959064,-0.0062831956893205,0.0207963585853576
1769249614174,-0.1113128662109375,0.0139617919921875,-0.99114990234375,-0.0517105981707572,-0.0110670318827033,0.0165962874889373
1769249614185,-0.1106719970703125,0.006103515625,-0.9937896728515624,-0.056435577571392,0.0008420915110036,0.0138673456385731
1769249614194,-0.10693359375,0.000457763671875,-0.9979705810546876,-0.0593820996582508,0.0089162634685635,0.0097578223794698
1769249614204,-0.108673095703125,-0.001953125,-0.9987640380859376,-0.0595205835998058,0.0089844400063157,0.0070006516762077
1769249614214,-0.1081390380859375,-0.0115814208984375,-0.9932098388671876,-0.0587985999882221,0.006630206014961,0.0131096765398979
1769249614224,-0.1056060791015625,-0.020538330078125,-0.9906005859375,-0.0501651652157306,0.0013459615875035,0.0121938157826662
1769249614234,-0.103912353515625,-0.0001678466796875,-0.992431640625,-0.0335888527333736,-0.0044288369826972,0.0103873936459422
1769249614244,-0.0993499755859375,0.0173187255859375,-0.9936981201171876,-0.0154790906235575,-0.0146785452961921,0.007424094248563
1769249614255,-0.0985565185546875,0.005859375,-0.983184814453125,-0.0105567704886198,-0.0338690169155597,0.0069923955015838
1769249614264,-0.0942535400390625,-0.0131378173828125,-0.985626220703125,0.0005552690709009,-0.0366003550589084,0.013006879016757
1769249614274,-0.0926361083984375,-0.00372314453125,-0.9980926513671876,0.0069420621730387,-0.0350053869187831,0.0162415541708469
1769249614284,-0.101409912109375,-0.0008087158203125,-0.9962615966796876,0.0020490360911935,-0.0265431944280862,0.0189611744135618
1769249614295,-0.103363037109375,0.0016632080078125,-0.9849700927734376,0.0026676885318011,-0.0259735435247421,0.0194149762392044
1769249614305,-0.105926513671875,-0.0016021728515625,-0.9887542724609376,-0.0035931370221078,-0.0289504248648881,0.0245556775480508
1769249614315,-0.104522705078125,-0.0026092529296875,-0.98931884765625,-0.0091879060491919,-0.027597539126873,0.0273634474724531
1769249614325,-0.102783203125,-0.0030517578125,-0.98809814453125,-0.0195420105010271,-0.0154902767390012,0.0290758591145277
1769249614335,-0.10015869140625,0.0030364990234375,-0.9873199462890624,-0.0306902676820755,0.0037270938046276,0.0282015446573495
1769249614345,-0.1013641357421875,0.0021209716796875,-0.9917755126953124,-0.0341670252382755,0.0144724166020751,0.019061841070652
1769249614355,-0.1088104248046875,-0.0035247802734375,-0.996612548828125,-0.0305959917604923,0.0057929079048335,0.0150402020663023
1769249614365,-0.110076904296875,9.1552734375e-05,-0.9931640625,-0.0203018095344305,-0.009589510038495,0.0090640690177679
1769249614375,-0.1168670654296875,0.00360107421875,-0.996063232421875,-0.0076597840525209,-0.0328050851821899,0.0029172266367822
1769249614385,-0.1191864013671875,0.0068511962890625,-0.9973297119140624,-0.0062198126688599,-0.0466042533516883,-0.0003885551996063
1769249614395,-0.1156005859375,0.0040283203125,-0.99102783203125,-0.0153677705675363,-0.0410148091614246,-0.008103466592729
1769249614405,-0.118896484375,0.0017852783203125,-0.9875335693359376,-0.0174168068915605,-0.026579413563013,-0.0204999484121799
1769249614415,-0.1240386962890625,0.006744384765625,-0.99298095703125,-0.0101437140256166,-0.0261346641927957,-0.0356884896755218
1769249614425,-0.124969482421875,0.00250244140625,-0.9974517822265624,-0.0122065991163253,-0.0491086915135383,-0.0401620678603649
1769249614435,-0.115478515625,-0.032196044921875,-0.9974822998046876,-0.024835841730237,-0.0381804071366786,-0.0312758982181549
1769249614445,-0.1032257080078125,-0.019622802734375,-1.002716064453125,-0.0106960535049438,-0.0021062940359115,-0.0340306721627712
1769249614456,-0.1109466552734375,0.0770416259765625,-1.0017852783203125,0.0143688190728425,0.0150857418775558,-0.0583378747105598
1769249614465,-0.134674072265625,0.045379638671875,-0.9974517822265624,0.0455800034105777,0.0011757856700569,-0.0762897133827209
1769249614475,-0.130523681640625,-0.020477294921875,-0.9836883544921876,0.0100864563137292,-0.0731903240084648,-0.0658479854464531
1769249614485,-0.0976104736328125,-0.0644378662109375,-0.99755859375,0.0175973698496818,-0.0185425244271755,-0.0541196949779987
1769249614496,-0.0792388916015625,0.010101318359375,-1.0203399658203125,0.0319526046514511,0.0111602423712611,-0.0552552640438079
1769249614505,-0.09228515625,0.04693603515625,-0.9803009033203124,0.0509912781417369,-0.0279581304639577,-0.0604098141193389
1769249614516,-0.113494873046875,0.0071868896484375,-0.9682159423828124,0.0672442838549614,-0.0738044455647468,-0.0557349026203155
1769249614526,-0.1214752197265625,-0.008575439453125,-0.97882080078125,0.0830898284912109,-0.1173846796154975,-0.0328594110906124
1769249614536,-0.1105499267578125,-0.01983642578125,-0.9941864013671876,0.0794420912861824,-0.1426056176424026,-1.3315805517777337e-05
1769249614546,-0.0912322998046875,-0.0478515625,-0.992462158203125,0.0516080670058727,-0.1194598153233528,0.0344847403466701
1769249614556,-0.08978271484375,-0.0366058349609375,-0.983428955078125,0.0108497180044651,-0.0632162541151046,0.0563695318996906
1769249614566,-0.09881591796875,-0.01568603515625,-0.97314453125,-0.0370011627674102,-0.007792143151164,0.0668091252446174
1769249614576,-0.10552978515625,-0.008209228515625,-0.978546142578125,-0.0719812512397766,0.0286849085241556,0.0814602375030517
1769249614586,-0.109283447265625,0.00775146484375,-0.991058349609375,-0.0895762220025062,0.040968470275402,0.089386872947216
1769249614596,-0.1124725341796875,0.0195770263671875,-0.998199462890625,-0.1038483679294586,0.0357012711465358,0.0937033221125602
1769249614606,-0.11492919921875,0.013275146484375,-0.9977874755859376,-0.110633835196495,0.0373913124203681,0.0878851115703582
1769249614616,-0.1252593994140625,0.0001983642578125,-1.0009765625,-0.10511976480484,0.052077580243349,0.0773392617702484
1769249614626,-0.13232421875,-0.0001678466796875,-1.0079345703125,-0.0840584188699722,0.0577141642570495,0.0658314749598503
1769249614636,-0.133056640625,-0.0012054443359375,-1.0133209228515625,-0.054574828594923,0.0339433178305625,0.0616484507918357
1769249614646,-0.1317138671875,-0.017059326171875,-1.0101318359375,-0.0190455969423055,0.0152202313765883,0.0523742586374282
1769249614656,-0.130279541015625,-0.001617431640625,-1.0032958984375,0.0112886074930429,-0.0013145363191142,0.0342261455953121
1769249614666,-0.1287994384765625,0.02886962890625,-0.992523193359375,0.0403143987059593,-0.0367436334490776,0.0053867758251726
1769249614676,-0.1315460205078125,0.009307861328125,-0.9888763427734376,0.0552171841263771,-0.0642831176519393,-0.0118478713557124
1769249614686,-0.1235809326171875,-0.0003814697265625,-0.9798736572265624,0.0532600246369838,-0.0594702512025833,-0.0212448351085186
1769249614697,-0.117156982421875,0.0061798095703125,-0.97052001953125,0.0406337119638919,-0.0414742045104503,-0.0256787315011024
1769249614706,-0.1177215576171875,0.0031585693359375,-0.9686279296875,0.0280769076198339,-0.0269424021244049,-0.0304338056594133
1769249614717,-0.117950439453125,0.00042724609375,-0.9762115478515624,0.0192748941481113,-0.0242675226181745,-0.0360232479870319
1769249614727,-0.119354248046875,-0.003021240234375,-0.98333740234375,0.006615025922656,-0.0266545135527849,-0.0350868813693523
1769249614737,-0.1143035888671875,-0.005706787109375,-0.976898193359375,-0.0094137415289878,-0.0265381336212158,-0.035008318722248
1769249614747,-0.115753173828125,-0.0027313232421875,-0.9742584228515624,-0.0231764260679483,-0.0189846102148294,-0.0382435247302055
1769249614757,-0.1177520751953125,-0.0034027099609375,-0.9804229736328124,-0.0357561334967613,-0.0135490978136658,-0.0377015732228755
1769249614767,-0.1142120361328125,0.0023651123046875,-0.985687255859375,-0.0435996763408184,-0.0131083447486162,-0.0348386727273464
1769249614777,-0.113128662109375,0.0059356689453125,-0.9953155517578124,-0.041456364095211,-0.0135280592367053,-0.0323768481612205
1769249614787,-0.11358642578125,0.0047149658203125,-0.99981689453125,-0.0388504602015018,-0.0057718688622117,-0.0249839127063751
1769249614797,-0.1097259521484375,0.0063323974609375,-0.9963836669921876,-0.033947579562664,0.0064376592636108,-0.016626913100481
1769249614807,-0.1123809814453125,0.0086822509765625,-0.999603271484375,-0.0262057706713676,0.0088824415579438,-0.0068491175770759
1769249614817,-0.1151275634765625,0.004302978515625,-1.0037689208984375,-0.0176431760191917,0.0092888390645384,0.0034416031558066
1769249614827,-0.1114349365234375,0.0082550048828125,-0.9994964599609376,-0.0056927730329334,0.0091466270387172,0.0137147465720772
1769249614837,-0.1128082275390625,0.01824951171875,-0.998504638671875,0.0010700580896809,0.0150769539177417,0.0219095591455698
1769249614847,-0.112457275390625,0.0160675048828125,-0.995819091796875,0.0026511768810451,0.0128723885864019,0.0299424529075622
1769249614857,-0.1066436767578125,-0.016357421875,-0.994171142578125,-0.0070232884027063,0.0056767943315207,0.0400582030415535
1769249614867,-0.1053009033203125,-0.0418548583984375,-1.0026092529296875,0.0123509420081973,0.0380475185811519,0.0393119864165782
1769249614877,-0.1126556396484375,0.0511474609375,-1.00665283203125,0.0199609249830245,0.0406893715262413,0.0261402577161788
1769249614887,-0.1310882568359375,0.0450439453125,-0.993438720703125,0.0550155825912952,0.0700411349534988,0.003623496973887
1769249614897,-0.143798828125,0.001068115234375,-0.9857330322265624,0.0142098283395171,-0.012426309287548,0.0074342139996588
1769249614907,-0.1214141845703125,-0.0634613037109375,-0.9737396240234376,-0.0045518749393522,0.0516181886196136,0.0036120454315096
1769249614917,-0.1042327880859375,-0.0003814697265625,-0.9945220947265624,-0.0182905904948711,0.0958258584141731,0.0027877970132976
1769249614928,-0.10028076171875,0.0487823486328125,-0.981353759765625,-0.0115807559341192,0.0925911888480186,-0.0042173820547759
1769249614938,-0.1155242919921875,0.02154541015625,-0.98748779296875,0.0132660046219825,0.0567381121218204,-0.009819340892136
1769249614948,-0.120880126953125,0.0065460205078125,-1.0023651123046875,0.0525926388800144,-0.0068389978259801,0.0008183894096873
1769249614958,-0.113067626953125,0.0076141357421875,-1.0097198486328125,0.0801190733909607,-0.0860784277319908,0.0153999952599406
1769249614968,-0.109954833984375,-0.0279693603515625,-1.0019378662109375,0.08858472853899,-0.1169580444693565,0.0199609249830245
1769249614978,-0.1152801513671875,-0.044036865234375,-0.9922332763671876,0.0799017548561096,-0.1023458093404769,0.0217516347765922
1769249614988,-0.1163787841796875,-0.0284423828125,-0.983154296875,0.0611989088356494,-0.0671819671988487,0.0180098935961723
1769249614998,-0.1139678955078125,-0.0171661376953125,-0.9827423095703124,0.0437868945300579,-0.0258481092751026,0.018765166401863
1769249615008,-0.112884521484375,0.00555419921875,-0.9903411865234376,0.0299469791352748,0.0020538298413157,0.0107730189338326
1769249615018,-0.1199188232421875,0.0175018310546875,-0.995880126953125,0.0173073504120111,0.0134047549217939,0.002225870033726
1769249615028,-0.1227874755859375,0.0123748779296875,-0.9921417236328124,0.004162520635873,0.0066685555502772,-0.0032879386562854
1769249615038,-0.12713623046875,0.0052337646484375,-0.98822021484375,-0.0009161274065263,-0.0002687129599507,-0.0172029547393322
1769249615048,-0.134857177734375,-0.0103302001953125,-0.989288330078125,0.0013550163712352,-0.008207862265408,-0.0276278983801603
1769249615058,-0.13787841796875,-0.0106353759765625,-0.9869842529296876,0.0019262643763795,-0.0351137779653072,-0.0388129092752933
1769249615068,-0.1357574462890625,-0.018157958984375,-0.975494384765625,0.0002237055305158,-0.0502796806395053,-0.0435453467071056
1769249615078,-0.1282806396484375,-0.0009002685546875,-0.9748992919921876,-0.0019614181946963,-0.021330589428544,-0.0584262907505035
1769249615088,-0.1238555908203125,0.023345947265625,-0.983184814453125,-0.0061303302645683,-0.0014181332662701,-0.0727951079607009
1769249615098,-0.119781494140625,0.0113677978515625,-0.97845458984375,-0.009238239377737,-0.0169446282088756,-0.0763541609048843
1769249615108,-0.112640380859375,-0.00189208984375,-0.97576904296875,-0.0022485069930553,-0.0546709671616554,-0.0736103057861328
1769249615118,-0.110595703125,-0.0050201416015625,-0.978424072265625,0.0020096213556826,-0.0814447924494743,-0.0705213025212287
1769249615129,-0.11260986328125,-0.0063018798828125,-0.9773406982421876,-0.0064371265470981,-0.0840930417180061,-0.0694946572184562
1769249615138,-0.1121063232421875,-0.002471923828125,-0.9695892333984376,-0.0231641754508018,-0.0741764903068542,-0.05834586545825
1769249615149,-0.1078338623046875,-0.0013427734375,-0.970245361328125,-0.0390667095780372,-0.0543031841516494,-0.0459216870367527
1769249615159,-0.106903076171875,-0.0015869140625,-0.9748077392578124,-0.0531654842197895,-0.0406606122851371,-0.0369862467050552
1769249615169,-0.1116790771484375,0.0010986328125,-0.980194091796875,-0.0599376372992992,-0.0325273163616657,-0.033409621566534
1769249615179,-0.119110107421875,-0.0041961669921875,-0.9879913330078124,-0.0622790865600109,-0.0296124871820211,-0.0271581169217824
1769249615189,-0.119598388671875,-0.005828857421875,-0.9934234619140624,-0.0646911114454269,-0.0317496731877327,-0.0225162282586097
1769249615199,-0.1184234619140625,-0.0001373291015625,-0.9962921142578124,-0.0622729621827602,-0.0373500362038612,-0.0114846155047416
1769249615209,-0.11590576171875,0.0066986083984375,-0.99658203125,-0.0642764568328857,-0.0309323500841856,-0.0052778525277972
1769249615219,-0.1159515380859375,0.0036468505859375,-1.0001983642578125,-0.0568025633692741,-0.0208831783384084,0.0008729841792955
1769249615229,-0.11492919921875,0.00579833984375,-1.0020294189453125,-0.0405860431492328,-0.031831432133913,0.0060818609781563
1769249615239,-0.1226654052734375,0.005615234375,-1.0049896240234375,-0.0232882779091596,-0.0467480644583702,0.0079466067254543
1769249615249,-0.12811279296875,0.00604248046875,-1.00567626953125,-0.0032788838725537,-0.0505859442055225,0.0082898875698447
1769249615259,-0.131927490234375,0.0124664306640625,-1.0076141357421875,0.0051396344788372,-0.0342945903539657,0.0068445904180407
1769249615269,-0.1348114013671875,0.0169830322265625,-0.9974517822265624,0.0023467775899916,-0.0253647454082965,0.0032642364967614
1769249615279,-0.1324462890625,-0.012664794921875,-0.99114990234375,-0.014224742539227,-0.0324876345694065,0.0059359199367463
1769249615289,-0.1197052001953125,-0.046966552734375,-0.9958648681640624,-0.005029113497585,0.0017867147689685,0.0123852966353297
1769249615299,-0.115081787109375,0.029571533203125,-1.0083465576171875,0.0061396514065563,0.0210778545588254,0.0092417011037468
1769249615309,-0.1214447021484375,0.0608978271484375,-1.003143310546875,0.037086647003889,0.0641784518957138,-0.0048685246147215
1769249615320,-0.1427459716796875,0.031341552734375,-0.9875030517578124,0.009638512507081,-0.0040932786650955,0.0013648699969053
1769249615330,-0.1292724609375,-0.035614013671875,-0.959869384765625,-0.0177582241594791,0.0040179109200835,-0.003058640519157
1769249615340,-0.1184539794921875,-0.045501708984375,-0.9909820556640624,-0.0181209463626146,0.0551820285618305,0.0033089776989072
1769249615350,-0.1082305908203125,0.020660400390625,-0.985015869140625,-0.0161781702190637,0.0275506675243377,0.007588677573949
1769249615360,-0.1189117431640625,0.019195556640625,-0.9735260009765624,-0.0047633298672735,-0.0087711205706,0.0007435545558109
1769249615370,-0.132568359375,0.007659912109375,-0.9870452880859376,0.0166034772992134,-0.0354978069663047,-0.0055058193393051
1769249615380,-0.1344757080078125,0.00592041015625,-1.0003509521484375,0.0355942137539386,-0.0656573101878166,-0.0005632585380226
1769249615390,-0.128143310546875,-0.0179901123046875,-1.000244140625,0.0432316251099109,-0.0825585275888443,0.0090313116088509
1769249615400,-0.123779296875,-0.0286407470703125,-0.9903411865234376,0.0285237859934568,-0.0704944059252739,0.017510550096631
1769249615410,-0.1189422607421875,-0.0172119140625,-0.980682373046875,0.0041385521180927,-0.0477337017655372,0.0178668815642595
1769249615420,-0.1199188232421875,-0.014007568359375,-0.9830322265625,-0.0184967182576656,-0.0164143927395343,0.020453343167901
1769249615430,-0.1207275390625,-0.0015411376953125,-0.987762451171875,-0.0323257148265838,-0.0011259844759479,0.0208746548742055
1769249615440,-0.1292572021484375,0.010284423828125,-0.996734619140625,-0.0397471450269222,-0.0077348849736154,0.0134596163406968
1769249615450,-0.137969970703125,0.0089874267578125,-0.996337890625,-0.0514962151646614,-0.0064136907458305,0.007594536524266
1769249615460,-0.1374359130859375,0.00341796875,-0.9930572509765624,-0.0590502694249153,-0.0002796319022309,0.0050285807810723
1769249615470,-0.1389312744140625,0.002716064453125,-0.9913330078125,-0.0541532486677169,0.0085474150255322,0.0030551783274859
1769249615480,-0.1386566162109375,0.00726318359375,-0.99554443359375,-0.0417059026658535,0.0007653924985788,0.0018439727136865
1769249615490,-0.1380615234375,-0.00311279296875,-0.9999847412109376,-0.0243870988488197,-0.0109221562743186,-0.0008407599525526
1769249615500,-0.1342620849609375,-0.0045013427734375,-1.001953125,-0.0115187047049403,-0.0005685848882421,-0.0027992485556751
1769249615510,-0.1260986328125,0.022979736328125,-0.9993743896484376,-0.0059060924686491,0.0063519054092466,-0.003025084733963
1769249615520,-0.12017822265625,0.0074920654296875,-0.989349365234375,0.0017379788914695,0.0015206650132313,-0.0026929883752018
1769249615530,-0.1197052001953125,-0.0067291259765625,-0.9872894287109376,0.0140476422384381,-0.0068919947370886,0.0055566853843629
1769249615540,-0.11328125,0.0017242431640625,-0.9864501953125,0.0182253420352935,-0.0169619396328926,0.0161336958408355
1769249615550,-0.1136322021484375,0.0049591064453125,-0.980133056640625,0.0240286365151405,-0.021049091592431,0.0197670459747314
1769249615561,-0.1232757568359375,0.0017242431640625,-0.980865478515625,0.0247293151915073,-0.0210152696818113,0.0231676362454891
1769249615571,-0.1278839111328125,0.000244140625,-0.9846343994140624,0.02479163184762,-0.0230999924242496,0.0240587312728166
1769249615581,-0.12542724609375,0.00494384765625,-0.9881591796875,0.0154332844540476,-0.020240556448698,0.0317515395581722
1769249615591,-0.1202545166015625,0.0047607421875,-0.9838714599609376,-0.0046080676838755,-0.0010303769959136,0.0410819239914417
1769249615601,-0.1174774169921875,0.00054931640625,-0.978424072265625,-0.0317597948014736,0.0239426176995039,0.0524166040122509
1769249615611,-0.11212158203125,-0.00164794921875,-0.980987548828125,-0.0529412440955638,0.0415554344654083,0.0662754252552986
1769249615621,-0.1121826171875,-0.004791259765625,-0.991058349609375,-0.0635163933038711,0.0559018813073635,0.0756204575300216
1769249615631,-0.11981201171875,-0.0063018798828125,-0.99884033203125,-0.0610066279768943,0.062854066491127,0.0736979246139526
1769249615641,-0.1322479248046875,-0.005035400390625,-1.0044403076171875,-0.0431725047528743,0.0537921264767646,0.0694381967186927
1769249615651,-0.1367950439453125,0.0045623779296875,-1.0059051513671875,-0.0235026627779006,0.0298937167972326,0.0684339180588722
1769249615661,-0.1344451904296875,0.0098419189453125,-1.00396728515625,-0.005273325368762,0.0145645616576075,0.0570928454399108
1769249615671,-0.138671875,0.0101776123046875,-1.0049591064453125,0.0109168300405144,0.007570834364742,0.0471294298768043
1769249615681,-0.1398773193359375,0.0179595947265625,-1.0024261474609375,0.0306239556521177,0.0065013086423277,0.0443019494414329
1769249615691,-0.135589599609375,0.0278167724609375,-1.000030517578125,0.0472996048629283,-0.0060043628327548,0.0436880923807621
1769249615701,-0.1328277587890625,0.01080322265625,-1.000030517578125,0.0473890863358974,-0.0395452789962291,0.0453320629894733
1769249615711,-0.1292877197265625,-0.0380859375,-0.9921722412109376,0.0421003140509128,-0.0315395519137382,0.0339750126004219
1769249615721,-0.136199951171875,-0.0116424560546875,-0.9876251220703124,0.0460274145007133,0.01436482463032,0.0203486811369657
1769249615731,-0.13861083984375,0.0545654296875,-0.9858245849609376,0.0683178082108497,0.0469746999442577,-0.0031137678306549
1769249615741,-0.1517486572265625,0.029388427734375,-0.992584228515625,0.0917592123150825,0.0297853257507085,-0.0087072048336267
1769249615751,-0.142333984375,-0.0058135986328125,-0.97515869140625,0.0390928089618682,-0.0638668611645698,-0.0099037634208798
1769249615761,-0.1187896728515625,-0.045135498046875,-0.96929931640625,0.0331401117146015,0.0017449031583964,-0.0014064153656363
1769249615772,-0.108978271484375,0.0255279541015625,-0.989044189453125,0.0146503150463104,0.0113080479204654,0.0077229007147252
1769249615782,-0.1102447509765625,0.0076446533203125,-0.969268798828125,0.0055018244311213,0.0031108383554965,0.00655057746917
1769249615792,-0.1250762939453125,-0.0061798095703125,-0.96807861328125,0.0092845782637596,-0.0163938868790864,0.0098742023110389
1769249615802,-0.1279754638671875,0.0,-0.9798736572265624,0.0146452551707625,-0.0444822460412979,0.021344169974327
1769249615812,-0.1215057373046875,-0.009033203125,-0.9877166748046876,0.0121195130050182,-0.0752753093838691,0.0315869562327861
1769249615822,-0.1197967529296875,-0.033111572265625,-0.986602783203125,-0.0019430422689765,-0.0773816034197807,0.0533939823508262
1769249615832,-0.1147308349609375,-0.0275726318359375,-0.9847869873046876,-0.0258827302604913,-0.0586883462965488,0.0694730803370475
1769249615842,-0.1124420166015625,-0.0173492431640625,-0.9783172607421876,-0.0569690093398094,-0.0201004743576049,0.0821563899517059
1769249615852,-0.116729736328125,-0.008026123046875,-0.9795379638671876,-0.0759962275624275,0.0181185491383075,0.0871290415525436
1769249615862,-0.1239471435546875,0.002532958984375,-0.9919891357421876,-0.080487385392189,0.0271461326628923,0.0898276269435882
1769249615872,-0.1306304931640625,0.0077056884765625,-1.0004730224609375,-0.0769850611686706,0.0153256934136152,0.085359901189804
1769249615882,-0.142791748046875,0.0051422119140625,-1.0006256103515625,-0.074954405426979,0.0003792341449297,0.0792870968580246
1769249615892,-0.143768310546875,0.001068115234375,-0.9950408935546876,-0.0742433369159698,0.0061393850483,0.0753128603100776
1769249615902,-0.1460113525390625,0.0130767822265625,-0.989105224609375,-0.0756217911839485,0.0202171206474304,0.073094718158245
1769249615912,-0.1460418701171875,0.0143890380859375,-0.9857177734375,-0.072941318154335,0.0266401320695877,0.0610548332333564
1769249615922,-0.1463775634765625,-0.002960205078125,-0.993011474609375,-0.0642146691679954,0.0342610329389572,0.0446335151791572
1769249615932,-0.142242431640625,0.01605224609375,-0.9962158203125,-0.0477842986583709,0.0271828845143318,0.0245831068605184
1769249615942,-0.14208984375,0.0147857666015625,-0.9945068359375,-0.0208339095115661,-0.00457957200706,0.0019283948931843
1769249615952,-0.1460113525390625,-0.0033721923828125,-0.9957733154296876,0.0055311191827058,-0.0369004942476749,-0.0119099225848913
1769249615963,-0.140289306640625,-0.000457763671875,-0.990875244140625,0.020780911669135,-0.0569599568843841,-0.0205058082938194
1769249615972,-0.135162353515625,0.0102386474609375,-0.98681640625,0.0189009867608547,-0.0600329786539077,-0.0272955372929573
1769249615983,-0.132415771484375,0.010040283203125,-0.985321044921875,0.0087370323017239,-0.0387388728559017,-0.0315640531480312
1769249615993,-0.1356964111328125,0.0050048828125,-0.983245849609375,-0.0049521480686962,-0.0257533006370067,-0.0328972302377224
1769249616003,-0.137908935546875,0.0054168701171875,-0.9805450439453124,-0.0108372010290622,-0.0334317274391651,-0.0321411564946174
1769249616013,-0.1377105712890625,0.002105712890625,-0.989349365234375,-0.0076414081268012,-0.0360315032303333,-0.0289158038794994
1769249616023,-0.1358795166015625,0.0012359619140625,-0.996246337890625,-0.0140439132228493,-0.0252829864621162,-0.0188248194754123
1769249616033,-0.1275634765625,0.00909423828125,-0.9891815185546876,-0.0283317733556032,7.190534688561456e-06,-0.0121669173240661
1769249616043,-0.1240997314453125,0.003204345703125,-0.98663330078125,-0.0324564762413501,0.0228267516940832,-0.0084896245971322
1769249616053,-0.1288604736328125,0.0020904541015625,-0.99176025390625,-0.0279426854103803,0.0198996718972921,-0.0062381885945796
1769249616063,-0.1318359375,0.0095062255859375,-0.99407958984375,-0.0212735962122678,0.0041372207924723,-0.000429834210081
1769249616073,-0.1291656494140625,0.0087738037109375,-0.9979705810546876,-0.0124710509553551,0.0009182579233311,-0.0006772418855689
1769249616083,-0.130340576171875,-0.0036468505859375,-1.003692626953125,-0.0036679718177765,-0.0012567456578835,-0.0008090683259069
1769249616093,-0.1344146728515625,-0.0046539306640625,-0.999725341796875,0.0115820877254009,-0.0068049090914428,-0.0007739146240055
1769249616103,-0.1403961181640625,0.007080078125,-0.99945068359375,0.0310679040849208,-0.0104350643232464,-0.0009992180857807
1769249616113,-0.14031982421875,0.0164642333984375,-1.0060882568359375,0.0463760197162628,-0.0037510623224079,9.321063771494664e-06
1769249616123,-0.1363525390625,0.012786865234375,-0.9981536865234376,0.039945550262928,-0.0017662084428593,-0.0006823018775321
1769249616133,-0.131866455078125,-0.0254974365234375,-0.9824981689453124,0.0114976651966571,-0.0060126185417175,0.0018636800814419
1769249616143,-0.1239776611328125,-0.02972412109375,-0.9769134521484376,0.0070800138637423,0.0358842313289642,0.0025078987237066
1769249616153,-0.1279296875,0.0645294189453125,-0.9831695556640624,-0.0059335227124392,0.0367276556789875,-0.0188250858336687
1769249616164,-0.1492156982421875,0.04498291015625,-0.982330322265625,0.0066357986070215,0.0479368977248668,-0.0400459542870521
1769249616173,-0.16015625,-0.047454833984375,-0.975860595703125,-0.0308202300220727,-0.0451163463294506,-0.0309280883520841
1769249616184,-0.1310882568359375,-0.06219482421875,-0.96533203125,-0.0316668488085269,0.0031121699139475,-0.0233119800686836
1769249616194,-0.1141510009765625,0.02484130859375,-0.9897918701171876,-0.0442675948143005,0.041013479232788,-0.0218546986579895
1769249616204,-0.11077880859375,0.069000244140625,-0.9691009521484376,-0.0522176660597324,0.0379367284476757,-0.0259679518640041
1769249616214,-0.1297607421875,0.0451812744140625,-0.963409423828125,-0.0452668145298957,0.0125951543450355,-0.0301139596849679
1769249616224,-0.1430206298828125,0.01116943359375,-0.97528076171875,-0.0280060674995183,-0.0191220287233591,-0.0263573043048381
1769249616234,-0.1425628662109375,0.0090179443359375,-0.989532470703125,-0.0236773658543825,-0.0486325174570083,-0.0176112186163663
1769249616244,-0.1386871337890625,-0.0201416015625,-0.9971771240234376,-0.0271312203258276,-0.0367913022637367,-0.009157545864582
1769249616254,-0.127685546875,-0.0174713134765625,-1.002105712890625,-0.0409471653401851,-0.0124878287315368,-0.0007022755453363
1769249616264,-0.1182708740234375,0.001007080078125,-0.99761962890625,-0.055513858795166,0.0185286775231361,0.0031864722259342
1769249616274,-0.120452880859375,0.0018768310546875,-0.9993438720703124,-0.0539881326258182,0.0430310890078544,0.0061063622124493
1769249616284,-0.1282806396484375,0.016021728515625,-1.009735107421875,-0.0439277775585651,0.0465304851531982,0.0062845274806022
1769249616294,-0.1317596435546875,0.02178955078125,-1.0131072998046875,-0.0311600491404533,0.0426499918103218,0.0052648033015429
1769249616304,-0.134307861328125,0.0165863037109375,-1.0128173828125,-0.0244302414357662,0.038695465773344,0.0126846358180046
1769249616314,-0.1304931640625,0.0080413818359375,-1.0040283203125,-0.0219971779733896,0.0456276722252368,0.02235191129148
1769249616324,-0.12518310546875,0.008209228515625,-1.00048828125,-0.0108497180044651,0.0559290461242198,0.036959882825613
1769249616334,-0.1223297119140625,0.00592041015625,-1.0004119873046875,0.0020495688077062,0.052289567887783,0.0443863719701767
1769249616345,-0.125335693359375,-0.007049560546875,-1.0000762939453125,0.0233266279101371,0.0486724637448787,0.0468505956232547
1769249616354,-0.123016357421875,0.0053863525390625,-1.0017547607421875,0.0408041551709175,0.0322066731750965,0.051506333053112
1769249616364,-0.120391845703125,0.01898193359375,-0.9932098388671876,0.0663867443799972,0.0374355241656303,0.0457903929054737
1769249616375,-0.127349853515625,0.0177154541015625,-0.983612060546875,0.0758830457925796,0.0082675172016024,0.0448425710201263
1769249616385,-0.1240386962890625,-0.0099945068359375,-0.9695587158203124,0.0783416777849197,-0.0220075640827417,0.0484626069664955
1769249616395,-0.1213836669921875,-0.0073699951171875,-0.969635009765625,0.0655587688088417,-0.0234640464186668,0.0508826225996017
1769249616405,-0.1236114501953125,0.00665283203125,-0.9712677001953124,0.046584278345108,-0.0106824720278382,0.0451070256531238
1769249616415,-0.131439208984375,0.0075225830078125,-0.9695587158203124,0.026240924373269,-0.003294862806797,0.0362853035330772
1769249616425,-0.1372222900390625,0.01361083984375,-0.9704437255859376,0.0095301214605569,-0.0072390045970678,0.0289698652923107
1769249616435,-0.142547607421875,0.0145721435546875,-0.9751434326171876,-0.001865011639893,-0.0137682761996984,0.0165222510695457
1769249616445,-0.1457061767578125,0.0063629150390625,-0.98211669921875,-0.008967662230134,-0.0169957615435123,0.0113131077960133
1769249616455,-0.1369476318359375,0.0087738037109375,-0.987762451171875,-0.0241644587367773,-0.0104936538264155,0.0077593862079083
1769249616465,-0.135650634765625,0.0094146728515625,-0.9811553955078124,-0.0507923401892185,0.0090137347579002,0.002609631512314
1769249616475,-0.1372222900390625,0.004974365234375,-0.9789581298828124,-0.0703596472740173,0.0290281884372234,0.0045462823472917
1769249616485,-0.1325531005859375,0.0048675537109375,-0.9856719970703124,-0.0788631215691566,0.037591315805912,0.0046895602717995
1769249616495,-0.131317138671875,0.0097503662109375,-0.9932403564453124,-0.0775642991065979,0.0337819308042526,0.0048104678280651
1769249616505,-0.132232666015625,0.01824951171875,-0.9959716796875,-0.0741839483380317,0.0293056908994913,0.0087966872379183
1769249616515,-0.12506103515625,0.0155792236328125,-0.99658203125,-0.0700959935784339,0.0302628315985202,0.0132654719054698
1769249616525,-0.1242218017578125,0.0079345703125,-0.993621826171875,-0.0621999911963939,0.0331294573843479,0.01484499219805
1769249616535,-0.1289520263671875,0.0110015869140625,-0.9951324462890624,-0.0424976572394371,0.0363183282315731,0.0135190049186348
1769249616545,-0.1314849853515625,0.0192108154296875,-0.999755859375,-0.0273775625973939,0.0215841215103864,0.0089828418567776
1769249616555,-0.1319732666015625,0.0072784423828125,-0.9998321533203124,-0.0327598117291927,0.0102169513702392,0.0122438827529549
1769249616565,-0.126708984375,-0.0190887451171875,-0.999908447265625,-0.0243724510073661,0.0510671772062778,0.0060232714749872
1769249616575,-0.1287078857421875,0.0333099365234375,-1.0109405517578125,0.0048653287813067,0.065540924668312,-0.0054855793714523
1769249616585,-0.1352691650390625,0.1016693115234375,-1.0067901611328125,0.0253210682421922,0.0778979957103729,-0.020528445020318
1769249616595,-0.14715576171875,0.0057830810546875,-0.9921722412109376,0.0216174107044935,0.0379316695034503,-0.0301278084516525
1769249616605,-0.13543701171875,-0.0637664794921875,-0.980194091796875,0.0218847915530204,0.0399562045931816,-0.0273093860596418
1769249616616,-0.1147613525390625,-0.0081939697265625,-0.992645263671875,0.0335265360772609,0.0811670273542404,-0.0278049986809492
1769249616626,-0.0999298095703125,0.0335845947265625,-0.9793701171875,0.0538312718272209,0.0497449189424514,-0.0297056976705789
1769249616636,-0.110198974609375,0.045745849609375,-0.963592529296875,0.0795526131987571,-0.0323488861322402,-0.0297014359384775
1769249616646,-0.1300811767578125,0.03021240234375,-0.9706268310546876,0.0990677252411842,-0.102214515209198,-0.0223231483250856
1769249616656,-0.1363525390625,0.0118255615234375,-0.9825897216796876,0.094552606344223,-0.1292458772659301,-0.0103554353117942
1769249616666,-0.12725830078125,-0.020477294921875,-0.99078369140625,0.0604007579386234,-0.1071560159325599,0.0078731030225753
1769249616676,-0.11480712890625,-0.0349578857421875,-0.9823455810546876,0.015876967459917,-0.0559189245104789,0.0163313020020723
1769249616686,-0.114471435546875,-0.009185791015625,-0.9735565185546876,-0.0232685711234807,-0.0014189322246238,0.0077556576579809
1769249616696,-0.1237030029296875,0.018798828125,-0.979461669921875,-0.0357028692960739,0.0382232852280139,-0.0045425537973642
1769249616706,-0.1357574462890625,0.026824951171875,-0.999176025390625,-0.0288739930838346,0.0514938160777092,-0.0149413989856839
1769249616716,-0.1429290771484375,0.02972412109375,-1.0059814453125,-0.0132569493725895,0.0398390255868434,-0.0187401324510574
1769249616726,-0.1407318115234375,0.0358428955078125,-0.998016357421875,0.0004119910299777,0.0197468064725399,-0.0230581816285848
1769249616736,-0.1383056640625,0.016937255859375,-0.9914093017578124,-0.0005155879771336,-0.0003067961661145,-0.0279352273792028
1769249616746,-0.135894775390625,-0.0064239501953125,-0.9868621826171876,-0.0063657537102699,-0.0087050748988986,-0.0276902168989181
1769249616756,-0.130767822265625,-0.004730224609375,-0.9825897216796876,-0.016940901055932,-0.0189702287316322,-0.0218150168657302
1769249616766,-0.123779296875,-0.008087158203125,-0.98199462890625,-0.0291272588074207,-0.0174658093601465,-0.0152985285967588
1769249616776,-0.1191558837890625,-0.011077880859375,-0.983856201171875,-0.0404254533350467,-0.0039848880842328,-0.0100036319345235
1769249616786,-0.113189697265625,0.0038604736328125,-0.9798736572265624,-0.0447794571518898,0.0038442730437964,-0.0061367219313979
1769249616797,-0.11175537109375,0.016021728515625,-0.98162841796875,-0.0353912785649299,0.0185371991246938,-0.0001371527905575
1769249616806,-0.111663818359375,0.0094451904296875,-0.9808807373046876,-0.0350107140839099,-0.0157454069703817,0.0074121099896728
1769249616817,-0.11322021484375,-0.015380859375,-0.9800872802734376,-0.0292353834956884,-0.0341997817158699,0.0218624211847782
1769249616827,-0.1130828857421875,0.0030517578125,-0.990997314453125,-0.0296542979776859,-0.0310364793986082,0.0354543961584568
1769249616837,-0.1170501708984375,0.0130615234375,-0.990447998046875,-0.0384086407721042,-0.0171241257339715,0.0428475998342037
1769249616847,-0.1215362548828125,0.0074310302734375,-0.9877166748046876,-0.0392973385751247,-0.0117634488269686,0.0491145476698875
1769249616857,-0.120819091796875,0.01123046875,-0.98974609375,-0.0395354256033897,-0.009556220844388,0.0526986308395862
1769249616867,-0.122772216796875,0.010223388671875,-0.985260009765625,-0.0464295484125614,0.015019429847598,0.0498796738684177
1769249616877,-0.1277618408203125,0.0025634765625,-0.98052978515625,-0.0434771701693534,0.0393380858004093,0.0476886928081512
1769249616887,-0.1262054443359375,0.0048065185546875,-0.9882049560546876,-0.044809017330408,0.0352538600564003,0.0487353131175041
1769249616897,-0.122039794921875,0.00909423828125,-0.9905242919921876,-0.0354738384485244,0.0304148979485034,0.0479595363140106
1769249616907,-0.127349853515625,0.0132598876953125,-0.997772216796875,-0.0194096509367227,0.0202602632343769,0.0467845499515533
1769249616917,-0.133331298828125,0.0255584716796875,-1.0029144287109375,0.0019497001776471,0.0047321710735559,0.0403205230832099
1769249616927,-0.138946533203125,0.0268707275390625,-0.9999237060546876,0.0203329678624868,-0.0040075248107314,0.0338791385293006
1769249616937,-0.1390228271484375,0.0243377685546875,-0.992279052734375,0.0373843908309936,-0.01685781031847,0.0295152813196182
1769249616947,-0.139312744140625,0.020965576171875,-0.9912109375,0.049733467400074,-0.0291331186890602,0.0271631777286529
1769249616957,-0.1351776123046875,0.0201568603515625,-0.9902191162109376,0.050605121999979,-0.027485953643918,0.0229678992182016
1769249616967,-0.1341552734375,0.0158843994140625,-0.9814300537109376,0.0391878820955753,-0.0227958597242832,0.0130849089473485
1769249616977,-0.1359100341796875,0.0115203857421875,-0.971893310546875,0.0134769268333911,-0.0324436947703361,0.0023931164760142
1769249616988,-0.136749267578125,-0.012847900390625,-0.9707794189453124,-0.0199377555400133,-0.0199835617095232,-0.0058384481817483
1769249616997,-0.12884521484375,-0.0161285400390625,-0.9835052490234376,-0.0215340536087751,0.0251945685595273,-0.0096499640494585
1769249617007,-0.1277618408203125,0.08154296875,-0.9825286865234376,-0.0172213315963745,0.0474455468356609,-0.0291970334947109
1769249617018,-0.1494293212890625,0.084259033203125,-0.976104736328125,-0.0296255368739366,0.0463664345443248,-0.0594713166356086
1769249617028,-0.1594085693359375,-0.05487060546875,-0.9665069580078124,-0.0743871480226516,-0.0009467537747696,-0.0532480403780937
1769249617038,-0.1186981201171875,-0.0651092529296875,-0.972442626953125,-0.0707159787416458,0.0514924861490726,-0.0303115658462047
1769249617048,-0.0944976806640625,0.0279693603515625,-0.9919891357421876,-0.0509342886507511,0.073106437921524,-0.0286873038858175
1769249617058,-0.100311279296875,0.0624237060546875,-0.9736785888671876,-0.0265993867069482,0.0046046054922044,-0.0325667299330234
1769249617068,-0.124908447265625,0.0467376708984375,-0.962860107421875,0.0021094898693263,-0.0751757100224495,-0.0296681467443704
1769249617078,-0.139984130859375,0.0076751708984375,-0.980224609375,0.0142702823504805,-0.1260982751846313,-0.0122247086837887
1769249617088,-0.1328125,-0.0139007568359375,-0.9908294677734376,0.0028075044974684,-0.0993148684501648,0.0157254338264465
1769249617098,-0.1207733154296875,-0.0408477783203125,-0.989776611328125,-0.0230155698955059,-0.0715564712882042,0.0341707542538642
1769249617108,-0.1106719970703125,-0.018524169921875,-0.9882354736328124,-0.0458290055394172,-0.0032408006954938,0.0366666689515113
1769249617118,-0.11663818359375,0.0162811279296875,-0.9951171875,-0.0566134788095951,0.0433546639978885,0.0239527374505996
1769249617128,-0.1318511962890625,0.0243682861328125,-1.0083465576171875,-0.0466950684785842,0.0420361347496509,0.0071910675615072
1769249617138,-0.1462860107421875,0.036895751953125,-1.0190582275390625,-0.0218632202595472,0.0098230699077248,-0.0019707391038537
1769249617148,-0.149017333984375,0.04180908203125,-1.02423095703125,0.001294029993005,-0.004995291121304,-0.0142114264890551
1769249617158,-0.1504058837890625,0.0251312255859375,-1.0145263671875,0.0111040500923991,-0.0060965083539485,-0.0229271538555622
1769249617168,-0.1415863037109375,0.0109405517578125,-0.99761962890625,0.0136095518246293,-0.0007547398563474,-0.0178197436034679
1769249617178,-0.1275787353515625,0.01171875,-0.992919921875,0.0252869799733161,0.0064211478456854,-0.0182216148823499
1769249617188,-0.1299896240234375,0.0081634521484375,-0.9975128173828124,0.0361787751317024,-0.0088414279744029,-0.0159499384462833
1769249617199,-0.1295166015625,-0.004547119140625,-0.99365234375,0.0500376001000404,-0.0200844947248697,-0.0148764178156852
1769249617208,-0.1303558349609375,0.0034332275390625,-0.9925079345703124,0.0630950778722763,-0.0230698995292186,-0.0138979721814394
1769249617218,-0.1232757568359375,0.032623291015625,-0.98712158203125,0.0691665560007095,-0.0184911265969276,-0.0132313827052712
1769249617229,-0.12115478515625,0.0287628173828125,-0.9745941162109376,0.0589663796126842,-0.0384531170129776,-0.014781342819333
1769249617239,-0.1216278076171875,-0.00299072265625,-0.96441650390625,0.0512738414108753,-0.0485401041805744,-0.0050200587138533
1769249617249,-0.1153564453125,0.002105712890625,-0.973114013671875,0.0398680530488491,-0.0416688844561576,0.0125347003340721
1769249617259,-0.11279296875,0.0142974853515625,-0.9730682373046876,0.0223303399980068,-0.0325883030891418,0.0194842182099819
1769249617269,-0.1275482177734375,0.017822265625,-0.966094970703125,0.0027289411518722,-0.0183246787637472,0.017913220450282
1769249617279,-0.13775634765625,0.012115478515625,-0.9697723388671876,-0.0089412974193692,-0.0250704661011695,0.0123043367639184
1769249617289,-0.1427459716796875,0.00726318359375,-0.9784088134765624,-0.0140018360689282,-0.0261335987597703,0.0081689804792404
1769249617299,-0.14404296875,0.00738525390625,-0.98248291015625,-0.0168359708040952,-0.0240568667650222,-0.0030610372778028
1769249617309,-0.14263916015625,0.0070343017578125,-0.986541748046875,-0.0189830120652914,-0.0258414503186941,-0.0068030450493097
1769249617319,-0.135406494140625,0.010009765625,-0.9846954345703124,-0.0206259153783321,-0.0279839634895324,-0.0101980427280068
1769249617329,-0.13385009765625,0.011871337890625,-0.9878387451171876,-0.0250246599316597,-0.0206948928534984,-0.0148985218256711
1769249617339,-0.1393280029296875,0.0119476318359375,-0.9891357421875,-0.0208741221576929,-0.0218927823007106,-0.0180234760046005
1769249617349,-0.137847900390625,0.013397216796875,-0.9972991943359376,-0.0117232352495193,-0.0304151643067598,-0.0121413515880703
1769249617359,-0.132080078125,0.01739501953125,-1.00225830078125,0.0022184131667017,-0.0360173881053924,-0.0052229915745556
1769249617369,-0.1294403076171875,0.01190185546875,-1.00286865234375,0.009860087186098,-0.0373883843421936,0.0028194885235279
1769249617379,-0.1287078857421875,0.0097808837890625,-1.0007476806640625,0.0145576372742652,-0.027968518435955,0.0117173762992024
1769249617389,-0.1255340576171875,0.0095062255859375,-0.9964141845703124,0.0142633579671382,-0.0105652930215001,0.0182650238275527
1769249617399,-0.125885009765625,0.0128936767578125,-0.991851806640625,0.0078866854310035,0.0013278521364554,0.0206120684742927
1769249617409,-0.13385009765625,-0.000518798828125,-0.987762451171875,-0.015951270237565,-0.0065993131138384,0.0289150048047304
1769249617419,-0.127899169921875,-0.0352325439453125,-0.98785400390625,-0.0276883523911237,0.0268949978053569,0.0361806415021419
1769249617430,-0.124420166015625,0.015838623046875,-1.001495361328125,-0.0114401411265134,0.0572600923478603,0.0348346792161464
1769249617439,-0.1317596435546875,0.107940673828125,-0.9949493408203124,0.0062296665273606,0.0877889767289161,0.0077532608993351
1769249617450,-0.1636810302734375,0.0207366943359375,-0.986724853515625,0.0120931481942534,0.0381476506590843,-0.0103879263624548
1769249617460,-0.154937744140625,-0.0535888671875,-0.97564697265625,-0.0040812944062054,-0.0210323147475719,0.0048110005445778
1769249617470,-0.1243133544921875,-0.048736572265625,-0.9945220947265624,0.0184884630143642,0.0417583659291267,0.0114734303206205
1769249617480,-0.1115875244140625,0.03497314453125,-1.004180908203125,0.0395870916545391,0.0608444437384605,0.003785949666053
1769249617490,-0.123748779296875,0.0648956298828125,-0.97857666015625,0.0578057765960693,0.0021544971968978,-0.0075766933150589
1769249617500,-0.1457061767578125,0.0200653076171875,-0.9746856689453124,0.0908513441681861,-0.0601914338767528,-0.0080416807904839
1769249617510,-0.1491241455078125,0.0054779052734375,-1.0002593994140625,0.1137390807271003,-0.1177261024713516,0.0058000986464321
1769249617520,-0.137451171875,-0.01220703125,-1.0046234130859375,0.1058454737067222,-0.1269062757492065,0.0254875160753726
1769249617530,-0.12567138671875,-0.0343780517578125,-0.99554443359375,0.082234688103199,-0.0851718857884407,0.0436132587492466
1769249617540,-0.1201171875,-0.0218353271484375,-0.9857025146484376,0.0495281368494033,-0.0415133535861969,0.0500245504081249
1769249617550,-0.1246185302734375,-0.0078887939453125,-0.980926513671875,0.0247775185853242,0.0023742080666124,0.0470202378928661
1769249617560,-0.1371612548828125,0.002288818359375,-0.9857025146484376,0.0098971053957939,0.023616911843419,0.041714422404766
1769249617570,-0.147857666015625,0.0172882080078125,-0.989776611328125,0.0014444985426962,0.0198818296194076,0.0287126041948795
1769249617580,-0.1571197509765625,0.0167999267578125,-0.9838409423828124,-0.0115722334012389,0.011275291442871,0.0156564582139253
1769249617590,-0.1588134765625,0.008056640625,-0.978179931640625,-0.0254065562039613,0.0094931041821837,0.0063982442952692
1769249617600,-0.15447998046875,0.005340576171875,-0.9808197021484376,-0.032907348126173,0.0183174889534711,-0.0034671693574637
1769249617610,-0.1498870849609375,0.0059661865234375,-0.985687255859375,-0.04117326810956,0.0276697110384702,-0.0061851916834712
1769249617620,-0.14459228515625,0.00048828125,-0.982208251953125,-0.0440231189131736,0.0175875164568424,-0.0086094671860337
1769249617630,-0.1448211669921875,-0.01129150390625,-0.983673095703125,-0.0334309265017509,0.0047268443740904,-0.0178152155131101
1769249617640,-0.1448516845703125,0.01318359375,-0.989471435546875,-0.013332849368453,-5.1399008953012526e-05,-0.0305443275719881
1769249617650,-0.14251708984375,0.030242919921875,-0.98797607421875,0.0047854343429207,-0.0353848896920681,-0.0459368638694286
1769249617661,-0.1410980224609375,0.0062408447265625,-0.97998046875,0.018042117357254,-0.098503939807415,-0.057267814874649
1769249617671,-0.1402587890625,0.0062103271484375,-0.9778289794921876,0.0308215618133544,-0.1299390941858291,-0.0613453835248947
1769249617681,-0.139556884765625,0.0134735107421875,-0.9813232421875,0.0312532596290111,-0.1074332520365715,-0.0673015415668487
1769249617691,-0.1441497802734375,0.004974365234375,-0.9702301025390624,0.0111842108890414,-0.083481840789318,-0.0645608827471733
1769249617701,-0.1415557861328125,0.0086212158203125,-0.958404541015625,-0.0052464273758232,-0.0568944402039051,-0.0603733286261558
1769249617711,-0.14544677734375,0.0035858154296875,-0.9703369140625,-0.0120492056012153,-0.045320875942707,-0.0582004562020301
1769249617721,-0.1457061767578125,-0.001617431640625,-0.983612060546875,-0.0193816870450973,-0.0487113483250141,-0.0531194098293781
1769249617731,-0.1435394287109375,0.000762939453125,-0.9887847900390624,-0.0274960733950138,-0.0528347194194793,-0.0477544739842414
1769249617741,-0.14111328125,-0.000152587890625,-0.9897918701171876,-0.0425948649644851,-0.0471970736980438,-0.0416992418467998
1769249617751,-0.1371612548828125,0.0001983642578125,-0.985443115234375,-0.0565405078232288,-0.0279109925031662,-0.0336775369942188
1769249617761,-0.1356353759765625,0.0008087158203125,-0.9846649169921876,-0.0626186430454254,-0.0176013633608818,-0.0249279867857694
1769249617771,-0.136962890625,0.0019683837890625,-0.9921722412109376,-0.0599821098148822,-0.013571735471487,-0.017355553805828
1769249617781,-0.1360321044921875,0.00665283203125,-0.998046875,-0.0531186126172542,-0.0130596095696091,-0.0089647332206368
1769249617791,-0.139862060546875,0.006500244140625,-0.999755859375,-0.0411516986787319,-0.0142202144488692,-0.0018218684708699
1769249617801,-0.137298583984375,0.010986328125,-1.0013580322265625,-0.0278121903538703,-0.0180447809398174,0.005306614562869
1769249617811,-0.1355743408203125,0.01251220703125,-1.00299072265625,-0.0165126640349626,-0.0127807762473821,0.0114960670471191
1769249617821,-0.1377105712890625,0.0149078369140625,-1.0065460205078125,-0.0023049658630043,0.0016690030461177,0.0102912532165646
1769249617831,-0.142913818359375,0.0145721435546875,-1.0028228759765625,0.0013161342358216,0.0047329696826636,0.0116164423525333
1769249617841,-0.1430816650390625,-0.0117034912109375,-0.9961090087890624,-0.0081708440557122,-0.0121203120797872,0.0184836685657501
1769249617852,-0.1370697021484375,-0.045745849609375,-1.00115966796875,0.0060541639104485,0.0249141380190849,0.0213244631886482
1769249617862,-0.13916015625,0.047943115234375,-1.00823974609375,0.0182485114783048,0.043422307819128,0.0115487975999712
1769249617872,-0.1544647216796875,0.076324462890625,-0.9940338134765624,0.03854526206851,0.0789446160197258,-0.0127416281029582
1769249617882,-0.1717376708984375,0.001861572265625,-0.9784088134765624,0.0091932322829961,0.0074941352941095,-0.0047526773996651
1769249617892,-0.1446685791015625,-0.045501708984375,-0.963623046875,-0.0048911618068814,0.0349436029791832,0.0075303544290363
1769249617902,-0.1187896728515625,-0.02056884765625,-1.0008697509765625,-0.0015699334908276,0.0997766628861427,0.0163965504616498
1769249617912,-0.1111297607421875,0.0399627685546875,-0.9878387451171876,0.0099370526149868,0.09037996083498,0.0129719916731119
1769249617922,-0.1363525390625,0.0337066650390625,-0.972869873046875,0.0261639598757028,0.0413655489683151,0.002429868094623
1769249617932,-0.1569671630859375,0.007415771484375,-0.97869873046875,0.0615853331983089,-0.0135898450389504,-0.0020503676496446
1769249617942,-0.158111572265625,0.00628662109375,-0.9915313720703124,0.080532394349575,-0.0912292450666427,0.0054014232009649
1769249617952,-0.1477508544921875,-0.0249786376953125,-0.9865875244140624,0.0812240168452262,-0.1357138901948928,0.0168540813028812
1769249617962,-0.13922119140625,-0.0324249267578125,-0.98065185546875,0.0548773631453514,-0.116646721959114,0.034059964120388
1769249617972,-0.1274871826171875,-0.01177978515625,-0.97235107421875,0.0179398525506258,-0.0578020475804805,0.0478106662631034
1769249617982,-0.1211700439453125,-0.0061798095703125,-0.9760894775390624,-0.0122164525091648,0.001948102377355,0.0495584979653358
1769249617992,-0.1305999755859375,0.0009613037109375,-0.988983154296875,-0.0198810305446386,0.0471826903522014,0.0508424080908298
1769249618002,-0.1429595947265625,0.0153656005859375,-0.992156982421875,-0.0274199061095714,0.0361550748348236,0.0478812381625175
1769249618012,-0.1511383056640625,0.0218505859375,-0.984527587890625,-0.0392363518476486,0.0140308644622564,0.0391868166625499
1769249618022,-0.1578216552734375,0.0162200927734375,-0.988006591796875,-0.0475129224359989,0.014108894392848,0.0261463820934295
1769249618032,-0.1613922119140625,0.00616455078125,-0.99114990234375,-0.0487350486218929,0.025969548150897,0.0205372329801321
1769249618042,-0.1575469970703125,0.015838623046875,-0.9887847900390624,-0.0513332299888134,0.0229995921254158,0.0173925720155239
1769249618052,-0.1539459228515625,0.0037994384765625,-0.9839935302734376,-0.0485611446201801,0.0221119597554206,0.0116262957453727
1769249618062,-0.1484832763671875,-0.0074615478515625,-0.9853363037109376,-0.0412542298436164,0.0412971042096614,0.0078840218484401
1769249618073,-0.1423187255859375,0.0241546630859375,-0.98907470703125,-0.0269445329904556,0.0525894425809383,-0.0039518647827208
1769249618083,-0.1456146240234375,0.0220794677734375,-0.985137939453125,-0.0161478109657764,0.0335750058293342,-0.0162966810166835
1769249618093,-0.1509552001953125,-0.0034027099609375,-0.98193359375,0.0036980654112994,0.0046714507043361,-0.0180868580937385
1769249618103,-0.1466217041015625,0.00115966796875,-0.98895263671875,0.0210189986974,-0.0237378198653459,-0.016790697351098
1769249618113,-0.1464080810546875,0.002349853515625,-0.9916839599609376,0.0286007523536682,-0.0464194305241107,-0.0169683303683996
1769249618123,-0.143280029296875,0.004302978515625,-0.984649658203125,0.0204874314367771,-0.0520741194486618,-0.006141782272607
1769249618133,-0.1361236572265625,0.0157928466796875,-0.9730682373046876,0.0003121224872302,-0.0384187623858451,0.0061558969318866
1769249618143,-0.130889892578125,0.00787353515625,-0.9747772216796876,-0.0173337161540985,-0.012107528746128,0.0163030736148357
1769249618153,-0.128326416015625,-0.0012359619140625,-0.9835968017578124,-0.0284886322915554,0.0085396924987435,0.0309272892773151
1769249618163,-0.1267547607421875,-0.001953125,-0.984344482421875,-0.0329113453626632,0.015906261280179,0.0393612533807754
1769249618173,-0.134521484375,-0.0059356689453125,-0.98980712890625,-0.0319131910800933,0.0142375249415636,0.0388238281011581
1769249618183,-0.142364501953125,-0.0041046142578125,-0.9948577880859376,-0.0279658548533916,0.0332948379218578,0.0407498255372047
1769249618193,-0.147064208984375,0.0013885498046875,-0.988372802734375,-0.0316913500428199,0.0268814153969287,0.0427101776003837
1769249618203,-0.149169921875,0.010467529296875,-0.9834136962890624,-0.025938656181097,0.0198642518371343,0.0398544706404209
1769249618213,-0.151580810546875,0.014312744140625,-0.9937744140625,-0.0138172786682844,0.0068917283788323,0.0345539823174476
1769249618223,-0.1524505615234375,0.017425537109375,-0.9998779296875,0.0009584716754034,-0.0092257224023342,0.0255764666944742
1769249618234,-0.1556854248046875,0.0129241943359375,-1.001708984375,0.0103626260533928,-0.0249940324574708,0.0201209802180528
1769249618243,-0.155364990234375,0.0162353515625,-0.999267578125,0.017027985304594,-0.023854199796915,0.0142471129074692
1769249618253,-0.1548309326171875,0.01666259765625,-0.9919281005859376,0.0189630389213562,-0.0174101497977972,0.0070424629375338
1769249618264,-0.1523590087890625,0.004241943359375,-0.98651123046875,0.0093077477067708,-0.0267224237322807,0.0075993300415575
1769249618273,-0.143585205078125,-0.0267333984375,-0.9774169921875,-0.0163739137351512,-0.0269261561334133,0.0146399289369583
1769249618284,-0.1331787109375,-0.0253753662109375,-0.984161376953125,-0.0052570798434317,0.0251937694847583,0.0140883885324001
1769249618294,-0.13555908203125,0.0734710693359375,-0.9964141845703124,0.0086584696546196,0.0426880754530429,-0.0047015445306897
1769249618304,-0.1618804931640625,0.0461883544921875,-0.9911956787109376,0.0435557328164577,0.0413714088499546,-0.0320548713207244
1769249618314,-0.1773529052734375,0.004852294921875,-0.9730377197265624,0.0096656763926148,-0.065447449684143,-0.0305126346647739
1769249618324,-0.15216064453125,-0.0558319091796875,-0.969146728515625,0.0095775257796049,-0.0275578573346138,-0.0281807705760002
1769249618334,-0.1348876953125,-0.00079345703125,-0.99835205078125,0.0094238622114062,-0.0056120795197784,-0.0284942258149385
1769249618344,-0.1401519775390625,0.039947509765625,-0.9816131591796876,0.0183960516005754,-0.027787422761321,-0.0381737500429153
1769249618354,-0.158233642578125,0.0155487060546875,-0.9768829345703124,0.0259839296340942,-0.0634684562683105,-0.0491358526051044
1769249618364,-0.1605377197265625,0.0078582763671875,-0.983367919921875,0.0321323685348033,-0.0852339342236518,-0.0471275635063648
1769249618374,-0.1494598388671875,0.012420654296875,-0.9835968017578124,0.0328684672713279,-0.092910498380661,-0.0358336307108402
1769249618384,-0.135833740234375,-0.0079193115234375,-0.9863433837890624,0.0176375824958086,-0.0730371922254562,-0.0160063970834016
1769249618394,-0.123291015625,-0.0203857421875,-0.9837493896484376,-0.0002045307774096,-0.0378765426576137,-0.0001960086519829
1769249618404,-0.1273193359375,-0.017730712890625,-0.98175048828125,-0.0165033433586359,-0.0270308181643486,0.0058720037341117
1769249618414,-0.1401824951171875,-0.01104736328125,-0.98382568359375,-0.0220363270491361,-0.0186602361500263,0.0119293639436364
1769249618424,-0.1507415771484375,0.00787353515625,-0.9929351806640624,-0.0163187850266695,-0.0103884590789675,0.0140420496463775
1769249618434,-0.1639862060546875,0.0153656005859375,-1.005706787109375,-0.0119477398693561,-0.0122188497334718,0.0030855385120958
1769249618444,-0.1715087890625,0.012054443359375,-1.002288818359375,-0.0161009393632411,-0.0151051832363009,-0.0089988214895129
1769249618454,-0.1754150390625,0.0035552978515625,-0.9914703369140624,-0.0223740153014659,-0.0081868236884474,-0.0137823913246393
1769249618464,-0.1699371337890625,0.0043792724609375,-0.9921112060546876,-0.0170218609273433,0.0009701895760372,-0.0164199862629175
1769249618474,-0.1670684814453125,0.00750732421875,-0.993133544921875,-0.0063452473841607,-0.0054176687262952,-0.0242126621305942
1769249618484,-0.165924072265625,-0.00299072265625,-0.99517822265625,0.0061788000166416,-0.0099807288497686,-0.0342527776956558
1769249618495,-0.1611785888671875,0.00115966796875,-0.9964447021484376,0.0245080068707466,-0.0072627067565917,-0.0441948920488357
1769249618505,-0.154449462890625,0.0224761962890625,-0.9912261962890624,0.0407186672091484,-0.0244273114949464,-0.0475731119513511
1769249618515,-0.148468017578125,0.0089874267578125,-0.98651123046875,0.0486053526401519,-0.0512357577681541,-0.0452250018715858
1769249618525,-0.13885498046875,-0.0048828125,-0.977996826171875,0.0403769835829734,-0.0531582944095134,-0.0334538295865058
1769249618535,-0.129364013671875,0.008270263671875,-0.9691314697265624,0.0248494241386652,-0.0199034009128808,-0.0236757677048444
1769249618545,-0.134674072265625,0.0042572021484375,-0.967803955078125,0.0078773638233542,0.0086882971227169,-0.0174831189215183
1769249618556,-0.1427154541015625,0.0008544921875,-0.9687042236328124,0.0010229201288893,0.0154183711856603,-0.0056941048242151
1769249618565,-0.1453399658203125,0.0081787109375,-0.9733734130859376,-0.0080070598050951,0.0101027013733983,0.002110022585839
1769249618575,-0.145294189453125,0.0041961669921875,-0.975982666015625,-0.0154942711815238,0.0148425959050655,0.0117298932746052
1769249618585,-0.144317626953125,0.0029144287109375,-0.97674560546875,-0.0276454761624336,0.01852548122406,0.0197902154177427
1769249618595,-0.1438446044921875,0.0016937255859375,-0.977081298828125,-0.0383753515779972,0.0132473623380064,0.0260289367288351
1769249618605,-0.1436309814453125,0.0001220703125,-0.9776611328125,-0.0464806817471981,0.0193742308765649,0.0299403220415115
1769249618615,-0.14251708984375,0.0078887939453125,-0.9793853759765624,-0.0536371283233165,0.0411807261407375,0.0318620577454566
1769249618625,-0.14227294921875,0.0101165771484375,-0.984100341796875,-0.0573133565485477,0.0615664236247539,0.0349539890885353
1769249618635,-0.143524169921875,0.0074615478515625,-0.9857025146484376,-0.0599315091967582,0.0669071301817894,0.0383047796785831
1769249618645,-0.14459228515625,0.01116943359375,-0.9854583740234376,-0.0576835349202156,0.0639523491263389,0.0374762676656246
1769249618655,-0.147216796875,0.0108489990234375,-0.9903717041015624,-0.0552518032491207,0.0604979656636714,0.0360070019960403
1769249618665,-0.1484375,0.00830078125,-0.9940643310546876,-0.0466399416327476,0.0626351535320282,0.0334173440933227
1769249618675,-0.1513824462890625,0.0157012939453125,-1.0000152587890625,-0.0305198263376951,0.0507460013031959,0.0323363691568374
1769249618685,-0.153350830078125,0.0180511474609375,-1.0047149658203125,-0.0200597289949655,0.0393383502960205,0.0223939884454011
1769249618696,-0.1615142822265625,0.0081939697265625,-0.99462890625,-0.0309246256947517,0.0425754226744174,0.0197787638753652
1769249618705,-0.151519775390625,-0.0285797119140625,-0.9855194091796876,-0.0439384281635284,0.0696331411600112,0.0221481788903474
1769249618716,-0.1388397216796875,-0.00384521484375,-0.99371337890625,-0.0338945835828781,0.1092822849750518,0.0225830730050802
1769249618726,-0.1364898681640625,0.0562744140625,-0.993194580078125,-0.0065375277772545,0.1385685354471206,0.0063886572606861
1769249618736,-0.1572418212890625,0.0323333740234375,-0.9908447265625,0.0107724862173199,0.1172094494104385,-0.001348891062662
1769249618746,-0.15716552734375,-0.0055389404296875,-0.97222900390625,-0.0226493850350379,0.0266188271343708,-0.001040230737999
1769249618756,-0.1426849365234375,-0.0500640869140625,-0.9918212890625,-0.0190360099077224,0.0738135054707527,0.0109447930008172
1769249618766,-0.1287841796875,0.020233154296875,-1.0023040771484375,-0.0210261885076761,0.0671617239713668,0.0177560932934284
1769249618776,-0.1331634521484375,0.003631591796875,-0.9815216064453124,-0.0214498974382877,0.0607893131673336,0.0144921233877539
1769249618786,-0.1458282470703125,0.0005340576171875,-0.975555419921875,-0.0201782379299402,0.0531252697110176,0.0102734100073575
1769249618796,-0.14794921875,0.015350341796875,-0.98095703125,-0.0135006289929151,0.0223894622176885,0.0084307687357068
1769249618806,-0.147674560546875,0.007110595703125,-0.991241455078125,-0.0015073491958901,-0.0206578746438026,0.0143720153719186
1769249618816,-0.148590087890625,-0.018768310546875,-0.9994049072265624,0.0066326027736067,-0.0573794022202491,0.0226616356521844
1769249618826,-0.1434783935546875,-0.0185394287109375,-0.9999237060546876,0.0090723242610692,-0.0607248656451702,0.0316577963531017
1769249618836,-0.138671875,-0.00946044921875,-0.99737548828125,0.0030868700705468,-0.04379728063941,0.0386011898517608
1769249618846,-0.1357269287109375,0.00592041015625,-0.993133544921875,-0.0088856369256973,-0.0191332139074802,0.0435221754014492
1769249618856,-0.1395111083984375,0.0230712890625,-0.9903717041015624,-0.0196011308580636,0.0148021159693598,0.0416062995791435
1769249618866,-0.1482391357421875,0.02618408203125,-0.98931884765625,-0.0223479159176349,0.0385623052716255,0.0384754873812198
1769249618876,-0.1500091552734375,0.0220184326171875,-0.9939727783203124,-0.0183702185750007,0.0226296782493591,0.03240267932415
1769249618886,-0.1504974365234375,0.0084991455078125,-0.9980316162109376,-0.006393717136234,0.0123410886153578,0.029444707557559
1769249618896,-0.14959716796875,0.0073089599609375,-0.9945526123046876,-0.0021646174136549,0.0048530786298215,0.0250148065388202
1769249618907,-0.14483642578125,-0.0010986328125,-0.986053466796875,-0.0002620550512801,0.0005344964447431,0.0281964838504791
1769249618917,-0.1410064697265625,-0.0155029296875,-0.98492431640625,-0.0054086139425635,0.0074485950171947,0.0315528661012649
1769249618927,-0.133056640625,0.0067596435546875,-0.9862213134765624,-0.011290737427771,0.0089604714885354,0.0343068391084671
1769249618937,-0.13470458984375,0.0171051025390625,-0.9848480224609376,-0.0213777273893356,0.0057420413941144,0.0291139427572488
1769249618947,-0.145111083984375,-0.0006866455078125,-0.9814605712890624,-0.0280079320073127,0.0098198736086487,0.0264467876404523
1769249618957,-0.143157958984375,0.0024871826171875,-0.9808502197265624,-0.0271354801952838,0.0108316084370017,0.0260212142020463
1769249618967,-0.1378631591796875,0.015869140625,-0.9774017333984376,-0.0321107991039752,0.0189910009503364,0.0323100015521049
1769249618977,-0.13018798828125,0.01910400390625,-0.9719390869140624,-0.0431509315967559,0.0407511591911315,0.036933783441782
1769249618987,-0.127471923828125,0.01416015625,-0.9731597900390624,-0.0440140627324581,0.0533481761813163,0.0369902402162551
1769249618997,-0.13104248046875,0.0082244873046875,-0.977691650390625,-0.0440106019377708,0.0375266037881374,0.0369146093726158
1769249619007,-0.134063720703125,0.0072174072265625,-0.97723388671875,-0.0422622337937355,0.0159760378301143,0.0351888798177242
1769249619017,-0.137969970703125,0.011505126953125,-0.97967529296875,-0.0444585457444191,0.0040557282045483,0.0351369492709636
1769249619027,-0.1384429931640625,0.011566162109375,-0.9795074462890624,-0.049247708171606,-0.0086163915693759,0.0369351133704185
1769249619037,-0.1388702392578125,0.0105743408203125,-0.9809722900390624,-0.0557271763682365,-0.0207444261759519,0.0384416654706001
1769249619047,-0.138946533203125,0.012603759765625,-0.9819488525390624,-0.0642042830586433,-0.0231551211327314,0.037066675722599
1769249619057,-0.14251708984375,0.0112457275390625,-0.9828643798828124,-0.072783924639225,-0.0240667201578617,0.0348117761313915
1769249619067,-0.1455230712890625,0.022613525390625,-0.9827880859375,-0.0784095898270607,-0.0199084598571062,0.0343702249228954
1769249619077,-0.144561767578125,0.0277252197265625,-0.9914093017578124,-0.0840472355484962,-0.0099359871819615,0.0236770994961261
1769249619088,-0.1495208740234375,0.01861572265625,-0.994598388671875,-0.0917112752795219,0.002609631512314,0.0173193346709013
1769249619097,-0.1526947021484375,0.02288818359375,-0.99346923828125,-0.0908830314874649,0.0106915263459086,0.0080755036324262
1769249619108,-0.1531829833984375,0.02716064453125,-0.99957275390625,-0.0815625041723251,0.0153182363137602,-0.0015363775892183
1769249619117,-0.150909423828125,0.0270538330078125,-1.0050201416015625,-0.0683199316263198,0.0168381016701459,-0.0080494042485952
1769249619127,-0.1468505859375,0.011627197265625,-1.0042877197265625,-0.0682549551129341,0.001947037060745,-0.0094534223899245
1769249619138,-0.136505126953125,-0.0283660888671875,-1.0069732666015625,-0.0549290291965007,0.0245676599442958,-0.0099040297791361
1769249619148,-0.1309661865234375,0.029815673828125,-1.01885986328125,-0.0298817325383424,0.046571496874094,-0.0174567550420761
1769249619158,-0.13751220703125,0.081817626953125,-1.0163726806640625,0.022268021479249,0.0889953896403312,-0.0364432297646999
1769249619168,-0.161590576171875,0.061370849609375,-1.00482177734375,0.0409666076302528,0.0275794304907321,-0.0454348586499691
1769249619178,-0.15118408203125,0.0018310546875,-0.9801483154296876,0.0325033478438854,-0.0038978024385869,-0.0480447560548782
1769249619188,-0.1291046142578125,-0.0289306640625,-1.0080718994140625,0.0491678118705749,0.0321712531149387,-0.0348067171871662
1769249619198,-0.1106719970703125,0.05596923828125,-1.0045928955078125,0.0636013448238372,0.0262294728308916,-0.0275410804897546
1769249619208,-0.12384033203125,0.047210693359375,-0.98687744140625,0.0802674070000648,0.0147443246096372,-0.0361827723681926
1769249619218,-0.1475067138671875,0.0131378173828125,-0.983795166015625,0.0929919928312301,-0.0214930418878793,-0.0381156951189041
1769249619228,-0.1487274169921875,0.0129852294921875,-0.984954833984375,0.0909163206815719,-0.0616609677672386,-0.0260174851864576
1769249619238,-0.1378936767578125,-0.0033416748046875,-0.9883880615234376,0.079587236046791,-0.0725516974925994,-0.0084321005269885
1769249619248,-0.1254119873046875,-0.02105712890625,-0.990814208984375,0.0596076697111129,-0.0390890799462795,0.0118992701172828
1769249619258,-0.1192169189453125,-0.0104827880859375,-0.9808349609375,0.0300710834562778,0.0045561357401311,0.028189294040203
1769249619268,-0.1217041015625,0.0017547607421875,-0.978668212890625,0.0124321682378649,0.0364261828362941,0.0363502837717533
1769249619278,-0.12689208984375,0.0152130126953125,-0.9846343994140624,0.0041816956363618,0.051903411746025,0.0353188402950763
1769249619289,-0.1393585205078125,0.0284271240234375,-0.9938201904296876,0.0089780483394861,0.0428763590753078,0.0266044456511735
1769249619298,-0.1535186767578125,0.0290374755859375,-0.99615478515625,0.0092861764132976,0.0300508439540863,0.0131679996848106
1769249619308,-0.1570892333984375,0.02593994140625,-0.989959716796875,0.0081918835639953,0.0262869969010353,0.00819081813097
1769249619319,-0.1561126708984375,0.0224761962890625,-0.9851226806640624,0.0127163277938961,0.0269690323621034,0.0083109270781278
1769249619329,-0.1497344970703125,0.0257720947265625,-0.9881439208984376,0.0154631119221448,0.0177014991641044,0.0153400739654898
1769249619339,-0.1416015625,0.0150909423828125,-0.9803314208984376,0.0095564872026443,0.0113639747723937,0.0211055520921945
1769249619349,-0.13494873046875,0.0001068115234375,-0.97247314453125,0.0027345337439328,0.0257937796413898,0.0189947299659252
1769249619359,-0.1320953369140625,0.0207977294921875,-0.9729461669921876,-0.0001280980504816,0.0301200859248638,0.014403972774744
1769249619369,-0.1355743408203125,0.022674560546875,-0.9715423583984376,0.0041500041261315,0.0082669844850897,0.0108097707852721
1769249619379,-0.1375274658203125,0.004119873046875,-0.971466064453125,0.0071838768199086,-0.0111735584214329,0.0101948464289307
1769249619389,-0.1339111328125,0.0088348388671875,-0.9724273681640624,0.0036277580074965,-0.0224946569651365,0.0140814641490578
1769249619399,-0.1342010498046875,0.015472412109375,-0.9695587158203124,-0.0048147290945053,-0.0341971181333065,0.0112846121191978
1769249619409,-0.1386566162109375,0.015899658203125,-0.9662628173828124,-0.0176956392824649,-0.0404108054935932,0.0026929883752018
1769249619419,-0.1496124267578125,0.0211944580078125,-0.9661712646484376,-0.0226059760898351,-0.0454321950674057,-0.0071601746603846
1769249619430,-0.1500396728515625,0.01763916015625,-0.97589111328125,-0.028218587860465,-0.0474993400275707,-0.013792511075735
1769249619439,-0.147979736328125,0.01007080078125,-0.9808502197265624,-0.0382517799735069,-0.0425160340964794,-0.0157802943140268
1769249619450,-0.1439666748046875,0.0099029541015625,-0.978729248046875,-0.0506208315491676,-0.028636971488595,-0.0177214723080396
1769249619459,-0.1348724365234375,0.013885498046875,-0.9789581298828124,-0.065942533314228,-0.006973753683269,-0.0173627454787492
1769249619469,-0.130859375,0.015289306640625,-0.9774169921875,-0.0782551243901252,0.0067732175812125,-0.0167853720486164
1769249619479,-0.1325836181640625,0.0179290771484375,-0.9814300537109376,-0.0848198160529136,0.0065902583301067,-0.0134361805394291
1769249619489,-0.13421630859375,0.02288818359375,-0.9897003173828124,-0.0842261984944343,0.0086321039125323,-0.0020897823851555
1769249619499,-0.1329193115234375,0.0220794677734375,-0.994720458984375,-0.0772425904870033,0.0110180303454399,0.0075529911555349
1769249619509,-0.135894775390625,0.017730712890625,-0.99591064453125,-0.0726888477802276,0.0087847029790282,0.0156926773488521
1769249619520,-0.139434814453125,0.020294189453125,-0.993316650390625,-0.0650120228528976,0.0034400052390992,0.0209769215434789
1769249619529,-0.143310546875,0.022308349609375,-0.9973297119140624,-0.0563855096697807,0.0065263425931334,0.0191089790314435
1769249619540,-0.1458282470703125,0.0181427001953125,-0.9999847412109376,-0.0535497777163982,0.0237673800438642,0.018474081531167
1769249619550,-0.140777587890625,0.0241546630859375,-0.999755859375,-0.0575655587017536,0.0385117046535015,0.0221854634582996
1769249619560,-0.1357421875,0.008148193359375,-0.997772216796875,-0.0820711702108383,0.0443277843296527,0.0278851613402366
1769249619570,-0.127777099609375,-0.03009033203125,-1.0025634765625,-0.0750902220606803,0.0969121679663658,0.0357380248606205
1769249619580,-0.125701904296875,0.048797607421875,-1.0143280029296875,-0.0491419807076454,0.1091334074735641,0.0265988539904356
1769249619590,-0.1445465087890625,0.0988616943359375,-1.00811767578125,-0.0227801464498043,0.0906310975551605,0.0014753912109881
1769249619600,-0.1690216064453125,-0.0163421630859375,-1.0013275146484375,-0.0020495688077062,0.0271120443940162,-0.0021638183388859
1769249619610,-0.151580810546875,-0.035614013671875,-1.0020599365234375,0.0242691207677125,0.031544342637062,0.0084073329344391
1769249619620,-0.1252593994140625,0.0277557373046875,-1.022430419921875,0.0663497298955917,0.0707300975918769,-0.0018932411912828
