timestamp_ms,acc_x,acc_y,acc_z,gyro_x,gyro_y,gyro_z
1769246870671,-0.0004425048828125,-0.150726318359375,-1.0059814453125,-0.0310703013092279,0.0713881626725196,0.0050837080925703
1769246870684,-0.047882080078125,-0.16387939453125,-0.950897216796875,-0.0472335591912269,-0.0046104644425213,-0.0166961550712585
1769246870689,-0.032501220703125,-0.1728973388671875,-0.950225830078125,-0.0416228100657463,-0.0413759350776672,-0.0204983502626419
1769246870699,-0.0096588134765625,-0.167205810546875,-0.9614715576171876,-0.0404464937746524,-0.0466628447175025,-0.026851586997509
1769246870709,-0.002288818359375,-0.163818359375,-0.97491455078125,-0.0370821207761764,-0.0376187488436698,-0.020929517224431
1769246870719,0.01715087890625,-0.1648101806640625,-0.9916229248046876,-0.0181174855679273,-0.0142223453149199,-0.008046475239098
1769246870730,0.0184783935546875,-0.1334991455078125,-1.0097198486328125,-0.035025093704462,-0.022374814376235,-0.0165946893393993
1769246870740,-0.0002593994140625,-0.149139404296875,-0.989898681640625,-0.0354357548058033,-0.0265210904181003,-0.014633803628385
1769246870750,-0.0035400390625,-0.1605987548828125,-0.9890594482421876,-0.0400984175503253,-0.0242683216929435,-0.0282849017530679
1769246870760,-0.011932373046875,-0.1700286865234375,-0.9763031005859376,-0.0377662889659404,-0.0350948721170425,-0.0261698178946971
1769246870770,0.00372314453125,-0.1632843017578125,-0.9805755615234376,-0.0278124567121267,-0.0392006672918796,-0.027058782055974
1769246870780,0.0054779052734375,-0.1524658203125,-0.986358642578125,-0.0253847185522317,-0.0436534695327281,-0.0146852023899555
1769246870790,0.00518798828125,-0.1483154296875,-0.9840240478515624,-0.027919515967369,-0.0530083552002906,0.0030541131272912
1769246870800,0.01092529296875,-0.151885986328125,-0.9803009033203124,-0.0292777270078659,-0.0542701631784439,0.0208189953118562
1769246870810,0.0137481689453125,-0.155975341796875,-0.9818572998046876,-0.0264505166560411,-0.0382525809109211,0.0143579002469778
1769246870820,-0.0103912353515625,-0.1358642578125,-0.9850311279296876,-0.0320412889122962,-0.0227156989276409,0.0085721826180815
1769246870830,-0.0059967041015625,-0.1682281494140625,-0.9883270263671876,-0.0294004995375871,0.0276555959135293,0.0124532077461481
1769246870840,0.0104217529296875,-0.175323486328125,-1.0042572021484375,-0.0251764599233865,0.0487670078873634,0.0115698371082544
1769246870850,0.0046234130859375,-0.1653900146484375,-1.0004425048828125,-0.0070925303734838,0.0376067645847797,0.0077114491723477
1769246870860,-0.014801025390625,-0.1474609375,-0.9984893798828124,0.0069638998247683,0.0221878606826066,-0.0017281252657994
1769246870870,-0.0267486572265625,-0.1410064697265625,-0.9902496337890624,0.0278492085635662,0.0054845139384269,-0.0024732777383178
1769246870880,-0.0184173583984375,-0.1350555419921875,-0.9900360107421876,0.0447557531297206,-0.0073854783549904,0.0124401580542325
1769246870891,0.0028076171875,-0.141754150390625,-0.9895172119140624,0.0549607202410697,-0.0205638650804758,0.0220592301338911
1769246870901,0.0093536376953125,-0.1569061279296875,-0.981536865234375,0.0556677877902984,-0.0344125665724277,0.0306130368262529
1769246870911,0.017822265625,-0.156341552734375,-0.9763336181640624,0.0493534356355667,-0.0363534800708293,0.0363012813031673
1769246870921,0.016357421875,-0.1573638916015625,-0.97381591796875,0.0292745325714349,-0.0277679823338985,0.0370783917605876
1769246870931,0.007781982421875,-0.164337158203125,-0.9687652587890624,0.0082211783155798,-0.0257652848958969,0.0310154408216476
1769246870941,0.0009002685546875,-0.165802001953125,-0.9656982421875,-0.0155363492667675,-0.0357798337936401,0.0205833055078983
1769246870951,-0.012451171875,-0.1659088134765625,-0.9636688232421876,-0.0398068018257617,-0.0378501750528812,0.0122516062110662
1769246870961,-0.0109710693359375,-0.163055419921875,-0.9654083251953124,-0.0503712929785251,-0.0380136929452419,0.0123983463272452
1769246870971,-0.002349853515625,-0.1627349853515625,-0.9732208251953124,-0.0571410506963729,-0.0170325133949518,0.0080467415973544
1769246870981,-0.0043487548828125,-0.1632080078125,-0.981689453125,-0.0590822286903858,-0.0229995921254158,-0.0019686087034642
1769246870991,-0.0089111328125,-0.159942626953125,-0.9808807373046876,-0.0518088676035404,-0.0260409209877252,-0.0065215486101806
1769246871001,-0.0083160400390625,-0.159332275390625,-0.9853668212890624,-0.0473028011620044,-0.0277799665927886,-0.0065132929012179
1769246871011,-0.002899169921875,-0.15655517578125,-0.9879150390625,-0.0438169874250888,-0.0377990454435348,-0.0046229814179241
1769246871021,-0.0043487548828125,-0.1568145751953125,-0.985076904296875,-0.0521777160465717,-0.045111283659935,-0.0084970816969871
1769246871031,-0.015533447265625,-0.155029296875,-0.9775848388671876,-0.0580324120819568,-0.0490652807056903,-0.0095130773261189
1769246871041,-0.012451171875,-0.154205322265625,-0.9801177978515624,-0.0593243092298507,-0.047009851783514,0.0019869843963533
1769246871051,0.0027313232421875,-0.1432037353515625,-0.9924774169921876,-0.0499603673815727,-0.0463584437966346,0.0128151308745145
1769246871061,0.0084075927734375,-0.1472015380859375,-1.0017547607421875,-0.0440058074891567,-0.0389588512480258,0.0303893312811851
1769246871071,0.014404296875,-0.1576080322265625,-1.001739501953125,-0.0370054207742214,-0.0186780802905559,0.0356056652963161
1769246871081,0.0061187744140625,-0.15277099609375,-1.003570556640625,-0.0272942055016756,-0.0227804128080606,0.0309089142829179
1769246871091,-0.0106658935546875,-0.15399169921875,-0.9995269775390624,-0.0175313223153352,-0.0246281139552593,0.0210022199898958
1769246871102,-0.02252197265625,-0.1507568359375,-0.9921112060546876,0.0020980383269488,-0.0492644868791103,0.0142385903745889
1769246871112,-0.0194854736328125,-0.149993896484375,-0.99554443359375,0.0156346205621957,-0.0522102080285549,0.0008173241512849
1769246871122,-0.0245208740234375,-0.1602630615234375,-0.9924774169921876,0.0176413115113973,-0.04319753870368,-0.0115376124158501
1769246871132,-0.0181121826171875,-0.1620025634765625,-0.9910430908203124,0.0223170239478349,-0.0436790362000465,-0.0099940448999404
1769246871142,0.001434326171875,-0.15911865234375,-0.9925689697265624,0.0302010457962751,-0.0396787039935588,-0.0071220914833247
1769246871152,0.0050201416015625,-0.1551513671875,-0.996337890625,0.0358360297977924,-0.0310322176665067,0.0014468954177573
1769246871162,0.00262451171875,-0.1582794189453125,-0.994232177734375,0.0315739065408706,-0.0190312154591083,0.0012263857061043
1769246871172,-0.002777099609375,-0.156646728515625,-0.988006591796875,0.021681860089302,-0.0051947617903351,0.0047798412851989
1769246871182,-0.00286865234375,-0.15283203125,-0.9850311279296876,0.0049505499191582,-0.0231303535401821,0.002225070958957
1769246871192,-0.0189056396484375,-0.151153564453125,-0.973052978515625,-0.0028628981672227,-0.059893425554037,0.0070643010549247
1769246871202,-0.0147552490234375,-0.15264892578125,-0.9765777587890624,-0.0026320021133869,-0.0746926143765449,0.0133656067773699
1769246871212,-0.007781982421875,-0.1561737060546875,-0.983001708984375,-0.003818972967565,-0.071779116988182,0.0047034085728228
1769246871222,-0.017242431640625,-0.16363525390625,-0.9793701171875,-0.0103772729635238,-0.0469912104308605,-0.0106356004253029
1769246871232,-0.0149993896484375,-0.163299560546875,-0.97576904296875,-0.0137230027467012,-0.0356400199234485,-0.0133110117167234
1769246871242,-0.0053863525390625,-0.16357421875,-0.9773101806640624,-0.019522301852703,-0.0379814691841602,-0.0208200607448816
1769246871252,-0.0117950439453125,-0.1625213623046875,-0.9715118408203124,-0.0237556621432304,-0.0672557353973388,-0.023053653538227
1769246871262,-0.0133819580078125,-0.159088134765625,-0.9734954833984376,-0.036395825445652,-0.0634644627571106,-0.0426715649664402
1769246871272,-0.032073974609375,-0.15869140625,-0.971954345703125,-0.0328873768448829,-0.0574955157935619,-0.0211569499224424
1769246871282,0.0045928955078125,-0.148284912109375,-0.992462158203125,-0.0270321499556303,-0.0469890795648098,-0.0113011235371232
1769246871292,-0.0051727294921875,-0.148284912109375,-0.9971923828125,-0.0167723223567008,-0.0563354454934597,0.0021638183388859
1769246871302,-0.0003509521484375,-0.1468963623046875,-0.9959564208984376,-0.015411446802318,-0.0384693630039691,0.01161031704396
1769246871312,-0.0015869140625,-0.1502532958984375,-0.991607666015625,-0.0143634928390383,-0.0520051456987857,0.0119930133223533
1769246871322,-0.0143890380859375,-0.154205322265625,-0.9801788330078124,-0.0241543389856815,-0.0526485629379749,0.003206179710105
1769246871333,-0.0220947265625,-0.154266357421875,-0.9738311767578124,-0.020129770040512,-0.0339811369776725,0.0092020202428102
1769246871343,-0.008453369140625,-0.151947021484375,-0.9829559326171876,-0.0202493444085121,-0.0121887559071183,0.0088997520506381
1769246871353,-0.01715087890625,-0.15423583984375,-0.988311767578125,-0.0248507540673017,0.0026660906150937,-0.0013880395563319
1769246871363,-0.0224151611328125,-0.155364990234375,-0.984466552734375,-0.0323984213173389,-0.0033811493776738,-0.002886067610234
1769246871373,-0.0236663818359375,-0.1572418212890625,-0.9802703857421876,-0.0391769632697105,0.0037582528311759,-0.0063905213028192
1769246871383,-0.02166748046875,-0.15771484375,-0.980560302734375,-0.037559624761343,0.0005547364708036,-0.0017105482984334
1769246871393,-0.0131072998046875,-0.1524658203125,-0.9891357421875,-0.0343611687421798,-0.0066504459828138,0.0045982138253748
1769246871403,-0.011383056640625,-0.15338134765625,-0.991973876953125,-0.0344173610210418,-0.0085785742849111,0.0113008581101894
1769246871413,-0.0098724365234375,-0.15118408203125,-0.9904937744140624,-0.0310268923640251,-0.0222901254892349,0.0178652834147214
1769246871423,-0.009521484375,-0.148895263671875,-0.98895263671875,-0.0256856549531221,-0.0247713923454284,0.0184226837009191
1769246871433,-0.0128326416015625,-0.1502685546875,-0.9880828857421876,-0.0207106042653322,-0.0294508337974548,0.0199268367141485
1769246871443,-0.0117340087890625,-0.160308837890625,-0.986297607421875,-0.0182354636490345,-0.0255516991019248,0.0243948213756084
1769246871453,-0.0037689208984375,-0.1671600341796875,-0.9889068603515624,-0.0128931617364287,-0.0256726071238517,0.0178034976124763
1769246871463,-0.01226806640625,-0.14910888671875,-0.9933624267578124,0.0040948763489723,-0.009557019919157,0.010106430388987
1769246871473,-0.03387451171875,-0.1366119384765625,-0.9979400634765624,0.011666509322822,-0.0056720003485679,0.015819177031517
1769246871484,-0.0300140380859375,-0.14306640625,-0.9931488037109376,0.0208746548742055,-0.0172021556645631,0.0302764121443033
1769246871493,-0.0181427001953125,-0.14447021484375,-0.9948577880859376,0.0403207913041114,-0.0302037093788385,0.0395221076905727
1769246871503,-0.0143280029296875,-0.14349365234375,-1.000091552734375,0.0574640929698944,-0.0339025743305683,0.0441189929842948
1769246871513,-0.007781982421875,-0.15496826171875,-1.0013580322265625,0.0589637160301208,-0.0342850014567375,0.0437607951462268
1769246871523,-0.0064544677734375,-0.1737213134765625,-0.9984893798828124,0.0612159520387649,-0.0324474200606346,0.041737325489521
1769246871534,-0.00457763671875,-0.1783905029296875,-1.00225830078125,0.0578454546630382,0.0125951543450355,0.0216666795313358
1769246871543,-0.0277252197265625,-0.1684417724609375,-1.001922607421875,0.0625147745013237,0.0330000258982181,0.013782924041152
1769246871554,-0.0312957763671875,-0.1474151611328125,-1.0037384033203125,0.0840650796890258,0.0283978190273046,0.016516925767064
1769246871564,-0.0348663330078125,-0.1331939697265625,-1.0014495849609375,0.1097363531589508,0.0092683332040905,0.0237343572080135
1769246871574,-0.0325164794921875,-0.1343536376953125,-1.0000762939453125,0.1213898137211799,-0.014911837875843,0.0292471013963222
1769246871584,-0.0308990478515625,-0.14410400390625,-0.994049072265625,0.1227927654981613,0.0011187939671799,0.0251740626990795
1769246871594,-0.0322723388671875,-0.1538543701171875,-0.984466552734375,0.1159111559391021,0.0123964818194508,0.0153563190251588
1769246871604,-0.0269317626953125,-0.1677093505859375,-0.9670562744140624,0.1135047227144241,-0.0033095101825892,0.0148862712085247
1769246871614,-0.021728515625,-0.168426513671875,-0.9625091552734376,0.1080231368541717,-0.0103450492024421,0.0076997312717139
1769246871624,-0.0260467529296875,-0.1698150634765625,-0.9605560302734376,0.0886339917778968,-0.0135885132476687,0.0033691651187837
1769246871634,-0.0248260498046875,-0.166595458984375,-0.9598388671875,0.0696978569030761,-0.0274950079619884,0.0107043096795678
1769246871644,-0.0180206298828125,-0.1656951904296875,-0.9673004150390624,0.05637938529253,-0.0318916216492652,0.0155549915507435
1769246871654,-0.018798828125,-0.1667633056640625,-0.973175048828125,0.0454431138932704,-0.0274633150547742,0.0136953061446547
1769246871664,-0.021453857421875,-0.1674041748046875,-0.9740447998046876,0.0332825891673564,-0.022914370521903,0.0126612000167369
1769246871674,-0.01788330078125,-0.1657562255859375,-0.9701995849609376,0.0260236114263534,-0.0270380098372697,0.0093093458563089
1769246871684,-0.01885986328125,-0.16571044921875,-0.9686126708984376,0.0237828269600868,-0.0091500887647271,0.0042804987169802
1769246871694,-0.02337646484375,-0.16131591796875,-0.971038818359375,0.0073300846852362,0.0116364164277911,-0.0079798959195613
1769246871704,-0.026763916015625,-0.1587982177734375,-0.9683685302734376,-0.0101897865533828,0.0129975574091076,-0.0041244374588131
1769246871714,-0.0240478515625,-0.1593780517578125,-0.962310791015625,-0.0336977764964103,0.0072001223452389,-0.0058906460180878
1769246871724,-0.0287017822265625,-0.163543701171875,-0.9534454345703124,-0.0604012906551361,0.015019429847598,-0.0156972035765647
1769246871735,-0.0341949462890625,-0.1710968017578125,-0.9542083740234376,-0.0833915621042251,0.0177699420601129,-0.0205113999545574
1769246871745,-0.02813720703125,-0.1685791015625,-0.96295166015625,-0.0931227505207061,0.0467278249561786,-0.0192282889038324
1769246871755,-0.0214385986328125,-0.1707305908203125,-0.981781005859375,-0.1065722480416297,0.0467097163200378,-0.0145722851157188
1769246871765,-0.0141143798828125,-0.1780548095703125,-0.98516845703125,-0.1074052825570106,0.0309922713786363,-0.0158583261072635
1769246871775,-0.027984619140625,-0.1752777099609375,-0.99267578125,-0.1021202430129051,0.0425416007637977,-0.0306516531854867
1769246871785,-0.0322265625,-0.162445068359375,-0.9951171875,-0.0898510590195655,0.0207526832818985,-0.0294223371893167
1769246871795,-0.03009033203125,-0.1654205322265625,-0.9942169189453124,-0.0718305110931396,0.015565644018352,-0.0417929850518703
1769246871805,-0.037261962890625,-0.161651611328125,-0.9878082275390624,-0.0528432391583919,-0.0152695002034306,-0.0394267663359642
1769246871815,-0.0150146484375,-0.1480865478515625,-0.9882049560546876,-0.0385652370750904,-0.0363164618611335,-0.0583088472485542
1769246871825,-0.0344085693359375,-0.168975830078125,-0.9861907958984376,-0.0239151865243911,-0.0573114939033985,-0.0642016232013702
1769246871835,-0.0270843505859375,-0.1504364013671875,-0.984283447265625,-0.0250651389360427,-0.0551354251801967,-0.0609256699681282
1769246871845,-0.01922607421875,-0.15020751953125,-0.98162841796875,-0.0221180859953165,-0.0560392998158931,-0.0667345523834228
1769246871855,-0.0271148681640625,-0.1631317138671875,-0.9893646240234376,-0.0268555823713541,-0.0352250970900058,-0.0661545172333717
1769246871865,-0.0229949951171875,-0.156707763671875,-0.9883880615234376,-0.0294359195977449,-0.0400938913226127,-0.05872642993927
1769246871875,-0.0146636962890625,-0.1629486083984375,-0.9921112060546876,-0.020315658301115,-0.0340072363615036,-0.0503622405230999
1769246871885,-0.01446533203125,-0.1606597900390625,-0.998138427734375,-0.0164090674370527,-0.0188370700925588,-0.0434436127543449
1769246871895,-0.01580810546875,-0.1611785888671875,-1.0030517578125,-0.0149339418858289,-0.0222310032695531,-0.0428606495261192
1769246871905,-0.021209716796875,-0.167938232421875,-0.9966888427734376,-0.0022935143206268,-0.0241748448461294,-0.035499669611454
1769246871915,-0.01812744140625,-0.1620330810546875,-0.9953155517578124,0.006770288106054,-0.0369700007140636,-0.0270963329821825
1769246871925,-0.016571044921875,-0.161865234375,-0.991943359375,0.0163877625018358,-0.045052696019411,-0.0277293659746646
1769246871935,-0.02716064453125,-0.1563568115234375,-0.9908294677734376,0.0108361365273594,-0.0238904189318418,-0.0370256602764129
1769246871945,-0.038543701171875,-0.1690826416015625,-0.9878692626953124,0.0158580597490072,-0.0263301413506269,-0.0320985466241836
1769246871956,-0.0239410400390625,-0.15576171875,-0.9872283935546876,0.0163006763905286,-0.024443557485938,-0.0170183982700109
1769246871966,-0.0148773193359375,-0.16168212890625,-0.987884521484375,0.0243924241513013,-0.021181184798479,-0.0046946201473474
1769246871976,-0.010955810546875,-0.15716552734375,-0.9876556396484376,0.0361763797700405,-0.0155227668583393,0.0046317698433995
1769246871986,-0.0104217529296875,-0.1560821533203125,-0.99249267578125,0.0445435009896755,-0.0137986363843083,0.0127959558740258
1769246871996,-0.009918212890625,-0.1534271240234375,-0.99468994140625,0.0608031637966632,-0.0201295036822557,0.0283051412552595
1769246872006,-0.0084075927734375,-0.1513671875,-0.997161865234375,0.0710017383098602,-0.0300742797553539,0.0433903522789478
1769246872016,-0.0096588134765625,-0.154022216796875,-0.9944610595703124,0.0815683603286743,-0.0523092783987522,0.0496029742062091
1769246872026,-0.0179901123046875,-0.15625,-0.9854583740234376,0.0916015580296516,-0.0692781433463096,0.0584747605025768
1769246872036,-0.0206146240234375,-0.1594390869140625,-0.9798126220703124,0.0935760214924812,-0.0793116018176078,0.0680767893791198
1769246872046,-0.018280029296875,-0.1621551513671875,-0.977935791015625,0.0964061617851257,-0.07089414447546,0.0825782343745231
1769246872056,-0.0118865966796875,-0.1615142822265625,-0.9792633056640624,0.0805595591664314,-0.0515566691756248,0.0693716183304786
1769246872066,-0.0391082763671875,-0.181427001953125,-0.96893310546875,0.0558880344033241,-0.0698997229337692,0.0481582097709178
1769246872076,-0.05108642578125,-0.173065185546875,-0.9578399658203124,0.0418888591229915,-0.118460863828659,0.0315608568489551
1769246872086,-0.04949951171875,-0.1791229248046875,-0.9560089111328124,0.0405287854373455,-0.1856676042079925,0.0078177088871598
1769246872096,-0.0642547607421875,-0.177886962890625,-0.9645538330078124,0.0374570935964584,-0.10214314609766,0.0009249158320017
1769246872106,-0.0505523681640625,-0.164825439453125,-0.9951934814453124,0.0118209728971123,0.0067820060066878,0.0064302026294171
1769246872116,-0.0355987548828125,-0.161041259765625,-1.0050811767578125,-0.0018293253378942,0.0216120854020118,0.0149195613339543
1769246872126,-0.0318145751953125,-0.1622161865234375,-0.99542236328125,0.0078525971621274,0.0363505519926548,0.0166077390313148
1769246872136,-0.032867431640625,-0.1665802001953125,-0.996063232421875,0.0177252013236284,0.0419280081987381,0.0132409706711769
1769246872146,-0.040008544921875,-0.17315673828125,-0.9900054931640624,0.0233740322291851,0.0519787780940532,0.0114641096442937
1769246872157,-0.0359954833984375,-0.173492431640625,-0.982696533203125,0.0230155698955059,0.0413050949573516,0.0160298328846693
1769246872166,-0.029815673828125,-0.1803436279296875,-0.9752197265625,0.0122404210269451,0.024437166750431,0.0189979262650012
1769246872177,-0.028228759765625,-0.189910888671875,-0.9692535400390624,0.0083474116399884,0.0072429990395903,0.0067234165035188
1769246872187,-0.0365753173828125,-0.176025390625,-0.968597412109375,0.0050448258407413,-0.004604339133948,-0.0017227989155799
1769246872197,-0.0433807373046875,-0.156494140625,-0.973968505859375,-0.004661863669753,-0.0034109766129404,0.0032549153547734
1769246872207,-0.0443572998046875,-0.1595306396484375,-0.978057861328125,-0.0163941532373428,0.0046767769381403,0.0035276231355965
1769246872217,-0.041473388671875,-0.1627349853515625,-0.978485107421875,-0.0234640464186668,0.029634591192007,-0.0060728061944246
1769246872227,-0.04473876953125,-0.15887451171875,-0.977203369140625,-0.0318657867610454,0.0278534684330225,-0.0154814878478646
1769246872237,-0.0348358154296875,-0.1621551513671875,-0.9725341796875,-0.0379471145570278,0.0209657363593578,-0.0268878061324358
1769246872248,-0.0373077392578125,-0.2025146484375,-0.975433349609375,-0.0428846180438995,0.0301895942538976,-0.0344807468354702
1769246872257,-0.0303497314453125,-0.1847686767578125,-0.9776153564453124,-0.0420582368969917,0.0146636310964822,-0.0370501615107059
1769246872267,-0.03125,-0.170562744140625,-0.9795379638671876,-0.0339494459331035,0.0082869585603475,-0.0420353338122367
1769246872277,-0.04193115234375,-0.1576080322265625,-0.9813995361328124,-0.025775671005249,0.0082528702914714,-0.04458824172616
1769246872287,-0.0437774658203125,-0.150115966796875,-0.9846343994140624,-0.018801650032401,-0.0060927798040211,-0.0391964055597782
1769246872297,-0.03814697265625,-0.152618408203125,-0.9839935302734376,-0.0149757536128163,-0.0187148321419954,-0.0354003347456455
1769246872307,-0.03924560546875,-0.1612701416015625,-0.986114501953125,-0.0134199345484375,0.0015025554457679,-0.0322745814919471
1769246872317,-0.0323944091796875,-0.1669158935546875,-0.990570068359375,-0.0089897662401199,0.014578410424292,-0.0267570447176694
1769246872327,-0.020721435546875,-0.16937255859375,-0.9955902099609376,0.0021662150975316,0.040787111967802,-0.0215020962059497
1769246872337,-0.02001953125,-0.1692047119140625,-1.0006103515625,0.0107812751084566,0.05037821829319,-0.0188671648502349
1769246872347,-0.02362060546875,-0.1650848388671875,-0.9967041015625,0.0170333124697208,0.0319741778075695,-0.0175632815808057
1769246872358,-0.028289794921875,-0.1661529541015625,-0.9850311279296876,0.0209034178406,0.0174785926938056,-0.008150071837008
1769246872367,-0.0363616943359375,-0.169952392578125,-0.9766387939453124,0.0081689804792404,0.0292292572557926,-0.029099827632308
1769246872377,-0.0555267333984375,-0.1718597412109375,-0.9619140625,-0.0087117329239845,0.0242273081094026,-0.0329124107956886
1769246872387,-0.0408782958984375,-0.1695556640625,-0.954193115234375,-0.0283370986580848,0.0146849360316991,-0.0335811302065849
1769246872397,-0.0341949462890625,-0.1667938232421875,-0.95172119140625,-0.039032619446516,-0.0071881380863487,-0.0113120432943105
1769246872408,-0.0130767822265625,-0.1641693115234375,-0.9566192626953124,-0.0479688569903373,0.0018620821647346,-0.0301081016659736
1769246872418,-0.0397491455078125,-0.1724853515625,-0.964447021484375,-0.0663366764783859,0.0037888791412115,-0.0308569818735122
1769246872428,-0.0288543701171875,-0.158782958984375,-0.968841552734375,-0.0774111673235893,-0.0047580036334693,-0.0236507337540388
1769246872438,-0.02642822265625,-0.1552581787109375,-0.9788665771484376,-0.0816621035337448,0.0039755669422447,-0.0102454470470547
1769246872448,-0.0176849365234375,-0.1586456298828125,-0.990020751953125,-0.0755078047513961,0.0304447244852781,0.0139845246449112
1769246872458,0.006561279296875,-0.1538848876953125,-1.0010833740234375,-0.0666229724884033,0.0587461367249488,0.0091626057401299
1769246872468,-0.0276641845703125,-0.166534423828125,-0.9984893798828124,-0.0862129181623458,0.0782316848635673,-0.0071998559869825
1769246872478,-0.04473876953125,-0.1621246337890625,-0.9652557373046876,-0.1076737344264984,0.0470758974552154,-0.0143312690779566
1769246872488,-0.0365753173828125,-0.166595458984375,-0.9605560302734376,-0.1009750813245773,0.0090725906193256,0.0143586993217468
1769246872498,-0.025299072265625,-0.1604766845703125,-0.9762725830078124,-0.1030113399028778,0.0059854546561837,-0.0192360132932662
1769246872508,-0.061920166015625,-0.161102294921875,-0.9778594970703124,-0.096707634627819,0.0244576726108789,-0.0106731504201889
1769246872518,-0.0224151611328125,-0.1540985107421875,-0.9967498779296876,-0.084626205265522,0.0128979552537202,-0.0074382089078426
1769246872528,-0.0234527587890625,-0.154449462890625,-1.0021820068359375,-0.0847798660397529,0.0175062883645296,-0.0145152928307652
1769246872538,-0.0313873291015625,-0.1622161865234375,-0.9926605224609376,-0.0841439068317413,0.0194943398237228,-0.0204738490283489
1769246872548,-0.03106689453125,-0.158599853515625,-0.9920654296875,-0.0755898356437683,0.0234896130859851,-0.0212107468396425
1769246872558,-0.028564453125,-0.1511383056640625,-0.9978179931640624,-0.0555056035518646,0.0257074944674968,-0.0181092284619808
1769246872568,-0.0224761962890625,-0.1482696533203125,-1.004608154296875,-0.0366805158555507,0.0249271877110004,-0.0120060630142688
1769246872578,-0.025421142578125,-0.14788818359375,-1.002044677734375,-0.0267511866986751,0.0269826147705316,-0.0186059083789587
1769246872589,-0.036773681640625,-0.1502685546875,-0.9965362548828124,-0.013948306441307,0.0210552178323268,-0.011149856261909
1769246872599,-0.028900146484375,-0.148681640625,-0.9929351806640624,-0.0007139935041777,0.0014543522847816,-0.0026554379146546
1769246872608,-0.0225830078125,-0.152679443359375,-0.991455078125,0.0178319942206144,-0.0037337518297135,0.0073359436355531
1769246872619,-0.0184173583984375,-0.147003173828125,-0.9959716796875,0.0262332018464803,0.0093812514096498,0.0149504533037543
1769246872629,-0.0208282470703125,-0.1520843505859375,-1.0002593994140625,0.03234488889575,0.0361204519867897,0.0215353854000568
1769246872639,-0.019805908203125,-0.1504364013671875,-1.0060882568359375,0.0401074737310409,0.0654900595545768,0.0301360636949539
1769246872649,-0.014862060546875,-0.152557373046875,-1.0140533447265625,0.0455650873482227,0.1044342666864395,0.0313147790729999
1769246872659,-0.0166168212890625,-0.1566162109375,-1.0116424560546875,0.0495238751173019,0.1320770829916,0.0228986572474241
1769246872669,-0.0261688232421875,-0.1641082763671875,-0.9991607666015624,0.0523228608071804,0.1238244697451591,0.0139978406950831
1769246872679,-0.0304412841796875,-0.1629486083984375,-0.986785888671875,0.0569929778575897,0.0925472453236579,0.0053068809211254
1769246872689,-0.0322113037109375,-0.159332275390625,-0.978485107421875,0.0665768980979919,0.0744273588061332,0.0054192664101719
1769246872699,-0.02496337890625,-0.15496826171875,-0.9818267822265624,0.0758074149489402,0.0570278652012348,0.0092185316607356
1769246872709,-0.02197265625,-0.1509857177734375,-0.985260009765625,0.0763411074876785,0.0499425269663333,0.011290737427771
1769246872719,-0.021270751953125,-0.1495361328125,-0.9854888916015624,0.0781576484441757,0.0488937720656394,0.0145496474578976
1769246872729,-0.0156402587890625,-0.1500701904296875,-0.9844970703125,0.0740976631641388,0.0337813980877399,0.0171582140028476
1769246872739,-0.0199127197265625,-0.1546173095703125,-0.975555419921875,0.0706635192036628,0.0328492932021617,0.0272894110530614
1769246872749,0.0037841796875,-0.1469879150390625,-0.9729156494140624,0.0785624533891677,0.0135597512125968,0.0483795180916786
1769246872759,-0.0134429931640625,-0.1633758544921875,-0.98687744140625,0.0520355030894279,0.0313129164278507,-0.0009611348505131
1769246872769,-0.0660400390625,-0.1719207763671875,-0.961212158203125,0.0354847572743892,0.0364333763718605,2.9294771593413316e-05
1769246872779,-0.0186767578125,-0.168670654296875,-0.969818115234375,0.0312287602573633,0.0060054282657802,0.0072339442558586
1769246872789,-0.0134429931640625,-0.16259765625,-0.9759063720703124,0.0188517179340124,-0.0137198064476251,6.657902849838138e-05
1769246872800,-0.0240478515625,-0.1678924560546875,-0.9662322998046876,-0.0021747373975813,-0.0121663846075534,-0.016490826383233
1769246872809,-0.0333709716796875,-0.1616668701171875,-0.96258544921875,-0.0187172293663024,-0.0282494816929101,-0.0202738456428051
1769246872820,-0.026031494140625,-0.1567230224609375,-0.9674530029296876,-0.0305121019482612,-0.0276547968387603,-0.0216906480491161
1769246872830,-0.024627685546875,-0.156219482421875,-0.9712677001953124,-0.0422627665102481,-0.0064986455254256,-0.0289094131439924
1769246872840,-0.025665283203125,-0.1594390869140625,-0.9734649658203124,-0.042483277618885,0.0053484262898564,-0.0259354598820209
1769246872850,-0.0140533447265625,-0.15570068359375,-0.9814300537109376,-0.0302447210997343,0.0069724218919873,-0.0128247188404202
1769246872860,0.000732421875,-0.1531982421875,-0.9908447265625,-0.0219561643898487,0.0182328000664711,-0.0066459183581173
1769246872870,-0.009063720703125,-0.1555633544921875,-0.988616943359375,-0.0231748279184103,0.0145200863480567,-0.0066184881143271
1769246872880,-0.0218048095703125,-0.1561431884765625,-0.9825897216796876,-0.0299166198819875,-0.0032091091852635,-0.0028589034918695
1769246872890,-0.0208282470703125,-0.159576416015625,-0.9766387939453124,-0.0315078571438789,-0.0087460875511169,0.0032144354190677
1769246872900,-0.021697998046875,-0.1597900390625,-0.98028564453125,-0.0382877327501773,0.0080992057919502,0.0036607813090085
1769246872910,-0.0243377685546875,-0.1606903076171875,-0.9856414794921876,-0.0448473654687404,0.0181084293872118,0.0026684873737394
1769246872920,-0.0189208984375,-0.168975830078125,-0.98809814453125,-0.0499907284975051,0.0175957717001438,-0.005265868268907
1769246872930,-0.0189208984375,-0.1694488525390625,-0.9882659912109376,-0.0438601337373256,0.0266670305281877,-0.0157816261053085
1769246872940,-0.0245208740234375,-0.153472900390625,-0.99078369140625,-0.0309315510094165,0.0121512049809098,-0.0210395045578479
1769246872950,-0.026153564453125,-0.1468505859375,-0.989990234375,-0.0214083530008792,-0.0133395073935389,-0.0127229858189821
1769246872960,-0.02392578125,-0.153900146484375,-0.983154296875,-0.0114699685946106,-0.0317592620849609,-0.0175888463854789
1769246872970,-0.0245361328125,-0.1479949951171875,-0.981231689453125,0.0019667444285005,-0.0386645719408988,-0.0215079542249441
1769246872980,-0.02056884765625,-0.1501312255859375,-0.982879638671875,-0.0091847097501158,-0.0311089176684618,-0.0254824571311473
1769246872990,-0.013153076171875,-0.16796875,-0.974639892578125,-0.0215071570128202,-0.033980868756771,-0.0205542780458927
1769246873000,-0.0015411376953125,-0.1774749755859375,-0.975555419921875,-0.0286375042051076,-0.0406853780150413,-0.0209265872836112
1769246873010,-0.013580322265625,-0.1702880859375,-0.97979736328125,-0.029365612193942,-0.017084976658225,-0.0285339057445526
1769246873020,-0.0254669189453125,-0.1547698974609375,-0.988067626953125,-0.0243455525487661,-0.015630891546607,-0.02697728946805
1769246873031,-0.024566650390625,-0.1401824951171875,-0.995513916015625,-0.0064025055617094,-0.0119924806058406,-0.0193326845765113
1769246873041,-0.028228759765625,-0.1331024169921875,-1.005889892578125,0.002037584548816,-0.0123964818194508,-0.0185441225767135
1769246873051,-0.0350494384765625,-0.14361572265625,-1.0014190673828125,0.0049785133451223,-0.0059851882979273,-0.0173627454787492
1769246873061,-0.025604248046875,-0.152130126953125,-0.9946441650390624,0.0130225913599133,-0.0130915669724345,-0.0128287132829427
1769246873071,-0.009857177734375,-0.157684326171875,-0.9908294677734376,0.0177491698414087,-0.001203748746775,-0.0148343397304415
1769246873081,-0.0081787109375,-0.167205810546875,-0.9851531982421876,0.0161014720797538,0.0200101938098669,-0.0164705868810415
1769246873091,-0.00762939453125,-0.16497802734375,-0.9840545654296876,0.0150766875594854,0.0136068891733884,-0.0131711959838867
1769246873101,-0.0066375732421875,-0.1600494384765625,-0.9817047119140624,0.0132875759154558,0.0011912320042029,-0.0029398635961115
1769246873111,-0.006591796875,-0.154510498046875,-0.97979736328125,0.0106973852962255,-0.004144677426666,0.002208825899288
1769246873121,-0.017181396484375,-0.151885986328125,-0.9802093505859376,0.0045982138253748,0.00248579448089,0.0101530356332659
1769246873132,-0.023406982421875,-0.151123046875,-0.98358154296875,-0.0039984700269997,0.000499875342939,0.0219164844602346
1769246873141,-0.0142364501953125,-0.155975341796875,-0.9817047119140624,-0.0060895839706063,-0.0030224213842302,0.0316737741231918
1769246873151,-0.0088043212890625,-0.1600799560546875,-0.9796142578125,-0.0017126789316534,-0.0140545666217803,0.032043419778347
1769246873161,-0.0131072998046875,-0.15850830078125,-0.9808807373046876,0.0019891150295734,-0.0174205359071493,0.0188194941729307
1769246873171,-0.03472900390625,-0.153106689453125,-0.9902496337890624,-0.0004657868703361,0.0380033068358898,0.0106310723349452
1769246873181,-0.034576416015625,-0.150726318359375,-1.002227783203125,-0.0068818745203316,0.0552613921463489,0.0116055235266685
1769246873191,-0.023773193359375,-0.15765380859375,-0.99639892578125,0.0024027039762586,0.0321376956999301,0.0161491427570581
1769246873201,-0.01568603515625,-0.1600341796875,-0.990997314453125,0.0237793643027544,0.0106515791267156,0.0205729193985462
1769246873211,-0.01043701171875,-0.1551055908203125,-0.992156982421875,0.0454268716275692,0.0011864382540807,0.0216861199587583
1769246873221,-0.0106048583984375,-0.1556854248046875,-0.99920654296875,0.0505396053194999,0.0296905171126127,0.02013536170125
1769246873232,-0.016998291015625,-0.168731689453125,-0.99945068359375,0.0391439385712146,0.0588859543204307,0.0206472221761941
1769246873242,-0.0127716064453125,-0.1680755615234375,-0.9880828857421876,0.035025093704462,0.051056258380413,0.0228432640433311
1769246873252,-0.0111236572265625,-0.16302490234375,-0.975616455078125,0.0334988385438919,0.0253602173179388,0.0205036774277687
1769246873262,-0.02252197265625,-0.1593780517578125,-0.9686431884765624,0.029635390266776,-0.0232081171125173,0.0071085095405578
1769246873272,-0.0441131591796875,-0.153289794921875,-0.9681396484375,0.0201409552246332,-0.0202197842299938,-0.0076065207831561
1769246873282,-0.0574798583984375,-0.162811279296875,-0.980072021484375,0.0038488004356622,0.019187543541193,-0.0298244748264551
1769246873292,-0.0475311279296875,-0.1707763671875,-0.9838409423828124,0.0130372382700443,0.0123219136148691,-0.0263865999877452
1769246873302,-0.01513671875,-0.1629180908203125,-0.994110107421875,0.0369441695511341,0.0029651634395122,-0.0126678580418229
1769246873312,0.0083160400390625,-0.160797119140625,-1.002532958984375,0.0527122132480144,0.0044594630599021,-0.0059252670034766
1769246873322,0.0066070556640625,-0.1597900390625,-0.9965057373046876,0.0599488206207752,0.0055260593071579,-0.0043960800394415
1769246873333,-0.001861572265625,-0.1603546142578125,-0.9885406494140624,0.0558936260640621,0.0033926009200513,0.0036434705834835
1769246873342,-0.003326416015625,-0.1619720458984375,-0.9809722900390624,0.0518876984715461,0.0034184334799647,0.0104102967306971
1769246873352,-0.0065155029296875,-0.1622467041015625,-0.9766845703125,0.0412318594753742,0.0217979736626148,0.0039958069100975
1769246873362,-0.02520751953125,-0.1693115234375,-0.97430419921875,0.0294734705239534,0.0336708761751651,0.0068222195841372
1769246873372,-0.0139617919921875,-0.165618896484375,-0.9745025634765624,0.0265503842383623,0.0364445596933364,0.0085056042298674
1769246873382,-0.0113525390625,-0.1645355224609375,-0.9842987060546876,0.019650399684906,0.0582843460142612,0.008649680763483
1769246873392,-0.0139923095703125,-0.167724609375,-0.987213134765625,0.015473498031497,0.0446739941835403,0.0110169649124145
1769246873402,-0.013031005859375,-0.1704559326171875,-0.9876251220703124,0.0172506254166364,0.0308519229292869,0.0120033994317054
1769246873412,-0.017608642578125,-0.1710662841796875,-0.9854736328125,0.0200607925653457,0.0379007756710052,0.0145616317167878
1769246873422,-0.018829345703125,-0.1683502197265625,-0.9864959716796876,0.0215388480573892,0.0421687588095665,0.0188855398446321
1769246873433,-0.01568603515625,-0.165130615234375,-0.98504638671875,0.0288763884454965,0.0267314799129962,0.0275450758635997
1769246873442,-0.0081024169921875,-0.1636962890625,-0.9801025390625,0.0386608429253101,0.0132404379546642,0.0446841157972812
1769246873452,-0.0016937255859375,-0.1578369140625,-0.980987548828125,0.0432156473398208,0.0125719849020242,0.0443139337003231
1769246873462,-0.0195770263671875,-0.160491943359375,-0.980499267578125,0.0313014648854732,0.0462095737457275,0.0402680598199367
1769246873473,-0.025482177734375,-0.1585693359375,-0.978546142578125,0.0191214960068464,0.0656365305185318,0.042369294911623
1769246873483,-0.0206298828125,-0.16241455078125,-0.9787750244140624,0.0183174889534711,0.0595437549054622,0.0454993061721324
1769246873493,-0.01287841796875,-0.1688385009765625,-0.981231689453125,0.0332945734262466,0.0443086102604866,0.0544967986643314
1769246873503,-0.00177001953125,-0.1727752685546875,-0.992095947265625,0.0477659255266189,0.0328285209834575,0.0546041242778301
1769246873513,-0.002410888671875,-0.177154541015625,-0.9896240234375,0.0497169569134712,0.0166974868625402,0.0463176965713501
1769246873523,-0.0174713134765625,-0.1795501708984375,-0.9808197021484376,0.0425509214401245,-0.0029366677626967,0.0364994220435619
1769246873533,-0.021728515625,-0.179443359375,-0.969635009765625,0.033842384815216,-0.0292558893561363,0.0374632179737091
1769246873543,-0.0164947509765625,-0.1760101318359375,-0.9661712646484376,0.0349976643919944,-0.036213930696249,0.0394797660410404
1769246873553,-0.0154876708984375,-0.1744384765625,-0.97894287109375,0.024474449455738,-0.0037334854714572,0.0289291199296712
1769246873563,-0.0238494873046875,-0.1714324951171875,-0.984527587890625,0.0130177978426218,0.0022996396292001,0.0280350968241691
1769246873573,-0.0189971923828125,-0.1685791015625,-0.9851531982421876,0.0145403267815709,-0.0027720844373106,0.0291501618921756
1769246873583,-0.01806640625,-0.17144775390625,-0.9877471923828124,0.0180807337164878,-0.0038149782922118,0.0226760171353817
1769246873593,-0.0203399658203125,-0.1753082275390625,-0.9860992431640624,0.0205934252589941,0.0152399390935897,0.0158977396786212
1769246873603,-0.025146484375,-0.1707763671875,-0.9837188720703124,0.0070105050690472,0.0326623395085334,-0.0013195963110774
1769246873613,-0.035125732421875,-0.172454833984375,-0.9713134765625,0.0045196507126092,0.0121275028213858,-0.011600730009377
1769246873623,-0.031646728515625,-0.170013427734375,-0.971832275390625,0.0057223341427743,-0.0023028354626148,-0.0111080445349216
1769246873633,-0.01898193359375,-0.178192138671875,-0.9723052978515624,0.0119972741231322,-0.0162215810269117,-0.0172639414668083
1769246873643,-0.0114288330078125,-0.1778564453125,-0.976409912109375,0.0101868575438857,-0.033929206430912,-0.0138883851468563
1769246873653,-0.0084228515625,-0.1750335693359375,-0.9744873046875,0.0035593148786574,-0.0369034223258495,-0.0182919222861528
1769246873664,-0.0175018310546875,-0.1793060302734375,-0.979034423828125,-0.0041950112208724,0.0105149587616324,-0.0248651355504989
1769246873674,-0.0183563232421875,-0.171600341796875,-0.9908294677734376,-0.0218139514327049,0.051897820085287,-0.0239290352910757
1769246873684,-0.0108795166015625,-0.178314208984375,-0.9855804443359376,-0.0313659124076366,0.0288446974009275,-0.0179627556353807
1769246873694,-0.007659912109375,-0.17913818359375,-0.9759521484375,-0.0247828438878059,0.0057660099118947,-0.0199611913412809
1769246873704,-0.0149993896484375,-0.168914794921875,-0.9780426025390624,-0.0174016263335943,-0.0062174159102141,-0.0311408750712871
1769246873714,-0.0295562744140625,-0.1624603271484375,-0.9823150634765624,-0.0156780295073986,0.0046791741624474,-0.027999410405755
1769246873724,-0.0273895263671875,-0.163604736328125,-0.986480712890625,-0.0206967554986476,0.0232368800789117,-0.0261200182139873
1769246873734,-0.020263671875,-0.1654052734375,-0.9882965087890624,-0.0147115681320428,0.0085450187325477,-0.0277267023921012
1769246873744,-0.0176239013671875,-0.1683807373046875,-0.9795989990234376,-0.0108049772679805,-0.021328991279006,-0.0296204760670661
1769246873754,-0.0084075927734375,-0.18218994140625,-0.9725799560546876,-0.0073055834509432,-0.0223945211619138,-0.0317320972681045
1769246873764,-0.0055999755859375,-0.195587158203125,-0.978790283203125,-0.0084872283041477,0.0080853570252656,-0.0419772788882255
1769246873774,-0.010284423828125,-0.19085693359375,-0.9885406494140624,-0.0172578170895576,0.0474482104182243,-0.0498493164777755
1769246873784,-0.0160369873046875,-0.17718505859375,-0.9915618896484376,-0.0182463824748992,0.0396930836141109,-0.0508903451263904
1769246873794,-0.0187530517578125,-0.16461181640625,-0.98455810546875,-0.0020469056908041,-0.0015691345324739,-0.0414473079144954
1769246873804,-0.0162811279296875,-0.1553497314453125,-0.9806976318359376,0.0155275603756308,-0.0478415563702583,-0.031351264566183
1769246873814,-0.0191497802734375,-0.156585693359375,-0.9864654541015624,0.0126497484743595,-0.0235026627779006,-0.0337033681571483
1769246873824,-0.0279083251953125,-0.167266845703125,-0.9904937744140624,0.0035300198942422,0.005053880624473,-0.0273911450058221
1769246873834,-0.009735107421875,-0.1705169677734375,-0.9938201904296876,0.0050155310891568,-0.0057204701006412,-0.0165139958262443
1769246873844,-0.0008697509765625,-0.176177978515625,-0.9884490966796876,0.0190280191600322,-0.0214490983635187,-0.008798818103969
1769246873855,0.0017242431640625,-0.1793670654296875,-0.9828643798828124,0.0414696782827377,-0.0493867248296737,-0.0015491608064621
1769246873864,0.0009307861328125,-0.176910400390625,-0.9837799072265624,0.0567341186106205,-0.0529668107628822,0.001661013578996
1769246873874,-0.0117645263671875,-0.1778564453125,-0.9878082275390624,0.0362347029149532,0.0276377536356449,-0.0156037267297506
1769246873885,-0.0295257568359375,-0.1845245361328125,-0.97650146484375,0.0113216303288936,0.030778419226408,-0.015392804518342
1769246873894,-0.0157623291015625,-0.1782684326171875,-0.9643707275390624,0.0051039480604231,-0.0015446334145963,0.0004601942200679
1769246873905,-0.00799560546875,-0.172210693359375,-0.9606781005859376,0.0069234198890626,-0.0194152425974607,0.0053108758293092
1769246873915,-0.0106353759765625,-0.16693115234375,-0.9755401611328124,0.0123378923162817,-0.0099916476756334,0.0100449109449982
1769246873925,-0.0086517333984375,-0.1618804931640625,-1.0007781982421875,0.0124470824375748,0.0130697293207049,0.0156444739550352
1769246873935,-0.0085906982421875,-0.16668701171875,-1.00616455078125,0.0215146131813526,0.0146572394296526,0.0182378590106964
1769246873945,-0.008514404296875,-0.17156982421875,-0.9983673095703124,0.0320737808942794,-0.0021470405627042,0.0162428859621286
1769246873955,-0.013763427734375,-0.1785888671875,-0.9865875244140624,0.0442026145756244,-0.0337547659873962,0.009010805748403
1769246873965,-0.009796142578125,-0.1808929443359375,-0.9769134521484376,0.0604092814028263,-0.0584689006209373,0.0151435332372784
1769246873975,-0.0048980712890625,-0.1769256591796875,-0.9777984619140624,0.0671750456094741,-0.0528134144842624,0.0165502149611711
1769246873985,-0.0120849609375,-0.1756134033203125,-0.9759979248046876,0.0456628277897834,-0.0444460287690162,0.012940832413733
1769246873995,-0.0195465087890625,-0.184600830078125,-0.963775634765625,0.0268369410187006,-0.0507377460598945,0.0106156263500452
1769246874005,-0.01812744140625,-0.179229736328125,-0.9659881591796876,0.0257562305778265,-0.0361822396516799,0.0125240478664636
1769246874017,-0.01910400390625,-0.171600341796875,-0.98321533203125,0.0210333801805973,0.0115647772327065,0.0095434375107288
1769246874025,-0.0175628662109375,-0.1685028076171875,-0.99615478515625,0.023264842107892,0.0220555011183023,0.0188631694763898
1769246874035,-0.0144195556640625,-0.173858642578125,-0.9944915771484376,0.0361023433506488,0.0189105737954378,0.0278590619564056
1769246874045,-0.0063323974609375,-0.180511474609375,-0.990997314453125,0.0514048673212528,0.0068624336272478,0.0265764836221933
1769246874055,-0.007720947265625,-0.1833038330078125,-0.9931640625,0.0612702816724777,-0.0119490707293152,0.0292055550962686
1769246874065,-0.0107269287109375,-0.1808624267578125,-0.9869842529296876,0.0599530823528766,0.0029454561881721,0.0203713178634643
1769246874075,-0.02496337890625,-0.1851806640625,-0.9822540283203124,0.0541873387992382,0.0180381219834089,0.0162396896630525
1769246874086,-0.0227813720703125,-0.18096923828125,-0.9779205322265624,0.054355651140213,0.0181680843234062,0.019972376525402
1769246874095,-0.0188446044921875,-0.1807708740234375,-0.9793853759765624,0.0576318725943565,0.0183939207345247,0.0260246768593788
1769246874106,-0.0141754150390625,-0.1800537109375,-0.9830169677734376,0.0630404874682426,0.0315406173467636,0.0329941697418689
1769246874116,-0.0112152099609375,-0.1790618896484375,-0.9872283935546876,0.0707359537482261,0.0413314625620842,0.0425666347146034
1769246874126,-0.0102691650390625,-0.1828460693359375,-0.986602783203125,0.0724947080016136,0.039371907711029,0.0406941659748554
1769246874136,-0.0253143310546875,-0.1868896484375,-0.979644775390625,0.0591368228197097,0.0471363514661788,0.0278915520757436
1769246874146,-0.039825439453125,-0.1914825439453125,-0.96923828125,0.043161317706108,0.0428286902606487,0.0216991696506738
1769246874156,-0.03326416015625,-0.1958160400390625,-0.9621429443359376,0.0330775268375873,0.026021746918559,0.016917198896408
1769246874167,-0.0202178955078125,-0.198028564453125,-0.961883544921875,0.0328263901174068,0.0052940980531275,0.0187955256551504
1769246874176,-0.0083465576171875,-0.19293212890625,-0.964691162109375,0.0243671257048845,-0.0087119983509182,0.0141613585874438
1769246874186,-0.0174407958984375,-0.1921844482421875,-0.964599609375,-0.0022772690281271,0.0261173546314239,-0.0056240637786686
1769246874196,-0.0323944091796875,-0.190155029296875,-0.963165283203125,-0.0237929467111825,0.0380642935633659,-0.0039284289814531
1769246874206,-0.0115203857421875,-0.1818084716796875,-0.9688873291015624,-0.0267242882400751,0.0248925667256116,0.0081356903538107
1769246874216,-0.002838134765625,-0.1786041259765625,-0.9759979248046876,-0.0275171119719743,0.0097018955275416,0.0169656667858362
1769246874226,-0.010406494140625,-0.18048095703125,-0.97625732421875,-0.0219023693352937,-0.01697738468647,0.0147387320175766
1769246874236,-0.017059326171875,-0.1829071044921875,-0.9764862060546876,-0.0149643020704388,-0.0378278046846389,0.0146284773945808
1769246874246,-0.022125244140625,-0.1840362548828125,-0.981048583984375,-0.0257072281092405,0.0185481179505586,-0.0044208471663296
1769246874256,-0.037933349609375,-0.19305419921875,-0.9761199951171876,-0.0410283915698528,0.0382371358573436,-0.0107850031927227
1769246874266,-0.020172119140625,-0.1899871826171875,-0.969940185546875,-0.0332759320735931,0.0137315243482589,-0.0050219227559864
1769246874276,-0.0078125,-0.1887054443359375,-0.97552490234375,-0.0257088262587785,0.0040727723389863,-0.0064059677533805
1769246874286,-0.0128326416015625,-0.1909027099609375,-0.97930908203125,-0.0301371291279792,-0.0039137816056609,-0.0166088044643402
1769246874296,-0.0182037353515625,-0.1942901611328125,-0.975494384765625,-0.0358014069497585,-0.0117940753698349,-0.0237679127603769
1769246874306,-0.01904296875,-0.1914825439453125,-0.9759979248046876,-0.0373622849583625,-0.00444907695055,-0.0323744527995586
1769246874317,-0.0226593017578125,-0.189239501953125,-0.9769134521484376,-0.0444143377244472,0.0097967041656374,-0.0447783917188644
1769246874327,-0.0236663818359375,-0.1870269775390625,-0.9798736572265624,-0.0454476438462734,0.0106816729530692,-0.0447163395583629
1769246874337,-0.0182952880859375,-0.1796112060546875,-0.98321533203125,-0.0389247611165046,0.0173757951706647,-0.0397676527500152
1769246874347,-0.0117950439453125,-0.1778411865234375,-0.987823486328125,-0.0316806994378566,0.013946708291769,-0.035488486289978
1769246874357,-0.0137176513671875,-0.18121337890625,-0.9854278564453124,-0.0227383356541395,0.0077766967006027,-0.0347009897232055
1769246874367,-0.0165252685546875,-0.180816650390625,-0.98211669921875,-0.0229418016970157,0.0200227107852697,-0.0372573584318161
1769246874377,-0.019622802734375,-0.183868408203125,-0.9730072021484376,-0.0251777917146682,0.0185486506670713,-0.0407405048608779
1769246874387,-0.016265869140625,-0.183013916015625,-0.96942138671875,-0.0279269721359014,0.0072059812955558,-0.035891156643629
1769246874397,-0.0099334716796875,-0.1793365478515625,-0.970489501953125,-0.0297770705074071,0.0022479742765426,-0.0364959575235843
1769246874407,-0.01263427734375,-0.177001953125,-0.9758148193359376,-0.0422276146709919,0.027951207011938,-0.0398813709616661
1769246874417,-0.0179290771484375,-0.1824188232421875,-0.9736328125,-0.0478820390999317,0.0245373006910085,-0.0414789989590644
1769246874427,-0.0147247314453125,-0.1770477294921875,-0.9773406982421876,-0.0401847027242183,0.0164554063230752,-0.0343047119677066
1769246874437,-0.0079193115234375,-0.177703857421875,-0.9860076904296876,-0.0277472082525491,0.023505326360464,-0.0196786299347877
1769246874447,0.00531005859375,-0.1839752197265625,-0.9911651611328124,-0.0136782620102167,0.0375646874308586,-0.0098307924345135
1769246874457,0.012298583984375,-0.1770172119140625,-0.9996337890625,0.0017025588313117,0.0559096038341522,0.0013957626651972
1769246874467,0.00762939453125,-0.169403076171875,-0.99786376953125,0.0131179327145218,0.0635467544198036,0.0108497180044651
1769246874477,-0.0059967041015625,-0.167572021484375,-0.9896697998046876,0.013424196280539,0.0665646493434906,0.015876168385148
1769246874487,-0.016815185546875,-0.1754608154296875,-0.9779205322265624,0.0211838483810424,0.0456417873501777,0.022676283493638
1769246874497,-0.018035888671875,-0.1766357421875,-0.976959228515625,0.0284084714949131,0.0263391956686973,0.0170562155544757
1769246874507,-0.01812744140625,-0.1839141845703125,-0.9811553955078124,0.0260976459830999,0.0281770434230566,0.0198341589421033
1769246874518,-0.0007476806640625,-0.19989013671875,-0.98065185546875,0.0200762394815683,0.0291400421410799,0.0237695109099149
1769246874528,0.010345458984375,-0.2078094482421875,-0.9799041748046876,0.0206892993301153,0.022170016542077,0.0257479734718799
1769246874538,0.0037841796875,-0.1954803466796875,-0.981231689453125,0.0215479023754596,0.032640766352415,0.0069063757546246
1769246874548,-0.0310211181640625,-0.1826629638671875,-0.982879638671875,0.0111280186101794,0.0618865378201007,-0.0072912024334073
1769246874558,-0.0357666015625,-0.169830322265625,-0.9809417724609376,0.0049169943667948,0.0477004088461399,0.0010769823566079
1769246874568,-0.01531982421875,-0.16925048828125,-0.978851318359375,0.00773381954059,0.0176511649042367,0.0136431083083152
1769246874578,-0.006256103515625,-0.1780548095703125,-0.9742584228515624,0.0113876769319176,-0.0029728866647928,0.0243349000811576
1769246874588,-0.00213623046875,-0.181182861328125,-0.9745941162109376,0.0117756994441151,-0.01278583612293,0.0194322876632213
1769246874598,-0.012359619140625,-0.1835784912109375,-0.9759521484375,0.0054472298361361,-0.0049737198278307,0.016491625458002
1769246874608,-0.011077880859375,-0.1861114501953125,-0.9751434326171876,0.0050456249155104,-0.0146058406680822,0.0210869088768959
1769246874618,-0.0059814453125,-0.18682861328125,-0.9783782958984376,0.0121962120756506,-0.0339526422321796,0.0217849239706993
1769246874628,-0.0118560791015625,-0.187255859375,-0.9792022705078124,0.0212738625705242,-0.0425256229937076,0.0194506626576185
1769246874638,-0.0158843994140625,-0.1884307861328125,-0.983612060546875,0.0213806554675102,-0.010758638381958,0.0114518590271472
1769246874648,-0.0204010009765625,-0.1905059814453125,-0.98577880859375,0.0136564234271645,0.0057106162421405,0.0071087758988142
1769246874658,-0.0144805908203125,-0.189422607421875,-0.97943115234375,0.0111722266301512,-0.0006854976527392,0.0026841999497264
1769246874668,-0.0106964111328125,-0.1897430419921875,-0.9759063720703124,0.0085812378674745,0.0053827813826501,-0.0049675945192575
1769246874678,-0.009002685546875,-0.18939208984375,-0.973724365234375,0.0069580408744513,0.0001576591312186,-0.0117464046925306
1769246874688,-0.005859375,-0.18658447265625,-0.971343994140625,-0.0001049285492626,-0.017616543918848,-0.0143978474661707
1769246874698,-0.0043487548828125,-0.1817169189453125,-0.968994140625,-0.006525277160108,-0.0326167978346347,-0.0109562445431947
1769246874709,-0.0075225830078125,-0.18133544921875,-0.971038818359375,-0.0168863050639629,-0.0209079440683126,-0.0054136738181114
1769246874718,-0.0076141357421875,-0.1826629638671875,-0.97833251953125,-0.0258712787181139,-0.0037127127870917,-0.0010836402652785
1769246874728,-0.002838134765625,-0.1868896484375,-0.9830322265625,-0.0213857162743806,-0.0018018947448581,0.0034298852551728
1769246874738,0.0004425048828125,-0.1823883056640625,-0.98724365234375,-0.0108611695468425,-0.014715296216309,0.0105269430205225
1769246874749,-0.002593994140625,-0.189483642578125,-0.98773193359375,-0.0137435086071491,-0.0038378813769668,0.0086470181122422
1769246874759,-0.0090789794921875,-0.1957550048828125,-0.9836578369140624,-0.0169478245079517,0.0074560521170496,0.0058174091391265
1769246874769,-0.0112152099609375,-0.19158935546875,-0.9805908203125,-0.0111495899036526,0.0073567163199186,0.0010775149567052
1769246874779,-0.0135345458984375,-0.186004638671875,-0.9816436767578124,0.0022793996613472,0.0130652021616697,-0.0075018582865595
1769246874789,-0.02264404296875,-0.1789093017578125,-0.9866180419921876,0.006418218370527,0.0225106347352266,-0.0157430097460746
1769246874799,-0.025970458984375,-0.178253173828125,-0.9844512939453124,-0.0018136126454919,0.0211015567183494,-0.0259541030973196
1769246874809,-0.02459716796875,-0.187530517578125,-0.971954345703125,-0.0086592677980661,0.0021390509791672,-0.0334490351378917
1769246874819,-0.0190887451171875,-0.1873931884765625,-0.9660797119140624,-0.0046243127435445,-0.0232286229729652,-0.0324631333351135
1769246874829,-0.009521484375,-0.1858062744140625,-0.9707183837890624,-0.0026612968649715,-0.0206735860556364,-0.0316846929490566
1769246874839,-0.00933837890625,-0.1841583251953125,-0.9749298095703124,-0.0113453324884176,-0.0241181198507547,-0.0313355512917041
1769246874849,-0.011474609375,-0.18084716796875,-0.97039794921875,-0.0174407754093408,-0.0296630878001451,-0.0258680824190378
1769246874859,-0.0095672607421875,-0.1785736083984375,-0.96917724609375,-0.0241396911442279,-0.0215779971331357,-0.0111823473125696
1769246874869,-0.00506591796875,-0.175933837890625,-0.9742431640625,-0.0318926870822906,-0.0043492084369063,-0.0030605047941207
1769246874879,-0.0066375732421875,-0.1790771484375,-0.9727325439453124,-0.0457043722271919,0.0042301649227738,0.0011957592796534
1769246874890,-0.0077667236328125,-0.180938720703125,-0.9666900634765624,-0.0597211197018623,-0.0106260124593973,0.0051984903402626
1769246874899,-0.01361083984375,-0.1826019287109375,-0.9575958251953124,-0.0744268298149108,-0.03791169449687,0.0017590179340913
1769246874909,-0.0196533203125,-0.1861114501953125,-0.9582061767578124,-0.0826413482427597,-0.0459278114140033,0.0077279605902731
1769246874919,-0.0079345703125,-0.188629150390625,-0.96942138671875,-0.0814043134450912,-0.0552262365818023,0.0148529820144176
1769246874929,0.0008087158203125,-0.18560791015625,-0.985015869140625,-0.0748097896575927,-0.0420885980129241,0.0216211397200822
1769246874939,-0.000457763671875,-0.1794281005859375,-0.99713134765625,-0.0675904974341392,-0.0237548649311065,0.0213745310902595
1769246874950,-0.00750732421875,-0.1768341064453125,-1.0037689208984375,-0.0623392760753631,-0.0008831042214296,0.0230121091008186
1769246874960,-0.0120391845703125,-0.17523193359375,-1.0001678466796875,-0.0569152124226093,0.0191715639084577,0.0195284280925989
1769246874970,-0.020660400390625,-0.177703857421875,-0.992431640625,-0.0497577041387558,0.0367641411721706,0.0153651079162955
1769246874980,-0.0160980224609375,-0.1764068603515625,-0.987213134765625,-0.038067489862442,0.0403285138309001,0.0163315683603286
1769246874990,-0.0074462890625,-0.1747894287109375,-0.9856109619140624,-0.0261722151190042,0.0455413870513439,0.023153256624937
1769246875000,-0.0010528564453125,-0.174896240234375,-0.9860076904296876,-0.0182258747518062,0.0630681812763214,0.028457473963499
1769246875010,-0.002410888671875,-0.1762847900390625,-0.9840087890625,-0.0232723001390695,0.0630799010396003,0.0221194177865982
1769246875020,-0.0133209228515625,-0.17657470703125,-0.9747161865234376,-0.037660825997591,0.0216176770627498,0.0135038243606686
1769246875030,-0.0187530517578125,-0.1757965087890625,-0.9637298583984376,-0.0443309806287288,-0.0312998667359352,0.0070656328462064
1769246875040,-0.020660400390625,-0.177154541015625,-0.9655303955078124,-0.0441469550132751,-0.0422031134366989,0.0079521993175148
1769246875051,-0.0135040283203125,-0.1807098388671875,-0.9779510498046876,-0.0443645343184471,-0.0267549157142639,0.0012194614391773
1769246875060,-0.013214111328125,-0.1831207275390625,-0.988800048828125,-0.0460188910365104,-0.0107197556644678,-0.0034277546219527
1769246875070,-0.01007080078125,-0.1798095703125,-0.9925994873046876,-0.0454042330384254,0.0058184741064906,-0.0067958543077111
1769246875080,-0.014312744140625,-0.1810150146484375,-0.991546630859375,-0.0498154945671558,-0.0096720680594444,-0.0142766740173101
1769246875090,-0.0235443115234375,-0.176849365234375,-0.9817657470703124,-0.0469315573573112,-0.0332461036741733,-0.013938452117145
1769246875100,-0.0227813720703125,-0.1736297607421875,-0.981536865234375,-0.0416904538869857,-0.028430575504899,-0.0071583106182515
1769246875110,-0.0170135498046875,-0.1713409423828125,-0.985321044921875,-0.0408648736774921,-0.0171321146190166,-0.0077106500975787
1769246875120,-0.018768310546875,-0.171966552734375,-0.9837188720703124,-0.0385665670037269,-0.0012018845882266,-0.0041263019666075
1769246875130,-0.0140380859375,-0.1704559326171875,-0.9820709228515624,-0.034305777400732,-0.0064957160502672,0.0042738406918942
1769246875140,-0.0074462890625,-0.1682891845703125,-0.979156494140625,-0.0286636017262935,-0.0240659210830926,0.0103184171020984
1769246875151,-0.0094757080078125,-0.1681365966796875,-0.9777984619140624,-0.0232699029147624,-0.0276204422116279,0.0112681007012724
1769246875161,-0.0102081298828125,-0.1673431396484375,-0.9857177734375,-0.0200887564569711,-0.0050885020755231,0.0151150366291403
1769246875171,-0.0081329345703125,-0.1702423095703125,-0.9983978271484376,-0.0198818296194076,0.0192610453814268,0.015091867186129
1769246875181,-0.0133514404296875,-0.1718597412109375,-0.9940643310546876,-0.0225495174527168,0.0229282192885875,0.0080158486962318
1769246875191,-0.021697998046875,-0.1832275390625,-0.983551025390625,-0.0254294592887163,0.0030479878187179,0.0005616606795229
1769246875201,-0.0180816650390625,-0.18475341796875,-0.978424072265625,-0.0207886360585689,-0.0039968723431229,-0.0102568985894322
1769246875211,-0.0236968994140625,-0.168304443359375,-0.9826202392578124,-0.015931561589241,-0.0017965685110539,-0.0207532159984111
1769246875221,-0.0274505615234375,-0.162322998046875,-0.9821319580078124,-0.0133208651095628,-0.0180788692086935,-0.0104510430246591
1769246875231,-0.015350341796875,-0.167022705078125,-0.9815521240234376,-0.0049199238419532,-0.0320604629814624,-0.0045454832725226
1769246875241,-0.0065765380859375,-0.16485595703125,-0.981353759765625,0.00286236545071,-0.0465898737311363,-0.0008138620178215
1769246875251,-0.0053863525390625,-0.1622314453125,-0.9830474853515624,-0.0001786981010809,-0.0377399213612079,-0.0043457462452352
1769246875261,-0.00335693359375,-0.174560546875,-0.9799957275390624,-0.0149890696629881,-0.0381375327706337,-0.0003182477375958
1769246875271,0.004150390625,-0.1903839111328125,-0.9767608642578124,-0.0253154765814542,-0.041245974600315,-0.0097093526273965
1769246875281,-0.0136260986328125,-0.1860504150390625,-0.9788665771484376,-0.0328642055392265,0.010898720473051,-0.0356261692941188
1769246875291,-0.0385894775390625,-0.17095947265625,-0.9865570068359376,-0.0327952317893505,0.0309959985315799,-0.0429061874747276
1769246875301,-0.028228759765625,-0.1594085693359375,-0.9900360107421876,-0.013783723115921,0.0007422229973599,-0.0381529778242111
1769246875311,-0.0178985595703125,-0.1513671875,-0.9898834228515624,0.002944657113403,-0.0334501005709171,-0.0321616642177104
1769246875321,-0.02032470703125,-0.155487060546875,-0.98175048828125,0.0033800839446485,-0.0466647073626518,-0.0406837798655033
1769246875331,-0.0331573486328125,-0.158905029296875,-0.977752685546875,-0.0175315886735916,0.0028005801141262,-0.0449917092919349
1769246875341,-0.02301025390625,-0.1710205078125,-0.9741668701171876,-0.0322897620499134,0.0109352059662342,-0.0323366336524486
1769246875351,0.0019073486328125,-0.1743927001953125,-0.9726715087890624,-0.0335821956396102,-0.0039489353075623,-0.010913367383182
1769246875361,0.0109710693359375,-0.179443359375,-0.9688720703125,-0.0253394450992345,-0.0165752489119768,0.0033910030033439
1769246875372,0.009521484375,-0.1764068603515625,-0.9738006591796876,-0.0101895201951265,-0.0513308309018611,0.0201334971934556
1769246875382,0.010162353515625,-0.1640472412109375,-0.9897003173828124,-0.0031912659760564,-0.0644269287586212,0.0299291368573904
1769246875392,-0.0113067626953125,-0.162322998046875,-0.9946441650390624,-0.0159973427653312,-0.000491619517561,0.0175715368241071
1769246875402,-0.041778564453125,-0.1704254150390625,-0.9909820556640624,-0.0424507856369018,0.0652807354927063,0.0116979349404573
1769246875412,-0.0312652587890625,-0.170562744140625,-0.979583740234375,-0.0448210015892982,0.0527375116944313,0.0228334106504917
1769246875422,-0.0091094970703125,-0.1723785400390625,-0.975830078125,-0.0266878027468919,0.0277834273874759,0.0354349575936794
1769246875432,-0.004364013671875,-0.16705322265625,-0.9865875244140624,-0.0105562377721071,0.0008319715270772,0.0381748154759407
1769246875442,-0.0147857666015625,-0.1640777587890625,-0.9947357177734376,-0.0051239216700196,0.008036620914936,0.0364450924098491
1769246875452,-0.020843505859375,-0.163787841796875,-1.0019683837890625,-0.0165904276072978,0.0529942438006401,0.028831647709012
1769246875462,-0.0258941650390625,-0.171234130859375,-0.9943084716796876,-0.0231063850224018,0.0532949119806289,0.0266020502895116
1769246875472,-0.020660400390625,-0.175445556640625,-0.9830169677734376,-0.0138063598424196,0.0265429280698299,0.022734073922038
1769246875482,-0.0198822021484375,-0.1770477294921875,-0.979461669921875,0.0022714100778102,0.0109261507168412,0.014470818452537
1769246875492,-0.016632080078125,-0.1678924560546875,-0.9837493896484376,0.0198189783841371,0.0128324413672089,0.0144295394420623
1769246875502,-0.0083770751953125,-0.168121337890625,-0.99896240234375,0.0185664929449558,0.0483092106878757,0.0110278837382793
1769246875512,-0.01129150390625,-0.167510986328125,-1.0035400390625,0.0207454916089773,0.0749176517128944,0.0047995490022003
1769246875522,-0.023193359375,-0.1629486083984375,-0.997406005859375,0.0301096998155117,0.0764641463756561,-0.0139115545898675
1769246875532,-0.033355712890625,-0.170166015625,-0.997222900390625,0.0474705807864666,0.0804642140865325,-0.0343909971415996
1769246875542,-0.0370330810546875,-0.1660919189453125,-0.9910736083984376,0.0522991567850112,0.066271960735321,-0.0513731762766838
1769246875552,-0.0289306640625,-0.1816864013671875,-0.981719970703125,0.0605994313955307,0.0466841496527195,-0.062996007502079
1769246875562,-0.01556396484375,-0.1820526123046875,-0.9785614013671876,0.0649726092815399,0.0045638591982424,-0.0430982001125812
1769246875572,0.011260986328125,-0.163299560546875,-0.9709930419921876,0.0759296491742134,-0.024648355320096,-0.0907120630145073
1769246875583,-0.0471649169921875,-0.200958251953125,-0.9849395751953124,0.0558331720530986,0.0080667147412896,-0.0821353495121002
1769246875593,-0.010162353515625,-0.158599853515625,-0.97369384765625,0.0336045660078525,-0.017436247318983,-0.0625153109431266
1769246875603,0.000335693359375,-0.162078857421875,-0.9622650146484376,0.0188557133078575,-0.0462250187993049,-0.05574182420969
1769246875613,-0.0092010498046875,-0.1667327880859375,-0.9482421875,0.0069681610912084,-0.0652820691466331,-0.0460665598511695
1769246875623,-0.00518798828125,-0.159942626953125,-0.94879150390625,-0.0221212804317474,-0.0496027059853076,-0.0501856729388237
1769246875633,-0.02056884765625,-0.172515869140625,-0.94677734375,-0.050286341458559,-0.0582787543535232,-0.0496181510388851
1769246875643,-0.0175323486328125,-0.16656494140625,-0.9521331787109376,-0.0704286247491836,-0.0409077517688274,-0.0398627258837223
1769246875653,-0.0094146728515625,-0.168243408203125,-0.9681854248046876,-0.0905671864748001,-0.0365846417844295,-0.0307661686092615
1769246875663,-0.0062408447265625,-0.174102783203125,-0.9752960205078124,-0.1001630872488021,-0.0214863829314708,-0.0222336668521165
1769246875673,-0.00555419921875,-0.176788330078125,-0.981842041015625,-0.0985795706510543,-0.0237561948597431,-0.0164213180541992
1769246875683,-0.0066986083984375,-0.176025390625,-0.9907989501953124,-0.0897669047117233,-0.035951342433691,-0.0126910274848341
1769246875693,-0.0104217529296875,-0.1729583740234375,-0.9978790283203124,-0.0815545171499252,-0.0397548712790012,-0.006108758971095
1769246875703,-0.0146331787109375,-0.173095703125,-0.9988555908203124,-0.069181203842163,-0.039454199373722,-0.0053673349320888
1769246875713,-0.0166778564453125,-0.1703948974609375,-0.996124267578125,-0.0606633462011814,-0.0262377299368381,-0.004432032816112
1769246875723,-0.0135040283203125,-0.1691436767578125,-0.9959716796875,-0.048307079821825,-0.0103477127850055,-0.0017619474092498
1769246875735,-0.0092315673828125,-0.16229248046875,-0.997650146484375,-0.0352866165339946,0.0051239216700196,0.0054347128607332
1769246875743,-0.007568359375,-0.1622161865234375,-0.9981842041015624,-0.0297800004482269,0.0048586712218821,0.0098110856488347
1769246875753,-0.0090179443359375,-0.1625213623046875,-0.9922027587890624,-0.0201249755918979,-0.0076496638357639,0.0161771047860384
1769246875763,-0.005523681640625,-0.1605377197265625,-0.987548828125,-0.0042408178560435,-0.0084286388009786,0.0250952336937189
1769246875773,-0.001983642578125,-0.1615447998046875,-0.99407958984375,0.0103980461135506,0.0128417629748582,0.0259945821017026
1769246875785,-0.0069732666015625,-0.1658477783203125,-0.999755859375,0.0188296139240264,0.024272583425045,0.0183278750628232
1769246875794,-0.01605224609375,-0.1699981689453125,-0.9962921142578124,0.0207489542663097,0.01346574164927,0.010513094253838
1769246875804,-0.0195770263671875,-0.1698760986328125,-0.9864959716796876,0.0234984010457992,-0.0139778675511479,0.0065836003050208
1769246875814,-0.0212249755859375,-0.16937255859375,-0.979705810546875,0.021738052368164,-0.0292590856552124,0.0082289017736911
1769246875824,-0.0180206298828125,-0.1687774658203125,-0.9756622314453124,0.0221258085221052,-0.0418265424668788,0.0103128245100378
1769246875834,-0.0103759765625,-0.16668701171875,-0.9806365966796876,0.0190724935382604,-0.0321643278002738,0.0170277189463377
1769246875844,-0.007354736328125,-0.16497802734375,-0.9845428466796876,0.0097178751602768,-0.0178825948387384,0.0151443313807249
1769246875854,-0.017303466796875,-0.16534423828125,-0.980010986328125,-0.0054592140950262,-0.0067636300809681,0.0083681847900152
1769246875864,-0.0294342041015625,-0.16357421875,-0.9711151123046876,-0.0189633052796125,-0.0107024451717734,-0.001242897240445
1769246875874,-0.0391082763671875,-0.16632080078125,-0.9637451171875,-0.033122532069683,-0.0266654323786497,-0.0167763177305459
1769246875884,-0.0401611328125,-0.1678619384765625,-0.95855712890625,-0.0370799899101257,-0.0467579178512096,-0.0178330596536397
1769246875894,-0.0268096923828125,-0.167755126953125,-0.96734619140625,-0.0396046675741672,-0.0680195316672325,-0.0232209004461765
1769246875904,-0.020477294921875,-0.1676788330078125,-0.9772186279296876,-0.0406289175152778,-0.076809823513031,-0.0190368071198463
1769246875914,-0.013763427734375,-0.164581298828125,-0.9873504638671876,-0.038148183375597,-0.0506772920489311,-0.0137885166332125
1769246875925,-0.00823974609375,-0.1676025390625,-0.9939117431640624,-0.0451616197824478,-0.0378573685884475,-0.0082773705944418
1769246875934,-0.007568359375,-0.1743621826171875,-0.9870147705078124,-0.0512605234980583,-0.0279647894203662,-0.0063801351934671
1769246875944,-0.0135498046875,-0.168609619140625,-0.984130859375,-0.0496240109205246,-0.0216451082378625,-0.0170716606080532
1769246875954,-0.029296875,-0.1556549072265625,-0.9862823486328124,-0.0436705164611339,-0.0201308336108922,-0.0227039810270071
1769246875964,-0.037933349609375,-0.15069580078125,-0.989166259765625,-0.0348461307585239,-0.0207574758678674,-0.0105226822197437
1769246875974,-0.025970458984375,-0.1583709716796875,-0.9921722412109376,-0.0194176398217678,-0.024525050073862,-0.0025467809755355
1769246875984,-0.01690673828125,-0.1566925048828125,-0.999420166015625,-0.0011315771844238,-0.0305632352828979,-0.0014277206500992
1769246875994,-0.0105133056640625,-0.158172607421875,-0.998321533203125,0.0040504015050828,-0.043021235615015,-0.0028141622897237
1769246876005,-0.0123138427734375,-0.17333984375,-0.984619140625,-0.0012599414912983,-0.0476799048483371,-0.0043691820465028
1769246876015,-0.013916015625,-0.18292236328125,-0.978668212890625,-0.0030495857354253,-0.0153214316815137,-0.0013992248568683
1769246876025,-0.008514404296875,-0.1795654296875,-0.985687255859375,-0.006950051523745,0.0167169291526079,-0.005274390336126
1769246876035,-0.017913818359375,-0.16680908203125,-0.986083984375,-0.0085868304595351,0.0240544695407152,-0.0115376124158501
1769246876045,-0.033050537109375,-0.1525421142578125,-0.98101806640625,-0.0039055256638675,0.0106350677087903,-0.009640110656619
1769246876055,-0.0328826904296875,-0.1443939208984375,-0.9864349365234376,0.0056019593030214,-0.0026612968649715,0.0011203918838873
1769246876065,-0.022857666015625,-0.14874267578125,-0.991241455078125,0.0098417121917009,0.0116116488352417,0.0147661631926894
1769246876075,-0.01080322265625,-0.1539459228515625,-0.9954986572265624,0.014364025555551,0.0349491946399211,0.0249596778303384
1769246876085,-0.0016937255859375,-0.16217041015625,-0.9976348876953124,0.0156889483332633,0.0389106459915638,0.0306892022490501
1769246876095,-0.0035552978515625,-0.16693115234375,-0.9886322021484376,0.0183244124054908,0.0364472232758998,0.0323507487773895
1769246876105,-0.01263427734375,-0.1690673828125,-0.97772216796875,0.0162508748471736,0.0387415364384651,0.0274971388280391
1769246876115,-0.025543212890625,-0.1642303466796875,-0.9701690673828124,0.0069782808423042,0.0316559299826622,0.0299879927188158
1769246876125,-0.026947021484375,-0.1609344482421875,-0.9639434814453124,0.0039191078394651,0.0147421946749091,0.0428294874727726
1769246876135,-0.018707275390625,-0.1629791259765625,-0.96563720703125,-0.0020458402577787,0.0170871075242757,0.0424449294805526
1769246876145,-0.0258026123046875,-0.168426513671875,-0.9703216552734376,-0.0138654820621013,0.0314426124095916,0.0329401083290576
1769246876155,-0.03460693359375,-0.1693572998046875,-0.9763031005859376,-0.0168010834604501,0.015633288770914,0.0349246934056282
1769246876165,-0.0215606689453125,-0.1625823974609375,-0.985260009765625,-0.0223931893706321,0.0035143073182553,0.0193388108164072
1769246876175,-0.0408935546875,-0.1671295166015625,-0.982177734375,-0.0348778218030929,0.0104438522830605,0.0097714038565754
1769246876185,-0.0357208251953125,-0.1656036376953125,-0.97906494140625,-0.0468149110674858,0.0107847368344664,-0.0016519587952643
1769246876195,-0.0323028564453125,-0.165191650390625,-0.97589111328125,-0.0545495264232158,0.0090646017342805,-0.0046842340379953
1769246876205,-0.02691650390625,-0.1639251708984375,-0.9747161865234376,-0.0567578226327896,0.0002181128947995,-0.0105639612302184
1769246876215,-0.027587890625,-0.1676025390625,-0.9774169921875,-0.0447536222636699,-0.0174474325031042,-0.0071527180261909
1769246876225,-0.0135040283203125,-0.1588592529296875,-0.991607666015625,-0.031870312988758,-0.0146833388134837,-0.0019259981345385
1769246876236,-0.00946044921875,-0.156097412109375,-0.9998016357421876,-0.0253269281238317,-0.006483731791377,0.0046038064174354
1769246876246,-0.0051422119140625,-0.1654510498046875,-1.00048828125,-0.0190991256386041,0.0020881847012788,0.0083668529987335
1769246876256,-0.013458251953125,-0.16387939453125,-0.9959716796875,-0.0139219406992197,0.0011917646043002,0.0031326764728873
1769246876266,-0.026336669921875,-0.1578216552734375,-0.9886932373046876,-0.0042735747992992,-0.012623650021851,-0.0021291973534971
1769246876276,-0.034454345703125,-0.15594482421875,-0.989471435546875,-0.0014679343439638,-0.0006585997180081,-0.0133869117125868
1769246876286,-0.0399627685546875,-0.1599273681640625,-0.98681640625,0.0057178069837391,0.0046189865097403,-0.0114830182865262
1769246876296,-0.0240631103515625,-0.161895751953125,-0.9911956787109376,0.0184972509741783,-0.0064517739228904,-0.0088145304471254
1769246876306,-0.014678955078125,-0.163177490234375,-0.9904632568359376,0.0274699740111827,-0.0155352838337421,-0.0067798756062984
1769246876316,-0.0138397216796875,-0.161712646484375,-0.9880828857421876,0.034912709146738,-0.0090334424749016,-0.0084060011431574
1769246876326,-0.0132904052734375,-0.1603546142578125,-0.9888763427734376,0.0375202111899852,-0.0052472264505922,-0.0027848675381392
1769246876336,-0.008453369140625,-0.1598358154296875,-0.9866943359375,0.0337430499494075,-0.0040908819064497,-0.0005150553770363
1769246876346,-0.019012451171875,-0.161834716796875,-0.982818603515625,0.023447535932064,0.0129219237715005,-0.0008271778351627
1769246876356,-0.0198516845703125,-0.1609039306640625,-0.9783935546875,0.0145017113536596,0.0249804500490427,0.0131229925900697
1769246876366,-0.013885498046875,-0.1605682373046875,-0.9808502197265624,0.0048173922114074,0.0201334971934556,0.0216405801475048
1769246876376,-0.0113067626953125,-0.1639862060546875,-0.9773101806640624,0.0025467809755355,0.0035731631796807,0.0241378266364336
1769246876386,-0.020721435546875,-0.1674041748046875,-0.9801025390625,-0.0036368127912282,0.014813301153481,0.0048360340297222
1769246876396,-0.0440826416015625,-0.1683197021484375,-0.9832000732421876,-0.0188626367598772,0.0295722726732492,-0.0041654501110315
1769246876406,-0.0362548828125,-0.1678619384765625,-0.98345947265625,-0.0224629640579223,0.0142535045742988,0.0034381409641355
1769246876417,-0.0198516845703125,-0.1679840087890625,-0.98394775390625,-0.0140939811244606,0.0030104373581707,-0.0017022925894707
1769246876426,-0.0207366943359375,-0.170562744140625,-0.984588623046875,-0.0017678063595667,-0.0071069118566811,-0.001651426195167
1769246876437,-0.0179595947265625,-0.1656341552734375,-0.98822021484375,0.0043617254123091,-0.005968942772597,-0.0018093516118824
1769246876447,-0.01708984375,-0.1607208251953125,-0.9903717041015624,0.0063838632777333,0.0078041274100542,0.0039247004315257
1769246876457,-0.0124359130859375,-0.15911865234375,-0.9892425537109376,0.0091050816699862,0.0094659393653273,0.0114127108827233
1769246876467,-0.012542724609375,-0.1579437255859375,-0.9827117919921876,0.0040852888487279,0.0044181840494275,0.0033731597941368
1769246876477,-0.0352325439453125,-0.161376953125,-0.970947265625,-0.0122627913951873,0.0186162944883108,-0.0182698182761669
1769246876487,-0.0503387451171875,-0.161773681640625,-0.9678802490234376,-0.0129866385832428,0.0185936577618122,-0.0146069061011075
1769246876497,-0.021209716796875,-0.1573486328125,-0.9871826171875,0.0011121360585093,0.0150404684245586,0.0006937534781172
1769246876507,-0.000457763671875,-0.16192626953125,-0.9999847412109376,0.0161800347268581,0.0216139480471611,0.007759119849652
1769246876517,-0.004547119140625,-0.1645660400390625,-0.99798583984375,0.0182780735194683,0.0282513443380594,0.0017654094845056
1769246876527,-0.01898193359375,-0.168914794921875,-0.986785888671875,0.0110963266342878,0.0349031239748001,-0.0110694291070103
1769246876537,-0.024200439453125,-0.1691131591796875,-0.9771881103515624,0.0009358347742818,0.0283594690263271,-0.0068890652619302
1769246876547,-0.02056884765625,-0.168243408203125,-0.97491455078125,-0.0042296322062611,0.0127967549487948,-0.0027630296535789
1769246876557,-0.016693115234375,-0.1643218994140625,-0.976165771484375,-0.0070030484348535,0.00336943147704,0.0056629455648362
1769246876569,-0.013580322265625,-0.162200927734375,-0.974945068359375,0.0010133327450603,-0.0177425108850002,0.0127562750130891
1769246876577,-0.017181396484375,-0.15802001953125,-0.98272705078125,0.0067031765356659,0.0221324656158685,0.0007350324303843
1769246876587,-0.0377044677734375,-0.1580047607421875,-0.996368408203125,-0.0034218956716358,0.090192474424839,-0.0094507597386837
1769246876597,-0.034759521484375,-0.15802001953125,-1.0008697509765625,0.0019401127938181,0.0930532440543174,-0.0037249634042382
1769246876607,-0.0192108154296875,-0.160400390625,-0.9997406005859376,0.0224294085055589,0.0744718387722969,0.0012572783743962
1769246876617,-0.0123748779296875,-0.16583251953125,-0.9955291748046876,0.0432747676968574,0.0506461337208747,-0.0027510453946888
1769246876627,-0.014801025390625,-0.1721343994140625,-0.9863128662109376,0.049834668636322,0.025349298492074,-0.0073641729541122
1769246876638,-0.0116729736328125,-0.1715850830078125,-0.978118896484375,0.0495723448693752,0.0149427307769656,-0.0046930224634706
1769246876647,-0.0050048828125,-0.171295166015625,-0.97802734375,0.0432827584445476,0.0099716736003756,0.0059564262628555
1769246876658,-0.0001220703125,-0.1700897216796875,-0.9748077392578124,0.0268928669393062,0.00645816558972,0.0072696306742727
1769246876668,-0.0118560791015625,-0.174102783203125,-0.973541259765625,0.0154868140816688,0.0074219633825123,0.0097439736127853
1769246876678,-0.0109100341796875,-0.169464111328125,-0.9787139892578124,0.0149627039209008,0.0060371197760105,0.0126572055742144
1769246876688,-0.0091400146484375,-0.1570892333984375,-0.985687255859375,0.02058463729918,0.0013813816476613,0.0142095619812607
1769246876698,-0.0273895263671875,-0.155059814453125,-0.9889678955078124,0.023504527285695,0.0308220945298671,0.0134247289970517
1769246876708,-0.030517578125,-0.1551666259765625,-0.99371337890625,0.0261309370398521,0.0362533442676067,0.0192440021783113
1769246876718,-0.020355224609375,-0.1578826904296875,-0.9908599853515624,0.0314284972846508,0.0315091907978057,0.0223439205437898
1769246876728,-0.01116943359375,-0.1647796630859375,-0.983856201171875,0.032790970057249,0.0341736823320388,0.0217154156416654
1769246876738,-0.0066070556640625,-0.1797943115234375,-0.9768524169921876,0.0267783515155315,0.0369356460869312,0.0186442583799362
1769246876748,-0.0045928955078125,-0.190887451171875,-0.96856689453125,0.02045414224267,0.0256520994007587,0.0199609249830245
1769246876758,-0.0007476806640625,-0.18353271484375,-0.9712677001953124,0.0229607094079256,0.0299911890178918,0.0232816208153963
1769246876768,-0.0032806396484375,-0.169189453125,-0.98101806640625,0.0237114541232585,0.0491417124867439,0.0240829661488533
1769246876778,-0.0115966796875,-0.1612548828125,-0.9848785400390624,0.019439211115241,0.0605664066970348,0.0303373988717794
1769246876788,-0.0133209228515625,-0.15704345703125,-0.9814453125,0.0165203865617513,0.0644077509641647,0.0445725284516811
1769246876798,-0.0022430419921875,-0.159149169921875,-0.981842041015625,0.0141501734033226,0.0782668441534042,0.0631060004234314
1769246876808,0.0038299560546875,-0.1650390625,-0.987762451171875,0.0068842712789773,0.1027093306183815,0.0693396627902984
1769246876818,-0.002960205078125,-0.1693572998046875,-0.985809326171875,-0.012383964844048,0.1071336418390274,0.065278336405754
1769246876828,-0.01953125,-0.1714019775390625,-0.972930908203125,-0.0240755081176757,0.0968565046787262,0.0597325712442398
1769246876838,-0.026458740234375,-0.1717071533203125,-0.9676361083984376,-0.0265314765274524,0.0680693313479423,0.0547513961791992
1769246876848,-0.02923583984375,-0.1743011474609375,-0.9659881591796876,-0.0270254928618669,0.0325044132769107,0.0439544096589088
1769246876858,-0.03515625,-0.1784820556640625,-0.965484619140625,-0.0231037214398384,0.0082571310922503,0.026053437963128
1769246876869,-0.035430908203125,-0.182281494140625,-0.9705810546875,-0.026216423138976,-0.0071047809906303,0.0034993935842067
1769246876879,-0.0335845947265625,-0.1807708740234375,-0.973297119140625,-0.0304764155298471,-0.0187369361519813,-0.0121256383135914
1769246876889,-0.0224456787109375,-0.1785736083984375,-0.975067138671875,-0.0265389326959848,-0.0290793217718601,-0.0197750367224216
1769246876899,-0.011138916015625,-0.1734771728515625,-0.9850311279296876,-0.0178226735442876,-0.0284172594547271,-0.0142476456239819
1769246876909,0.0017242431640625,-0.16558837890625,-0.9973297119140624,-0.0124454842880368,-0.0044528055004775,-0.0155991995707154
1769246876919,-0.0025177001953125,-0.1663360595703125,-1.000518798828125,-0.0119448099285364,0.010358365252614,-0.0185502488166093
1769246876929,-0.0097808837890625,-0.1663970947265625,-0.9966583251953124,-0.0054312506690621,0.0078592542558908,-0.0236254353076219
1769246876939,-0.011810302734375,-0.1697845458984375,-0.994384765625,0.0087245153263211,-0.0004878911131527,-0.025487782433629
1769246876949,-0.0130157470703125,-0.17108154296875,-0.9973907470703124,0.018180601298809,-0.0099437106400728,-0.0353433415293693
1769246876959,-0.022979736328125,-0.1683197021484375,-0.994537353515625,0.0228166319429874,-0.0219982434064149,-0.0392299592494964
1769246876969,-0.0209503173828125,-0.1772308349609375,-0.9881744384765624,0.0201196484267711,-0.0216648150235414,-0.0493254698812961
1769246876979,-0.0192413330078125,-0.1841888427734375,-0.9844207763671876,0.0184184219688177,-0.0098124165087938,-0.0576318725943565
1769246876989,-0.017181396484375,-0.1802215576171875,-0.98138427734375,0.0137544283643364,-0.0025142903905361,-0.0628700405359268
1769246876999,-0.0100555419921875,-0.1772613525390625,-0.979644775390625,0.0175566226243972,-0.0131259215995669,-0.0653110966086387
1769246877009,-0.0012664794921875,-0.168975830078125,-0.9810028076171876,0.0178386513143777,-0.0120127210393548,-0.0530032962560653
1769246877019,0.0101318359375,-0.1685943603515625,-0.981964111328125,0.0125679895281791,-0.0123906228691339,-0.0416086949408054
1769246877029,0.01849365234375,-0.1749420166015625,-0.98089599609375,0.0015954998089,-0.0054573495872318,-0.03633963316679
1769246877039,0.009674072265625,-0.1776580810546875,-0.981842041015625,-0.0074760257266461,0.0131120737642049,-0.0329036228358745
1769246877049,0.0060882568359375,-0.1745147705078125,-0.9867095947265624,-0.0167049448937177,0.0311264935880899,-0.0277362894266843
1769246877059,-0.0040435791015625,-0.176788330078125,-0.988128662109375,-0.0292012952268123,0.0229809489101171,-0.0324636660516262
1769246877069,-0.021453857421875,-0.1796112060546875,-0.9818267822265624,-0.0244185235351324,-0.0075902752578258,-0.0355414822697639
1769246877080,-0.0272216796875,-0.1754302978515625,-0.9842681884765624,-0.0190743580460548,-0.0076099829748272,-0.0363614708185195
1769246877090,-0.0225830078125,-0.171966552734375,-0.990234375,-0.0101812649518251,-0.0109900664538145,-0.0400933586061
1769246877100,-0.01593017578125,-0.1703948974609375,-0.9918975830078124,0.0001794970594346,-0.014666561037302,-0.0368070155382156
1769246877110,-0.0084686279296875,-0.1667327880859375,-0.9918060302734376,0.0107589047402143,-0.0139240715652704,-0.0306196939200162
1769246877121,-0.000946044921875,-0.166259765625,-0.989959716796875,0.0173188019543886,-0.0027941886801272,-0.0213811881840229
1769246877130,0.0075225830078125,-0.1640625,-0.985443115234375,0.019056249409914,0.0132958320900797,-0.0073878751136362
1769246877140,0.012176513671875,-0.1624603271484375,-0.98089599609375,0.02399268373847,0.0241538062691688,0.0080858897417783
1769246877150,0.015289306640625,-0.1610260009765625,-0.9822998046875,0.0309640411287546,0.0429429411888122,0.0223351325839757
1769246877160,0.015533447265625,-0.158538818359375,-0.9878692626953124,0.0393724404275417,0.0519617348909378,0.0401588715612888
1769246877170,0.014892578125,-0.160003662109375,-0.9911651611328124,0.0501249507069587,0.0634311735630035,0.0528357848525047
1769246877180,0.0084991455078125,-0.162506103515625,-0.9911041259765624,0.0637544766068458,0.0820951387286186,0.0590358898043632
1769246877190,0.0042877197265625,-0.16522216796875,-0.99371337890625,0.0806706100702285,0.0898934006690979,0.0684158056974411
1769246877200,0.002044677734375,-0.163787841796875,-0.996734619140625,0.0849780067801475,0.0905586630105972,0.0669255033135414
1769246877210,-0.01385498046875,-0.1678314208984375,-0.9827117919921876,0.0770409852266311,0.0878739282488823,0.0657510533928871
1769246877220,-0.018829345703125,-0.1716766357421875,-0.9696044921875,0.0649414509534835,0.0640460923314094,0.0698184967041015
1769246877230,-0.012603759765625,-0.1797637939453125,-0.9613494873046876,0.0615773424506187,0.0472474060952663,0.0750587955117225
1769246877240,0.0016326904296875,-0.1760711669921875,-0.96551513671875,0.0622990615665912,0.0460998490452766,0.0716789811849594
1769246877250,-0.002960205078125,-0.1770477294921875,-0.9752349853515624,0.04765460267663,0.0430848859250545,0.0649236068129539
1769246877260,-0.0064544677734375,-0.1796112060546875,-0.972381591796875,0.0292455032467842,0.0466154403984546,0.0538555085659027
1769246877270,-0.013092041015625,-0.1798248291015625,-0.966644287109375,0.0084864292293787,0.0328386388719081,0.0418289378285408
1769246877280,-0.0189971923828125,-0.1778411865234375,-0.96075439453125,-0.0042267027311027,0.0155232995748519,0.0355654507875442
1769246877291,-0.020843505859375,-0.1775665283203125,-0.96600341796875,-0.0111804828047752,0.0040695765055716,0.028373584151268
1769246877301,-0.0200653076171875,-0.1782379150390625,-0.9760894775390624,-0.0129192611202597,-0.0030043120495975,0.0240267720073461
1769246877311,-0.0111236572265625,-0.1773834228515625,-0.985931396484375,-0.0081897526979446,-0.0142111601307988,0.0224427245557308
1769246877321,-0.0111236572265625,-0.179229736328125,-0.984771728515625,-0.0078352857381105,-0.0126904947683215,0.0095469001680612
1769246877331,-0.01422119140625,-0.1847076416015625,-0.9810943603515624,-0.001692172489129,-0.0167992208153009,-0.0025204156991094
1769246877341,-0.011566162109375,-0.1854095458984375,-0.9825439453125,0.00252600829117,-0.0227204915136098,-0.0132540203630924
1769246877351,-0.014373779296875,-0.185791015625,-0.9783477783203124,0.0046807718463242,-0.0202059354633092,-0.0219068974256515
1769246877361,-0.01519775390625,-0.183502197265625,-0.9751434326171876,-0.0003696467611007,-0.0301323365420103,-0.0332157425582408
1769246877371,-0.0188751220703125,-0.1811676025390625,-0.9729766845703124,0.0073071811348199,-0.0407972298562526,-0.0388390086591243
1769246877381,-0.01824951171875,-0.1829376220703125,-0.984100341796875,0.0053193978965282,-0.0276289638131856,-0.0335411839187145
1769246877391,-0.00677490234375,-0.1809539794921875,-0.984893798828125,0.0058847870677709,-0.0318660549819469,-0.0459371320903301
1769246877401,-0.0238494873046875,-0.18194580078125,-0.9827728271484376,0.0172085482627153,-0.0793488845229148,-0.0567809902131557
1769246877411,-0.0326995849609375,-0.16888427734375,-0.979095458984375,0.0203635953366756,-0.0711737796664238,-0.0620087757706642
1769246877421,-0.031890869140625,-0.1656341552734375,-0.9838104248046876,0.0257972422987222,-0.0692214146256446,-0.0649393200874328
1769246877431,-0.0248565673828125,-0.175140380859375,-0.9884490966796876,0.0358453504741191,-0.095391497015953,-0.0666016638278961
1769246877441,-0.0106353759765625,-0.1775970458984375,-0.985076904296875,0.0499236173927784,-0.0713580697774887,-0.0676083415746688
1769246877451,0.00543212890625,-0.1874847412109375,-0.9899139404296876,0.0726816579699516,-0.0301866643130779,-0.0578273460268974
1769246877461,0.0404052734375,-0.1895904541015625,-1.0021209716796875,0.1039218679070472,0.011740013025701,-0.0199891552329063
1769246877471,0.06915283203125,-0.18634033203125,-1.02197265625,0.1116780638694763,0.1121339946985244,-0.0109429284930229
1769246877481,0.031402587890625,-0.157135009765625,-1.014801025390625,0.0840957015752792,0.1145880967378616,-0.0096733998507261
1769246877491,-0.0150146484375,-0.165313720703125,-0.9699249267578124,0.0664075165987014,0.0558483526110649,-0.0087412940338253
1769246877501,-0.0364990234375,-0.159332275390625,-0.940582275390625,0.0569993704557418,-0.0159549973905086,-0.0055489623919129
1769246877511,-0.0309906005859375,-0.1824951171875,-0.929962158203125,0.0549372844398021,-0.0443387031555175,-0.0074438014999032
1769246877522,-0.015899658203125,-0.197662353515625,-0.9370269775390624,0.0440673269331455,-0.0379223488271236,-0.0024085629265755
1769246877532,0.0128021240234375,-0.1925201416015625,-0.951934814453125,0.042481679469347,-0.0279706474393606,0.0113384081050753
1769246877542,0.0347137451171875,-0.184326171875,-0.97808837890625,0.0340024419128894,0.0164412911981344,0.0404907017946243
1769246877552,0.0439910888671875,-0.17840576171875,-0.98736572265625,0.0097879162058234,0.0586923398077487,0.0589245706796646
1769246877562,0.0266265869140625,-0.1778564453125,-0.9791717529296876,-0.0100023001432418,0.075475312769413,0.0809917896986007
1769246877572,0.016204833984375,-0.1816864013671875,-0.971954345703125,-0.0316636525094509,0.0959579572081565,0.0925919860601425
1769246877582,0.0051116943359375,-0.1884918212890625,-0.9661865234375,-0.0402275808155536,0.1029279828071594,0.0952290445566177
1769246877592,-0.0085906982421875,-0.1910247802734375,-0.9685516357421876,-0.0506128445267677,0.1012089103460311,0.0781059861183166
1769246877604,-0.0279998779296875,-0.19305419921875,-0.964935302734375,-0.0634575337171554,0.058218564838171,0.0519212558865547
1769246877612,-0.0456390380859375,-0.1900482177734375,-0.954803466796875,-0.0716635361313819,0.0039049931801855,0.0258212108165025
1769246877622,-0.0518646240234375,-0.190521240234375,-0.956024169921875,-0.0648788660764694,-0.0494719445705413,0.0014293185668066
1769246877632,-0.0476837158203125,-0.1914215087890625,-0.96533203125,-0.0541010536253452,-0.0694147571921348,-0.0183806046843528
1769246877642,-0.0307464599609375,-0.189208984375,-0.9787445068359376,-0.0464990586042404,-0.058583952486515,-0.028700353577733
1769246877652,-0.0099639892578125,-0.1870574951171875,-0.990264892578125,-0.0422928631305694,-0.066681295633316,-0.030435936525464
1769246877662,0.00018310546875,-0.18267822265625,-0.98626708984375,-0.0388536565005779,-0.0591131225228309,-0.0259692817926406
1769246877673,0.00946044921875,-0.17816162109375,-0.989532470703125,-0.0299736112356185,-0.0329944342374801,-0.0123275062069296
1769246877682,0.016021728515625,-0.18060302734375,-0.9968414306640624,-0.0303456559777259,-0.0020413128659129,0.0038815571460872
1769246877692,0.0212249755859375,-0.19256591796875,-0.999725341796875,-0.0382946580648422,0.0216520316898822,0.0051721250638365
1769246877702,0.0037689208984375,-0.1863555908203125,-0.9884033203125,-0.0448367148637771,0.0232603158801794,0.0026285399217158
1769246877712,-0.010772705078125,-0.1818695068359375,-0.978912353515625,-0.0449898466467857,-0.0016919062472879,0.0049012815579771
1769246877723,-0.01959228515625,-0.17828369140625,-0.97515869140625,-0.0433671809732914,-0.009108543395996,-0.0041697113774716
1769246877733,-0.027496337890625,-0.1775360107421875,-0.9727630615234376,-0.0392062589526176,-0.0175816565752029,-0.0189971271902322
1769246877743,-0.0265045166015625,-0.181182861328125,-0.97607421875,-0.0354863554239273,-0.0198469422757625,-0.0257114879786968
1769246877753,-0.016571044921875,-0.18292236328125,-0.9827880859375,-0.0380251482129097,-0.0078688422217965,-0.0379441864788532
1769246877763,-0.01483154296875,-0.18408203125,-0.980072021484375,-0.03513028845191,-0.0117152454331517,-0.0302726849913597
1769246877773,0.0011444091796875,-0.1798858642578125,-0.97613525390625,-0.0321222506463527,-0.0167696587741374,-0.0295219402760267
1769246877783,-0.0053558349609375,-0.1772918701171875,-0.974945068359375,-0.037228062748909,-0.0073516559787094,-0.0245940256863832
1769246877793,-0.0009613037109375,-0.17535400390625,-0.978271484375,-0.035846147686243,-0.0050200587138533,-0.0083684511482715
1769246877803,0.0065155029296875,-0.17425537109375,-0.9864501953125,-0.036653883755207,0.0004569984448608,-0.0017425062833353
1769246877813,0.0007171630859375,-0.175994873046875,-0.9851837158203124,-0.034165158867836,-0.016603210940957,0.0061649517156183
1769246877823,-0.00506591796875,-0.1773681640625,-0.9844970703125,-0.0310593824833631,-0.0412752665579319,0.0040634511969983
1769246877833,-0.017059326171875,-0.181915283203125,-0.979949951171875,-0.0330133438110351,-0.0538760162889957,-0.0055502941831946
1769246877843,-0.024017333984375,-0.18487548828125,-0.97283935546875,-0.0328668691217899,-0.062285479158163,-0.0080257020890712
1769246877853,-0.013763427734375,-0.1834716796875,-0.9785919189453124,-0.0250422358512878,-0.0545436702668666,-0.0076669743284583
1769246877863,-0.003387451171875,-0.180419921875,-0.9882354736328124,-0.0155374146997928,-0.0129983564838767,-0.0044488105922937
1769246877873,0.0009918212890625,-0.1736907958984375,-1.0048675537109375,-0.0096512958407402,0.021873340010643,0.0016897757304832
1769246877883,0.002197265625,-0.1723175048828125,-1.0050048828125,-0.0051074102520942,0.035293810069561,0.0133799873292446
1769246877893,0.0045166015625,-0.1702117919921875,-0.997161865234375,0.0040991376154124,0.0468956045806407,0.0297701451927423
1769246877904,0.0081329345703125,-0.1683197021484375,-0.988525390625,0.0124327009543776,0.0507734306156635,0.0383527167141437
1769246877913,0.0021514892578125,-0.17041015625,-0.98388671875,0.0209785178303718,0.0417442508041858,0.0475384891033172
1769246877923,-0.0008392333984375,-0.1684417724609375,-0.9808349609375,0.0241607297211885,0.0272244308143854,0.0531116873025894
1769246877933,-0.007049560546875,-0.17230224609375,-0.9807281494140624,0.0223223492503166,0.028245486319065,0.0528650805354118
1769246877943,-0.014373779296875,-0.179840087890625,-0.97900390625,0.0125504126772284,0.0200695823878049,0.0483819134533405
1769246877954,-0.014739990234375,-0.184234619140625,-0.967926025390625,0.0161137226969003,-0.0046235141344368,0.047641821205616
1769246877964,-0.008941650390625,-0.1847076416015625,-0.966400146484375,0.0117261642590165,-0.0106582371518015,0.043868388980627
1769246877974,-0.0122222900390625,-0.1865997314453125,-0.969024658203125,0.0035036546178162,-0.0223420578986406,0.0385039821267128
1769246877984,-0.010528564453125,-0.18084716796875,-0.9676361083984376,-0.0067646955139935,-0.0166436918079853,0.0393506027758121
1769246877994,-0.0070037841796875,-0.175628662109375,-0.9749908447265624,-0.0212624110281467,-0.0092891054227948,0.042363703250885
1769246878004,-0.00726318359375,-0.1748199462890625,-0.975250244140625,-0.0306037161499261,-0.0052541503682732,0.0499909967184066
1769246878014,-0.0025787353515625,-0.174896240234375,-0.975128173828125,-0.0424369387328624,0.0030716899782419,0.0502117723226547
1769246878024,-0.0124664306640625,-0.1775360107421875,-0.9737091064453124,-0.0486207976937294,0.0094803208485245,0.048258077353239
1769246878034,-0.0148468017578125,-0.17633056640625,-0.971221923828125,-0.0471339561045169,0.0044384240172803,0.0450833216309547
1769246878044,-0.0137176513671875,-0.179351806640625,-0.9815216064453124,-0.0394717752933502,0.0023084280546754,0.046047918498516
1769246878054,-0.011566162109375,-0.1842498779296875,-0.986480712890625,-0.0440460219979286,0.0082046668976545,0.0381625667214393
1769246878064,-0.0174713134765625,-0.193511962890625,-0.983062744140625,-0.0402049422264099,-0.0096116149798035,0.0375585593283176
1769246878074,-0.0073089599609375,-0.1904449462890625,-0.9865570068359376,-0.0321621969342231,-0.0179489068686962,0.0365755893290042
1769246878084,-0.008636474609375,-0.1829681396484375,-0.99261474609375,-0.0327435657382011,-0.0275663807988166,0.0368629433214664
1769246878094,-0.01251220703125,-0.1827850341796875,-0.9897308349609376,-0.0288508236408233,-0.0321017429232597,0.039407592266798
1769246878104,-0.012725830078125,-0.1790924072265625,-0.9940643310546876,-0.0242201182991266,-0.0029012477025389,0.0311781596392393
1769246878114,-0.021148681640625,-0.161407470703125,-0.999298095703125,-0.0161648541688919,0.0075428709387779,0.0267298817634582
1769246878124,-0.02716064453125,-0.1544036865234375,-0.9941558837890624,-0.0118968728929758,0.0183534417301416,0.0229063816368579
1769246878134,-0.03057861328125,-0.1616363525390625,-0.9873504638671876,-0.0037486655637621,0.003125219605863,0.026095250621438
1769246878145,-0.02337646484375,-0.16229248046875,-0.9837188720703124,0.0181419849395751,0.0013486248208209,0.0199018027633428
1769246878155,-0.0236053466796875,-0.1637115478515625,-0.987945556640625,0.0282872971147298,-0.0182588994503021,0.0023923176340758
1769246878164,-0.0224151611328125,-0.1769561767578125,-0.977264404296875,0.0290606804192066,-0.0475632585585117,-0.0056725330650806
1769246878175,-0.01019287109375,-0.1956024169921875,-0.9754486083984376,0.0218248721212148,-0.0363478884100914,-0.0181683506816625
1769246878185,-0.0095977783203125,-0.2049560546875,-0.97900390625,0.0107818078249692,-0.0203071366995573,-0.0354890190064907
1769246878195,-0.0174560546875,-0.1887359619140625,-0.9808197021484376,0.0168117377907037,-0.0277685150504112,-0.0379276759922504
1769246878205,-0.0160369873046875,-0.1665191650390625,-0.9878692626953124,0.0256222728639841,-0.030597323551774,-0.0323739200830459
1769246878215,-0.015777587890625,-0.154449462890625,-0.98687744140625,0.0195454712957143,-0.0266537144780159,-0.0317845605313777
1769246878225,-0.0222625732421875,-0.15313720703125,-0.974151611328125,-0.004040281753987,-0.03089240193367,-0.0329819172620773
1769246878235,-0.0200653076171875,-0.16986083984375,-0.9573974609375,-0.0192218981683254,-0.0329273231327533,-0.0247005522251129
1769246878245,-0.0105133056640625,-0.1604156494140625,-0.9564666748046876,-0.0254659447818994,-0.036864273250103,-0.0082137212157249
1769246878255,0.0049896240234375,-0.1689605712890625,-0.9644927978515624,-0.0191518571227788,-0.0161760412156581,0.0064126253128051
1769246878265,0.0152435302734375,-0.171173095703125,-0.9774932861328124,-0.0080888187512755,-0.0038397456519305,0.0220685508102178
1769246878275,0.0185394287109375,-0.1748809814453125,-0.987396240234375,-0.0016740630380809,0.0048080710694193,0.0319060012698173
1769246878285,0.0063018798828125,-0.1778564453125,-0.9872894287109376,-0.0114499945193529,0.0338964462280273,0.0296593587845563
1769246878295,-0.0087738037109375,-0.182952880859375,-0.981689453125,-0.020659739151597,0.0385521873831748,0.0327638052403926
1769246878305,-0.011566162109375,-0.18212890625,-0.9758453369140624,-0.0389399416744709,0.0331683382391929,0.0272377468645572
1769246878315,-0.026153564453125,-0.1864471435546875,-0.9672393798828124,-0.0566747300326824,0.0324934944510459,0.0204112660139799
1769246878325,-0.0303802490234375,-0.1870574951171875,-0.9667510986328124,-0.0726435780525207,0.039158321917057,0.0135179394856095
1769246878335,-0.0196380615234375,-0.1838836669921875,-0.972564697265625,-0.0759469643235206,0.0535804033279418,0.0177377182990312
1769246878345,-0.0036163330078125,-0.17376708984375,-0.9873809814453124,-0.0719431638717651,0.0949110686779022,0.0106774112209677
1769246878355,-0.0063018798828125,-0.1763763427734375,-0.9975738525390624,-0.0739788860082626,0.1305542737245559,0.0224805418401956
1769246878366,0.00958251953125,-0.171417236328125,-0.9985504150390624,-0.059496883302927,0.1147859692573547,0.0377862602472305
1769246878376,0.0064239501953125,-0.16925048828125,-0.99169921875,-0.0410220026969909,0.0898681059479713,0.0451011657714843
1769246878386,-0.003692626953125,-0.168975830078125,-0.9889678955078124,-0.0307904034852981,0.0945832282304763,0.0402440913021564
1769246878396,-0.0139007568359375,-0.1641082763671875,-0.9918670654296876,-0.0218341927975416,0.0546011924743652,0.0487182699143886
1769246878406,-0.0103759765625,-0.178497314453125,-0.987396240234375,-0.0116119151934981,0.0076597840525209,0.053480003029108
1769246878416,-0.01702880859375,-0.175079345703125,-0.9864959716796876,0.0035742283798754,-0.0329691357910633,0.0495297349989414
1769246878426,-0.0208587646484375,-0.1711883544921875,-0.986328125,0.0313073210418224,-0.0527388453483581,0.0526789240539073
1769246878436,-0.0137786865234375,-0.1638336181640625,-1.0016937255859375,0.0549940094351768,-0.0282979514449834,0.0559391640126705
1769246878446,-0.0045623779296875,-0.1660919189453125,-1.013214111328125,0.0765786617994308,0.0020666129421442,0.0581743568181991
1769246878456,0.0013580322265625,-0.16754150390625,-1.018035888671875,0.0936910733580589,0.0174982994794845,0.0658908635377883
1769246878466,0.002838134765625,-0.1697845458984375,-1.011260986328125,0.1034267917275428,0.0470647141337394,0.0556592680513858
1769246878476,-0.0142059326171875,-0.174285888671875,-0.9991455078125,0.1058713048696518,0.0474122576415538,0.0508586540818214
1769246878486,-0.0130157470703125,-0.17388916015625,-0.9815521240234376,0.1056768968701362,0.0444915667176246,0.0454359240829944
1769246878496,-0.015869140625,-0.1751861572265625,-0.9724884033203124,0.0994674712419509,0.0222054366022348,0.0433799661695957
1769246878506,-0.0131988525390625,-0.17828369140625,-0.9628448486328124,0.0851127654314041,0.0098230699077248,0.0356996729969978
1769246878516,-0.02032470703125,-0.1834716796875,-0.9550018310546876,0.0692011788487434,-0.0143017079681158,0.0243175905197858
1769246878526,-0.0222625732421875,-0.18157958984375,-0.95684814453125,0.0564052201807498,-0.0057252636179327,0.0355785004794597
1769246878536,0.0001983642578125,-0.183013916015625,-0.9724578857421876,0.0397727116942405,0.0189723595976829,0.0345342755317688
1769246878546,-0.003265380859375,-0.1820831298828125,-0.9771728515625,0.0199598595499992,0.019081549718976,0.0368269905447959
1769246878556,-0.0031890869140625,-0.1823272705078125,-0.9733428955078124,0.0089010829105973,0.0152428690344095,0.0324982888996601
1769246878567,-0.0084991455078125,-0.1793975830078125,-0.97479248046875,-0.0013587448047474,0.0156260970979928,0.0299919880926609
1769246878576,-0.0106964111328125,-0.1815643310546875,-0.9716644287109376,-0.0079005332663655,0.0062389876693487,0.0270382761955261
1769246878587,-0.0110015869140625,-0.18243408203125,-0.9740447998046876,-0.0101615572348237,0.0030197582673281,0.0204235166311264
1769246878597,-0.01629638671875,-0.18280029296875,-0.9745941162109376,-0.0098481029272079,0.0088800443336367,0.0150527190417051
1769246878607,-0.0142364501953125,-0.1834259033203125,-0.9801483154296876,-0.0083085298538208,-0.0038991342298686,0.0112936673685908
1769246878617,-0.0115966796875,-0.1819915771484375,-0.979644775390625,-0.0032855418976396,-0.0104547711089253,0.0050472230650484
1769246878627,-0.01654052734375,-0.1807861328125,-0.97869873046875,-0.001619468210265,-0.0133211314678192,-0.0055028898641467
1769246878637,-0.018829345703125,-0.18109130859375,-0.978118896484375,-0.0027068369090557,-0.0102955140173435,-0.0083900224417448
1769246878647,-0.01409912109375,-0.177642822265625,-0.9788818359375,-0.0114915398880839,-0.001718271523714,-0.0222387257963418
1769246878657,-0.0208892822265625,-0.1793975830078125,-0.97796630859375,-0.0122992768883705,0.0016711335629224,-0.0184442549943923
1769246878667,-0.003875732421875,-0.183502197265625,-0.981048583984375,-0.0112979281693696,0.0008889631717465,-0.0154047887772321
1769246878677,0.0001373291015625,-0.177154541015625,-0.9828338623046876,-0.0130819799378514,-0.0108920624479651,-0.0098776640370488
1769246878687,0.0028839111328125,-0.182708740234375,-0.9833831787109376,-0.016415724530816,-0.0169201269745826,-0.017479658126831
1769246878697,-0.0146026611328125,-0.1824188232421875,-0.976318359375,-0.0244645960628986,-0.0161123909056186,-0.0166809763759374
1769246878708,-0.0133056640625,-0.1817626953125,-0.974761962890625,-0.0323467552661895,-0.0074573834426701,-0.0189731586724519
1769246878717,-0.0143585205078125,-0.182220458984375,-0.9749603271484376,-0.0366403013467788,-0.0158253014087677,-0.0198815632611513
1769246878727,-0.016510009765625,-0.1791534423828125,-0.974761962890625,-0.0341393277049064,-0.0274228360503911,-0.0187915302813053
1769246878737,-0.008026123046875,-0.177642822265625,-0.9805450439453124,-0.0244193226099014,-0.0391391478478908,-0.0143544385209679
1769246878747,-0.0030975341796875,-0.177734375,-0.988616943359375,-0.0158000010997056,-0.0432630516588687,-0.013799169100821
1769246878757,-0.002227783203125,-0.177215576171875,-0.9892578125,-0.0099879195913672,-0.0400345027446746,-0.0143749443814158
1769246878767,-0.00738525390625,-0.177276611328125,-0.98455810546875,-0.0132247256115078,-0.0349028557538986,-0.0160711109638214
1769246878778,-0.013092041015625,-0.1771087646484375,-0.984466552734375,-0.0169254541397094,0.0014098774408921,-0.0114183034747838
1769246878788,-0.0080718994140625,-0.178924560546875,-0.987884521484375,-0.0231942683458328,0.0084398239850997,-0.0051889028400182
1769246878798,-0.004974365234375,-0.1808319091796875,-0.9796295166015624,-0.0263692885637283,0.0045244442299008,-0.0020809939596801
1769246878808,-0.0102691650390625,-0.1803741455078125,-0.97454833984375,-0.0317195802927017,-0.0084249097853899,-0.0004900216590613
1769246878818,-0.008819580078125,-0.185821533203125,-0.9710693359375,-0.0402331724762916,-0.0298516396433115,-9.267800487577917e-05
1769246878828,-0.0095672607421875,-0.183624267578125,-0.9702911376953124,-0.0398305021226406,-0.0186389312148094,-0.0116499979048967
1769246878838,-0.0224609375,-0.1682586669921875,-0.9787750244140624,-0.0388089157640934,-0.0213460344821214,-0.0132225947454571
1769246878848,-0.0188446044921875,-0.160003662109375,-0.9854278564453124,-0.0227284822613,-0.0175518300384283,0.0064413878135383
1769246878858,0.000274658203125,-0.1636199951171875,-0.9990234375,-0.0104180201888084,0.0153493955731391,0.0225423276424407
1769246878868,0.0094757080078125,-0.1663970947265625,-1.005950927734375,0.0045638591982424,0.0213753301650285,0.0305613707751035
1769246878878,0.0115814208984375,-0.16680908203125,-1.0010528564453125,0.0210179332643747,0.0395271703600883,0.0332612842321395
1769246878888,0.00750732421875,-0.1783599853515625,-0.9971160888671876,0.0197244361042976,0.0626183748245239,0.0347169674932956
1769246878898,0.0048828125,-0.1936492919921875,-0.9885406494140624,0.0150963952764868,0.0646410435438156,0.0309904068708419
1769246878908,-0.0096282958984375,-0.199493408203125,-0.9784088134765624,0.0106100337579846,0.0325017496943473,0.0133421709761023
1769246878918,-0.0340118408203125,-0.1879119873046875,-0.97186279296875,0.016275642439723,0.0154918739572167,-0.0088576739653944
1769246878928,-0.04547119140625,-0.1808319091796875,-0.977813720703125,0.0184730160981416,0.0249016210436821,-0.0149800144135952
1769246878938,-0.0314788818359375,-0.16729736328125,-0.98455810546875,0.0240973457694053,0.0015875103417783,-0.0108041781932115
1769246878948,-0.0150146484375,-0.164764404296875,-0.9853668212890624,0.0312141124159097,-0.0119978068396449,-0.0100491717457771
1769246878958,-0.010711669921875,-0.175994873046875,-0.9865875244140624,0.0374059602618217,-0.0244803093373775,-0.003679423360154
1769246878968,0.0013885498046875,-0.172943115234375,-0.984344482421875,0.0340312048792839,-0.0347451977431774,-0.0019443739438429
1769246878978,-0.00390625,-0.1792755126953125,-0.977203369140625,0.0316253043711185,-0.0356951467692852,-0.0023497070651501
1769246878990,-0.00567626953125,-0.1751251220703125,-0.9742889404296876,0.0258409176021814,-0.0334072262048721,-0.0006673881434835
1769246878998,-0.0106964111328125,-0.176177978515625,-0.9727020263671876,0.0226174276322126,-0.0108134988695383,0.0080107888206839
1769246879009,-0.0035858154296875,-0.176025390625,-0.9771881103515624,0.0125131290405988,0.0082222437486052,0.0063745421357452
1769246879019,-0.0144195556640625,-0.18017578125,-0.9754791259765624,0.001365402713418,0.0176442414522171,0.0014599448768422
1769246879029,-0.0172271728515625,-0.1830596923828125,-0.971221923828125,-0.0075687039643526,0.0067990501411259,-0.0014130732743069
1769246879039,-0.017333984375,-0.184600830078125,-0.9634246826171876,-0.0203055385500192,-0.0108276139944791,-0.0114222979173064
1769246879049,-0.0221710205078125,-0.18463134765625,-0.96258544921875,-0.022891467437148,-0.0089796464890241,-0.0120116556063294
1769246879059,-0.0093536376953125,-0.1791229248046875,-0.9748077392578124,-0.0283552091568708,-0.0026706180069595,-0.010138121433556
1769246879069,-0.0011444091796875,-0.1794891357421875,-0.9815826416015624,-0.0310479309409856,0.0021174794528633,-0.0071641695685684
1769246879079,-0.001953125,-0.1777191162109375,-0.983917236328125,-0.0304838735610246,-0.0031190942972898,-0.0049169943667948
1769246879089,-0.0005645751953125,-0.175445556640625,-0.980682373046875,-0.0272915419191122,-0.0105493133887648,-0.0007025419035926
1769246879099,-0.0032806396484375,-0.174713134765625,-0.9827728271484376,-0.0263120308518409,0.0137091539800167,0.0039950078353285
1769246879109,-0.005615234375,-0.1748199462890625,-0.9858551025390624,-0.029019134119153,0.0039920783601701,0.0043843621388077
1769246879119,-0.0118560791015625,-0.1745147705078125,-0.9787139892578124,-0.0329795219004154,-0.0028112328145653,0.0088342381641268
1769246879129,-0.011077880859375,-0.1829071044921875,-0.9776153564453124,-0.0349646434187889,0.0031587753910571,0.0117061911150813
1769246879139,-0.00921630859375,-0.1822357177734375,-0.9847259521484376,-0.0319022722542285,-0.0118726380169391,0.0103961816057562
1769246879149,-0.01348876953125,-0.1774139404296875,-0.9874420166015624,-0.020160662010312,-0.0128963571041822,0.0090179955586791
1769246879159,-0.01751708984375,-0.1731719970703125,-0.99163818359375,-0.0123932864516973,0.0025252092164009,0.0010604707058519
1769246879169,-0.017791748046875,-0.175567626953125,-0.993988037109375,-0.0040077911689877,-0.0074781561270356,0.0030546458438038
1769246879179,-0.005218505859375,-0.17877197265625,-0.996490478515625,0.0139038311317563,-0.0108015146106481,0.0017877799691632
1769246879190,-0.0030059814453125,-0.1807098388671875,-0.995758056640625,0.0239902883768081,-0.0293608177453279,-0.0048919604159891
1769246879200,-0.009490966796875,-0.1804962158203125,-0.9854888916015624,0.0249341111630201,-0.0624282248318195,-0.0066381953656673
1769246879210,-0.0135040283203125,-0.1789398193359375,-0.973602294921875,0.031724639236927,-0.0995990261435508,-0.0091783180832862
1769246879220,-0.023406982421875,-0.177001953125,-0.9740753173828124,0.035012312233448,-0.0612383224070072,-0.0129176629707217
1769246879230,-0.0263671875,-0.1759490966796875,-0.9853363037109376,0.0115775605663657,-0.0219574961811304,-0.0257053636014461
1769246879240,-0.03118896484375,-0.177276611328125,-0.9761505126953124,0.0052829124033451,-0.0311704352498054,-0.0186317414045333
1769246879250,-0.017120361328125,-0.1755218505859375,-0.98114013671875,0.0105836680158972,-0.0309416707605123,-0.0139070274308323
1769246879260,-0.0138702392578125,-0.176971435546875,-0.988311767578125,0.0075569860637187,-0.0199079271405935,-0.0257948450744152
1769246879270,-0.026123046875,-0.18511962890625,-0.981597900390625,0.0021710088476538,0.0082573974505066,-0.0286367051303386
1769246879280,-0.021240234375,-0.1833648681640625,-0.985931396484375,0.004407531581819,0.0080403499305248,-0.027335749939084
1769246879290,-0.0107574462890625,-0.178436279296875,-0.9862518310546876,0.0036575854755938,0.0192514583468437,-0.0297637544572353
1769246879300,-0.018157958984375,-0.1847076416015625,-0.978424072265625,0.0024157534353435,0.0049465554766356,-0.0338253416121006
1769246879310,-0.01751708984375,-0.1826019287109375,-0.9698028564453124,0.0063407202251255,-0.0308543182909488,-0.0299576334655284
1769246879320,-0.0130615234375,-0.175506591796875,-0.9677276611328124,0.0059202071279287,-0.0571959130465984,-0.0283275116235017
1769246879330,-0.0143280029296875,-0.172943115234375,-0.9689178466796876,0.0053753242827951,-0.0569498352706432,-0.0217236708849668
1769246879340,-0.012481689453125,-0.172119140625,-0.978118896484375,-0.001587243983522,-0.0247881710529327,-0.0210560169070959
1769246879350,-0.012359619140625,-0.1734466552734375,-0.9849090576171876,-0.0049966229125857,-0.0036288232076913,-0.0176716707646846
1769246879360,-0.011749267578125,-0.1754608154296875,-0.985260009765625,-0.01281273458153,0.0199979431927204,-0.0167262498289346
1769246879370,-0.011474609375,-0.1806182861328125,-0.9817962646484376,-0.0173960346728563,0.0161382239311933,-0.0164460856467485
1769246879380,-0.0107421875,-0.18505859375,-0.9744720458984376,-0.0128026138991117,0.0004133225884288,-0.0086121298372745
1769246879390,-0.0040435791015625,-0.1827392578125,-0.9781036376953124,-0.0120899518951773,0.0013598100049421,-0.0102859269827604
1769246879400,-0.0102996826171875,-0.184814453125,-0.97613525390625,-0.0224097017198801,0.0047601340338587,-0.0158711075782775
1769246879410,-0.0146636962890625,-0.18267822265625,-0.970123291015625,-0.0283115319907665,-0.0095349159091711,-0.0098241344094276
1769246879421,-0.0055694580078125,-0.1760101318359375,-0.9711151123046876,-0.0313906781375408,-0.0200291015207767,-0.0037571876309812
1769246879431,-0.006622314453125,-0.174957275390625,-0.974945068359375,-0.031962726265192,-0.0353036634624004,0.0058397795073688
1769246879441,-0.0075531005859375,-0.1750335693359375,-0.9782257080078124,-0.0298063643276691,-0.0631004050374031,0.009975136257708
1769246879451,-0.0099029541015625,-0.1771392822265625,-0.9767913818359376,-0.0316093266010284,-0.0925789326429367,0.0098680770024657
1769246879461,-0.0163116455078125,-0.17803955078125,-0.9737396240234376,-0.0232589840888977,-0.0887772738933563,0.000670850276947
1769246879471,-0.0300445556640625,-0.1795196533203125,-0.9854736328125,-0.0354296304285526,-0.0462830774486064,-0.0082696480676531
1769246879481,-0.0264739990234375,-0.183258056640625,-0.9820098876953124,-0.0361028760671615,-0.0540131665766239,-0.0063295350410044
1769246879491,-0.020782470703125,-0.186614990234375,-0.984130859375,-0.021330589428544,-0.0665348172187805,-0.0046578687615692
1769246879501,-0.01971435546875,-0.1732635498046875,-0.9904632568359376,-0.024180170148611,-0.0163789726793766,-0.0115469340234994
1769246879511,-0.0239105224609375,-0.181488037109375,-0.98974609375,-0.0262718182057142,-0.0062986421398818,-0.0163680538535118
1769246879521,-0.0224761962890625,-0.175628662109375,-0.9862518310546876,-0.0231679026037454,-0.0156450066715478,-0.0120827620849013
1769246879531,-0.018218994140625,-0.17425537109375,-0.98638916015625,-0.0175648797303438,-0.0087056076154112,-0.0080139841884374
1769246879541,-0.0206146240234375,-0.18212890625,-0.9900360107421876,-0.0169041492044925,0.0100883208215236,-0.020805412903428
1769246879551,-0.0320281982421875,-0.1800537109375,-0.991363525390625,-0.0089412974193692,0.0132223283872008,-0.0275506675243377
1769246879561,-0.03485107421875,-0.168670654296875,-0.997772216796875,0.0007456850726157,0.0043065976351499,-0.0239444803446531
1769246879571,-0.029327392578125,-0.1690826416015625,-0.9928741455078124,0.0102710137143731,-0.0175941735506057,-0.0095005603507161
1769246879581,-0.0207672119140625,-0.173919677734375,-0.9849090576171876,0.019194733351469,-0.0165134631097316,-0.0184165574610233
1769246879591,-0.034881591796875,-0.180145263671875,-0.98321533203125,0.0189161673188209,-0.0072733592242002,-0.0288026202470064
1769246879601,-0.027008056640625,-0.173370361328125,-0.9813995361328124,0.0130015527829527,0.0044908886775374,-0.0329345129430294
1769246879611,-0.016326904296875,-0.1803436279296875,-0.9811248779296876,0.008846222423017,-0.0019715381786227,-0.0273996666073799
1769246879622,-0.0064849853515625,-0.1894378662109375,-0.977996826171875,0.0058230017311871,-0.003155313199386,-0.0200687833130359
1769246879631,-0.0027923583984375,-0.1933135986328125,-0.979522705078125,0.0112515892833471,-0.0051769185811281,-0.0165861677378416
1769246879642,-0.0122528076171875,-0.1808929443359375,-0.9853363037109376,0.0123157883062958,0.0137677434831857,-0.0227971915155649
1769246879652,-0.0254974365234375,-0.1658172607421875,-0.9871978759765624,0.0114832846447825,0.0342754162847995,-0.0272025931626558
1769246879662,-0.030792236328125,-0.160247802734375,-0.9827728271484376,0.0089396992698311,0.0283528119325637,-0.0219207443296909
1769246879672,-0.0282440185546875,-0.1656494140625,-0.970428466796875,0.0168207921087741,0.0047055394388735,-0.0151706971228122
1769246879682,-0.022979736328125,-0.1734771728515625,-0.968414306640625,0.0215657465159893,-0.0273581203073263,-0.0117099191993474
1769246879692,-0.02020263671875,-0.180938720703125,-0.97296142578125,0.016246348619461,-0.0561572797596454,-0.0142084965482354
1769246879702,-0.024658203125,-0.1885986328125,-0.970977783203125,0.0097996341064572,-0.0417559705674648,-0.0159057285636663
1769246879712,-0.019989013671875,-0.187744140625,-0.9811859130859376,-0.0001233043585671,-0.0131656033918261,-0.008422247134149
1769246879722,-0.01202392578125,-0.1858673095703125,-0.9842376708984376,-0.0075889439322054,-0.0012295814231038,-0.001750495750457
1769246879732,-0.0159149169921875,-0.1835174560546875,-0.981536865234375,-0.0151448640972375,-0.0027252128347754,0.005510879214853
1769246879742,-0.0186767578125,-0.181732177734375,-0.9751434326171876,-0.0216083563864231,-0.0146372662857174,0.0132715972140431
1769246879752,-0.009857177734375,-0.181243896484375,-0.971954345703125,-0.0248369071632623,-0.0179513040930032,0.0149445943534374
1769246879762,-0.0107574462890625,-0.176239013671875,-0.97021484375,-0.0263447873294353,-0.0141168842092156,0.0166780464351177
1769246879772,-0.014312744140625,-0.1735687255859375,-0.9773406982421876,-0.0255655478686094,0.0261208172887563,0.0103359948843717
1769246879782,-0.0229644775390625,-0.1690673828125,-0.9886322021484376,-0.0231529902666807,0.0515683852136135,0.0121032679453492
1769246879792,-0.0155792236328125,-0.1640625,-0.9956207275390624,-0.0163462162017822,0.0572616904973983,0.0148617699742317
1769246879802,-0.0260009765625,-0.1761016845703125,-0.9934234619140624,-0.012665195390582,0.0582593120634555,0.009008408524096
1769246879812,-0.03076171875,-0.1762237548828125,-0.9848785400390624,-0.0002870887692552,0.048741441220045,0.0160585958510637
1769246879822,-0.0151214599609375,-0.18084716796875,-0.98651123046875,0.0085575357079505,0.0348693020641803,0.0135405762121081
1769246879832,-0.0251617431640625,-0.179901123046875,-0.980499267578125,0.0143187521025538,0.0228541828691959,0.0099381180480122
1769246879842,-0.0322723388671875,-0.184356689453125,-0.9771728515625,0.0108340056613087,-0.0013808490475639,0.0111874071881175
1769246879852,-0.0255126953125,-0.1907501220703125,-0.9752044677734376,0.0103405220434069,-0.0063774716109037,0.0170274525880813
1769246879863,-0.0187835693359375,-0.18194580078125,-0.9816436767578124,0.0119344238191843,0.0153637761250138,0.0164519436657428
1769246879872,-0.018890380859375,-0.174591064453125,-0.98834228515625,0.0100694121792912,0.0298609603196382,0.0152383409440517
1769246879883,-0.024932861328125,-0.168365478515625,-0.9878082275390624,0.0039553269743919,0.030837807804346,0.0123014077544212
1769246879893,-0.0262451171875,-0.171417236328125,-0.9820556640625,-0.0025393241085112,0.0060056946240365,0.01151018217206
1769246879903,-0.02923583984375,-0.1767425537109375,-0.975860595703125,-0.0024911209475249,-0.0106065720319747,0.0003065298369619
1769246879913,-0.035369873046875,-0.1810760498046875,-0.9775848388671876,-0.0019763319287449,-0.0097911115735769,-0.00943558011204
1769246879923,-0.0246124267578125,-0.1837158203125,-0.983917236328125,0.0066256783902645,-0.0135720018297433,-0.0106601007282733
1769246879933,-0.017486572265625,-0.185516357421875,-0.98431396484375,0.0128279142081737,-0.0176442414522171,-0.0166580732911825
1769246879943,-0.023590087890625,-0.1819305419921875,-0.9815826416015624,0.019168633967638,-0.0271117780357599,-0.0165219847112894
1769246879953,-0.0247650146484375,-0.178009033203125,-0.9818878173828124,0.0276414807885885,-0.0274140480905771,-0.008316253311932
1769246879963,-0.0191650390625,-0.17822265625,-0.9837188720703124,0.0256470404565334,-0.0059250006452202,-0.0038575888611376
1769246879973,-0.0196990966796875,-0.1800079345703125,-0.9821319580078124,0.0150742903351783,0.0034882084000855,-0.0031095067970454
1769246879983,-0.02716064453125,-0.180999755859375,-0.974609375,-0.0035630431957542,0.0121719781309366,-0.0154007943347096
