timestamp_ms,acc_x,acc_y,acc_z,gyro_x,gyro_y,gyro_z
1768475596724,0.1942291259765625,-0.1401519775390625,-1.0003662109375,-0.2520365118980407,0.0088411625474691,-0.0581637024879455
1768475596730,0.1838836669921875,-0.1284942626953125,-1.0355072021484375,-0.2010177969932556,0.0066059711389243,-0.0442681275308132
1768475596740,0.1767730712890625,-0.1201934814453125,-1.0497589111328125,-0.152123749256134,-0.0083058672025799,-0.0103005748242139
1768475596750,0.181854248046875,-0.1161956787109375,-1.048187255859375,-0.1240207478404045,0.012394618242979,0.0304444581270217
1768475596760,0.181304931640625,-0.1173248291015625,-1.0205230712890625,-0.1164533719420433,0.0395300984382629,0.063862070441246
1768475596771,0.1837005615234375,-0.1221160888671875,-0.9903717041015624,-0.1027839034795761,0.0617805421352386,0.083939641714096
1768475596780,0.205352783203125,-0.11334228515625,-0.98553466796875,-0.0767259374260902,0.0741679668426513,0.0919088870286941
1768475596790,0.2221527099609375,-0.108917236328125,-0.981781005859375,-0.0436212457716465,0.0501910001039505,0.0958535596728324
1768475596800,0.2300872802734375,-0.1184539794921875,-0.97979736328125,-0.0193646438419818,0.0170972272753715,0.1118897795677185
1768475596810,0.22515869140625,-0.1271820068359375,-0.9654083251953124,-0.0489616841077804,0.0152117097750306,0.1306142061948776
1768475596821,0.1994476318359375,-0.1355743408203125,-0.9226837158203124,-0.1176246330142021,0.0244526118040084,0.1336549967527389
1768475596831,0.1587677001953125,-0.1348876953125,-0.89239501953125,-0.1993194967508316,0.0377244763076305,0.1180619224905967
1768475596841,0.1314697265625,-0.1229705810546875,-0.8869476318359375,-0.264310210943222,0.0396613925695419,0.0887892544269561
1768475596851,0.1229248046875,-0.11151123046875,-0.906829833984375,-0.3036616146564483,0.0146617665886878,0.0522403009235858
1768475596861,0.1304779052734375,-0.108001708984375,-0.93511962890625,-0.3120468556880951,-0.013652428984642,0.019835490733385
1768475596871,0.134246826171875,-0.1077728271484375,-0.9637298583984376,-0.3147667348384857,-0.0171395726501941,-0.0020586235914379
1768475596881,0.128387451171875,-0.1044464111328125,-0.9782257080078124,-0.3184349536895752,0.0013355752453207,-0.0140732079744338
1768475596891,0.1271820068359375,-0.104278564453125,-0.9923858642578124,-0.3035345673561096,0.0113786216825246,-0.0008415589109063
1768475596901,0.1502838134765625,-0.101104736328125,-1.016265869140625,-0.2621298730373382,-0.0167278479784727,0.0321166589856147
1768475596911,0.1733551025390625,-0.1032257080078125,-1.0385589599609375,-0.2150244265794754,-0.0316543318331241,0.0644980296492576
1768475596921,0.1684417724609375,-0.1083984375,-1.04486083984375,-0.1694622635841369,-0.0204219184815883,0.0797925665974617
1768475596931,0.147003173828125,-0.1024169921875,-1.0451507568359375,-0.1221410855650901,0.0028836708515882,0.0672323033213615
1768475596941,0.120849609375,-0.1031341552734375,-1.0488128662109375,-0.067407801747322,-0.0055702677927911,0.0398344993591308
1768475596951,0.1120452880859375,-0.1045989990234375,-1.04888916015625,-0.016303339973092,-0.0007624630234204,0.0057204701006412
1768475596961,0.1118927001953125,-0.1083221435546875,-1.0431060791015625,0.0217521674931049,-0.0082816323265433,-0.0172871109098196
1768475596971,0.1274261474609375,-0.112945556640625,-1.0265960693359375,0.0414688810706138,-0.02251329831779,-0.0168839078396558
1768475596981,0.1502685546875,-0.1179351806640625,-1.0028228759765625,0.0426776893436908,-0.0203513447195291,0.0002327602705918
1768475596991,0.1618194580078125,-0.1171112060546875,-0.984405517578125,0.0444992892444133,-0.0150157008320093,0.0201734453439712
1768475597001,0.1702728271484375,-0.105712890625,-0.9834747314453124,0.0600340403616428,-0.0089487535879015,0.029550701379776
1768475597011,0.1615142822265625,-0.096160888671875,-0.9923248291015624,0.0706731006503105,-0.0104142911732196,0.0247791167348623
1768475597021,0.145782470703125,-0.094757080078125,-0.9810028076171876,0.0552526041865348,-0.0076920082792639,0.0152268894016742
1768475597032,0.1405487060546875,-0.0924530029296875,-0.956634521484375,0.0321408919990062,-0.0255181435495615,0.0048568067140877
1768475597042,0.144989013671875,-0.0934906005859375,-0.9427642822265624,0.0043081957846879,-0.0381729528307914,-0.0014199974248185
1768475597052,0.152587890625,-0.0933685302734375,-0.937347412109375,-0.017993114888668,-0.0439304411411285,-0.0143999783322215
1768475597062,0.15460205078125,-0.090240478515625,-0.94256591796875,-0.037993986159563,-0.042578887194395,-0.0254209376871585
1768475597072,0.1539306640625,-0.0931396484375,-0.950347900390625,-0.060889184474945,-0.02984737791121,-0.036157738417387
1768475597082,0.154083251953125,-0.0948638916015625,-0.9542999267578124,-0.083481840789318,-0.017936922609806,-0.0395543351769447
1768475597092,0.1623077392578125,-0.0988311767578125,-0.962646484375,-0.0987793058156967,-0.0186772812157869,-0.0336817987263202
1768475597102,0.17156982421875,-0.0986480712890625,-0.9694061279296876,-0.1147393658757209,-0.0287709273397922,-0.0215303264558315
1768475597112,0.1766204833984375,-0.0966644287109375,-0.96649169921875,-0.1307633370161056,-0.0416174829006195,-0.0198472086340188
1768475597122,0.1705169677734375,-0.0899200439453125,-0.96636962890625,-0.1278351992368698,-0.0470719039440155,-0.0293661449104547
1768475597132,0.1573486328125,-0.0845947265625,-0.9814453125,-0.1147321760654449,-0.0424827449023723,-0.0417956486344337
1768475597142,0.154052734375,-0.087127685546875,-0.99676513671875,-0.0958551540970802,-0.0336964428424835,-0.0552014708518981
1768475597152,0.1537322998046875,-0.0835723876953125,-1.005401611328125,-0.0703684389591217,-0.0259610265493392,-0.068990521132946
1768475597162,0.1527557373046875,-0.0843658447265625,-1.01458740234375,-0.0458668246865272,-0.0151347443461418,-0.0682277902960777
1768475597172,0.163055419921875,-0.084686279296875,-1.0140838623046875,-0.0319331660866737,-0.0128079401329159,-0.0577136315405368
1768475597182,0.170074462890625,-0.0813140869140625,-1.0068206787109375,-0.0202842317521572,-0.015164571814239,-0.0433056615293026
1768475597192,0.1725006103515625,-0.082366943359375,-1.0023651123046875,-0.0137725379317998,-0.0041145840659737,-0.0344224236905574
1768475597202,0.1676788330078125,-0.0835418701171875,-0.9945220947265624,-0.0061335260979831,0.0007515440811403,-0.0327504910528659
1768475597212,0.1625213623046875,-0.0849456787109375,-0.9891510009765624,-0.0056421728804707,-0.0041281660087406,-0.0290660057216882
1768475597222,0.157806396484375,-0.089263916015625,-0.9797515869140624,-0.0104592991992831,-0.0065705510787665,-0.0276886187493801
1768475597232,0.1527557373046875,-0.0962982177734375,-0.968841552734375,-0.0258291997015476,-0.0051646684296429,-0.0257144179195165
1768475597242,0.155731201171875,-0.0967559814453125,-0.959625244140625,-0.0356866233050823,-0.0077290260232985,-0.0176493003964424
1768475597252,0.1630706787109375,-0.0971221923828125,-0.96563720703125,-0.0311342179775238,-0.0074187680147588,-0.0161014720797538
1768475597262,0.1645355224609375,-0.091033935546875,-0.981292724609375,-0.008526642806828,-0.0056227319873869,-0.023722106590867
1768475597273,0.158905029296875,-0.0827789306640625,-0.9968109130859376,0.0140116894617676,-0.0078778965398669,-0.0364765189588069
1768475597283,0.1591339111328125,-0.08380126953125,-0.9983978271484376,0.0195377487689256,-0.0249828472733497,-0.038393460214138
1768475597293,0.1611480712890625,-0.087738037109375,-0.9868011474609376,0.0163504779338836,-0.0341297425329685,-0.0367601439356803
1768475597303,0.159027099609375,-0.08978271484375,-0.975494384765625,0.0030136329587548,-0.0379425883293151,-0.036755084991455
1768475597313,0.1537017822265625,-0.0936126708984375,-0.96783447265625,-0.0198006033897399,-0.0401620678603649,-0.0421815402805805
1768475597323,0.1474456787109375,-0.0976104736328125,-0.9564971923828124,-0.044198352843523,-0.033940389752388,-0.0434489399194717
1768475597333,0.14892578125,-0.0953826904296875,-0.95623779296875,-0.0598204582929611,-0.0351784937083721,-0.041139181703329
1768475597343,0.1553955078125,-0.08856201171875,-0.96307373046875,-0.0731541067361831,-0.0196008663624525,-0.0395111888647079
1768475597353,0.156494140625,-0.0869598388671875,-0.9695587158203124,-0.0740076452493667,-0.0097628822550177,-0.0446604117751121
1768475597363,0.151763916015625,-0.08209228515625,-0.9831085205078124,-0.062017299234867,0.0024636902380734,-0.056228119879961
1768475597373,0.1469268798828125,-0.0760650634765625,-0.996307373046875,-0.0464415326714515,0.0048352354206144,-0.0642333179712295
1768475597383,0.144683837890625,-0.07159423828125,-1.002471923828125,-0.0367838479578495,0.0064816013909876,-0.0661569163203239
1768475597393,0.153076171875,-0.067779541015625,-0.9983367919921876,-0.0228166319429874,0.0002764361270237,-0.0603259243071079
1768475597404,0.16156005859375,-0.066925048828125,-0.99884033203125,-0.0122739765793085,-0.005321794655174,-0.0547340847551822
1768475597413,0.1624908447265625,-0.074737548828125,-0.995880126953125,-0.0098102865740656,-3.1957933970261365e-05,-0.0508693046867847
1768475597428,0.1591644287109375,-0.086334228515625,-0.9845733642578124,-0.0137072904035449,-0.000826911535114,-0.0475760400295257
1768475597433,0.160430908203125,-0.088775634765625,-0.9774017333984376,-0.0105735482648015,-0.0161826983094215,-0.0456620268523693
1768475597443,0.157684326171875,-0.083343505859375,-0.9780426025390624,-0.00565921748057,-0.0257173478603363,-0.0511638522148132
1768475597453,0.1531524658203125,-0.08319091796875,-0.9792633056640624,-0.0042895535007119,-0.0250390395522117,-0.0454266034066677
1768475597463,0.157196044921875,-0.08563232421875,-0.9761810302734376,-0.0108550442382693,-0.0151541857048869,-0.0304761491715908
1768475597473,0.164703369140625,-0.0830230712890625,-0.9746551513671876,-0.0147017147392034,-0.0057809236459434,-0.0136883817613124
1768475597483,0.1704254150390625,-0.083984375,-0.98028564453125,-0.0151390051469206,0.0003957457374781,0.0099804624915122
1768475597494,0.181976318359375,-0.0839691162109375,-0.985107421875,-0.020991301164031,-0.0041428133845329,0.0346615724265575
1768475597504,0.183380126953125,-0.08282470703125,-0.9788360595703124,-0.0240486115217208,-0.0061913169920444,0.0494453124701976
1768475597514,0.1695098876953125,-0.08258056640625,-0.9779815673828124,-0.016834907233715,-0.0068539115600287,0.0388073176145553
1768475597524,0.1519317626953125,-0.0792694091796875,-0.9803314208984376,-0.006613427773118,-0.0144146252423524,0.013489443808794
1768475597534,0.1368255615234375,-0.0759429931640625,-0.984344482421875,0.0057937069796025,-0.0111418673768639,-0.0147898653522133
1768475597544,0.128997802734375,-0.0759124755859375,-0.98602294921875,0.0060064936988055,-0.0070299464277923,-0.0324231870472431
1768475597554,0.1359100341796875,-0.0795135498046875,-0.97967529296875,0.0004197141970507,0.0045159221626818,-0.0298939831554889
1768475597564,0.151214599609375,-0.08258056640625,-0.9781494140625,-0.0064413878135383,0.0110981911420822,-0.0164796411991119
1768475597574,0.162353515625,-0.0870208740234375,-0.979248046875,-0.0097431745380163,0.0087753823027014,-0.0038780951872467
1768475597584,0.1710968017578125,-0.08837890625,-0.980865478515625,-0.0205982197076082,0.009237440302968,0.0111796837300062
1768475597594,0.174835205078125,-0.0865936279296875,-0.976776123046875,-0.0329310521483421,0.0028834044933319,0.018989136442542
1768475597604,0.1663665771484375,-0.0846405029296875,-0.974639892578125,-0.045071605592966,0.0041127195581793,0.0241218470036983
1768475597615,0.158294677734375,-0.082794189453125,-0.9692535400390624,-0.0518948882818222,0.0085269091650843,0.0155438054352998
1768475597624,0.1469879150390625,-0.0731048583984375,-0.971649169921875,-0.0479150600731372,0.0052187303081154,0.0068445904180407
1768475597634,0.142974853515625,-0.069061279296875,-0.9821319580078124,-0.0347422659397125,0.0021097562275826,0.0003600593772716
1768475597644,0.1483917236328125,-0.068084716796875,-0.9926300048828124,-0.0273269619792699,0.0041433461010456,0.0012290488230064
1768475597654,0.1515960693359375,-0.07537841796875,-0.992523193359375,-0.0284992847591638,0.0134020913392305,0.00472551304847
1768475597664,0.155548095703125,-0.074462890625,-0.9856414794921876,-0.0264483857899904,0.0168820451945066,-0.0027742148377001
1768475597674,0.1536102294921875,-0.073516845703125,-0.99102783203125,-0.0196954067796468,0.0150468600913882,-0.0111205615103244
1768475597684,0.15087890625,-0.0786895751953125,-0.99456787109375,-0.0181486438959836,0.0087306406348943,-0.0140295326709747
1768475597694,0.1534423828125,-0.0821990966796875,-0.9855499267578124,-0.0229710955172777,0.0055004931055009,-0.0131600107997655
1768475597705,0.1555938720703125,-0.083587646484375,-0.9797210693359376,-0.0244542099535465,0.0007491472060792,-0.0109008513391017
1768475597714,0.1576995849609375,-0.0809326171875,-0.9843597412109376,-0.0184317380189895,0.0035912727471441,-0.0082832295447587
1768475597725,0.1561279296875,-0.0792694091796875,-0.9914703369140624,-0.0084249097853899,0.011060107499361,-0.0067742830142378
1768475597735,0.15863037109375,-0.078887939453125,-0.99456787109375,0.0072616413235664,0.0153619116172194,-0.0037121803034096
1768475597745,0.1618499755859375,-0.0780792236328125,-1.00054931640625,0.0247716587036848,0.019270634278655,-0.0036163064651191
1768475597755,0.157958984375,-0.078521728515625,-1.00030517578125,0.0334138832986354,0.0259341280907392,-0.0082595273852348
1768475597765,0.1498565673828125,-0.077178955078125,-0.992889404296875,0.0362229868769645,0.0284385662525892,-0.015541142784059
1768475597775,0.1463470458984375,-0.07342529296875,-0.9830474853515624,0.0296449773013591,0.0139858564361929,-0.0148300789296627
1768475597785,0.15228271484375,-0.0781707763671875,-0.973388671875,0.0159608572721481,0.0117772975936532,-0.0073239593766629
1768475597795,0.1577911376953125,-0.078155517578125,-0.967041015625,0.0103541035205125,0.0079394159838557,-0.010758638381958
1768475597805,0.15228271484375,-0.07745361328125,-0.9694366455078124,0.0083964141085743,0.0032298816367983,-0.0152905397117137
1768475597815,0.1526336669921875,-0.0793914794921875,-0.973114013671875,0.0026184199377894,0.0010399643797427,-0.016577910631895
1768475597825,0.155364990234375,-0.0830841064453125,-0.9723663330078124,-0.0024916534312069,0.0011568771442398,-0.0199705120176076
1768475597835,0.1556549072265625,-0.07769775390625,-0.9733734130859376,-0.0006402239087037,-0.0034788872580975,-0.0252816546708345
1768475597845,0.1539459228515625,-0.0760650634765625,-0.9794464111328124,-0.0005355617031455,-0.0152644403278827,-0.0234936084598302
1768475597855,0.1594696044921875,-0.0756072998046875,-0.977630615234375,-0.0096166748553514,-0.0182879269123077,-0.0158394165337085
1768475597865,0.160003662109375,-0.0732269287109375,-0.9720458984375,-0.0177734047174453,-0.0166578069329261,-0.0142516400665044
1768475597876,0.153167724609375,-0.0714263916015625,-0.97406005859375,-0.025186313316226,-0.0067734839394688,-0.014976286329329
1768475597885,0.1472320556640625,-0.0758209228515625,-0.976348876953125,-0.0336208119988441,0.0048386971466243,-0.0153185026720166
1768475597895,0.15673828125,-0.0803070068359375,-0.9735107421875,-0.0414672829210758,-0.0022421153262257,-0.0072840116918087
1768475597905,0.1630096435546875,-0.0764923095703125,-0.973541259765625,-0.0455658882856369,-0.0078494008630514,0.0035995284561067
1768475597915,0.16204833984375,-0.069732666015625,-0.978485107421875,-0.0307552497833967,-0.0173909738659858,0.000373907823814
1768475597925,0.1547698974609375,-0.0671234130859375,-0.98974609375,-0.0124851651489734,-0.0159083921462297,-0.012035091407597
1768475597935,0.145904541015625,-0.0659637451171875,-0.998321533203125,0.0014519554097205,-0.0059252670034766,-0.0204256456345319
1768475597945,0.1451873779296875,-0.06756591796875,-0.99932861328125,0.0127102024853229,0.0031619712244719,-0.024625452235341
1768475597955,0.1476593017578125,-0.074554443359375,-0.997222900390625,0.013039369136095,0.0104246772825717,-0.019413910806179
1768475597966,0.1567840576171875,-0.0774993896484375,-0.9887847900390624,0.0104262754321098,0.0107314735651016,-0.012010590173304
1768475597976,0.162353515625,-0.0819854736328125,-0.983489990234375,0.0053369747474789,0.0016703346045687,-0.0021619540639221
1768475597986,0.16558837890625,-0.0883636474609375,-0.979583740234375,-0.0019646140281111,-0.0029760824982076,0.006705040577799
1768475597996,0.1670074462890625,-0.0891876220703125,-0.973419189453125,-0.0115858158096671,-0.0078406129032373,0.0097796600311994
1768475598006,0.161285400390625,-0.0879058837890625,-0.9718170166015624,-0.0206211227923631,-0.0068219532258808,0.010120278224349
1768475598016,0.1529998779296875,-0.0827484130859375,-0.9722442626953124,-0.0238102581351995,-0.0015534218400716,-0.0024003069847822
1768475598026,0.145355224609375,-0.078338623046875,-0.9781494140625,-0.0262928567826747,0.0022200110834091,-0.0145589690655469
1768475598036,0.141571044921875,-0.0766143798828125,-0.982177734375,-0.028957350179553,0.0043878243304789,-0.0192362796515226
1768475598046,0.1468658447265625,-0.0722808837890625,-0.98345947265625,-0.0269442666321992,0.0066158245317637,-0.0167667288333177
1768475598056,0.156646728515625,-0.0735931396484375,-0.9884033203125,-0.0230475291609764,-0.0004426173691172,-0.0002279665932292
1768475598066,0.171783447265625,-0.0753631591796875,-0.994232177734375,-0.0136811910197138,-0.0063220779411494,0.0205225851386785
1768475598076,0.1787109375,-0.0755157470703125,-0.997314453125,0.0034213629551231,-0.0041334922425448,0.0283227171748876
1768475598086,0.1686553955078125,-0.0760040283203125,-1.00189208984375,0.0168884359300136,0.003165166825056,0.0283730514347553
1768475598096,0.1566314697265625,-0.0764923095703125,-0.99798583984375,0.0300367288291454,0.0056048887781798,0.0204887632280588
1768475598106,0.1533355712890625,-0.0742340087890625,-0.993499755859375,0.0351300239562988,0.0065170214511454,0.0106334695592522
1768475598116,0.1471710205078125,-0.077178955078125,-0.987060546875,0.0257346574217081,0.0149581767618656,0.0031121699139475
1768475598126,0.146270751953125,-0.081329345703125,-0.97357177734375,0.0099700763821601,0.0139965089038014,0.0006796387024223
1768475598136,0.148773193359375,-0.079833984375,-0.9687652587890624,0.0006793724023737,0.0041425470262765,0.0023385216481983
1768475598146,0.153961181640625,-0.078826904296875,-0.96923828125,-0.009264338761568,0.0003736414946615,0.0048685246147215
1768475598156,0.1543121337890625,-0.079345703125,-0.97247314453125,-0.0134204672649502,-0.0056863813661038,-0.0022375879343599
1768475598166,0.149261474609375,-0.0792388916015625,-0.9749298095703124,-0.0195832885801792,-0.0009416937828063,-0.0071324780583381
1768475598177,0.144744873046875,-0.078704833984375,-0.973358154296875,-0.0294942427426576,0.0042967442423105,-0.0128513500094413
1768475598186,0.14501953125,-0.0758209228515625,-0.97393798828125,-0.0344216227531433,0.0147712230682373,-0.0222536399960517
1768475598197,0.1468505859375,-0.076904296875,-0.9769134521484376,-0.0381934568285942,0.0163789726793766,-0.0230560507625341
1768475598207,0.1538543701171875,-0.0777435302734375,-0.979766845703125,-0.0359185859560966,0.0093503585085272,-0.0162189174443483
1768475598217,0.16339111328125,-0.07635498046875,-0.9831390380859376,-0.0325395688414573,0.007594536524266,-0.008250206708908
1768475598227,0.1645660400390625,-0.075225830078125,-0.98321533203125,-0.0286851748824119,0.0071487231180071,-0.0092249233275651
1768475598237,0.157196044921875,-0.0753021240234375,-0.983795166015625,-0.0271895434707403,0.0060384515672922,-0.0126955555751919
1768475598247,0.15289306640625,-0.0778045654296875,-0.9829559326171876,-0.028620459139347,0.0049649314023554,-0.0121916849166154
1768475598257,0.1546630859375,-0.0762939453125,-0.98101806640625,-0.0221420545130968,0.00056485645473,-0.0112603772431612
1768475598267,0.1552276611328125,-0.0755462646484375,-0.986114501953125,-0.0180844608694314,-0.0060389838181436,-0.0084134582430124
1768475598277,0.15704345703125,-0.0761871337890625,-0.985748291015625,-0.0158857554197311,-0.002535329433158,-0.000989097985439
1768475598287,0.1590118408203125,-0.0764007568359375,-0.9830474853515624,-0.0107501158490777,0.0113639747723937,0.000319313025102
1768475598297,0.1553497314453125,-0.0763092041015625,-0.988250732421875,-0.006719421595335,0.014177338220179,0.0064432518556714
1768475598307,0.159820556640625,-0.0738677978515625,-0.9920196533203124,0.0021275994367897,0.0110955275595188,0.01839498616755
1768475598317,0.1678619384765625,-0.0788116455078125,-0.9919281005859376,0.0048682582564651,0.0038461373187601,0.0285221878439188
1768475598327,0.1638946533203125,-0.0762481689453125,-0.9861297607421876,0.0005589975044131,-0.0039377501234412,0.0260278712958097
1768475598337,0.148345947265625,-0.0716705322265625,-0.9816436767578124,-0.0038671761285513,0.0044296355918049,0.0103277387097477
1768475598347,0.1343536376953125,-0.0708465576171875,-0.9751434326171876,-0.0103210806846618,0.0057508298195898,-0.00739187002182
1768475598357,0.133056640625,-0.073577880859375,-0.9705657958984376,-0.01469905115664,-0.0036546560004353,-0.0172924380749464
1768475598367,0.1474456787109375,-0.0807952880859375,-0.9718017578125,-0.020693028345704,-0.0096632800996303,-0.0126912938430905
1768475598377,0.16058349609375,-0.07958984375,-0.9723968505859376,-0.0218661502003669,-0.0082219773903489,-0.0108840726315975
1768475598387,0.16363525390625,-0.073944091796875,-0.9831085205078124,-0.0123000759631395,-0.0035105790011584,-0.0098089547827839
1768475598398,0.1602020263671875,-0.071136474609375,-0.9920806884765624,-0.0075718993321061,-0.0003685815026983,-0.0040589235723018
1768475598408,0.1609344482421875,-0.071533203125,-0.9897613525390624,-0.0079223718494176,-0.0039547942578792,0.0043870252557098
1768475598418,0.1610870361328125,-0.070648193359375,-0.980743408203125,-0.0145909264683723,-0.0012354403734207,0.0069702914915978
1768475598428,0.1550445556640625,-0.0721282958984375,-0.9750518798828124,-0.0217622872442007,0.0023723437916487,0.0019393138354644
1768475598438,0.1494140625,-0.0733184814453125,-0.9714813232421876,-0.0279269721359014,0.0044322991743683,-0.0075772260315716
1768475598448,0.1455230712890625,-0.0771331787109375,-0.9724578857421876,-0.0341768786311149,0.0034253578633069,-0.0180541016161441
1768475598458,0.144500732421875,-0.0795745849609375,-0.9744415283203124,-0.0397503413259983,0.0073127741925418,-0.0234912112355232
1768475598468,0.1461944580078125,-0.0785980224609375,-0.9754180908203124,-0.0458471179008483,0.0123520074412226,-0.0250781886279582
1768475598478,0.154052734375,-0.0784149169921875,-0.9777374267578124,-0.0423176288604736,0.00492152152583,-0.0209566801786422
1768475598488,0.160491943359375,-0.07733154296875,-0.98907470703125,-0.0342589057981967,-0.0022748722694814,-0.0089034801349043
1768475598498,0.1663818359375,-0.075408935546875,-0.99591064453125,-0.0250678025186061,-0.0056783920153975,0.001938781235367
1768475598508,0.1675262451171875,-0.0742034912109375,-0.9969635009765624,-0.0106124309822916,-0.0032213595695793,0.0061990399844944
1768475598518,0.1590576171875,-0.06854248046875,-1.001678466796875,0.0040266993455588,0.0067915935069322,0.0079237027093768
1768475598528,0.15350341796875,-0.067169189453125,-1.0022735595703125,0.014672951772809,0.016858609393239,-0.0001717738923616
1768475598538,0.1510467529296875,-0.0683135986328125,-0.9984588623046876,0.0278236418962478,0.0201883595436811,0.0009227853151969
1768475598548,0.1536102294921875,-0.0682220458984375,-0.9981689453125,0.0336373224854469,0.017590444535017,0.0043121902272105
1768475598558,0.1573486328125,-0.071197509765625,-0.990203857421875,0.0322303734719753,0.0098686097189784,0.0147195579484105
1768475598568,0.1616058349609375,-0.076171875,-0.981048583984375,0.0250464975833892,0.0034730283077806,0.0223599001765251
1768475598578,0.158782958984375,-0.0782012939453125,-0.971282958984375,0.0126646626740694,0.002911900402978,0.0226616356521844
1768475598588,0.1523284912109375,-0.0756683349609375,-0.9656829833984376,0.0019736685790121,0.0060648168437182,0.0124864969402551
1768475598599,0.14544677734375,-0.07305908203125,-0.966796875,0.0010149306617677,0.0069756177254021,-0.0028597023338079
1768475598608,0.142791748046875,-0.0730743408203125,-0.9726715087890624,-0.0021776668727397,-0.0012713931500911,-0.0076781595125794
1768475598619,0.153533935546875,-0.07574462890625,-0.97088623046875,-0.0132859777659177,-0.0032045817933976,-0.0009981527691707
1768475598629,0.161529541015625,-0.0738525390625,-0.9702606201171876,-0.0215050261467695,-0.0008287757518701,0.0046301716938614
1768475598639,0.1610107421875,-0.0735015869140625,-0.9723358154296876,-0.0251831170171499,-0.0028495823498815,0.0097322557121515
1768475598649,0.1605072021484375,-0.0742340087890625,-0.9761962890625,-0.0284681264311075,-0.000851412594784,0.0112840794026851
1768475598659,0.1568145751953125,-0.072967529296875,-0.977752685546875,-0.033604297786951,0.0029864688403904,0.0151448640972375
1768475598669,0.1547088623046875,-0.0734710693359375,-0.9755859375,-0.0393138490617275,0.0041875545866787,0.0168564785271883
1768475598679,0.1547393798828125,-0.0688323974609375,-0.9795684814453124,-0.031374167650938,0.0007352987886406,0.0170173328369855
1768475598689,0.15252685546875,-0.064727783203125,-0.989501953125,-0.0188525170087814,-0.0053231264464557,0.016013853251934
1768475598699,0.1498260498046875,-0.0677032470703125,-0.9940643310546876,-0.0087106674909591,-0.0026016421616077,0.0108324075117707
1768475598709,0.1495361328125,-0.0674285888671875,-0.9947052001953124,-0.0022852586116641,-0.0010314423125237,0.0087056076154112
1768475598719,0.1531524658203125,-0.06695556640625,-0.99395751953125,0.0095644770190119,0.002552373567596,0.0136641468852758
1768475598729,0.1594390869140625,-0.0690460205078125,-0.99285888671875,0.0091202612966299,0.0061582936905324,0.0238928161561489
1768475598739,0.1634521484375,-0.073486328125,-0.983917236328125,0.0056440373882651,0.0017478326335549,0.027436152100563
1768475598749,0.160888671875,-0.0757904052734375,-0.9792633056640624,0.0028754149097949,-0.0118156466633081,0.0319190509617328
1768475598759,0.1573944091796875,-0.0784912109375,-0.9774017333984376,-0.0042083272710442,-0.0170098766684532,0.0320066697895526
1768475598769,0.1533355712890625,-0.07952880859375,-0.9737548828125,-0.0148559110239148,-0.0152940014377236,0.0300588328391313
1768475598779,0.14874267578125,-0.0818023681640625,-0.96893310546875,-0.0318348966538906,0.0017544905422255,0.022143917158246
1768475598789,0.14312744140625,-0.0800018310546875,-0.96826171875,-0.036545492708683,0.0132609438151121,0.0010756507981568
1768475598799,0.1382904052734375,-0.0772247314453125,-0.9789276123046876,-0.0318902879953384,0.0147142307832837,-0.0109471902251243
1768475598812,0.146087646484375,-0.07470703125,-0.9893951416015624,-0.0218379199504852,0.0085117295384407,-0.0140726752579212
1768475598819,0.1576690673828125,-0.0711517333984375,-0.996795654296875,-0.006246977020055,0.0107072386890649,-0.0085596656426787
1768475598829,0.1597442626953125,-0.0688323974609375,-1.0020751953125,0.0084219807758927,0.0091261202469468,-0.006245378870517
1768475598839,0.158294677734375,-0.067901611328125,-1.00262451171875,0.0176037605851888,0.0033244239166378,-0.0009203884401358
1768475598849,0.160247802734375,-0.06781005859375,-0.9961700439453124,0.0196048598736524,-0.0003680488734971,0.0079250345006585
1768475598859,0.1581573486328125,-0.0722503662109375,-0.9872894287109376,0.0163052044808864,-0.0009198558400385,0.0161912199109792
1768475598870,0.160797119140625,-0.0754241943359375,-0.979217529296875,0.0057931742630898,0.0031987228430807,0.0276276320219039
1768475598880,0.1607208251953125,-0.0773773193359375,-0.9721527099609376,-0.0039348206482827,0.0148931955918669,0.0302958544343709
1768475598890,0.156494140625,-0.07989501953125,-0.97186279296875,-0.0101817976683378,0.0203396268188953,0.0246321093291044
1768475598900,0.1523590087890625,-0.0836181640625,-0.9743499755859376,-0.0171105433255434,0.0238968096673488,0.018787270411849
1768475598910,0.1522216796875,-0.0823974609375,-0.9705352783203124,-0.0275770332664251,0.0213279258459806,0.0112409368157386
1768475598920,0.147613525390625,-0.07757568359375,-0.9706268310546876,-0.0369391106069088,0.0144252786412835,0.0051084756851196
1768475598930,0.1463470458984375,-0.075164794921875,-0.9687042236328124,-0.0509055256843566,0.0080475397408008,0.0074270237237215
1768475598940,0.151336669921875,-0.07305908203125,-0.9668121337890624,-0.0645939037203788,-0.0017353157745674,0.0100121544674038
1768475598950,0.15240478515625,-0.0689544677734375,-0.9685516357421876,-0.073687270283699,-0.0001957423373823,0.0046269758604466
1768475598960,0.149505615234375,-0.065826416015625,-0.9773101806640624,-0.065054103732109,0.0035217641852796,-0.0038868836127221
1768475598970,0.14801025390625,-0.063507080078125,-0.9919281005859376,-0.0484809838235378,0.0092001566663384,-0.0084355622529983
1768475598980,0.1502838134765625,-0.0626068115234375,-1.000030517578125,-0.0347989946603775,0.0188527833670377,-0.0032258869614452
1768475598990,0.15875244140625,-0.0635223388671875,-1.002960205078125,-0.0182301364839077,0.020102871581912,-0.0004090615548193
1768475599000,0.1627655029296875,-0.0648651123046875,-1.004547119140625,-0.0024517059791833,0.0161611270159482,0.0007552724564447
1768475599010,0.1618194580078125,-0.0667724609375,-1.0008697509765625,0.0092824483290314,0.0098169445991516,0.0072086444124579
1768475599020,0.1632080078125,-0.06732177734375,-0.9951629638671876,0.0131189981475472,0.0100624877959489,0.0130609404295682
1768475599030,0.162384033203125,-0.0708770751953125,-0.9892730712890624,0.0157022643834352,0.0117946080863475,0.0208546817302703
1768475599040,0.15966796875,-0.072113037109375,-0.983062744140625,0.0173342488706111,0.008823319338262,0.0226041115820407
1768475599050,0.1555023193359375,-0.0703277587890625,-0.9816741943359376,0.0164309050887823,0.007382548879832,0.0198096577078104
1768475599060,0.1519622802734375,-0.0672454833984375,-0.9806060791015624,0.0161739103496074,0.0042171156965196,0.0166735183447599
1768475599070,0.149993896484375,-0.06915283203125,-0.977874755859375,0.0043398872949182,0.00716124009341,0.0153999952599406
1768475599080,0.1482391357421875,-0.072906494140625,-0.969146728515625,-0.0102867260575294,0.0082254391163587,0.0095234643667936
1768475599091,0.1481170654296875,-0.0742950439453125,-0.964202880859375,-0.0233181063085794,0.0048983520828187,0.0013089436106383
1768475599100,0.1522979736328125,-0.07232666015625,-0.967376708984375,-0.0278481431305408,-0.0029321403708308,-0.000630902883131
1768475599111,0.155364990234375,-0.0655975341796875,-0.97662353515625,-0.0234169084578752,-0.0090297134593129,0.0038754320703446
1768475599121,0.152862548828125,-0.067779541015625,-0.9860076904296876,-0.0184626299887895,-0.0059814597479999,0.0046882289461791
1768475599131,0.1513214111328125,-0.072021484375,-0.9853973388671876,-0.0233772285282611,-0.0038964708801358,0.0054192664101719
1768475599141,0.15234375,-0.0722808837890625,-0.9791412353515624,-0.0273951385170221,0.0063652214594185,-0.0047486824914813
1768475599151,0.1478729248046875,-0.0677337646484375,-0.9785308837890624,-0.0255892500281333,0.0127192568033933,-0.016039952635765
1768475599161,0.1468505859375,-0.0685272216796875,-0.9863433837890624,-0.0197534654289484,0.0104904575273394,-0.0120617225766181
1768475599171,0.1603546142578125,-0.069854736328125,-0.9904327392578124,-0.0134755950421094,0.0098180100321769,0.0004551342281047
1768475599181,0.170013427734375,-0.0699462890625,-0.9925537109375,-0.0061180801130831,0.0059782639145851,0.0151741588488221
1768475599191,0.1645660400390625,-0.0670623779296875,-0.9894561767578124,-0.0099839242175221,0.0108233531937003,0.0221321992576122
1768475599201,0.15802001953125,-0.066925048828125,-0.9812164306640624,-0.0163478143513202,0.0086076026782393,0.0251293219625949
1768475599211,0.1545257568359375,-0.070281982421875,-0.9720916748046876,-0.03099200502038,-0.0026024410035461,0.0216331239789724
1768475599221,0.152862548828125,-0.0705718994140625,-0.965118408203125,-0.0445168688893318,-0.0148724233731627,0.0118689099326729
1768475599231,0.14703369140625,-0.0702667236328125,-0.9632568359375,-0.0636551454663276,-0.012401808053255,-0.0008111988427117
1768475599241,0.14166259765625,-0.0673980712890625,-0.95916748046875,-0.0799201354384422,-0.0001981391833396,-0.0177347883582115
1768475599251,0.1364288330078125,-0.0695648193359375,-0.9637603759765624,-0.0926202163100242,0.003483947366476,-0.033649306744337
1768475599261,0.14141845703125,-0.0684967041015625,-0.97216796875,-0.0957595482468605,0.0021198762115091,-0.040824394673109
1768475599271,0.1519775390625,-0.0675048828125,-0.9866790771484376,-0.0820778235793113,-0.0049345712177455,-0.0386720299720764
1768475599281,0.1641082763671875,-0.0648040771484375,-1.0019683837890625,-0.0581040494143962,-0.0113549195230007,-0.0296673476696014
1768475599291,0.174468994140625,-0.0624847412109375,-1.0149383544921875,-0.0319536700844764,-0.0148774832487106,-0.0178628861904144
1768475599301,0.1757354736328125,-0.0589141845703125,-1.018402099609375,-0.0082443477585911,-0.0059479037299752,-0.0090986900031566
1768475599312,0.1698760986328125,-0.0589447021484375,-1.01434326171875,0.0123858293518424,0.0029249498620629,0.0025063008069992
1768475599322,0.1653289794921875,-0.0599365234375,-1.00946044921875,0.0234432741999626,0.0066126291640102,0.0188533160835504
1768475599331,0.165191650390625,-0.060211181640625,-1.0020599365234375,0.0326269194483757,0.0164287742227315,0.028769064694643
1768475599342,0.16168212890625,-0.0615997314453125,-0.9918212890625,0.0357273705303669,0.0269128400832414,0.0303685590624809
1768475599352,0.1539459228515625,-0.064422607421875,-0.9860992431640624,0.036948163062334,0.0305073093622922,0.0233580525964498
1768475599362,0.1500396728515625,-0.064239501953125,-0.979461669921875,0.034881018102169,0.0246941614896059,0.0160495396703481
1768475599372,0.1522369384765625,-0.0634307861328125,-0.9782562255859376,0.0359279066324234,0.0037763623986393,0.011487279087305
1768475599382,0.154571533203125,-0.063812255859375,-0.976165771484375,0.0318178497254848,-0.0087503483518958,0.0041345576755702
1768475599392,0.150909423828125,-0.06610107421875,-0.9683380126953124,0.0119077917188405,-0.0102619584649801,0.0008649947121739
1768475599402,0.1483917236328125,-0.0683441162109375,-0.9587860107421876,-0.0103868609294295,-0.0039033952634781,0.002559564076364
1768475599412,0.1521453857421875,-0.07098388671875,-0.9574127197265624,-0.0296803973615169,-0.0017891116440296,0.0063127567991614
1768475599422,0.1546630859375,-0.068145751953125,-0.9619293212890624,-0.0411538295447826,0.0009198558400385,0.0060317935422062
1768475599432,0.1548004150390625,-0.0608062744140625,-0.9712982177734376,-0.0362786464393138,8.628641808172688e-05,0.0002647181972861
1768475599442,0.1539459228515625,-0.06005859375,-0.9862060546875,-0.0313778966665267,-0.0019510318525135,0.0025254755746573
1768475599452,0.1576385498046875,-0.0601959228515625,-0.984466552734375,-0.0261972490698099,-0.0057574878446757,0.001938781235367
1768475599462,0.1547698974609375,-0.0603179931640625,-0.988128662109375,-0.0142843974754214,-0.0110443951562047,0.0012495551491156
1768475599472,0.1562042236328125,-0.0557098388671875,-0.9957275390625,-0.0005912217311561,-0.0125101990997791,0.0028628981672227
1768475599482,0.1568756103515625,-0.0578765869140625,-0.99700927734375,0.002943325554952,-0.0033569145016372,0.0065106297843158
1768475599493,0.1564483642578125,-0.0616912841796875,-0.9901123046875,0.0040823593735694,-0.003295661881566,0.0117480028420686
1768475599502,0.1564178466796875,-0.0608062744140625,-0.9869537353515624,0.0094488952308893,0.006875482853502,0.0154825532808899
1768475599512,0.154083251953125,-0.063934326171875,-0.9914703369140624,0.0141480434685945,0.0099562276154756,0.014321681112051
1768475599522,0.1502838134765625,-0.06500244140625,-0.987457275390625,0.0170010868459939,0.0052701295353472,0.0117136472836136
1768475599533,0.1502685546875,-0.068572998046875,-0.9844818115234376,0.0120771694928407,-0.0059886504895985,0.0074467309750616
1768475599542,0.1514434814453125,-0.0687713623046875,-0.97955322265625,0.0101738078519701,-0.0122404210269451,0.0002665824140422
1768475599553,0.1485137939453125,-0.0687713623046875,-0.97930908203125,0.0071117053739726,-0.0073077138513326,-0.010398312471807
1768475599563,0.1455230712890625,-0.0733795166015625,-0.976348876953125,-0.0069937272928655,8.57537888805382e-05,-0.009277387522161
1768475599573,0.1533355712890625,-0.0722808837890625,-0.9716949462890624,-0.0178945790976285,0.0010828413069248,-0.003516704076901
1768475599583,0.15936279296875,-0.0726776123046875,-0.974365234375,-0.0160474088042974,-0.0076797576621174,0.0050296462140977
1768475599593,0.1647491455078125,-0.0667572021484375,-0.983306884765625,-0.0126303080469369,-0.0101405186578631,0.0106893954798579
1768475599603,0.161285400390625,-0.0631256103515625,-0.988037109375,-0.0109362704679369,-0.0008985505555756,0.0060312608256936
1768475599613,0.1548309326171875,-0.0648193359375,-0.9850006103515624,-0.0133882435038685,0.0076078521087765,0.0065380604937672
1768475599623,0.15264892578125,-0.06640625,-0.9789276123046876,-0.0230738930404186,0.0150556480512022,0.0068794777616858
1768475599633,0.1537322998046875,-0.0684356689453125,-0.9743804931640624,-0.0344157628715038,0.0170735251158475,0.0082036014646291
1768475599644,0.1542205810546875,-0.06829833984375,-0.9725494384765624,-0.0387471280992031,0.0111557152122259,0.0054677361622452
1768475599653,0.1554107666015625,-0.06591796875,-0.9769744873046876,-0.036001943051815,0.00444907695055,0.0033814155030995
1768475599663,0.1554718017578125,-0.0615386962890625,-0.984375,-0.023260049521923,-0.0033603766933083,-0.0052613411098718
1768475599673,0.1509552001953125,-0.0599365234375,-0.99249267578125,-0.0122856944799423,-0.0135741317644715,-0.0100489053875207
1768475599683,0.149169921875,-0.0601348876953125,-0.992431640625,-0.0132196648046374,0.0042573292739689,-0.0109146991744637
1768475599693,0.146331787109375,-0.0619354248046875,-0.98529052734375,-0.0134119456633925,0.0153680369257926,-0.0143246110528707
1768475599703,0.148406982421875,-0.0648193359375,-0.9876708984375,-0.015721172094345,0.022082932293415,-0.0067721521481871
1768475599713,0.1568450927734375,-0.064239501953125,-0.9848785400390624,-0.0209883730858564,0.0243181232362985,0.001285774167627
1768475599723,0.16259765625,-0.0647125244140625,-0.984649658203125,-0.013801566325128,0.0069487197324633,0.0095841838046908
1768475599733,0.165435791015625,-0.062225341796875,-0.98797607421875,-0.0013028184184804,-0.0142260733991861,0.013122459873557
1768475599743,0.162841796875,-0.061798095703125,-0.991180419921875,0.0082890884950757,-0.0203880965709686,0.008861668407917
1768475599753,0.1568450927734375,-0.0630035400390625,-0.98565673828125,0.0061849253252148,-0.0120838265866041,0.0039436090737581
1768475599763,0.1474456787109375,-0.0687255859375,-0.9775390625,-0.0061383200809359,-0.0111288176849484,-0.0041822283528745
1768475599774,0.148406982421875,-0.0692596435546875,-0.97271728515625,-0.0165254473686218,-0.0140740070492029,-0.0067039751447737
1768475599783,0.152130126953125,-0.0657806396484375,-0.9720458984375,-0.0304553769528865,-0.0076198363676667,-0.0058730691671371
1768475599794,0.1513824462890625,-0.0645294189453125,-0.9671478271484376,-0.0383591055870056,0.001015463261865,-0.0091420989483594
1768475599804,0.150482177734375,-0.061126708984375,-0.9732818603515624,-0.0391620509326458,0.0047529437579214,-0.0078832227736711
1768475599814,0.1489105224609375,-0.0577850341796875,-0.9827728271484376,-0.0322748497128486,0.001882588607259,-0.014306235127151
1768475599824,0.146636962890625,-0.0576629638671875,-0.98919677734375,-0.0268574468791484,-0.0005573995877057,-0.0147358030080795
1768475599834,0.15118408203125,-0.0602569580078125,-0.9892578125,-0.0329478308558464,0.0079532638192176,-0.0110350744798779
1768475599844,0.1548004150390625,-0.06402587890625,-0.9793548583984376,-0.0403450243175029,0.0014844459947198,-0.0029529130551964
1768475599854,0.1599273681640625,-0.0648345947265625,-0.9758758544921876,-0.0431655794382095,-0.0105370627716183,0.0078195733949542
1768475599864,0.161041259765625,-0.0616302490234375,-0.9752960205078124,-0.0492447763681411,-0.0150532517582178,0.0111067136749625
1768475599874,0.1529693603515625,-0.0620269775390625,-0.97076416015625,-0.0593317672610282,-0.0143278064206242,0.0090632699429988
1768475599884,0.1502685546875,-0.0596923828125,-0.9691925048828124,-0.0590377524495124,-0.0221830662339925,0.00061492389068
1768475599894,0.1472930908203125,-0.05535888671875,-0.9800262451171876,-0.050303116440773,-0.0229095760732889,-0.0088643319904804
1768475599904,0.1455535888671875,-0.05615234375,-0.9896087646484376,-0.0475086644291877,-0.0149315455928444,-0.0128883682191371
1768475599914,0.14801025390625,-0.054412841796875,-0.9932403564453124,-0.0332170762121677,-0.0105402590706944,-0.0143917221575975
1768475599924,0.150543212890625,-0.051666259765625,-0.999847412109375,-0.0169174652546644,-0.0050717238336801,-0.0131701305508613
1768475599934,0.149932861328125,-0.0513458251953125,-1.0038299560546875,-0.0011515507940202,-0.0014602112350985,-0.0110145676881074
1768475599944,0.151824951171875,-0.0524139404296875,-1.001983642578125,0.0040152478031814,0.0050608050078153,-0.0120694460347294
1768475599954,0.1499176025390625,-0.0562896728515625,-0.994354248046875,0.0056829191744327,0.0013233247445896,-0.0092281196266412
1768475599964,0.150390625,-0.058197021484375,-0.987884521484375,0.0071087758988142,-0.000417051021941,-0.0116819562390446
1768475599974,0.1510009765625,-0.05828857421875,-0.98284912109375,0.0031052457634359,-0.0079982718452811,-0.0148971900343894
1768475599985,0.146331787109375,-0.059814453125,-0.9771881103515624,-0.0016034892760217,-0.0118502676486969,-0.0247085429728031
1768475599994,0.14495849609375,-0.0599365234375,-0.9749908447265624,-0.0115565210580825,-0.0154905430972576,-0.0260603632777929
1768475600005,0.151824951171875,-0.0623779296875,-0.97674560546875,-0.0114433364942669,-0.0268696974962949,-0.0236201081424951
1768475600015,0.1617279052734375,-0.0630035400390625,-0.985870361328125,-0.0082107922062277,-0.0270683690905571,-0.0052842441946268
1768475600025,0.1668701171875,-0.0607147216796875,-0.991668701171875,-0.0004410194815136,-0.0191268231719732,0.0022801985032856
1768475600035,0.164825439453125,-0.0596160888671875,-0.9969329833984376,0.0122918197885155,-0.0112942000851035,0.0079519329592585
1768475600045,0.162322998046875,-0.0579681396484375,-1.0037689208984375,0.0309736281633377,-0.0105429217219352,0.0075034564360976
1768475600055,0.15740966796875,-0.053741455078125,-1.0051116943359375,0.0361758470535278,0.0010365023044869,0.0052221924997866
1768475600065,0.1476593017578125,-0.05950927734375,-0.988677978515625,0.0177710074931383,0.0199944805353879,0.0018610169645398
1768475600075,0.1399383544921875,-0.063751220703125,-0.9653472900390624,-0.0078792283311486,0.0277807638049125,-0.0010146644199267
1768475600085,0.13970947265625,-0.062286376953125,-0.955902099609375,-0.0271328184753656,0.0196858197450637,0.0020072245970368
1768475600095,0.147430419921875,-0.0597381591796875,-0.961273193359375,-0.0324732549488544,0.0035478631034493,0.0006146575906313
1768475600105,0.153228759765625,-0.0570220947265625,-0.97357177734375,-0.0268739592283964,-0.010227071121335,-0.0050922301597893
1768475600115,0.1546173095703125,-0.052734375,-0.9862213134765624,-0.006180930417031,-0.0181086957454681,-0.0066587016917765
1768475600125,0.156036376953125,-0.0522003173828125,-1.0005950927734375,0.0115448031574487,-0.0211577489972114,-0.0033907366450875
1768475600135,0.1585235595703125,-0.0552978515625,-1.0017547607421875,0.0176391806453466,-0.0104683535173535,-0.0005411543534137
1768475600145,0.15313720703125,-0.05767822265625,-0.9939117431640624,0.0113645074889063,6.604639202123508e-05,-0.004521248396486
1768475600155,0.1470184326171875,-0.062286376953125,-0.981842041015625,-0.0095554217696189,0.0159957446157932,-0.0044394894503057
1768475600165,0.14227294921875,-0.0659942626953125,-0.9660186767578124,-0.0337302647531032,0.025937857106328,-0.0090635363012552
1768475600175,0.143280029296875,-0.066802978515625,-0.957672119140625,-0.0476285070180892,0.0189595762640237,-0.0048653287813067
1768475600185,0.1525115966796875,-0.059356689453125,-0.964508056640625,-0.0424015186727047,0.0129131358116865,-0.0015835155500099
1768475600195,0.1570281982421875,-0.05230712890625,-0.98980712890625,-0.0170844439417123,-0.008477640338242,-0.0003344930300954
1768475600205,0.1559600830078125,-0.04949951171875,-1.0067901611328125,0.0072933328337967,-0.0173875130712986,-0.0051875715143978
1768475600215,0.1497955322265625,-0.045989990234375,-1.0081329345703125,0.0204456206411123,-0.0030724888201802,-0.0096315881237387
1768475600225,0.14300537109375,-0.04925537109375,-1.0023345947265625,0.0221772082149982,0.0106566390022635,-0.0042573292739689
1768475600235,0.1458282470703125,-0.0568695068359375,-0.988433837890625,0.0129064777866005,0.0216363202780485,-0.0009592706337571
1768475600246,0.148162841796875,-0.059844970703125,-0.9811553955078124,0.000295610865578,0.0232195686548948,0.0030011162161827
1768475600256,0.14752197265625,-0.062530517578125,-0.9730682373046876,-0.0117927435785532,0.0200405530631542,0.0052932989783585
1768475600266,0.1503753662109375,-0.0639495849609375,-0.968292236328125,-0.0197630524635314,0.0109080411493778,0.0032676986884325
1768475600276,0.151092529296875,-0.0648193359375,-0.9727325439453124,-0.0206328406929969,0.0012128035305067,0.0012269183062016
1768475600286,0.1533050537109375,-0.0618743896484375,-0.9770355224609376,-0.0195840876549482,-0.0048948898911476,-0.0080339582636952
1768475600296,0.1507110595703125,-0.061279296875,-0.9816436767578124,-0.0206110030412673,-0.0050355051644146,-0.0124249784275889
1768475600306,0.148956298828125,-0.0608673095703125,-0.985076904296875,-0.0217090230435132,-0.000697215553373,-0.0136854518204927
1768475600316,0.1510467529296875,-0.0587310791015625,-0.9884033203125,-0.017027186229825,0.006466687656939,-0.0123200491070747
1768475600326,0.151275634765625,-0.0577545166015625,-0.9912261962890624,-0.0134020913392305,0.01599015109241,-0.0072890720330178
1768475600336,0.1534881591796875,-0.0598907470703125,-0.9902496337890624,-0.0161723122000694,0.0207116696983575,-0.0007643272401764
1768475600346,0.156829833984375,-0.062896728515625,-0.985198974609375,-0.0188927315175533,0.0218736063688993,0.0068238177336752
1768475600356,0.157562255859375,-0.0611114501953125,-0.98382568359375,-0.0113514577969908,0.0108617022633552,0.0109565109014511
1768475600366,0.1615447998046875,-0.0595703125,-0.9905548095703124,-0.0006391586503013,-0.0018929748330265,0.0210845116525888
1768475600376,0.1639556884765625,-0.05517578125,-0.9932098388671876,0.0075319521129131,7.376955909421667e-05,0.0174349173903465
1768475600386,0.151214599609375,-0.0561065673828125,-0.9908905029296876,0.0077774957753717,0.0048797097988426,0.0143051696941256
1768475600396,0.1474609375,-0.05523681640625,-0.989288330078125,0.0123810358345508,0.0011081412667408,0.0034951325505971
1768475600406,0.147369384765625,-0.052337646484375,-0.9905853271484376,0.0134353814646601,-0.0033369408920407,0.0007379619055427
1768475600416,0.149505615234375,-0.0531158447265625,-0.985626220703125,0.0109546463936567,-0.0031696942169219,-0.0007709851488471
1768475600426,0.14447021484375,-0.0552825927734375,-0.9772491455078124,0.0040498692542314,-0.0021963089238852,-0.0118715735152363
1768475600436,0.1414031982421875,-0.0581512451171875,-0.975738525390625,-0.0119706429541111,0.008247809484601,-0.0188194941729307
1768475600446,0.14300537109375,-0.063873291015625,-0.96905517578125,-0.028724055737257,0.0149605739861726,-0.0188069771975278
1768475600456,0.1500091552734375,-0.064056396484375,-0.9678192138671876,-0.0379820019006729,0.0142106274142861,-0.0153800211846828
1768475600466,0.1546630859375,-0.058135986328125,-0.9740753173828124,-0.033799510449171,0.0107306744903326,-0.0138710746541619
1768475600477,0.15350341796875,-0.055450439453125,-0.986236572265625,-0.0270558521151542,0.0026194851379841,-0.0096885804086923
1768475600487,0.15264892578125,-0.0575714111328125,-0.9870758056640624,-0.0224808081984519,-0.0048224520869553,-0.0042338934727013
1768475600497,0.157501220703125,-0.05230712890625,-0.987030029296875,-0.0153163718059659,-0.0075833513401448,0.0024626250378787
1768475600507,0.1585540771484375,-0.051513671875,-0.991241455078125,-0.0022599585354328,0.0011179950088262,0.0049643986858427
1768475600517,0.1571502685546875,-0.05255126953125,-0.9970550537109376,0.0067607006058096,0.0106814065948128,0.0088749844580888
1768475600527,0.1562347412109375,-0.05645751953125,-0.99713134765625,0.0113466642796993,0.0135261947289109,0.0094776572659611
1768475600537,0.156829833984375,-0.05999755859375,-0.9922332763671876,0.0125288413837552,0.0147866690531373,0.0089511508122086
1768475600547,0.1521148681640625,-0.0606231689453125,-0.9855804443359376,0.0083519397303462,0.0141965122893452,0.008877114392817
1768475600557,0.149932861328125,-0.06414794921875,-0.976776123046875,-0.0038780951872467,-0.0008375641773454,0.0071750883944332
1768475600567,0.150665283203125,-0.06207275390625,-0.96795654296875,-0.0131389712914824,-0.0139184789732098,0.0101351924240589
1768475600577,0.1515350341796875,-0.0592803955078125,-0.9691162109375,-0.0215678755193948,-0.023158848285675,0.0130343092605471
1768475600587,0.1532135009765625,-0.062774658203125,-0.968505859375,-0.0385716259479522,-0.0210810508579015,0.0183659568428993
1768475600597,0.15277099609375,-0.060577392578125,-0.9659423828125,-0.0482977591454982,-0.0195654463022947,0.0170884393155574
1768475600607,0.149261474609375,-0.05712890625,-0.972442626953125,-0.0535705499351024,-0.0148005178198218,0.0148894675076007
1768475600617,0.1438140869140625,-0.0505828857421875,-0.9812774658203124,-0.0523676015436649,-0.005722067784518,0.0084150563925504
1768475600627,0.14111328125,-0.050750732421875,-0.984954833984375,-0.0529678761959075,-0.0015009575290605,0.0055529573000967
1768475600637,0.1460418701171875,-0.0525054931640625,-0.9868316650390624,-0.0458260774612426,-0.0009611348505131,0.0034860777668654
1768475600647,0.15216064453125,-0.0531158447265625,-0.9966888427734376,-0.0338783375918865,0.0028107000980526,0.0014817827614024
1768475600657,0.1549530029296875,-0.051666259765625,-1.001800537109375,-0.0172101464122533,0.0054091466590762,4.9801110435510054e-05
1768475600667,0.1567230224609375,-0.0496368408203125,-1.0072021484375,0.0031617048662155,0.0098177436739206,-0.0006764429272152
1768475600677,0.1540069580078125,-0.04632568359375,-1.0113067626953125,0.0237447433173656,0.007374026812613,-0.0004269047058187
1768475600687,0.1512298583984375,-0.0468597412109375,-1.0061798095703125,0.0397625938057899,0.0053375074639916,-0.0062680160626769
1768475600697,0.1474456787109375,-0.0485687255859375,-0.99871826171875,0.0436896905303001,0.0047068707644939,-0.0144332675263285
1768475600708,0.1400909423828125,-0.0526275634765625,-0.987762451171875,0.0340455844998359,0.0087977526709437,-0.0193883460015058
1768475600718,0.13909912109375,-0.055450439453125,-0.972808837890625,0.0159536655992269,0.000851412594784,-0.0210898388177156
1768475600728,0.1461639404296875,-0.0587005615234375,-0.9658660888671876,0.0055276569910347,-0.0091141359880566,-0.0171203967183828
1768475600738,0.1521453857421875,-0.0562591552734375,-0.9694976806640624,0.0006761765689589,-0.0082150530070066,-0.0143911894410848
1768475600748,0.1554412841796875,-0.0587005615234375,-0.9766998291015624,-0.0060975737869739,-0.0024322650860995,-0.007938084192574
1768475600758,0.15936279296875,-0.05987548828125,-0.97991943359375,-0.0115578528493642,0.0061100902967154,-0.0024029703345149
1768475600768,0.161468505859375,-0.06072998046875,-0.981109619140625,-0.0152929360046982,0.0093112103641033,-0.0023385216481983
1768475600778,0.154815673828125,-0.0597076416015625,-0.9833221435546876,-0.0160910859704017,0.0110443951562047,-0.0118151139467954
1768475600788,0.1460418701171875,-0.0588226318359375,-0.9865570068359376,-0.0137373832985758,0.0079117184504866,-0.0196653138846158
1768475600798,0.146484375,-0.0567169189453125,-0.986419677734375,-0.0107735516503453,-0.0009070726810023,-0.0213572196662426
1768475600808,0.14788818359375,-0.05657958984375,-0.9875335693359376,-0.0064067663624882,-0.0019859191961586,-0.0185377318412065
1768475600818,0.1490478515625,-0.05810546875,-0.9858551025390624,-0.0016580841038376,-0.0016370450612157,-0.0123919546604156
1768475600828,0.1540679931640625,-0.05828857421875,-0.98553466796875,-0.0063969129696488,-0.0014663364272564,0.0046845003962516
1768475600838,0.161865234375,-0.058563232421875,-0.975616455078125,-0.0156836211681365,0.0037851508241146,0.0157749690115451
1768475600848,0.1579742431640625,-0.056793212890625,-0.97283935546875,-0.0202645249664783,0.0004338289436418,0.0136502981185913
1768475600858,0.145355224609375,-0.0540618896484375,-0.9741058349609376,-0.0283789113163948,-0.0015981629258021,0.0067817396484315
1768475600868,0.144683837890625,-0.0531005859375,-0.97509765625,-0.0338583663105964,-0.0043199136853218,0.0001832254783948
1768475600878,0.14453125,-0.0511322021484375,-0.9737701416015624,-0.0351497307419776,-0.0104425204917788,-0.0096704708412289
1768475600888,0.1435394287109375,-0.049774169921875,-0.9825897216796876,-0.0311030577868223,-0.0123964818194508,-0.0165784433484077
1768475600898,0.14794921875,-0.0452728271484375,-0.9893646240234376,-0.0199878234416246,-0.0114089818671345,-0.016670323908329
1768475600908,0.1523895263671875,-0.046142578125,-0.9994049072265624,-0.0058549595996737,-0.008018777705729,-0.0055082160979509
1768475600918,0.1612548828125,-0.0481719970703125,-1.0026092529296875,0.0024919197894632,0.0010042780777439,0.004365986213088
1768475600928,0.1596832275390625,-0.0478668212890625,-1.0005340576171875,0.0164391603320837,0.0117480028420686,0.0082957465201616
1768475600939,0.1541748046875,-0.04931640625,-1.000274658203125,0.021713551133871,0.013694773428142,0.0126494821161031
1768475600949,0.15484619140625,-0.0541839599609375,-0.9933319091796876,0.0219058319926261,0.0116233667358756,0.0118944765999913
1768475600959,0.1522674560546875,-0.0572967529296875,-0.9842071533203124,0.0150069128721952,0.0088073397055268,0.0067918598651885
1768475600969,0.147125244140625,-0.056243896484375,-0.9788665771484376,0.0069889337755739,0.0037515950389206,0.0013448963873088
1768475600979,0.14080810546875,-0.05279541015625,-0.9724884033203124,-0.0033587787766009,0.007358047645539,-0.0064142234623432
1768475600989,0.140899658203125,-0.05169677734375,-0.9713592529296876,-0.008542887866497,0.0019686087034642,-0.0062842611223459
1768475600999,0.15081787109375,-0.051025390625,-0.977783203125,-0.0069724218919873,-0.0013235911028459,-0.0030000510159879
1768475601009,0.1541290283203125,-0.0521697998046875,-0.984130859375,-0.0056943711824715,-0.0030541131272912,-0.0018839201657101
1768475601019,0.15203857421875,-0.0558319091796875,-0.9844512939453124,-0.0066429888829588,-0.001471662777476,0.0015624766238033
1768475601029,0.1532440185546875,-0.061309814453125,-0.98382568359375,-0.0090483557432889,0.0017057546647265,0.0080536650493741
1768475601039,0.155731201171875,-0.0632476806640625,-0.9854278564453124,-0.0058067562058568,-0.0038836877793073,0.0088390316814184
1768475601049,0.1569061279296875,-0.063323974609375,-0.987945556640625,-0.0071106399409472,-0.0105328019708395,0.0179544985294342
1768475601059,0.15966796875,-0.060699462890625,-0.986572265625,-0.009705358184874,-0.0050733219832181,0.0245434269309043
1768475601069,0.1562652587890625,-0.0600738525390625,-0.98541259765625,-0.010742925107479,-0.0005672533297911,0.023446736857295
1768475601079,0.148529052734375,-0.0577392578125,-0.985626220703125,-0.0101280016824603,0.0044962149113416,0.0167171955108642
1768475601089,0.141845703125,-0.054229736328125,-0.9858551025390624,-0.0077303578145802,-0.0013014868600293,0.0069383336231112
1768475601099,0.1412506103515625,-0.051788330078125,-0.986328125,-0.0113613111898303,-6.764429417671636e-05,0.0018519621808081
1768475601109,0.14776611328125,-0.05389404296875,-0.982391357421875,-0.0194506626576185,0.0031451932154595,0.0044810348190367
1768475601120,0.151763916015625,-0.0568084716796875,-0.9773406982421876,-0.0214110165834426,0.0124750453978776,0.0039646481163799
1768475601129,0.148040771484375,-0.0554351806640625,-0.9838409423828124,-0.0136497654020786,0.0205649305135011,-0.0017033577896654
1768475601139,0.1486358642578125,-0.053680419921875,-0.9950714111328124,-0.0020003002136945,0.0203968845307827,-0.0029907298739999
1768475601149,0.15008544921875,-0.0547027587890625,-0.9978790283203124,0.0098291952162981,0.0172453001141548,-0.0045412224717438
1768475601160,0.150634765625,-0.0525054931640625,-0.994842529296875,0.0167960245162248,0.0070304786786437,-0.0029475865885615
1768475601169,0.1486358642578125,-0.0513916015625,-0.98968505859375,0.020272247493267,-0.0016908409306779,-0.0064126253128051
1768475601180,0.1473541259765625,-0.05194091796875,-0.9838714599609376,0.0140811977908015,-0.0002090581401716,-0.0076659093610942
1768475601190,0.1443939208984375,-0.0537109375,-0.97894287109375,0.0090789822861552,-0.0010290454374626,-0.0122587969526648
1768475601200,0.1441192626953125,-0.05450439453125,-0.978485107421875,0.0045148567296564,-0.0001438106992281,-0.0152841480448842
1768475601210,0.1441497802734375,-0.054901123046875,-0.97906494140625,0.0012655340833589,0.00696523161605,-0.0191851463168859
1768475601220,0.1461334228515625,-0.0555572509765625,-0.980987548828125,-0.0031340080313384,0.0065465825609862,-0.0144942542538046
1768475601230,0.15338134765625,-0.056793212890625,-0.981109619140625,-0.0062270034104585,0.0099325254559516,-0.0107130976393818
1768475601240,0.1566619873046875,-0.0569610595703125,-0.98333740234375,-0.0048008803278207,0.0106180235743522,-0.0037193708121776
1768475601250,0.15692138671875,-0.056488037109375,-0.983734130859375,-0.003206712193787,0.0113027216866612,-0.0014410364674404
1768475601260,0.1527252197265625,-0.05419921875,-0.9864501953125,-0.0002913498319685,0.0020652813836932,0.0051811798475682
1768475601270,0.1545257568359375,-0.054901123046875,-0.985595703125,-0.0004767058417201,-6.391586794052273e-05,0.00959696713835
1768475601280,0.155517578125,-0.0544586181640625,-0.9811553955078124,0.000737695605494,-0.0052440306171774,0.0065391254611313
1768475601290,0.149993896484375,-0.0554046630859375,-0.9836883544921876,0.0056988983415067,-0.0125008784234523,-0.0031704932916909
1768475601300,0.147796630859375,-0.0507354736328125,-0.9811859130859376,0.0074382089078426,-0.0090717915445566,-0.0102486424148082
1768475601310,0.14556884765625,-0.0555267333984375,-0.982086181640625,0.004840828012675,-0.004416852723807,-0.01281273458153
1768475601320,0.1478729248046875,-0.05926513671875,-0.9813079833984376,0.0009502158500254,0.0018141453620046,-0.0130747891962528
1768475601330,0.1509857177734375,-0.060394287109375,-0.983734130859375,-0.0026461167726665,0.0102353272959589,-0.0021153488196432
1768475601340,0.15655517578125,-0.058502197265625,-0.98797607421875,-0.000291083502816,0.0078672440722584,0.0106457201763987
1768475601351,0.158843994140625,-0.0541839599609375,-0.9890594482421876,0.005307413637638,0.0101533019915223,0.0182053688913583
1768475601360,0.155487060546875,-0.05511474609375,-0.99127197265625,0.0122979450970888,0.0062714777886867,0.0195526629686355
1768475601371,0.1536407470703125,-0.057525634765625,-0.9895172119140624,0.0100331930443644,0.0105008436366915,0.019489811733365
1768475601381,0.1503448486328125,-0.0580596923828125,-0.9826507568359376,0.0098339887335896,0.0044416198506951,0.0150444628670811
1768475601391,0.1511993408203125,-0.0549163818359375,-0.9814605712890624,0.0082480758428573,-0.0022807312197983,0.0144865307956933
1768475601401,0.1533355712890625,-0.0536956787109375,-0.985076904296875,0.0101013695821166,-0.0058400458656251,0.0120683806017041
1768475601411,0.1469268798828125,-0.0543670654296875,-0.984222412109375,0.0104997791349887,0.0025872609112411,0.0067670922726392
1768475601421,0.1409149169921875,-0.0586395263671875,-0.9817047119140624,-0.0007829693495295,0.0077740335837006,0.0043380232527852
1768475601431,0.1461181640625,-0.063568115234375,-0.9742584228515624,-0.0085942866280674,0.0049761165864765,0.005828860681504
1768475601441,0.1534423828125,-0.0625457763671875,-0.9738006591796876,-0.0143182193860411,0.0030559774022549,-0.0003904194163624
1768475601451,0.150390625,-0.061126708984375,-0.976165771484375,-0.0149725582450628,-0.0023984429426491,-0.0056221992708742
1768475601461,0.149688720703125,-0.0595245361328125,-0.9790496826171876,-0.0175217352807521,0.0043635894544422,-0.0022399846930056
1768475601471,0.1520538330078125,-0.0570831298828125,-0.9794464111328124,-0.0186317414045333,0.0109266834333539,-0.0042253714054822
1768475601481,0.1474761962890625,-0.0517425537109375,-0.9828643798828124,-0.0070456587709486,0.0106891291216015,-0.0062195463106036
1768475601491,0.14495849609375,-0.0474090576171875,-0.9952392578125,0.0070062442682683,0.0066400594078004,-0.0071971928700804
1768475601501,0.145660400390625,-0.048309326171875,-0.998687744140625,0.0144548397511243,0.0104960501194,-0.0059473714791238
1768475601511,0.1458740234375,-0.05377197265625,-0.9931640625,0.0156106511130929,0.0102252066135406,-0.0078129153698682
1768475601521,0.1479339599609375,-0.05853271484375,-0.9857330322265624,0.0065588331781327,0.0067143617197871,-0.0084491446614265
1768475601531,0.1513824462890625,-0.0627288818359375,-0.975128173828125,-0.0057734670117497,0.0008721852791495,-0.0138516332954168
1768475601541,0.1494598388671875,-0.0662384033203125,-0.969268798828125,-0.0215638820081949,0.0041851578280329,-0.0206035450100898
1768475601551,0.1470489501953125,-0.0676116943359375,-0.968841552734375,-0.0361707881093025,-0.0054304515942931,-0.0197124518454074
1768475601561,0.150787353515625,-0.06402587890625,-0.971038818359375,-0.0442849062383174,-0.0097295930609107,-0.0137677434831857
1768475601571,0.1546630859375,-0.0612945556640625,-0.9791259765625,-0.0386153012514114,-0.0031947279348969,-0.011550928466022
1768475601581,0.155609130859375,-0.056854248046875,-0.99273681640625,-0.0251040216535329,-0.0021307952702045,-0.0124649256467819
1768475601591,0.1520233154296875,-0.05255126953125,-1.0006561279296875,-0.0100739393383264,0.0015009575290605,-0.0086358319967985
1768475601601,0.15289306640625,-0.0500335693359375,-1.0031890869140625,-8.81506348378025e-05,0.003190200543031,-0.0039918120019137
1768475601612,0.1528167724609375,-0.05206298828125,-0.999725341796875,0.0061199441552162,0.010416954755783,-0.0007563377148471
1768475601622,0.152923583984375,-0.0518951416015625,-0.9928436279296876,0.0081724422052502,0.0070781493559479,0.0010442254133522
1768475601632,0.1505889892578125,-0.0561065673828125,-0.9864044189453124,0.0046922233887016,0.0064805359579622,0.0071388697251677
1768475601642,0.152313232421875,-0.0554351806640625,-0.9785919189453124,0.0031012510880827,0.0037302896380424,0.0043361587449908
1768475601652,0.15032958984375,-0.057373046875,-0.9782257080078124,-0.0015148060629144,-0.0025209481827914,0.0009560748003423
1768475601662,0.148651123046875,-0.057708740234375,-0.9772796630859376,-0.0031537152826786,-0.0048195226117968,-0.0042575956322252
1768475601672,0.1474151611328125,-0.0547332763671875,-0.977294921875,-0.0091375717893242,0.0034224283881485,-0.0088765826076269
1768475601682,0.14739990234375,-0.0564117431640625,-0.9743804931640624,-0.0192298870533704,0.0111333448439836,-0.0058770640753209
1768475601692,0.1528472900390625,-0.05487060546875,-0.9761199951171876,-0.0177883189171552,0.0114436028525233,-0.003687945427373
1768475601702,0.157958984375,-0.05438232421875,-0.9857330322265624,-0.0144409909844398,0.0059380503371357,0.0039686425589025
1768475601713,0.1596832275390625,-0.055023193359375,-0.98687744140625,-0.0150013202801346,0.0075274249538779,0.008993761613965
1768475601722,0.1579132080078125,-0.05511474609375,-0.9835052490234376,-0.0161779038608074,0.0046448190696537,0.0073684342205524
1768475601732,0.1501617431640625,-0.0547332763671875,-0.980987548828125,-0.020592626184225,0.0069604376330971,0.0078392811119556
1768475601742,0.1474456787109375,-0.05694580078125,-0.979644775390625,-0.0255775321274995,0.0067899953573942,0.0090840421617031
1768475601752,0.147796630859375,-0.0508880615234375,-0.981781005859375,-0.0166455563157796,0.0060826600529253,0.0026117621455341
1768475601762,0.1424102783203125,-0.0481414794921875,-0.9938507080078124,-0.0056887785904109,0.0069979885593056,-0.0033987262286245
1768475601772,0.1419830322265625,-0.0462188720703125,-0.994964599609375,0.0054738614708185,0.0127315074205398,-0.0103674195706844
1768475601782,0.1422119140625,-0.0509490966796875,-0.9957733154296876,0.0079047949984669,0.0103967143222689,-0.0102054998278617
1768475601792,0.153076171875,-0.052886962890625,-0.9894866943359376,0.0051915659569203,0.0045279064215719,0.0040852888487279
1768475601802,0.1631317138671875,-0.0562286376953125,-0.980072021484375,-0.0014953649369999,0.0039883498102426,0.0137381823733448
1768475601812,0.15899658203125,-0.0619354248046875,-0.97589111328125,-0.0102864596992731,0.0051116715185344,0.0133171370252966
1768475601822,0.1491546630859375,-0.06109619140625,-0.9705963134765624,-0.0207444261759519,0.0064959824085235,0.0057060890831053
1768475601832,0.1435394287109375,-0.06036376953125,-0.969757080078125,-0.033760093152523,0.0066778762266039,-0.0036831516772508
1768475601843,0.1429595947265625,-0.0618896484375,-0.97064208984375,-0.0445123389363288,0.0051625375635921,-0.010563694871962
1768475601853,0.14764404296875,-0.063079833984375,-0.9732208251953124,-0.0463009178638458,-0.0031153657473623,-0.0118356207385659
1768475601863,0.1531982421875,-0.0604095458984375,-0.984527587890625,-0.0414696782827377,-0.0070480559952557,-0.0112920692190527
1768475601873,0.15277099609375,-0.057098388671875,-0.9914093017578124,-0.0344083085656166,-0.0048506814055144,-0.010072074830532
1768475601883,0.151397705078125,-0.05023193359375,-0.9986114501953124,-0.0189949963241815,0.004416053649038,-0.0052458946593105
1768475601893,0.1494598388671875,-0.044403076171875,-1.0058441162109375,0.0033571808598935,0.0108534470200538,-0.0010634001810103
1768475601903,0.1512908935546875,-0.0444793701171875,-1.013702392578125,0.0191193651407957,0.0156431421637535,0.0035529232118278
1768475601913,0.1563262939453125,-0.048370361328125,-1.0093536376953125,0.0255469046533107,0.0278691817075014,0.012433766387403
1768475601923,0.161376953125,-0.050994873046875,-0.9984893798828124,0.0282260458916425,0.0249274540692567,0.0159712433815002
1768475601933,0.1588897705078125,-0.0543365478515625,-0.9918365478515624,0.0306769516319036,0.0118111195042729,0.0142670860514044
1768475601943,0.155303955078125,-0.0556793212890625,-0.9813232421875,0.0284729208797216,0.0082318307831883,0.010136523284018
1768475601953,0.1501007080078125,-0.0567169189453125,-0.9725189208984376,0.0190368071198463,-0.0008127967594191,0.0007494135061278
1768475601963,0.1439208984375,-0.05804443359375,-0.967803955078125,0.0067644291557371,0.0007243797881528,-0.006950850598514
1768475601973,0.1393585205078125,-0.0573577880859375,-0.966217041015625,-0.0029414615128189,0.0028730181511491,-0.0187526494264602
1768475601983,0.134033203125,-0.0560760498046875,-0.9705810546875,-0.0115991318598389,-0.0059082228690385,-0.0291855819523334
1768475601993,0.1360321044921875,-0.055877685546875,-0.9747314453125,-0.0200099274516105,-0.0034400052390992,-0.0314751006662845
1768475602003,0.1403656005859375,-0.0539703369140625,-0.9739990234375,-0.0304287448525428,-0.0082091940566897,-0.0367415025830268
1768475602013,0.146820068359375,-0.0537872314453125,-0.9738311767578124,-0.0328607447445392,-0.0137858530506491,-0.0365673303604126
1768475602023,0.153717041015625,-0.050506591796875,-0.9814605712890624,-0.0263897962868213,-0.0142708150669932,-0.0306029170751571
1768475602033,0.1614990234375,-0.0493316650390625,-0.9915924072265624,-0.016015451401472,-0.0061471085064113,-0.0190514549612998
1768475602043,0.1627960205078125,-0.0544586181640625,-0.9923095703125,-0.0123919546604156,-0.0026296053547412,-0.0102742090821266
1768475602054,0.1621551513671875,-0.0546112060546875,-0.989959716796875,-0.0126630645245313,0.0014908375451341,-0.0015379755059257
1768475602063,0.1601715087890625,-0.053436279296875,-0.986175537109375,-0.0108547778800129,0.0070493873208761,0.0057335193268954
1768475602074,0.160888671875,-0.055938720703125,-0.98577880859375,-0.009033708833158,0.0054730623960494,0.0078264977782964
1768475602084,0.160064697265625,-0.0546417236328125,-0.985626220703125,-0.0051966262981295,0.0013603427214547,0.0109533155336976
1768475602094,0.155517578125,-0.055328369140625,-0.9860076904296876,-0.0049934270791709,-0.0009784454014152,0.0109602389857172
1768475602104,0.1500091552734375,-0.0521697998046875,-0.986083984375,-0.0003320961841382,0.0005305017111822,0.0031246868893504
1768475602114,0.1468353271484375,-0.052398681640625,-0.988006591796875,0.0015824503498151,0.0043571977876126,-0.0033577135764062
1768475602124,0.14471435546875,-0.0538482666015625,-0.9871063232421876,0.0004559331864584,0.0047068707644939,-0.0085394261404871
1768475602134,0.1444549560546875,-0.053375244140625,-0.9820404052734376,-0.0016708672046661,0.002813629573211,-0.00791438203305
1768475602144,0.152496337890625,-0.054840087890625,-0.9813232421875,-0.0083652548491954,0.0010183927370235,-0.0008396946941502
1768475602154,0.1540985107421875,-0.0531158447265625,-0.9767913818359376,-0.0182847306132316,0.0031092404387891,0.0067409933544695
1768475602164,0.155120849609375,-0.053375244140625,-0.974029541015625,-0.0212903749197721,0.0001941444352269,0.0026644926983863
1768475602174,0.15277099609375,-0.0518035888671875,-0.97906494140625,-0.0183563698083162,-0.0018168084789067,-0.0034495925065129
1768475602184,0.1475067138671875,-0.0538787841796875,-0.9858856201171876,-0.019038138911128,0.0003584614896681,-0.0043910201638937
1768475602194,0.1503448486328125,-0.054351806640625,-0.985931396484375,-0.0185648966580629,0.0010317085543647,-0.0035206989850848
1768475602204,0.153961181640625,-0.054168701171875,-0.9882049560546876,-0.0169041492044925,0.003500459017232,-0.0040187099948525
1768475602214,0.1492919921875,-0.0515594482421875,-0.9925537109375,-0.003622697899118,0.002911101328209,-0.0084219807758927
1768475602224,0.144287109375,-0.0470428466796875,-0.9968414306640624,0.0072467275895178,-0.0004538026405498,-0.0131395040079951
1768475602234,0.1475372314453125,-0.05120849609375,-0.995361328125,0.0079079903662204,-0.0010002832859754,-0.0091631384566426
1768475602244,0.1536865234375,-0.05670166015625,-0.98553466796875,0.0076190372928977,0.0012407667236402,-0.0120470756664872
1768475602254,0.1473388671875,-0.05755615234375,-0.98455810546875,0.0063838632777333,0.0057066213339567,-0.0192024558782577
1768475602264,0.1418609619140625,-0.0549163818359375,-0.9834136962890624,0.0036916739773005,0.0116611830890178,-0.0238099917769432
1768475602274,0.143310546875,-0.054168701171875,-0.981292724609375,0.0001206411980092,0.0095583517104387,-0.0248387698084115
1768475602284,0.146240234375,-0.0511627197265625,-0.9838714599609376,0.0023459785152226,0.0032943303231149,-0.0235146470367908
1768475602295,0.15106201171875,-0.046051025390625,-0.986053466796875,0.0134079502895474,-0.0157768316566944,-0.0266459919512271
1768475602305,0.147796630859375,-0.046966552734375,-0.9905853271484376,0.0160095933824777,-0.0066365972161293,-0.0310809537768363
1768475602315,0.1480712890625,-0.048583984375,-0.981719970703125,0.0060405819676816,-0.0052645369432866,-0.0303832050412893
1768475602325,0.1492462158203125,-0.051910400390625,-0.970855712890625,-0.0075588501058518,-0.0028570392169058,-0.0316391512751579
1768475602335,0.1497955322265625,-0.05487060546875,-0.9673309326171876,-0.0223271436989307,-0.0041414815932512,-0.0266310777515172
1768475602345,0.154022216796875,-0.057525634765625,-0.9670867919921876,-0.0351060554385185,-0.0048573394306004,-0.0267037823796272
1768475602355,0.15350341796875,-0.05743408203125,-0.969757080078125,-0.042961049824953,-0.006524478085339,-0.023559920489788
1768475602365,0.153594970703125,-0.0581512451171875,-0.9752960205078124,-0.0486698001623153,-0.0056064864620566,-0.0200828984379768
1768475602375,0.1578521728515625,-0.0582427978515625,-0.9807586669921876,-0.0483747236430645,-0.0076011945493519,-0.0153898755088448
1768475602386,0.1581268310546875,-0.05426025390625,-0.992523193359375,-0.0352717041969299,-0.0083394227549433,-0.0131142036989331
1768475602395,0.1578369140625,-0.048065185546875,-1.003173828125,-0.0160226430743932,-0.0081559307873249,-0.0109474565833807
1768475602405,0.1555938720703125,-0.04400634765625,-1.010040283203125,0.0068576396442949,-0.0018548916559666,-0.0092840455472469
1768475602415,0.150177001953125,-0.041778564453125,-1.0109405517578125,0.0242163892835378,0.0072563150897622,-0.0050677293911576
1768475602425,0.148406982421875,-0.0457611083984375,-1.006103515625,0.0271048545837402,0.0146535113453865,-0.0028674255590885
1768475602435,0.1514892578125,-0.0476226806640625,-0.99407958984375,0.0278785023838281,0.0150971934199333,0.0005086637684144
1768475602445,0.153106689453125,-0.0490264892578125,-0.9860076904296876,0.0252640768885612,0.0080723073333501,-0.0008034756756387
1768475602455,0.1494903564453125,-0.0518951416015625,-0.9774169921875,0.009515474550426,0.0037792918737977,-0.0002780340146273
1768475602465,0.1469573974609375,-0.0546875,-0.9650726318359376,-0.0095828520134091,0.0059782639145851,-0.0008229167433455
1768475602475,0.1482391357421875,-0.0543975830078125,-0.959259033203125,-0.0230033192783594,-0.0031278827227652,-0.0031848743092268
1768475602485,0.151763916015625,-0.0524444580078125,-0.9661865234375,-0.0306492559611797,-0.0046903593465685,-0.0032373385038226
1768475602495,0.1502532958984375,-0.0535125732421875,-0.9744873046875,-0.0336751379072666,0.0043113916181027,-0.0073953317478299
1768475602505,0.1508636474609375,-0.0498809814453125,-0.9805755615234376,-0.0318913534283638,0.0127373663708567,-0.0070419306866824
1768475602515,0.1519927978515625,-0.0484161376953125,-0.9897308349609376,-0.0223428569734096,0.0126713206991553,-0.0074453991837799
1768475602526,0.1544647216796875,-0.0460968017578125,-0.9969329833984376,-0.0090917656198143,0.0143714826554059,-0.0074355457909405
1768475602536,0.1527252197265625,-0.0447845458984375,-1.0014495849609375,0.0045244442299008,0.0082464786246418,-0.0058954395353794
1768475602546,0.15338134765625,-0.0477752685546875,-1.0022430419921875,0.0103226788341999,0.0004229099722579,0.0002881540276575
1768475602556,0.1554412841796875,-0.048187255859375,-0.9929046630859376,0.0083623258396983,-0.002051965566352,0.0088526140898466
1768475602566,0.1528472900390625,-0.0471038818359375,-0.9866943359375,0.0133837163448333,-0.0014138722326606,0.0034567830152809
1768475602576,0.143798828125,-0.0489349365234375,-0.98590087890625,0.0108012482523918,0.0019536949694156,-0.0036866138689219
1768475602586,0.14105224609375,-0.0501556396484375,-0.98199462890625,0.0050988881848752,0.0048842374235391,-0.0075258268043398
1768475602596,0.145751953125,-0.0496673583984375,-0.9813690185546876,-0.0007819040911272,0.003213370218873,-0.004293814767152
1768475602606,0.1511993408203125,-0.0511322021484375,-0.978302001953125,-0.0071050473488867,0.0085990810766816,0.0005254416610114
1768475602617,0.151123046875,-0.052215576171875,-0.973724365234375,-0.0152034536004066,0.0167917627841234,-0.0054011568427085
1768475602626,0.1467437744140625,-0.0519866943359375,-0.9770355224609376,-0.0133317839354276,0.0098060257732868,-0.0126417595893144
1768475602636,0.146209716796875,-0.0523834228515625,-0.984527587890625,-0.0089948261156678,0.0001131843455368,-0.0103463809937238
1768475602646,0.1571502685546875,-0.056396484375,-0.98785400390625,-0.0066563049331307,-0.0052315136417746,-0.0026620957069098
1768475602656,0.161376953125,-0.0584869384765625,-0.9889373779296876,-0.0074107781983911,-0.0002338255435461,0.0129783824086189
1768475602666,0.16180419921875,-0.0593414306640625,-0.986480712890625,-0.011322695761919,0.0099341236054897,0.0231700334697961
1768475602676,0.15887451171875,-0.05804443359375,-0.985565185546875,-0.0063071642071008,0.0164809729903936,0.0211622770875692
1768475602686,0.1529388427734375,-0.0527801513671875,-0.992767333984375,0.0010599381057545,0.0145469848066568,0.0178264006972312
1768475602696,0.147674560546875,-0.0518646240234375,-0.99395751953125,0.0073404707945883,0.0123719815164804,0.0118707744404673
1768475602706,0.1458892822265625,-0.046234130859375,-0.99078369140625,0.0122127244248986,0.0053284526802599,0.0024421187117695
1768475602716,0.1440582275390625,-0.04681396484375,-0.990631103515625,0.0165954884141683,0.0027340012602508,-0.0035454663448035
1768475602726,0.14556884765625,-0.0478057861328125,-0.98822021484375,0.0137826576828956,0.0040253680199384,-0.0023385216481983
1768475602737,0.1524810791015625,-0.053955078125,-0.982269287109375,0.0058363173156976,0.0011249192757532,0.0074520572088658
1768475602746,0.159088134765625,-0.056915283203125,-0.9783935546875,0.0038386804517358,0.0040413467213511,0.0144790736958384
1768475602756,0.15966796875,-0.0539398193359375,-0.9805908203125,0.0050323093309998,0.0089373020455241,0.0181470457464456
1768475602767,0.153472900390625,-0.0511932373046875,-0.984283447265625,0.0077607175335288,0.0162969473749399,0.0122348284348845
1768475602777,0.1475067138671875,-0.049163818359375,-0.9858856201171876,0.0100667485967278,0.0171872433274984,0.0052272523753345
1768475602787,0.146942138671875,-0.0498046875,-0.9872283935546876,0.0110103068873286,0.0122036691755056,0.000916393706575
1768475602797,0.150054931640625,-0.0488128662109375,-0.9825286865234376,0.008944759145379,0.0066195530816912,0.0010293117957189
1768475602807,0.1517486572265625,-0.050933837890625,-0.9807891845703124,0.0053361756727099,0.0015102786710485,0.0011877698125317
1768475602817,0.1527252197265625,-0.052886962890625,-0.9793548583984376,-0.0005536712124012,-0.0023995081428438,-0.0006538060260936
1768475602827,0.1515655517578125,-0.052520751953125,-0.97735595703125,-0.0064624268561601,-0.0062634884379804,0.0029680929146707
1768475602837,0.152740478515625,-0.0539093017578125,-0.975311279296875,-0.0172775238752365,0.0057561565190553,0.0099205411970615
1768475602847,0.1529083251953125,-0.0570831298828125,-0.9734344482421876,-0.0230744257569313,0.006721019744873,0.0106822056695818
1768475602857,0.15069580078125,-0.058135986328125,-0.9761199951171876,-0.0260899234563112,0.0070635019801557,0.0050823767669498
1768475602868,0.1486053466796875,-0.05303955078125,-0.9804534912109376,-0.0210397709161043,0.010316819883883,-0.0017875137273222
1768475602877,0.1467742919921875,-0.047882080078125,-0.991058349609375,-0.0101951127871871,0.0129323098808527,-0.0042216428555548
1768475602887,0.1490936279296875,-0.050567626953125,-0.99658203125,-0.0002346244873479,0.0084057357162237,-0.004089550115168
1768475602897,0.156890869140625,-0.0516510009765625,-0.998504638671875,0.0071559138596057,-0.0043441485613584,0.0061239390634
1768475602907,0.1623077392578125,-0.052520751953125,-0.9945831298828124,0.008150071837008,-0.0102579640224576,0.0125919580459594
1768475602917,0.1591796875,-0.054656982421875,-0.9860382080078124,0.0026967169251292,-0.0078560588881373,0.0132002243772149
1768475602927,0.1509857177734375,-0.0554046630859375,-0.9815521240234376,-0.0040772994980216,0.0059684100560843,0.0175547581166028
1768475602937,0.14788818359375,-0.0577239990234375,-0.976806640625,-0.0126529447734355,0.0094329165294766,0.0153629770502448
1768475602947,0.1496124267578125,-0.0547943115234375,-0.977813720703125,-0.0090283825993537,0.0106041748076677,0.0104651581496
1768475602957,0.1483001708984375,-0.0493011474609375,-0.9855804443359376,-0.0007318366551771,0.0090571446344256,0.0057194046676158
1768475602967,0.1506500244140625,-0.0504608154296875,-0.9931640625,0.0089093390852212,0.0097338538616895,0.007964183576405
1768475602977,0.1562957763671875,-0.0528564453125,-0.9939727783203124,0.0131501564756035,0.0054267235100269,0.0127924941480159
1768475602987,0.1600189208984375,-0.0549468994140625,-0.9914398193359376,0.0208032820373773,-0.0037936728913336,0.0179760716855525
1768475602998,0.160614013671875,-0.05633544921875,-0.9893341064453124,0.019595805555582,-0.0057367151603102,0.0252773929387331
1768475603008,0.16021728515625,-0.0620880126953125,-0.9847869873046876,0.0116468025371432,-0.0046437541022896,0.0298915859311819
1768475603018,0.1522674560546875,-0.0584259033203125,-0.9773406982421876,0.0039513320662081,-0.0001448759576305,0.0260667540132999
1768475603028,0.1421051025390625,-0.053680419921875,-0.9766845703125,-0.0019499665359035,-0.0010852381819859,0.0136830555275082
1768475603038,0.1367645263671875,-0.0540008544921875,-0.974639892578125,-0.0104180201888084,-0.0028748824261128,0.0029087045695632
1768475603048,0.1418914794921875,-0.0556488037109375,-0.9759368896484376,-0.0141560323536396,-0.0033475933596491,-0.0068256817758083
1768475603058,0.1468048095703125,-0.05615234375,-0.9782257080078124,-0.0129956938326358,-0.0069074407219886,-0.0160793680697679
1768475603068,0.1453857421875,-0.0565185546875,-0.9861602783203124,-0.0085655245929956,0.0003605920064728,-0.0163584668189287
1768475603078,0.1530914306640625,-0.0536956787109375,-0.9930267333984376,-0.0024250745773315,0.0051822452805936,-0.0106499809771776
1768475603088,0.157470703125,-0.0511322021484375,-0.9972076416015624,0.0074097132310271,0.0009363674325868,3.914846820407547e-05
1768475603098,0.157073974609375,-0.0496826171875,-0.9998626708984376,0.0173512939363718,0.0030200246255844,0.0050501525402069
1768475603108,0.1491241455078125,-0.0479736328125,-0.9933929443359376,0.0201681181788444,0.003525492735207,0.0039324234239757
1768475603120,0.1419525146484375,-0.0481414794921875,-0.9871826171875,0.0228387359529733,-0.0001243696169694,-0.002617621095851
1768475603128,0.14007568359375,-0.046783447265625,-0.9857025146484376,0.0257130861282348,-0.0095612807199358,-0.0097612841054797
1768475603138,0.141876220703125,-0.0488433837890625,-0.983245849609375,0.0199979431927204,-0.0098632834851741,-0.0153387421742081
1768475603148,0.1446075439453125,-0.0523223876953125,-0.9788360595703124,0.0129453595727682,-0.0046309707686305,-0.0197718404233455
1768475603158,0.148101806640625,-0.0592498779296875,-0.9732513427734376,0.0006567355012521,-0.0039348206482827,-0.0203414913266897
1768475603168,0.1548614501953125,-0.06146240234375,-0.9710540771484376,-0.0113890087231993,-0.0014756575692445,-0.017266871407628
1768475603178,0.1591033935546875,-0.0627899169921875,-0.9733428955078124,-0.0193912740796804,0.0011835087789222,-0.0119173796847462
1768475603188,0.1575469970703125,-0.0616302490234375,-0.976715087890625,-0.0237857569009065,0.00070307450369,-0.0102579640224576
1768475603198,0.1552276611328125,-0.058929443359375,-0.977630615234375,-0.0233561880886554,0.001521463971585,-0.0151198310777544
1768475603209,0.1484527587890625,-0.0550537109375,-0.98388671875,-0.0196056589484214,0.0056048887781798,-0.0168745871633291
1768475603219,0.1490020751953125,-0.0538482666015625,-0.9864654541015624,-0.0119565278291702,0.0078904135152697,-0.0067274109460413
1768475603229,0.1538848876953125,-0.0503997802734375,-0.993408203125,-0.0028993834275752,0.0114105800166726,-0.001857554889284
1768475603239,0.1531524658203125,-0.049530029296875,-0.9975738525390624,0.0052674664184451,0.01887515373528,0.0006687197601422
1768475603249,0.1496124267578125,-0.048095703125,-0.995269775390625,0.0144918570294976,0.0162625927478075,-0.0009206547983922
1768475603259,0.14862060546875,-0.0491943359375,-0.9970703125,0.0214166082441806,0.0132598793134093,-0.0052544167265295
1768475603269,0.14752197265625,-0.050933837890625,-0.991302490234375,0.0243463516235351,0.0117906127125024,-0.0095714004710316
1768475603279,0.1487884521484375,-0.05230712890625,-0.9875946044921876,0.0249309167265892,0.0015006912872195,-0.0141797345131635
1768475603289,0.1520233154296875,-0.0544586181640625,-0.9833984375,0.0238882880657911,0.0020213392563164,-0.0109581090509891
1768475603299,0.153839111328125,-0.0572967529296875,-0.98309326171875,0.0235841553658247,0.004120975267142,-0.0110449278727173
1768475603309,0.1558685302734375,-0.0586090087890625,-0.983612060546875,0.018238391727209,0.0081519363448023,-0.0074427360668778
1768475603319,0.1556549072265625,-0.0589599609375,-0.9790496826171876,0.0041822283528745,0.0196290947496891,-0.0030016489326953
1768475603329,0.1535186767578125,-0.0585174560546875,-0.9734344482421876,-0.0039601204916834,0.0251796543598175,0.0015835155500099
1768475603339,0.154144287109375,-0.0562896728515625,-0.9783935546875,-0.0056336508132517,0.0247269179672002,0.010399910621345
1768475603349,0.1600799560546875,-0.056121826171875,-0.9810028076171876,-0.0034685009159147,0.0167568754404783,0.0183334667235612
1768475603359,0.161865234375,-0.0538787841796875,-0.9840545654296876,0.0058477688580751,0.0027875306550413,0.0234328880906105
1768475603369,0.1603240966796875,-0.050445556640625,-0.9916534423828124,0.0158458091318607,-0.0028208203148096,0.0221045035868883
1768475603379,0.151641845703125,-0.0507049560546875,-0.993621826171875,0.0171808507293462,-0.0036671727430075,0.0201417542994022
1768475603389,0.146514892578125,-0.054351806640625,-0.98492431640625,0.0112625081092119,-0.002633333671838,0.0177907142788171
1768475603399,0.1492919921875,-0.053619384765625,-0.97998046875,0.0075993300415575,-0.0055319182574748,0.0188051126897335
1768475603409,0.14892578125,-0.0548248291015625,-0.9783782958984376,0.004259193316102,3.6485307646216825e-05,0.0172777902334928
1768475603420,0.1456298828125,-0.05682373046875,-0.978424072265625,-0.0012423646403476,0.0121456123888492,0.014378672465682
1768475603429,0.145843505859375,-0.062225341796875,-0.979156494140625,-0.0052972938865423,0.0192051194608211,0.0110406670719385
1768475603439,0.14862060546875,-0.0661163330078125,-0.981781005859375,-0.00734180258587,0.0154428724199533,0.0105604985728859
1768475603450,0.1535186767578125,-0.0656890869140625,-0.9843292236328124,-0.0065918564796447,0.0056086173281073,0.0113309510052204
1768475603460,0.15618896484375,-0.06011962890625,-0.98736572265625,0.0022061625495553,0.0022056300658732,0.0119541315361857
1768475603470,0.151702880859375,-0.0559539794921875,-0.9902496337890624,0.0099951094016432,0.0002239718451164,0.0090606063604354
1768475603480,0.146575927734375,-0.054168701171875,-0.989715576171875,0.0153235625475645,0.0063764066435396,0.0047998153604567
1768475603490,0.1470794677734375,-0.055511474609375,-0.98822021484375,0.0125767784193158,0.0130012864246964,0.0044104610569775
1768475603500,0.1529693603515625,-0.0599212646484375,-0.9813995361328124,0.0050637344829738,0.0169275850057601,0.0094579504802823
1768475603510,0.157623291015625,-0.06317138671875,-0.9763946533203124,-0.0088238511234521,0.0191766247153282,0.0170474257320165
1768475603520,0.1602935791015625,-0.06182861328125,-0.9723968505859376,-0.0163446180522441,0.01723438128829,0.0195105839520692
1768475603530,0.155975341796875,-0.0587615966796875,-0.9765472412109376,-0.0185872670263052,0.0140324616804718,0.0146026443690061
1768475603540,0.1504669189453125,-0.057098388671875,-0.98333740234375,-0.0157541949301958,0.0147424610331654,0.0082518048584461
1768475603550,0.148284912109375,-0.0562286376953125,-0.984039306640625,-0.0136993005871772,0.0194810237735509,0.001619468210265
1768475603560,0.1450653076171875,-0.055511474609375,-0.9873504638671876,-0.0090771177783608,0.0156042594462633,-0.0049303099513053
1768475603570,0.1502532958984375,-0.0529022216796875,-0.990753173828125,-0.0002034655044553,0.0077031934633851,-0.0017544905422255
1768475603580,0.156646728515625,-0.0517425537109375,-0.9914398193359376,0.0114105800166726,0.0043878243304789,0.0006050702068023
1768475603590,0.156341552734375,-0.052764892578125,-0.9946746826171876,0.0193974003195762,0.0040357541292905,0.0005235774442553
1768475603600,0.15594482421875,-0.0555267333984375,-0.991485595703125,0.021924739703536,0.0053287190385162,-0.0014801849611103
1768475603610,0.1512451171875,-0.057098388671875,-0.98724365234375,0.0179558303207159,0.0097383810207247,-0.0030972564127296
1768475603620,0.15020751953125,-0.0601043701171875,-0.9810333251953124,0.0068864016793668,0.0128047447651624,-0.0021433120127767
1768475603630,0.15008544921875,-0.060791015625,-0.9768524169921876,0.0014114753575995,0.0177028309553861,0.0028842033352702
1768475603640,0.15203857421875,-0.0622100830078125,-0.9797210693359376,0.0014900385867804,0.0170080121606588,0.0017789915436878
1768475603650,0.1537628173828125,-0.062042236328125,-0.9817352294921876,0.0047590686008334,0.0127770481631159,0.0027989821974188
1768475603660,0.1544189453125,-0.061737060546875,-0.9822998046875,0.0052099418826401,0.0074435351416468,0.0027028422337025
1768475603670,0.1550750732421875,-0.0606536865234375,-0.982421875,0.0069138323888182,-0.0010375675046816,0.0057449708692729
1768475603681,0.158355712890625,-0.056427001953125,-0.9820098876953124,0.0017955031944438,-0.0071146348491311,0.008666724897921
1768475603691,0.1556396484375,-0.05810546875,-0.9793701171875,-0.0105053717270493,-0.0011243865592405,0.0155030591413378
1768475603701,0.1554718017578125,-0.06231689453125,-0.97314453125,-0.0225447230041027,0.0083801690489053,0.0224344693124294
1768475603711,0.155487060546875,-0.0642242431640625,-0.9694976806640624,-0.0343161635100841,0.015099324285984,0.0241905581206083
1768475603721,0.154144287109375,-0.060943603515625,-0.9727020263671876,-0.027605528011918,0.0112910037860274,0.0179989747703075
1768475603731,0.151214599609375,-0.055084228515625,-0.9873046875,-0.0083588641136884,0.0073063825257122,0.0078523308038711
1768475603741,0.1484527587890625,-0.0546112060546875,-0.9975433349609376,0.0034956652671098,0.0033832797780632,0.0015603461069986
1768475603751,0.155303955078125,-0.0548858642578125,-0.9947052001953124,0.0125205852091312,0.0018642127979546,0.0081074610352516
1768475603761,0.1627655029296875,-0.0594940185546875,-0.992889404296875,0.0128976888954639,0.0004484763194341,0.0224006474018096
1768475603771,0.16766357421875,-0.0631256103515625,-0.9842681884765624,0.0025497104506939,0.0108204232528805,0.0309065170586109
1768475603781,0.1619415283203125,-0.0626068115234375,-0.974761962890625,-0.0035065840929746,0.0126699889078736,0.0325661972165107
1768475603791,0.1505126953125,-0.0595855712890625,-0.9769744873046876,-0.0045638591982424,0.0113386744633317,0.0219742748886346
1768475603801,0.142974853515625,-0.0565032958984375,-0.9806365966796876,-0.0030554446857422,0.0088408961892127,0.0154716344550251
1768475603811,0.144989013671875,-0.054290771484375,-0.981719970703125,-0.0054759918712079,0.0081569962203502,0.0085601983591914
1768475603821,0.1474761962890625,-0.0547332763671875,-0.9800262451171876,-0.0084701841697096,0.0008886968716979,0.0027515781112015
1768475603831,0.146209716796875,-0.0565643310546875,-0.980560302734375,-0.0132079469040036,-0.0003225088003091,-0.0074589815922081
1768475603841,0.1451416015625,-0.053497314453125,-0.9814605712890624,-0.0119871543720364,0.0008002799004316,-0.0164391603320837
1768475603851,0.1435089111328125,-0.0522918701171875,-0.98358154296875,-0.0073239593766629,-0.0038663772866129,-0.0222112964838743
1768475603861,0.1454010009765625,-0.053680419921875,-0.986785888671875,-0.0051713259890675,-0.0017957695527002,-0.0237527340650558
1768475603871,0.1478118896484375,-0.0583038330078125,-0.984527587890625,-0.008299209177494,0.0113474633544683,-0.0184383951127529
1768475603881,0.1504058837890625,-0.061126708984375,-0.9801788330078124,-0.0152665711939334,0.0135222002863883,-0.0137578900903463
1768475603892,0.1596527099609375,-0.0596923828125,-0.9815521240234376,-0.0177971068769693,0.0097977695986628,-0.0036756948102265
1768475603902,0.16259765625,-0.05828857421875,-0.9810638427734376,-0.0171294528990983,0.0069463229738175,-0.0045942193828523
1768475603912,0.1555328369140625,-0.0594635009765625,-0.9820709228515624,-0.0136654786765575,-0.0007171892793849,-0.0115059213712811
1768475603922,0.15362548828125,-0.0571441650390625,-0.985260009765625,-0.0115802232176065,-0.0056600160896778,-0.0158527325838804
1768475603932,0.1573028564453125,-0.059814453125,-0.9809112548828124,-0.0169134698808193,-0.0040211067534983,-0.01349663361907
1768475603942,0.1596527099609375,-0.062408447265625,-0.979522705078125,-0.0200964789837598,-0.0027507790364325,-0.0153155727311968
1768475603952,0.1571197509765625,-0.0627899169921875,-0.9833831787109376,-0.0224413927644491,0.0015379755059257,-0.0114989969879388
1768475603962,0.161956787109375,-0.06396484375,-0.9842987060546876,-0.0146886650472879,0.0038248319178819,-0.0077673755586147
1768475603972,0.1613311767578125,-0.0611572265625,-0.991455078125,-0.0086550069972872,0.0048970207571983,0.0010229201288893
1768475603982,0.1639404296875,-0.0589447021484375,-0.991729736328125,-0.0058264639228582,0.0102140214294195,0.0163784399628639
1768475603992,0.1646728515625,-0.0592193603515625,-0.98773193359375,-0.0002703108475543,0.0067098340950906,0.0252427719533443
1768475604002,0.15948486328125,-0.0556793212890625,-0.988037109375,0.0065316688269376,0.002657568315044,0.0249290522187948
1768475604012,0.15277099609375,-0.054534912109375,-0.987213134765625,0.005493835080415,-0.0009137305896729,0.0198288317769765
1768475604022,0.148468017578125,-0.055938720703125,-0.981781005859375,0.002886067610234,0.0003858920244965,0.0104776741936802
1768475604032,0.1466827392578125,-0.053924560546875,-0.976287841796875,-0.0029838057234883,0.0026133600622415,-0.0025712819769978
1768475604042,0.1436004638671875,-0.0534820556640625,-0.9754638671875,-0.0064038368873298,-0.002036785474047,-0.0122785037383437
1768475604052,0.146087646484375,-0.055572509765625,-0.9750518798828124,-0.0123674534261226,-0.0075095817446708,-0.0150575125589966
1768475604062,0.152496337890625,-0.0580291748046875,-0.9749298095703124,-0.0209162011742591,-0.0094640757888555,-0.0124939540401101
1768475604072,0.156707763671875,-0.0588531494140625,-0.9774017333984376,-0.0248696636408567,-0.0122665194794535,-0.0030581078026443
1768475604082,0.1573638916015625,-0.0594482421875,-0.9799041748046876,-0.0260824672877788,-0.006760167889297,-0.0033973946701735
1768475604092,0.1533660888671875,-0.0583038330078125,-0.9831085205078124,-0.0292353834956884,0.0076882797293365,0.0018407768802717
1768475604102,0.15325927734375,-0.0607452392578125,-0.981170654296875,-0.0350570529699325,0.016939302906394,0.0056970342993736
1768475604112,0.1587982177734375,-0.054412841796875,-0.980865478515625,-0.0244603361934423,0.005944175645709,0.0057486994192004
1768475604123,0.1576995849609375,-0.050201416015625,-0.994384765625,-0.0053558833897113,-0.0021691448055207,0.0022993732709437
1768475604132,0.1532135009765625,-0.0476837158203125,-1.003082275390625,0.0068656294606626,-0.0035939358640462,-0.0009483516332693
1768475604143,0.15081787109375,-0.0482330322265625,-0.9972686767578124,0.0132178012281656,-0.0030802120454609,-0.0072288843803107
1768475604153,0.147430419921875,-0.048736572265625,-0.993682861328125,0.0164434220641851,0.0009376989910379,-0.0063660200685262
1768475604163,0.149566650390625,-0.054168701171875,-0.98919677734375,0.0134857147932052,0.0005336974863894,0.0005222458858042
1768475604173,0.1513519287109375,-0.0589141845703125,-0.9805908203125,0.0068512479774653,0.0010684601729735,0.0034296188969165
1768475604183,0.1517181396484375,-0.06439208984375,-0.9732666015625,-0.0032772859558463,1.6777914424892515e-05,-0.0007579356315545
1768475604193,0.1494293212890625,-0.0666656494140625,-0.9707794189453124,-0.0123368268832564,-0.0054797204211354,-0.0096116149798035
1768475604203,0.147613525390625,-0.067474365234375,-0.97186279296875,-0.0226866696029901,-0.0033731597941368,-0.0140835950151085
1768475604213,0.1509552001953125,-0.065277099609375,-0.9714508056640624,-0.0311294235289096,-0.005511678289622,-0.0103929862380027
1768475604223,0.157012939453125,-0.0630645751953125,-0.9746551513671876,-0.0331912413239479,-0.0044221789576113,-0.0047699878923594
1768475604233,0.1626739501953125,-0.0555572509765625,-0.9861297607421876,-0.0211031548678874,-0.0039305593818426,-0.0014109427575021
1768475604243,0.157928466796875,-0.050506591796875,-0.9999847412109376,-0.003223223844543,-0.0039768982678651,-0.0001893507578643
1768475604253,0.1578521728515625,-0.048065185546875,-1.003631591796875,0.0096523612737655,-0.0030863373540341,0.00683473655954
1768475604263,0.1584930419921875,-0.0528411865234375,-1.0010833740234375,0.0098622180521488,0.000999750685878,0.0147848045453429
1768475604273,0.1608428955078125,-0.0576324462890625,-0.988433837890625,0.0022144184913486,0.0089250514283776,0.0200155191123485
1768475604283,0.1567230224609375,-0.0603790283203125,-0.977813720703125,-0.0028053738642483,0.0093421023339033,0.0137317907065153
1768475604293,0.1534576416015625,-0.0581817626953125,-0.9758758544921876,0.001725195790641,0.0013235911028459,0.0055055529810488
1768475604303,0.1473541259765625,-0.055450439453125,-0.9853973388671876,0.0047899615019559,0.0038317560683935,-0.0071748220361769
1768475604313,0.1455841064453125,-0.0554962158203125,-0.9865875244140624,0.010163421742618,-0.0023510386236011,-0.0122920861467719
1768475604323,0.1491851806640625,-0.055999755859375,-0.9868011474609376,0.0065119615755975,-0.0034155040048062,-0.0108433263376355
1768475604333,0.1545562744140625,-0.058502197265625,-0.9821624755859376,0.0046685212291777,-0.0036661075428128,-0.0096587529405951
1768475604343,0.15338134765625,-0.056884765625,-0.979217529296875,-0.0019433086272329,-0.0013720606220886,-0.0074997278861701
1768475604354,0.1492462158203125,-0.0567474365234375,-0.97857666015625,-0.0120231071487069,0.0032751555554568,-0.005265868268907
1768475604364,0.1492462158203125,-0.0569915771484375,-0.97332763671875,-0.0221252758055925,0.0027289411518722,-0.0032565132714807
1768475604374,0.1512298583984375,-0.05517578125,-0.9752044677734376,-0.0230592470616102,-0.0028290760237723,-0.001792041119188
1768475604384,0.1544189453125,-0.0536956787109375,-0.9829254150390624,-0.0200589299201965,-0.0086310384795069,0.0023768711835145
1768475604394,0.156280517578125,-0.0516510009765625,-0.985382080078125,-0.0160950794816017,-0.008657936938107,-0.0015291870804503
1768475604404,0.15179443359375,-0.0565643310546875,-0.98565673828125,-0.0162969473749399,-0.0018322548130527,-0.0049124667420983
1768475604414,0.1530609130859375,-0.058197021484375,-0.9821624755859376,-0.0187124349176883,0.0089828418567776,-0.0102787362411618
1768475604424,0.1508941650390625,-0.059478759765625,-0.982513427734375,-0.0168977566063404,0.0040413467213511,-0.013907560147345
1768475604434,0.152984619140625,-0.0571746826171875,-0.9853057861328124,-0.0117322895675897,0.0015427692560479,-0.0097426418215036
1768475604444,0.155609130859375,-0.05352783203125,-0.9876708984375,-0.0050251185894012,-0.0010096043115481,-0.0041782334446907
1768475604454,0.155242919921875,-0.056610107421875,-0.9878692626953124,-0.0053558833897113,-0.0088307755067944,-0.0007763114408589
1768475604464,0.157073974609375,-0.0576171875,-0.983612060546875,-0.0044429516419768,-0.0164210516959428,0.0015185344964265
1768475604474,0.1574249267578125,-0.0579833984375,-0.98052978515625,-0.0083735110238194,-0.0141280693933367,-0.0021819279063493
1768475604484,0.14990234375,-0.058135986328125,-0.9799346923828124,-0.0131456293165683,-0.0073548518121242,-0.0026399914640933
1768475604494,0.15008544921875,-0.0553131103515625,-0.9811248779296876,-0.0171105433255434,-0.0008969526388682,-0.000826911535114
1768475604504,0.1504669189453125,-0.053802490234375,-0.98529052734375,-0.0187806114554405,0.0027209515683352,0.0038005972746759
1768475604514,0.1539306640625,-0.0549163818359375,-0.9877471923828124,-0.015392804518342,-0.0024610271211713,0.0040898164734244
1768475604524,0.155853271484375,-0.0521240234375,-0.9878387451171876,-0.0156572572886943,-0.0031009847298264,0.0044386903755366
1768475604534,0.154205322265625,-0.0553131103515625,-0.987396240234375,-0.0151067813858389,-0.005291168577969,0.0062733422964811
1768475604544,0.150177001953125,-0.0540313720703125,-0.9869537353515624,-0.0099042961373925,-0.0027843348216265,0.0010396981379017
1768475604554,0.147491455078125,-0.0525665283203125,-0.9881591796875,-0.0045433528721332,-0.0053164684213697,-0.0043087285012006
1768475604564,0.1489410400390625,-0.054473876953125,-0.986358642578125,-0.0006655239267274,-0.0047590686008334,-0.0069726882502436
1768475604574,0.14892578125,-0.0567626953125,-0.9860992431640624,0.0020740698091685,-0.0046307044103741,-0.0097058909013867
1768475604585,0.1495819091796875,-0.0540618896484375,-0.9892730712890624,0.0067308731377124,-0.0025731462519615,-0.0155587196350097
1768475604595,0.1514129638671875,-0.0557403564453125,-0.9900360107421876,0.0087133301421999,0.0029422603547573,-0.0097136134281754
1768475604605,0.1563262939453125,-0.056488037109375,-0.9886016845703124,0.0066027753055095,0.0064262077212333,-0.004586495924741
1768475604615,0.1572418212890625,-0.056304931640625,-0.984344482421875,-0.0006575344596058,0.0053356434218585,0.0048347027041018
1768475604625,0.1552886962890625,-0.0572357177734375,-0.9804534912109376,-0.0067463195882737,0.0062754726968705,0.0062523032538592
1768475604635,0.1488189697265625,-0.0554962158203125,-0.9759521484375,-0.0131522873416543,0.0024407871533185,0.0019124159589409
1768475604645,0.1415863037109375,-0.0536041259765625,-0.9755401611328124,-0.014494520612061,0.002870887517929,-0.0116369482129812
1768475604655,0.137176513671875,-0.0502471923828125,-0.977447509765625,-0.0135986329987645,-0.0025185514241456,-0.0212704017758369
1768475604665,0.1436920166015625,-0.047393798828125,-0.9804229736328124,-0.0100835263729095,-0.0038983351550996,-0.0261386595666408
1768475604675,0.1480712890625,-0.0533294677734375,-0.98443603515625,-0.0119099225848913,-0.0010681939311325,-0.0271455999463796
1768475604685,0.153839111328125,-0.05975341796875,-0.98291015625,-0.0223604328930377,0.0039558592252433,-0.0206141974776983
1768475604695,0.1611175537109375,-0.0637359619140625,-0.9765777587890624,-0.0321866981685161,0.002740659052506,-0.0140532348304986
1768475604705,0.1629791259765625,-0.0653076171875,-0.9787445068359376,-0.0387724302709102,0.0049201902002096,-0.0059146145358681
1768475604715,0.1623382568359375,-0.0601654052734375,-0.9809722900390624,-0.0320439524948596,-0.0036035231314599,0.0001379517489112
1768475604725,0.1617889404296875,-0.0508270263671875,-0.9917144775390624,-0.0124473487958312,-0.0095040230080485,2.5300030756625347e-05
1768475604735,0.1548919677734375,-0.04736328125,-1.002105712890625,0.0022578279022127,-0.0016916398890316,-0.0007446198142133
1768475604745,0.14892578125,-0.050048828125,-1.0011138916015625,0.0133216641843318,0.0057004964910447,0.0006077333819121
1768475604755,0.14959716796875,-0.051605224609375,-0.9980621337890624,0.0176769979298114,0.0126670589670538,0.000406132050557
1768475604765,0.150543212890625,-0.0535430908203125,-0.993682861328125,0.0193095151335001,0.0113586485385894,0.0024644893128424
1768475604775,0.14984130859375,-0.05609130859375,-0.988616943359375,0.0155752310529351,0.008176171220839,0.0069793462753295
1768475604785,0.1505584716796875,-0.054534912109375,-0.9816436767578124,0.0082310317084193,0.0049156625755131,0.0056267268955707
1768475604795,0.1478271484375,-0.057403564453125,-0.9746856689453124,-0.0023409186396747,0.0029462550301104,0.0071857413277029
1768475604806,0.14862060546875,-0.05706787109375,-0.9699249267578124,-0.0089199915528297,0.0029225528705865,0.0006306365248747
1768475604815,0.148406982421875,-0.0550994873046875,-0.9743804931640624,-0.0139357894659042,1.5446334145963192e-05,-0.0056815878488123
1768475604826,0.1493988037109375,-0.053558349609375,-0.976531982421875,-0.0156665779650211,-0.0006945523782633,-0.0060110208578407
1768475604836,0.1487884521484375,-0.0558929443359375,-0.9787139892578124,-0.0166005473583936,-0.0017078851815313,-0.0047782436013221
1768475604846,0.151947021484375,-0.0543670654296875,-0.978759765625,-0.0206631999462842,-0.0061428472399711,-0.0006777744856663
1768475604856,0.1536407470703125,-0.0514678955078125,-0.983123779296875,-0.0210312493145465,-0.0051596080884337,0.0049494849517941
1768475604866,0.15167236328125,-0.0516204833984375,-0.9837799072265624,-0.022671490907669,0.0012362393317744,0.0029984530992805
1768475604876,0.150177001953125,-0.0527191162109375,-0.9832763671875,-0.0241607297211885,0.0025499768089503,0.0013438310706987
1768475604886,0.1502532958984375,-0.0522613525390625,-0.984649658203125,-0.01519067119807,-0.001873267465271,-0.0023379891645163
1768475604896,0.1484375,-0.05078125,-0.9937896728515624,-0.0078896144405007,-0.0030200246255844,-0.0041500041261315
1768475604906,0.1468658447265625,-0.0476226806640625,-0.9968109130859376,0.0008053398923948,-0.0044794371351599,-0.0105549059808254
1768475604916,0.1435699462890625,-0.045623779296875,-0.9942779541015624,0.0099849896505475,-0.0037273601628839,-0.0163874961435794
1768475604926,0.1438751220703125,-0.0461578369140625,-0.994384765625,0.0171385072171688,-0.00585522595793,-0.0194842182099819
1768475604936,0.149749755859375,-0.0494842529296875,-0.9880523681640624,0.0162351634353399,-0.0071154339239001,-0.0156777631491422
1768475604946,0.153076171875,-0.0552520751953125,-0.981292724609375,0.0043124565854668,-0.0037364149466156,-0.0082787023857235
1768475604956,0.155975341796875,-0.058502197265625,-0.9716949462890624,-0.008984706364572,-0.0002892192860599,-0.00379393924959
1768475604966,0.156005859375,-0.063262939453125,-0.9687652587890624,-0.0183494463562965,0.002258893335238,-0.002739327494055
1768475604976,0.1534881591796875,-0.063720703125,-0.971527099609375,-0.02905242331326,0.0001070590733434,-0.0015867113834246
1768475604986,0.15509033203125,-0.06390380859375,-0.9743499755859376,-0.0314135812222957,-0.0017084177816286,0.0003755057114176
1768475604996,0.1544952392578125,-0.0579681396484375,-0.9810028076171876,-0.024305073544383,-0.002918291836977,-0.0044645234011113
1768475605006,0.151641845703125,-0.053497314453125,-0.9933929443359376,-0.0111796837300062,-0.0031499869655817,-0.0043811663053929
1768475605016,0.151824951171875,-0.0506591796875,-0.99981689453125,-0.0047220508567988,-0.0009025452891364,-0.0016831178218126
1768475605026,0.154205322265625,-0.05010986328125,-0.9945831298828124,-0.0031143005471676,-0.0034304177388548,0.0061260694637894
1768475605036,0.1550140380859375,-0.0507354736328125,-0.987518310546875,-0.0060392501763999,-0.009050752967596,0.0067423246800899
1768475605047,0.1528778076171875,-0.0533294677734375,-0.98297119140625,-0.0087644634768366,-0.0036413401830941,0.0040362868458032
1768475605057,0.1449127197265625,-0.053375244140625,-0.9784393310546876,-0.0123325660824775,0.001129446667619,-0.004955343902111
1768475605067,0.14031982421875,-0.053436279296875,-0.9787139892578124,-0.0172924380749464,-0.0045223138295114,-0.0117615843191742
1768475605077,0.146331787109375,-0.05279541015625,-0.98077392578125,-0.0130188632756471,-0.0161784365773201,-0.0157888159155845
1768475605087,0.1462860107421875,-0.0557708740234375,-0.984222412109375,-0.0238227751106023,0.0007097324123606,-0.0121717117726802
1768475605097,0.1522064208984375,-0.0532073974609375,-0.9808502197265624,-0.0266052447259426,-0.0022280006669461,-0.0126438895240426
1768475605107,0.1496429443359375,-0.0540771484375,-0.98602294921875,-0.0202978141605854,0.0001001348573481,-0.0118662463501095
1768475605117,0.148681640625,-0.0499725341796875,-0.992462158203125,-0.0087117329239845,-0.0037534593138843,-0.0118268318474292
1768475605127,0.1493988037109375,-0.0448150634765625,-0.998291015625,0.0074374098330736,-0.0049556102603673,-0.0118667790666222
1768475605137,0.14923095703125,-0.0459442138671875,-1.00054931640625,0.0139336585998535,-0.0019073559669777,-0.0120241725817322
1768475605147,0.150421142578125,-0.0473785400390625,-0.995086669921875,0.016488429158926,-0.0029925941489636,-0.0082629900425672
1768475605157,0.152374267578125,-0.04888916015625,-0.9898529052734376,0.0294100865721702,-0.0463488548994064,-0.0117298932746052
1768475605167,0.154815673828125,-0.056549072265625,-0.9861907958984376,0.0125125963240861,0.0063987770117819,-0.0020242687314748
1768475605177,0.150360107421875,-0.053009033203125,-0.9792022705078124,0.0055585498921573,-0.0022383867762982,-0.0022825952619314
1768475605187,0.1480560302734375,-0.0556488037109375,-0.973236083984375,-0.0035965989809483,-0.0002775013854261,-0.0050640008412301
1768475605197,0.1443634033203125,-0.057037353515625,-0.972930908203125,-0.0085767097771167,-0.0023238742724061,-0.008380701765418
1768475605207,0.1432342529296875,-0.0543670654296875,-0.9756622314453124,-0.0097639476880431,-0.002624811604619,-0.0113394735381007
1768475605217,0.1472015380859375,-0.0541534423828125,-0.9819183349609376,-0.0099612874910235,-0.0007020092452876,-0.0085343662649393
1768475605227,0.1533050537109375,-0.0547943115234375,-0.9839324951171876,-0.0076587186194956,-0.0019283948931843,-0.0044061997905373
1768475605237,0.155914306640625,-0.0533599853515625,-0.9886932373046876,-0.001292698434554,-0.0044906223192811,0.0006807039608247
1768475605247,0.1539154052734375,-0.0504913330078125,-0.9909820556640624,0.0014700648607686,-0.0010841728653758,0.003107376396656
1768475605257,0.1474151611328125,-0.0506744384765625,-0.9911041259765624,0.0057923751883208,0.0019188075093552,0.001062867580913
1768475605268,0.1467742919921875,-0.0531768798828125,-0.9886322021484376,0.0056645437143743,0.0038868836127221,0.0011406318517401
1768475605278,0.1485595703125,-0.05322265625,-0.9853057861328124,-0.0039159120060503,0.0125970179215073,0.0025483788922429
1768475605288,0.1483001708984375,-0.0555572509765625,-0.979095458984375,-0.0089061427861452,0.0086470181122422,0.0019507654942572
1768475605298,0.1510162353515625,-0.0562286376953125,-0.9830474853515624,-0.0038123151753097,-0.0018775284988805,0.005667739547789
1768475605308,0.1550750732421875,-0.0543365478515625,-0.9872894287109376,0.0027630296535789,-0.0052642705850303,0.0095857819542288
1768475605318,0.153076171875,-0.0564422607421875,-0.986114501953125,0.0030959248542785,0.0018524948973208,0.0081812310963869
1768475605328,0.1516265869140625,-0.0563201904296875,-0.9826202392578124,0.0035555863287299,-0.0016532903537154,0.0126486830413341
1768475605338,0.1516265869140625,-0.0542144775390625,-0.982879638671875,0.0037619813811033,-0.0021459751296788,0.0104073667898774
1768475605348,0.1445465087890625,-0.05291748046875,-0.9826812744140624,-0.0020596887916326,0.0071268854662775,0.0069881347008049
1768475605358,0.13641357421875,-0.05670166015625,-0.977691650390625,-0.0165880322456359,0.00632767053321,0.0034533210564404
1768475605368,0.13934326171875,-0.0576019287109375,-0.970947265625,-0.0251359790563583,0.0042006038129329,-0.0018879148410633
1768475605378,0.1419219970703125,-0.0534820556640625,-0.976837158203125,-0.0314266309142112,0.0059945094399154,-0.0069455238990485
1768475605388,0.1475830078125,-0.0521392822265625,-0.983154296875,-0.0290103461593389,0.0103170862421393,-0.0075042550452053
1768475605398,0.150421142578125,-0.0499114990234375,-0.990478515625,-0.0127424271777272,0.0014125406742095,-0.0074291541241109
1768475605408,0.154296875,-0.0472869873046875,-1.0018157958984375,0.0017603494925424,0.0017912421608343,-0.0056014265865087
1768475605418,0.150421142578125,-0.046539306640625,-1.003082275390625,0.0092278532683849,0.0061284662224352,-0.0032471923623234
1768475605428,0.1468963623046875,-0.0475616455078125,-0.9932403564453124,0.0146295428276062,0.0058235344476997,-0.0040948763489723
1768475605438,0.1438751220703125,-0.049774169921875,-0.9884033203125,0.016163257881999,0.0098670115694403,-0.0093349125236272
1768475605448,0.1423492431640625,-0.050140380859375,-0.9863433837890624,0.014413827098906,0.010211625136435,-0.012018846347928
1768475605458,0.1441650390625,-0.0536041259765625,-0.9832763671875,0.0050562773831188,0.0175108164548873,-0.0116020608693361
1768475605469,0.147064208984375,-0.0581207275390625,-0.974822998046875,-0.0084544708952307,0.0190557166934013,-0.0170136038213968
1768475605478,0.1493377685546875,-0.0615997314453125,-0.96905517578125,-0.0291525591164827,0.0158420801162719,-0.0118380170315504
1768475605488,0.1541290283203125,-0.0627288818359375,-0.9661407470703124,-0.0419799387454986,0.0080161150544881,-0.0111120399087667
1768475605499,0.154083251953125,-0.0613861083984375,-0.968963623046875,-0.0467752292752265,-0.0054834485054016,-0.0098640825599432
1768475605509,0.152252197265625,-0.0561370849609375,-0.9790802001953124,-0.0417889915406703,-0.0076994649134576,-0.0106651615351438
1768475605519,0.1516265869140625,-0.050048828125,-0.9927520751953124,-0.0266137681901454,-0.0064230118878185,-0.015344601124525
1768475605529,0.1450958251953125,-0.04669189453125,-1.0015869140625,-0.013504090718925,-0.0011504855938255,-0.0162969473749399
1768475605539,0.1445465087890625,-0.044921875,-1.006011962890625,-0.0026876621413975,0.0057265954092144,-0.0097996341064572
1768475605549,0.1497650146484375,-0.045684814453125,-1.0037841796875,0.0102150868624448,0.0101503720507025,-0.000646349217277
1768475605559,0.15313720703125,-0.0470123291015625,-1.0009918212890625,0.01900564879179,0.0147717557847499,0.0060088904574513
1768475605569,0.1531219482421875,-0.0483856201171875,-0.9964752197265624,0.0285530816763639,0.0123054021969437,0.0078299595043063
1768475605579,0.1513824462890625,-0.05047607421875,-0.9924163818359376,0.0319566018879413,0.012261725962162,0.0075849490240216
1768475605589,0.14886474609375,-0.0525054931640625,-0.983489990234375,0.0221822671592235,0.0090837758034467,-0.0004551342281047
1768475605599,0.143310546875,-0.056304931640625,-0.9721832275390624,0.0103056346997618,0.0024053670931607,-0.0094800544902682
1768475605609,0.1446533203125,-0.056427001953125,-0.9691619873046876,-0.0038107172586023,0.000197872868739,-0.0121059315279126
1768475605619,0.147186279296875,-0.05712890625,-0.966583251953125,-0.0144585678353905,-0.0001145159258157,-0.0111653031781315
1768475605629,0.1471405029296875,-0.05523681640625,-0.9697418212890624,-0.0209154020994901,-0.0019403791520744,-0.0117615843191742
1768475605639,0.1506805419921875,-0.0518341064453125,-0.9761810302734376,-0.0211878437548875,-0.0027981833554804,-0.010659834370017
1768475605649,0.153533935546875,-0.050018310546875,-0.9807586669921876,-0.0183220151811838,-0.0039047268219292,-0.0093109440058469
1768475605659,0.153717041015625,-0.047210693359375,-0.9874114990234376,-0.0140327280387282,-0.003524693660438,-0.0035811527632176
1768475605669,0.1546478271484375,-0.0496826171875,-0.993560791015625,-0.0098638162016868,0.000580835447181,0.0030903320293873
1768475605679,0.15667724609375,-0.049285888671875,-0.994476318359375,-0.0004564658156596,-0.0014703312190249,0.0029220203869044
1768475605689,0.152252197265625,-0.04559326171875,-1.0001068115234375,0.0159488730132579,0.000366184656741,0.005101284943521
1768475605699,0.147918701171875,-0.0439605712890625,-1.0023651123046875,0.0270819514989852,0.0009938917355611,0.0030565098859369
1768475605709,0.14453125,-0.0479583740234375,-0.99688720703125,0.0249045509845018,0.0009462211164645,0.0032844764646142
1768475605719,0.1471405029296875,-0.0511322021484375,-0.9822845458984376,0.0171398390084505,0.003572630463168,0.0028075044974684
1768475605730,0.147216796875,-0.0510101318359375,-0.9759521484375,0.0073284865356981,0.0058815912343561,0.005395564250648
1768475605740,0.1457366943359375,-0.0517578125,-0.972137451171875,-0.0036200347822159,0.0078446073457598,0.0049726543948054
1768475605750,0.1464080810546875,-0.0548095703125,-0.9684295654296876,-0.0133413719013333,0.0174863152205944,0.0042386869899928
1768475605760,0.145721435546875,-0.0572357177734375,-0.970245361328125,-0.022506907582283,0.0102052334696054,-0.0039670448750257
1768475605770,0.144927978515625,-0.06060791015625,-0.97186279296875,-0.0285717230290174,0.004316717851907,-0.0114113790914416
1768475605780,0.146942138671875,-0.0594482421875,-0.9777679443359376,-0.0281000770628452,-0.001054611755535,-0.0121496068313717
1768475605790,0.1506195068359375,-0.0585479736328125,-0.987945556640625,-0.0220592301338911,0.0032317459117621,-0.010669688694179
1768475605800,0.152008056640625,-0.0553741455078125,-0.99334716796875,-0.0133850472047925,0.0049023469910025,-0.0061798654496669
1768475605810,0.1539459228515625,-0.0537567138671875,-1.0001983642578125,-0.0010532801970839,0.0050541469827294,0.0029185581952333
1768475605820,0.158416748046875,-0.050262451171875,-1.0023651123046875,0.0129890358075499,0.0022493058349937,0.0124105969443917
1768475605830,0.15655517578125,-0.0496673583984375,-1.0014495849609375,0.0211449656635522,0.0038733014371246,0.0151784205809235
1768475605840,0.150726318359375,-0.05035400390625,-0.9973297119140624,0.0240973457694053,0.0030431940685957,0.0083042690530419
1768475605850,0.1452178955078125,-0.050933837890625,-0.9850311279296876,0.0171387735754251,0.0042069954797625,-0.0017800568602979
1768475605860,0.14337158203125,-0.0503692626953125,-0.9761810302734376,0.0100595578551292,0.00505201658234,-0.0092097437009215
1768475605870,0.1416473388671875,-0.0537567138671875,-0.9771270751953124,-0.0004908205592073,0.0098393149673938,-0.014602112583816
1768475605880,0.1468505859375,-0.057586669921875,-0.972747802734375,-0.0127650639042258,0.0124132595956325,-0.0117951408028602
1768475605890,0.152496337890625,-0.0576171875,-0.97283935546875,-0.0183971170336008,0.0101839276030659,-0.0073037194088101
1768475605900,0.156494140625,-0.054962158203125,-0.9782562255859376,-0.0161787029355764,0.0054376423358917,-0.0011875035706907
1768475605910,0.1557159423828125,-0.051788330078125,-0.9843902587890624,-0.010964767076075,-0.0023965786676853,0.0023046995047479
1768475605920,0.155059814453125,-0.0469818115234375,-0.9897613525390624,-0.0017981663113459,-0.0032019184436649,-0.0018506306223571
1768475605930,0.1510467529296875,-0.0491790771484375,-0.99334716796875,0.0052839778363704,0.0011246529174968,-0.0046709179878234
1768475605940,0.14678955078125,-0.0511932373046875,-0.988739013671875,0.0032093753106892,0.0068115671165287,-0.0116915432736277
1768475605951,0.146759033203125,-0.054656982421875,-0.9855804443359376,0.0025377261918038,0.0118097877129912,-0.0084744449704885
1768475605961,0.1507415771484375,-0.05584716796875,-0.9855194091796876,0.0016261261189356,0.0045633264817297,0.0024580976460129
1768475605971,0.1586151123046875,-0.0527191162109375,-0.987579345703125,0.008100270293653,0.0015827165916562,0.00849468447268
1768475605981,0.156341552734375,-0.0516204833984375,-0.98974609375,0.0104941865429282,0.0023955134674906,0.0160210449248552
1768475605991,0.151947021484375,-0.052337646484375,-0.985015869140625,0.0083048017695546,0.003132410114631,0.0147853372618556
1768475606001,0.1487579345703125,-0.0525360107421875,-0.9824981689453124,0.0051406999118626,0.0033526534680277,0.0106939235702157
1768475606011,0.1447906494140625,-0.0554962158203125,-0.9786224365234376,-0.0008570052450522,0.0053662694990634,0.0038432078436017
1768475606021,0.1443939208984375,-0.054840087890625,-0.9738006591796876,-0.0075178374536335,0.0028762139845639,-0.0051582767628133
1768475606031,0.143890380859375,-0.0545654296875,-0.9773101806640624,-0.0120923491194844,0.0004729774082079,-0.0086214514449238
1768475606041,0.150421142578125,-0.0545501708984375,-0.98046875,-0.0111192297190427,0.0014194648247212,-0.005625395104289
1768475606051,0.1532745361328125,-0.055419921875,-0.985992431640625,-0.0078834891319274,0.0014378406340256,-0.000728108221665
1768475606061,0.152984619140625,-0.057342529296875,-0.9877777099609376,-0.0061425808817148,0.0020719394087791,0.0042402851395308
1768475606072,0.1549835205078125,-0.0549774169921875,-0.9886474609375,-0.0011313108261674,0.0031949942931532,0.0103005748242139
1768475606081,0.1519012451171875,-0.0521697998046875,-0.9905548095703124,0.0027840686962008,0.0069151641800999,0.0083772391080856
1768475606091,0.146759033203125,-0.0522308349609375,-0.9923553466796876,0.0101972436532378,0.003376621985808,0.0095359804108738
