timestamp_ms,acc_x,acc_y,acc_z,gyro_x,gyro_y,gyro_z
1768731342581,-0.1309356689453125,-0.970977783203125,0.1799468994140625,0.0223284754902124,-0.0073263561353087,-0.0105969840660691
1768731342589,-0.127532958984375,-0.9695281982421876,0.1786651611328125,0.0147701576352119,-0.0041486723348498,-0.0085356971248984
1768731342599,-0.12664794921875,-0.971405029296875,0.17962646484375,0.003614974906668,0.0031185615807771,-0.0103194825351238
1768731342609,-0.1291046142578125,-0.9747467041015624,0.182342529296875,-0.0078930770978331,-0.0024386565200984,-0.0157078560441732
1768731342619,-0.137420654296875,-0.972503662109375,0.1845550537109375,-0.0220001079142093,-0.0007451524725183,-0.0209036841988563
1768731342629,-0.1341705322265625,-0.9719696044921876,0.1812286376953125,-0.0220001079142093,-0.0007451524725183,-0.0209036841988563
1768731342639,-0.1254119873046875,-0.97369384765625,0.1781463623046875,-0.0333307906985282,-0.000143278070027,-0.0216283295303583
1768731342649,-0.1203765869140625,-0.9740447998046876,0.172882080078125,-0.0454055629670619,0.0061721419915556,-0.0158511344343423
1768731342659,-0.1187591552734375,-0.975006103515625,0.1663055419921875,-0.0364850386977195,0.003474626224488,-0.0138441761955618
1768731342670,-0.1222686767578125,-0.96929931640625,0.1610107421875,-0.0246337074786424,0.0088345045223832,-0.0209798496216535
1768731342679,-0.129150390625,-0.96527099609375,0.156097412109375,-0.0187739543616771,0.0145959872752428,-0.021973742172122
1768731342690,-0.119293212890625,-0.97430419921875,0.1623992919921875,-0.0217569600790739,0.0195760987699031,-0.0156034603714942
1768731342700,-0.1136016845703125,-0.9836578369140624,0.168701171875,-0.0408696681261062,0.0091796498745679,-0.0157523322850465
1768731342710,-0.11474609375,-0.9881134033203124,0.18023681640625,-0.0581109747290611,0.0160956121981143,-0.02424968034029
1768731342720,-0.1202545166015625,-0.978668212890625,0.17156982421875,-0.0704579204320907,0.0170458294451236,-0.0242193192243576
1768731342730,-0.1119537353515625,-0.982086181640625,0.17095947265625,-0.0779714956879615,0.0150202279910445,-0.0207052789628505
1768731342740,-0.1047210693359375,-0.985015869140625,0.1707763671875,-0.0811931267380714,0.0139959771186113,-0.0187116358429193
1768731342750,-0.1107330322265625,-0.97967529296875,0.1660919189453125,-0.0821803584694862,0.0169307794421911,-0.0222978480160236
1768731342760,-0.1197052001953125,-0.96893310546875,0.160125732421875,-0.0849140882492065,0.006330067757517,-0.0354908816516399
1768731342770,-0.128326416015625,-0.966461181640625,0.1567230224609375,-0.088198035955429,0.0002886866568587,-0.0461765490472316
1768731342780,-0.1270904541015625,-0.973052978515625,0.158721923828125,-0.0968530401587486,0.0057588196359574,-0.0512738414108753
1768731342790,-0.1197662353515625,-0.978912353515625,0.1537933349609375,-0.1034457013010978,-0.0002998719282913,-0.050880491733551
1768731342800,-0.1160430908203125,-0.9848175048828124,0.1472625732421875,-0.0997455045580864,-0.0131770549342036,-0.0522584095597267
1768731342810,-0.108612060546875,-0.987548828125,0.1370391845703125,-0.0857524573802948,0.0046964846551418,-0.039270706474781
1768731342820,-0.101104736328125,-0.9834442138671876,0.1223602294921875,-0.0645366460084915,0.0082406196743249,-0.0280217807739973
1768731342830,-0.1005859375,-0.986114501953125,0.118499755859375,-0.0413652844727039,0.009908290579915,-0.0189374722540378
1768731342840,-0.1048736572265625,-0.983245849609375,0.1136322021484375,-0.0193127114325761,0.0113013898953795,-0.0123999444767832
1768731342850,-0.1120758056640625,-0.98199462890625,0.1151275634765625,0.0012897689593955,0.0161243751645088,-0.0113168368116021
1768731342860,-0.117340087890625,-0.9813079833984376,0.1212921142578125,0.0155507298186421,0.0113139068707823,-0.0098297279328107
1768731342871,-0.1219635009765625,-0.9830780029296876,0.1305084228515625,0.0263956543058156,0.0119432117789983,-0.0118183102458715
1768731342880,-0.12567138671875,-0.98291015625,0.1370849609375,0.0353665128350257,0.0150287505239248,-0.010694189928472
1768731342891,-0.1170196533203125,-0.9827117919921876,0.1434783935546875,0.04182680696249,0.0119176460430026,-0.0076552564278244
1768731342901,-0.10638427734375,-0.9832763671875,0.147430419921875,0.0479073375463485,0.0181366596370935,0.0020298613235354
1768731342911,-0.1007843017578125,-0.98004150390625,0.1506195068359375,0.0470916107296943,0.0106332032009959,0.008525843732059
1768731342921,-0.106658935546875,-0.981781005859375,0.162811279296875,0.0383362025022506,0.0121615910902619,0.0088129322975873
1768731342931,-0.11102294921875,-0.981353759765625,0.1727294921875,0.0247412994503974,0.019062640145421,0.0054506915621459
1768731342941,-0.1104888916015625,-0.9814300537109376,0.1786041259765625,0.0052637378685176,0.0166434254497289,0.006949252448976
1768731342951,-0.108642578125,-0.98297119140625,0.1844940185546875,-0.0131568145006895,0.0162000078707933,0.0091759217903018
1768731342961,-0.1082611083984375,-0.983856201171875,0.182159423828125,-0.0299144890159368,0.0243753809481859,0.0083519397303462
1768731342971,-0.112823486328125,-0.9795989990234376,0.1787872314453125,-0.0451922453939914,0.0311454031616449,0.0022596921771764
1768731342981,-0.1220550537109375,-0.97442626953125,0.17156982421875,-0.0580462589859962,0.0193625129759311,-0.0006420881254598
1768731342991,-0.11773681640625,-0.9791259765625,0.1694488525390625,-0.0643038898706436,0.0147443246096372,-0.0037649108562618
1768731343001,-0.11444091796875,-0.9782867431640624,0.1593475341796875,-0.0594843663275241,0.0145065048709511,-0.0063252737745642
1768731343011,-0.120758056640625,-0.9742889404296876,0.14813232421875,-0.0469738990068435,0.004750014282763,-0.0130859743803739
1768731343021,-0.1192474365234375,-0.97247314453125,0.14141845703125,-0.0337214767932891,-0.0009685916593298,-0.0085239792242646
1768731343031,-0.1120452880859375,-0.9761962890625,0.139862060546875,-0.0268143042922019,0.0042336271144449,-0.0031875374261289
1768731343041,-0.11151123046875,-0.975189208984375,0.1395721435546875,-0.0147467218339443,0.0005928196478635,-0.0030210898257791
1768731343051,-0.1194610595703125,-0.9738922119140624,0.13702392578125,-0.0008647284121252,-0.0138771999627351,-0.0100808637216687
1768731343061,-0.1220855712890625,-0.9778289794921876,0.139739990234375,0.0065700183622539,-0.004440554883331,-0.0122982114553451
1768731343071,-0.1126251220703125,-0.9787750244140624,0.140472412109375,0.0136226015165448,0.00252600829117,-0.0063337958417832
1768731343081,-0.110198974609375,-0.9809722900390624,0.142333984375,0.0191957987844944,0.001644235686399,-0.0009326389990746
1768731343091,-0.1072845458984375,-0.9817962646484376,0.1439056396484375,0.021956430748105,0.0029555761720985,0.0016772588714957
1768731343102,-0.1100311279296875,-0.9825286865234376,0.1491851806640625,0.0200895555317401,0.0010548781137913,0.0042173820547759
1768731343111,-0.1152801513671875,-0.983642578125,0.1522674560546875,0.0169547479599714,0.0046775760129094,0.0025899240281432
1768731343122,-0.113861083984375,-0.9839019775390624,0.153076171875,0.013922207057476,-0.0010649980977177,0.0022543659433722
1768731343132,-0.1142578125,-0.9850616455078124,0.156585693359375,0.0076493974775075,7.456851017195731e-05,-0.000607200723607
1768731343142,-0.1184234619140625,-0.9863128662109376,0.1568756103515625,0.0036724992096424,-0.0021470405627042,-0.0047540087252855
1768731343152,-0.119293212890625,-0.982513427734375,0.15777587890625,0.0037550569977611,-9.507485083304346e-05,-0.0019166769925504
1768731343162,-0.116912841796875,-0.9788818359375,0.154449462890625,0.0078019965440034,-0.0024695491883903,0.0013630058383569
1768731343172,-0.11370849609375,-0.9766387939453124,0.1534423828125,0.0120239062234759,-0.0087050748988986,0.0018258632626384
1768731343183,-0.113189697265625,-0.975830078125,0.1544647216796875,0.0188104398548603,-0.0124864969402551,0.005028314422816
1768731343192,-0.1151275634765625,-0.9756622314453124,0.152435302734375,0.0214272607117891,-0.010645187459886,0.0028208203148096
1768731343202,-0.111968994140625,-0.9774627685546876,0.157318115234375,0.0185313392430543,-0.0088552767410874,0.0006407565670087
1768731343212,-0.1075897216796875,-0.9768524169921876,0.16546630859375,0.0097429081797599,-0.0064365938305854,0.0031057784799486
1768731343222,-0.1031341552734375,-0.9807586669921876,0.1737518310546875,-0.0023385216481983,0.0018402442801743,0.0043318979442119
1768731343232,-0.105072021484375,-0.979248046875,0.177734375,-0.0197987388819456,0.0049574743025004,0.0015947008505463
1768731343242,-0.1099700927734375,-0.97918701171875,0.1800994873046875,-0.0356312319636344,0.0094329165294766,-0.000844222086016
1768731343252,-0.10980224609375,-0.9790802001953124,0.1769256591796875,-0.0499063059687614,0.0104955174028873,-0.0008785768295638
1768731343262,-0.115325927734375,-0.9789581298828124,0.1731719970703125,-0.0651172176003456,0.0188075099140405,-0.0058240671642124
1768731343272,-0.1119842529296875,-0.97906494140625,0.164581298828125,-0.071861408650875,0.021094100549817,-0.00562459602952
1768731343283,-0.1078338623046875,-0.9803924560546876,0.1528778076171875,-0.072559155523777,0.0186418611556291,-0.0067481836304068
1768731343292,-0.1117095947265625,-0.9792633056640624,0.1424407958984375,-0.0672088637948036,0.0037579864729195,-0.0049209888093173
1768731343303,-0.114837646484375,-0.98126220703125,0.137908935546875,-0.0590121857821941,-0.0115778259932994,-0.0066238143481314
1768731343313,-0.1185455322265625,-0.9841766357421876,0.13623046875,-0.0474303662776947,-0.0034677020739763,-0.0069383336231112
1768731343323,-0.118072509765625,-0.9788055419921876,0.1262969970703125,-0.0330578200519084,-0.0032610406633466,-0.0070736221969127
1768731343333,-0.12225341796875,-0.9801788330078124,0.1257781982421875,-0.0250755250453948,0.0012777847005054,-0.0114585170522332
1768731343343,-0.1202392578125,-0.9809112548828124,0.1304473876953125,-0.0150559144094586,0.0061915833503007,-0.0106326704844832
1768731343353,-0.1115264892578125,-0.98291015625,0.1302642822265625,-0.0066930563189089,0.0002804308605846,-0.0078941415995359
1768731343363,-0.1104278564453125,-0.9840240478515624,0.1292572021484375,0.0082965455949306,-0.0044536041095852,-0.0049462891183793
1768731343373,-0.108489990234375,-0.977630615234375,0.128021240234375,0.0299123581498861,0.0101168164983391,-0.002306031063199
1768731343383,-0.1175689697265625,-0.9640655517578124,0.1205291748046875,0.0475518070161342,0.0088206557556986,-0.0086384955793619
1768731343393,-0.1242828369140625,-0.96942138671875,0.12957763671875,0.0601797178387641,0.0035436020698398,-0.0074392743408679
1768731343403,-0.1214141845703125,-0.9770660400390624,0.1407318115234375,0.0618433952331543,0.0051518850959837,-0.0026863305829465
1768731343413,-0.1185150146484375,-0.98760986328125,0.153564453125,0.0497340001165866,0.0015113438712432,-0.0042972764931619
1768731343423,-0.1193695068359375,-0.9813995361328124,0.1602935791015625,0.0490567572414875,0.0069556441158056,-0.0118396151810884
1768731343433,-0.1219635009765625,-0.976104736328125,0.1537017822265625,0.0519159287214279,0.0111376056447625,-0.0035334820859134
1768731343443,-0.1118316650390625,-0.9759063720703124,0.1559295654296875,0.0489755310118198,0.0203630626201629,0.0048906290903687
1768731343453,-0.1137542724609375,-0.9771881103515624,0.1645050048828125,0.0384800136089324,0.0202022064477205,-0.0015917713753879
1768731343463,-0.1270751953125,-0.9698028564453124,0.1725006103515625,0.0240075979381799,0.0168554130941629,-0.0160812325775623
1768731343473,-0.13861083984375,-0.964080810546875,0.175445556640625,0.004667988512665,0.0152266230434179,-0.0276510678231716
1768731343483,-0.1313323974609375,-0.9724273681640624,0.1802520751953125,-0.0204312391579151,0.0112683670595288,-0.0285237859934568
1768731343493,-0.1171417236328125,-0.9796142578125,0.179931640625,-0.0388302206993103,0.0075476649217307,-0.0269730277359485
1768731343503,-0.1088409423828125,-0.982696533203125,0.1702117919921875,-0.0465701632201671,0.0044030044227838,-0.0198693126440048
1768731343513,-0.1004486083984375,-0.9835357666015624,0.1580352783203125,-0.0472463406622409,0.0123743778094649,-0.0058347196318209
1768731343524,-0.098480224609375,-0.982330322265625,0.150634765625,-0.0414236076176166,0.0182178858667612,0.002036785474047
1768731343535,-0.10479736328125,-0.9821319580078124,0.1465606689453125,-0.033985398709774,0.0185925923287868,0.0007241134881041
1768731343544,-0.1097869873046875,-0.980712890625,0.141754150390625,-0.0224515125155448,0.0199071280658245,0.0038906119298189
1768731343554,-0.1062164306640625,-0.979736328125,0.1394195556640625,-0.012972523458302,0.0177800618112087,0.0027529096696525
1768731343564,-0.1117095947265625,-0.9788665771484376,0.140533447265625,-0.0011006845161318,0.0146543104201555,-0.002355566015467
1768731343574,-0.1121826171875,-0.97894287109375,0.14044189453125,0.0106148272752761,0.0191942006349563,-0.0036634444259107
1768731343584,-0.107513427734375,-0.9783477783203124,0.141448974609375,0.0177166797220706,0.0215100850909948,-0.0017917747609317
1768731343594,-0.108306884765625,-0.977996826171875,0.1442718505859375,0.026069151237607,0.006875482853502,0.0001067927587428
1768731343604,-0.1140289306640625,-0.980194091796875,0.14886474609375,0.0291887782514095,0.0071085095405578,-0.0084166545420885
1768731343614,-0.1123809814453125,-0.98382568359375,0.1518096923828125,0.0302937235683202,0.0113360118120908,-0.0107394633814692
1768731343624,-0.10467529296875,-0.9830474853515624,0.15338134765625,0.0277996733784675,0.0102297347038984,-0.0109096392989158
1768731343634,-0.104400634765625,-0.98272705078125,0.15484619140625,0.0242352988570928,0.0077410102821886,-0.0078896144405007
1768731343644,-0.1092681884765625,-0.98504638671875,0.158935546875,0.0207889024168252,0.0058738682419061,-0.0096209356561303
1768731343654,-0.1074981689453125,-0.9861297607421876,0.1592559814453125,0.0127767818048596,0.0055002267472445,-0.0089572761207818
1768731343664,-0.1082000732421875,-0.9871063232421876,0.1596527099609375,0.008395348675549,0.0061945128254592,-0.008143413811922
1768731343674,-0.10589599609375,-0.984405517578125,0.1615142822265625,0.0065039717592298,0.0106792757287621,-0.0018034926615655
1768731343684,-0.110107421875,-0.9752197265625,0.15777587890625,0.0069548450410366,0.0128255169838666,-0.0001270327775273
1768731343694,-0.1164703369140625,-0.9742584228515624,0.1549530029296875,0.0112262889742851,0.0062496401369571,-0.0002394181792624
1768731343704,-0.1143798828125,-0.976898193359375,0.1557769775390625,0.0109711587429046,0.0078770974650979,-0.0014676681021228
1768731343714,-0.1132049560546875,-0.978515625,0.1574859619140625,0.0102675510570406,0.0115597173571586,-0.0051167313940823
1768731343724,-0.1174774169921875,-0.9771575927734376,0.158172607421875,0.0088241174817085,0.0134500283747911,-0.0079332906752824
1768731343735,-0.11712646484375,-0.9748382568359376,0.1581573486328125,0.0072403359226882,0.0147848045453429,-0.0106174908578395
1768731343744,-0.1158905029296875,-0.973602294921875,0.1562347412109375,0.0066890618763864,0.01524846162647,-0.0117730358615517
1768731343755,-0.1155548095703125,-0.9742584228515624,0.156158447265625,0.0075948028825223,0.0148279480636119,-0.0044682514853775
1768731343765,-0.115753173828125,-0.9751129150390624,0.1558837890625,0.004710332956165,0.0168839078396558,-0.0056315204128623
1768731343775,-0.113494873046875,-0.978118896484375,0.1551055908203125,-0.0001118527652579,0.014619156718254,-0.0059159458614885
1768731343785,-0.112030029296875,-0.97991943359375,0.1552734375,0.0012855078093707,0.0074507258832454,-0.0054877097718417
1768731343795,-0.1132049560546875,-0.97662353515625,0.150299072265625,0.0057465690188109,0.0090638026595115,-0.0072472603060305
1768731343805,-0.1140594482421875,-0.9775390625,0.146148681640625,0.0132598793134093,0.0047372309491038,-0.0085902921855449
1768731343815,-0.1180267333984375,-0.9796905517578124,0.14630126953125,0.0191324148327112,0.0052136704325675,-0.0064192833378911
1768731343825,-0.1192779541015625,-0.980224609375,0.1484527587890625,0.0191854126751422,0.0060166134499013,-0.0042213764972984
1768731343835,-0.11578369140625,-0.98272705078125,0.151092529296875,0.0195606518536806,0.0021632856223732,-0.0019654128700494
1768731343845,-0.1111907958984375,-0.98394775390625,0.1547698974609375,0.0183071009814739,-0.0031459920573979,-0.0013403689954429
1768731343855,-0.1081695556640625,-0.982879638671875,0.1551666259765625,0.0181880593299865,0.0007712514488957,0.0015257250051945
1768731343865,-0.1051483154296875,-0.9815673828125,0.15765380859375,0.0179148185998201,0.0018714033067226,0.0036922064609825
1768731343875,-0.105255126953125,-0.9827423095703124,0.1623687744140625,0.0154303554445505,0.0001496696495451,0.0027028422337025
1768731343885,-0.1073455810546875,-0.9807281494140624,0.1632080078125,0.0134431039914488,0.0024389228783547,0.0045915558002889
1768731343895,-0.1044158935546875,-0.9798583984375,0.1648712158203125,0.0059268651530146,0.0074643078260123,0.0081862909719347
1768731343905,-0.1120452880859375,-0.978057861328125,0.1660308837890625,0.0018029600614681,0.0074872109107673,0.0067383302375674
1768731343915,-0.1158447265625,-0.9802703857421876,0.1654052734375,-0.0030288130510598,0.0018604843644425,0.0013515542959794
1768731343925,-0.109954833984375,-0.980712890625,0.16180419921875,-0.0058110174722969,-0.0010335728293284,0.0036160401068627
1768731343936,-0.1041107177734375,-0.9793701171875,0.1561737060546875,-0.0031214910559356,-0.0056706690229475,0.0041891522705554
1768731343945,-0.110595703125,-0.9786529541015624,0.1553192138671875,-0.0028900622855871,-0.0032365396618843,-0.0023411849979311
1768731343956,-0.1121368408203125,-0.97637939453125,0.1557769775390625,0.0004306331393308,0.0015949672088027,0.0009193231817334
1768731343965,-0.1099395751953125,-0.9769744873046876,0.15570068359375,0.0038005972746759,0.0003086603537667,-0.0012700614752247
1768731343976,-0.1108245849609375,-0.9758453369140624,0.15472412109375,0.0084118600934743,0.0032788838725537,-0.0051177968271076
1768731343986,-0.1116943359375,-0.974365234375,0.1563262939453125,0.0126196546480059,0.0039204396307468,-0.0068062408827245
1768731343996,-0.1136932373046875,-0.97601318359375,0.155517578125,0.0148830758407711,0.0029055087361484,-0.0111690312623977
1768731344006,-0.117767333984375,-0.9769134521484376,0.156951904296875,0.0182072333991527,0.0047244476154446,-0.0174231994897127
1768731344016,-0.1192626953125,-0.9788665771484376,0.160247802734375,0.0103596961125731,0.0080376863479614,-0.0211742613464593
1768731344026,-0.1188812255859375,-0.981964111328125,0.164276123046875,0.0046570696868002,0.0020844561513513,-0.0240214467048645
1768731344036,-0.1188507080078125,-0.9803924560546876,0.1661529541015625,-0.0006841660942882,0.0055534895509481,-0.0226158294826746
1768731344046,-0.113739013671875,-0.9781646728515624,0.16064453125,-0.0002854908525478,0.0092446310445666,-0.0132119422778487
1768731344056,-0.1060943603515625,-0.9803466796875,0.157135009765625,-0.0013547500129789,0.0110917994752526,-0.0051849083974957
1768731344066,-0.103790283203125,-0.9834136962890624,0.1588287353515625,-0.0065774749964475,0.0097128143534064,0.0007568703731521
1768731344076,-0.1011962890625,-0.9857635498046876,0.1613616943359375,-0.0084414212033152,0.0050557451322674,0.0082299662753939
1768731344086,-0.10235595703125,-0.978668212890625,0.15875244140625,-0.0083444826304912,0.0129477567970752,0.0061319284141063
1768731344096,-0.114654541015625,-0.96929931640625,0.1543731689453125,-0.0055324509739875,0.0180346611887216,0.001154746627435
1768731344106,-0.1122283935546875,-0.973541259765625,0.156890869140625,0.0031262848060578,0.0142593635246157,0.0040237698704004
1768731344117,-0.1037445068359375,-0.979705810546875,0.1580810546875,-0.0068869343958795,0.0015664712991565,0.0113581158220767
1768731344126,-0.1009521484375,-0.98883056640625,0.16845703125,-0.0165254473686218,-0.0038362834602594,0.0043923514895141
1768731344136,-0.11248779296875,-0.98004150390625,0.1631622314453125,-0.0168897677212953,0.0016743293963372,-0.0019928433466702
1768731344146,-0.1180419921875,-0.977752685546875,0.154449462890625,-0.0154484650120139,0.0012463594321161,-0.0010700580896809
1768731344156,-0.1111297607421875,-0.9797821044921876,0.1599273681640625,-0.0192181691527366,0.0020788635592907,-0.0017084177816286
1768731344167,-0.1136474609375,-0.9766387939453124,0.1590576171875,-0.0120960772037506,0.0011124024167656,-0.013693974353373
1768731344177,-0.1220855712890625,-0.9665679931640624,0.15142822265625,0.0007976167253218,0.004744155332446,-0.0249455627053976
1768731344187,-0.1225738525390625,-0.962860107421875,0.1425628662109375,0.0098795285448431,-0.0090057458728551,-0.0271794237196445
1768731344197,-0.1178131103515625,-0.9698638916015624,0.1463165283203125,0.0167917627841234,-0.016227439045906,-0.0265951249748468
1768731344207,-0.104278564453125,-0.9796142578125,0.14825439453125,0.0191502589732408,-0.0185606349259614,-0.0212445687502622
1768731344217,-0.1012725830078125,-0.983642578125,0.1480865478515625,0.0253130793571472,-0.0107908621430397,-0.015328356064856
1768731344227,-0.0984649658203125,-0.9841461181640624,0.1463623046875,0.036961480975151,-0.0081410175189375,-0.0089311767369508
1768731344237,-0.1019439697265625,-0.9830780029296876,0.145416259765625,0.0487781912088394,0.002118544653058,-0.0063681509345769
1768731344247,-0.10589599609375,-0.9811248779296876,0.14697265625,0.0583410710096359,0.0017667410429567,-0.0066914586350321
1768731344257,-0.1107635498046875,-0.9818572998046876,0.15350341796875,0.0647821947932243,0.0023499734234064,-0.0077292923815548
1768731344267,-0.1130218505859375,-0.982513427734375,0.1571197509765625,0.07077457010746,-0.0014751249691471,-0.0077460701577365
1768731344277,-0.112945556640625,-0.980804443359375,0.1602020263671875,0.0719708651304245,-0.0027955202385783,-0.0061830612830817
1768731344287,-0.1135101318359375,-0.9802398681640624,0.164520263671875,0.0673247128725051,-0.0030202909838408,-0.0045388252474367
1768731344297,-0.112518310546875,-0.9816436767578124,0.1689605712890625,0.0610572285950183,0.0005960154230706,-0.0024666197132319
1768731344307,-0.11041259765625,-0.979522705078125,0.1713714599609375,0.0522464253008365,-0.0016096145845949,0.0007845672662369
1768731344317,-0.1113739013671875,-0.98065185546875,0.174041748046875,0.0418105646967887,-0.0002439455565763,0.002248773118481
1768731344327,-0.1080322265625,-0.9809722900390624,0.17724609375,0.028933648020029,-0.001857554889284,0.0050642671994864
1768731344337,-0.108154296875,-0.9823760986328124,0.1808929443359375,0.0135930404067039,0.0007621967233717,0.0077095851302146
1768731344347,-0.108734130859375,-0.9819183349609376,0.180023193359375,-0.0027092336677014,0.0084299696609377,0.0110518522560596
1768731344357,-0.1112823486328125,-0.9810638427734376,0.1798858642578125,-0.0167560763657093,0.0048725195229053,0.0116657111793756
1768731344367,-0.1121673583984375,-0.981842041015625,0.18035888671875,-0.0320271737873554,0.0076789585873484,0.0143041042611002
1768731344378,-0.111358642578125,-0.98114013671875,0.1750030517578125,-0.0411354526877403,0.0040464070625603,0.0121485413983464
1768731344387,-0.1133575439453125,-0.9764556884765624,0.1705474853515625,-0.0439991503953933,0.0040653152391314,0.0056051551364362
1768731344398,-0.117156982421875,-0.970794677734375,0.1591796875,-0.0398129262030124,0.0007084008539095,0.0023771375417709
1768731344408,-0.1138153076171875,-0.974639892578125,0.1551361083984375,-0.0311885457485914,-0.001594168250449,0.0019699402619153
1768731344418,-0.1084442138671875,-0.9751434326171876,0.1519927978515625,-0.0164021421223878,-0.004097273107618,-0.0025875272694975
1768731344428,-0.106781005859375,-0.974029541015625,0.1470794677734375,-0.0003099919413216,-0.0001115864506573,0.0043558664619922
1768731344438,-0.103973388671875,-0.9728546142578124,0.1481475830078125,0.0061191450804471,-0.0036408074665814,0.0080930804833769
1768731344448,-0.10797119140625,-0.97491455078125,0.1547393798828125,0.0122457472607493,0.0073857447132468,0.0084936199709773
1768731344458,-0.112701416015625,-0.9754638671875,0.158905029296875,0.0167550109326839,0.0073908045887947,0.0046235141344368
1768731344468,-0.11328125,-0.97802734375,0.162322998046875,0.0169267859309911,0.006991596892476,0.0057367151603102
1768731344478,-0.107330322265625,-0.97808837890625,0.16162109375,0.0227460581809282,0.004146275576204,0.006034190300852
1768731344488,-0.1027984619140625,-0.9791259765625,0.1606903076171875,0.027017768472433,0.0030557110439985,0.0097804591059684
1768731344498,-0.10211181640625,-0.98223876953125,0.1603546142578125,0.0347001887857914,3.062635369133204e-05,0.0148551128804683
1768731344508,-0.106842041015625,-0.9810638427734376,0.16156005859375,0.0410414412617683,0.0010860371403396,0.0092361085116863
1768731344518,-0.117034912109375,-0.9813385009765624,0.1641998291015625,0.0435043349862098,-0.0071716266684234,0.0016282566357403
1768731344528,-0.1224365234375,-0.98284912109375,0.1718292236328125,0.0428012609481811,-0.0058245994150638,-0.0055329832248389
1768731344538,-0.121856689453125,-0.9785614013671876,0.1736297607421875,0.0430649109184742,-0.0107008479535579,-0.0120870228856801
1768731344548,-0.1199798583984375,-0.973876953125,0.1745147705078125,0.0421234853565692,-0.0105503788217902,-0.0098204063251614
1768731344558,-0.1132049560546875,-0.9737091064453124,0.1781463623046875,0.0346314795315265,-0.004538026638329,-0.0107045760378241
1768731344569,-0.1141815185546875,-0.9782562255859376,0.1836700439453125,0.0247634034603834,0.0048275119625031,-0.0131751904264092
1768731344579,-0.112396240234375,-0.9759521484375,0.1871337890625,0.0112052503973245,0.0129940956830978,-0.010212424211204
1768731344589,-0.10687255859375,-0.976104736328125,0.191131591796875,0.0011560781858861,0.004577973857522,-0.0091532841324806
1768731344598,-0.1037445068359375,-0.97698974609375,0.1920623779296875,-0.0170471612364053,0.0089452918618917,-0.0049337721429765
1768731344609,-0.098480224609375,-0.9759521484375,0.19110107421875,-0.0351875498890876,0.00548637798056,0.0005805690889246
1768731344619,-0.1004638671875,-0.9759368896484376,0.1926422119140625,-0.0519782453775405,0.007775364909321,0.001154746627435
1768731344628,-0.1015625,-0.977752685546875,0.1870574951171875,-0.068064272403717,0.0073042516596615,0.002625344088301
1768731344639,-0.100830078125,-0.977874755859375,0.185150146484375,-0.0839156731963157,0.000258326617768,-0.0003560646437108
1768731344649,-0.1045684814453125,-0.9787445068359376,0.1796722412109375,-0.0915717259049415,-0.0058751995675265,-0.0015246596885845
1768731344659,-0.111480712890625,-0.9788665771484376,0.17083740234375,-0.092700108885765,-0.0050051449798047,-0.0046426886692643
1768731344669,-0.1132049560546875,-0.9772186279296876,0.160064697265625,-0.0846381857991218,-0.0037611823063343,-0.00646588858217
1768731344679,-0.1085205078125,-0.976409912109375,0.149566650390625,-0.0721572861075401,-0.0058067562058568,-0.0097040263935923
1768731344689,-0.105804443359375,-0.9762115478515624,0.142425537109375,-0.0533582977950573,-0.0034221620298922,-0.0066781425848603
1768731344699,-0.1056671142578125,-0.9764251708984376,0.1380462646484375,-0.0386089123785495,0.0012817793758586,-0.0037880802992731
1768731344709,-0.105682373046875,-0.9783935546875,0.1372222900390625,-0.0236262325197458,3.968110104324296e-05,-0.0035888757556676
1768731344719,-0.106201171875,-0.979827880859375,0.1417694091796875,-0.0146657619625329,-0.00272414740175,-0.0042485408484935
1768731344729,-0.1123046875,-0.97943115234375,0.14459228515625,-0.0076067871414124,0.0025068335235118,-0.0042863576672971
1768731344739,-0.115966796875,-0.9775848388671876,0.1474456787109375,-0.0024266722612082,0.006866960786283,-0.0027060380671173
1768731344749,-0.110809326171875,-0.9791717529296876,0.1483612060546875,-0.0003645867400337,0.0079311598092317,-0.0006125270738266
1768731344759,-0.108062744140625,-0.981964111328125,0.148651123046875,0.0041563953272998,0.0106363985687494,0.0033310819417238
1768731344769,-0.104278564453125,-0.9849090576171876,0.147491455078125,0.0091692637652158,0.0097511643543839,0.0126337697729468
1768731344779,-0.102874755859375,-0.9847564697265624,0.14862060546875,0.0195140466094017,0.008012119680643,0.0148071758449077
1768731344789,-0.1072540283203125,-0.979248046875,0.1477813720703125,0.0262550394982099,0.0101695470511913,0.0078323567286133
1768731344799,-0.11993408203125,-0.979217529296875,0.151824951171875,0.0374219417572021,-0.0012532835826277,0.004529770463705
1768731344810,-0.12042236328125,-0.9752960205078124,0.1560821533203125,0.0396145209670066,-0.0005739112384617,0.0092936335131526
1768731344820,-0.11505126953125,-0.98626708984375,0.167510986328125,0.0234211701899766,-0.009318932890892,0.0116060562431812
1768731344830,-0.11151123046875,-0.9853668212890624,0.177093505859375,0.0190847441554069,-0.0017688715597614,0.0066352658905088
1768731344840,-0.1180267333984375,-0.975799560546875,0.1656951904296875,0.0246587414294481,0.0038586540613323,0.0073031866922974
1768731344850,-0.1148529052734375,-0.973052978515625,0.163360595703125,0.0320870950818061,-0.0036163064651191,0.00926274061203
1768731344860,-0.106109619140625,-0.9741668701171876,0.167724609375,0.0409421063959598,-0.004243747331202,0.0108782136812806
1768731344870,-0.10693359375,-0.9691314697265624,0.1690521240234375,0.0450681410729885,-0.0079908147454261,0.0093346461653709
1768731344880,-0.122344970703125,-0.9590911865234376,0.173797607421875,0.0409061536192894,-0.0118284299969673,-0.0025576998014003
1768731344890,-0.1300048828125,-0.9582672119140624,0.1826629638671875,0.0206267144531011,-0.0113107115030288,-0.0097892470657825
1768731344900,-0.1244659423828125,-0.965667724609375,0.195526123046875,-0.0060517671518027,-0.0137895820662379,-0.0120867565274238
1768731344910,-0.1165771484375,-0.9745941162109376,0.1963958740234375,-0.0268185641616582,-0.0096028260886669,-0.0088848378509283
1768731344920,-0.1110992431640625,-0.97698974609375,0.1866455078125,-0.0402478203177452,-0.0043979440815746,-0.0088262483477592
1768731344930,-0.107635498046875,-0.9810333251953124,0.180694580078125,-0.0456929206848144,0.000372043607058,-0.0094174705445766
1768731344940,-0.1064605712890625,-0.9798583984375,0.1757049560546875,-0.046051912009716,0.0076733659952878,-0.0062086274847388
1768731344950,-0.1074981689453125,-0.9797210693359376,0.1678924560546875,-0.0427029877901077,0.0135746644809842,-0.0035859462805092
1768731344960,-0.109405517578125,-0.9790496826171876,0.1626739501953125,-0.0365462936460971,0.0037912761326879,-0.0020841897930949
1768731344970,-0.1102752685546875,-0.9803924560546876,0.1589508056640625,-0.027330957353115,0.0084795048460364,0.0009528790251351
1768731344980,-0.1070709228515625,-0.9767303466796876,0.1514892578125,-0.0150125054642558,0.0072994581423699,0.0027326694689691
1768731344990,-0.1101226806640625,-0.9792938232421876,0.1507110595703125,-0.0050381682813167,0.0014026869321241,0.0043872916139662
1768731345001,-0.11431884765625,-0.9818267822265624,0.156097412109375,-0.0003257046046201,-0.0043851612135767,-0.000102798017906
1768731345010,-0.1149139404296875,-0.98443603515625,0.1599273681640625,0.0017718010349199,0.0009550095419399,-0.00150628387928
1768731345020,-0.109649658203125,-0.98291015625,0.1616058349609375,-3.462109452812001e-05,0.0012290488230064,0.0001589907187735
1768731345031,-0.0996246337890625,-0.9840545654296876,0.1654205322265625,-0.0044184504076838,0.0019169433508068,0.0056581520475447
1768731345041,-0.0944976806640625,-0.9836883544921876,0.165802001953125,-0.0113424025475978,-0.000113716974738,0.014307833276689
1768731345051,-0.095184326171875,-0.9830474853515624,0.167938232421875,-0.0193486642092466,0.0022708773612976,0.0194642450660467
1768731345061,-0.1027374267578125,-0.9828033447265624,0.170867919921875,-0.0290431026369333,0.0028320054989308,0.0222634933888912
1768731345071,-0.106842041015625,-0.983001708984375,0.171234130859375,-0.0390086509287357,0.0046139266341924,0.0211484283208847
1768731345081,-0.11138916015625,-0.9801788330078124,0.1724700927734375,-0.0473624542355537,-0.000957406417001,0.0142058338969945
1768731345091,-0.12286376953125,-0.972137451171875,0.1660003662109375,-0.0491065606474876,0.0034349451307207,0.0020583572331815
1768731345101,-0.1189422607421875,-0.9751129150390624,0.1559295654296875,-0.0404214598238468,0.0023691481910645,0.0070043797604739
1768731345111,-0.1059417724609375,-0.9813385009765624,0.151275634765625,-0.026958379894495,-0.0003310309257358,0.0092177335172891
1768731345121,-0.1107177734375,-0.9765472412109376,0.141693115234375,-0.0038005972746759,0.0020881847012788,-0.0007725830073468
1768731345131,-0.1202545166015625,-0.9690704345703124,0.1377410888671875,0.0166799109429121,0.0027230822015553,-0.0013283847365528
1768731345141,-0.1136016845703125,-0.9737548828125,0.1446380615234375,0.0274830237030982,-0.0037630465812981,0.0015331818722188
1768731345151,-0.1070709228515625,-0.97772216796875,0.1510467529296875,0.0307635050266981,-0.0064696171320974,0.0076869479380548
1768731345161,-0.1067047119140625,-0.97760009765625,0.1551513671875,0.0310093145817518,-0.0099620865657925,0.0072925337590277
1768731345171,-0.1127777099609375,-0.9787139892578124,0.163818359375,0.0266457255929708,-0.0098102865740656,0.0031984564848244
1768731345181,-0.1189422607421875,-0.979095458984375,0.172149658203125,0.0170740578323602,-0.0103306677192449,0.0031606396660208
1768731345191,-0.1192474365234375,-0.9800872802734376,0.1772308349609375,0.0062219430692493,-0.0026908579748123,0.0012610068079084
1768731345201,-0.113433837890625,-0.9813690185546876,0.1781158447265625,-0.0023156185634434,-0.0049761165864765,0.0021494373213499
1768731345211,-0.11016845703125,-0.97998046875,0.1752471923828125,-0.012155732139945,-0.0019928433466702,0.0022373215761035
1768731345221,-0.107940673828125,-0.97900390625,0.17401123046875,-0.018599784001708,0.0007970841252245,0.0036546560004353
1768731345231,-0.1087646484375,-0.97821044921875,0.1711883544921875,-0.0244685914367437,0.0019779296126216,0.006403038278222
1768731345241,-0.108917236328125,-0.980255126953125,0.170989990234375,-0.0267365388572216,0.0040578586049377,0.0072089107707142
1768731345251,-0.1125030517578125,-0.9764862060546876,0.1689300537109375,-0.0293480344116687,0.0011419634101912,0.0094616785645484
1768731345262,-0.11474609375,-0.977020263671875,0.1685333251953125,-0.0287368390709161,-0.0039001994300633,0.0110742226243019
1768731345272,-0.11309814453125,-0.9782867431640624,0.16448974609375,-0.0233998652547597,0.0009384979493916,0.0126982182264328
1768731345282,-0.1085205078125,-0.97735595703125,0.1580810546875,-0.0166956223547458,0.0052360408008098,0.0222179535776376
1768731345292,-0.10516357421875,-0.9762420654296876,0.158294677734375,-0.0127624003216624,0.0068376660346984,0.0261663571000099
1768731345302,-0.1060028076171875,-0.976959228515625,0.15936279296875,-0.0128015493974089,0.0056666741147637,0.0270926039665937
1768731345312,-0.1091156005859375,-0.978179931640625,0.1636505126953125,-0.0177726056426763,0.0043454798869788,0.0274787619709968
1768731345322,-0.1105499267578125,-0.98065185546875,0.169342041015625,-0.0290867798030376,0.0061204768717288,0.0269128400832414
1768731345332,-0.115142822265625,-0.9796142578125,0.16998291015625,-0.0309062507003545,0.0027561055030673,0.0257173478603363
1768731345342,-0.115692138671875,-0.97967529296875,0.168792724609375,-0.0335803292691707,-0.0043500075116753,0.0258787348866462
1768731345352,-0.113677978515625,-0.978515625,0.1667633056640625,-0.0356978103518486,-0.0073210299015045,0.0244888309389352
1768731345362,-0.1145477294921875,-0.97698974609375,0.1621246337890625,-0.0359148569405078,-0.0062427157536149,0.023133547976613
1768731345372,-0.111358642578125,-0.977996826171875,0.1617889404296875,-0.0350274927914142,-0.0047279098071157,0.0185619667172431
1768731345382,-0.1180572509765625,-0.9755706787109376,0.1580657958984375,-0.0273831542581319,-7.696535612922162e-05,0.0151472613215446
1768731345392,-0.1195526123046875,-0.969482421875,0.15142822265625,-0.0159073267132043,0.0045601306483149,0.0174692720174789
1768731345402,-0.11981201171875,-0.9682159423828124,0.1481781005859375,-0.0093860449269413,0.0021702100057154,0.0146377980709075
1768731345412,-0.117950439453125,-0.97161865234375,0.147674560546875,-0.0031894017010927,-0.0014873754698783,0.009280583821237
1768731345422,-0.1168365478515625,-0.9743804931640624,0.1500396728515625,0.0008455536444671,-0.0058965049684047,0.0070022493600845
1768731345432,-0.1171722412109375,-0.9736785888671876,0.150115966796875,0.0077135795727372,-0.0101567637175321,0.0065979813225567
1768731345442,-0.115692138671875,-0.9753265380859376,0.1495819091796875,0.0160926841199398,-0.0049888994544744,0.0086819054558873
1768731345453,-0.11297607421875,-0.9791259765625,0.1500396728515625,0.0188525170087814,-0.0019893813878297,0.0102499742060899
1768731345463,-0.11181640625,-0.9791717529296876,0.1525115966796875,0.020855214446783,0.0059218048118054,0.0166934933513402
1768731345473,-0.1089935302734375,-0.98101806640625,0.1520843505859375,0.0330322533845901,0.0061063622124493,0.0215630829334259
1768731345483,-0.114959716796875,-0.9739837646484376,0.1530609130859375,0.0401093363761901,0.0094449007883667,0.012312326580286
1768731345493,-0.1284942626953125,-0.970428466796875,0.155181884765625,0.0428958013653755,0.0002239718451164,0.0068808090873062
1768731345503,-0.1211090087890625,-0.9766693115234376,0.165618896484375,0.0380395278334617,-0.001211738330312,0.0120039321482181
1768731345513,-0.1116485595703125,-0.990875244140625,0.178466796875,0.0151797514408826,-0.0077527281828224,0.015246863476932
1768731345523,-0.1126251220703125,-0.9924774169921876,0.187469482421875,0.0063524381257593,-0.0011094729416072,0.0117701068520545
1768731345533,-0.12091064453125,-0.9753570556640624,0.170166015625,0.0117413448169827,0.0062512378208339,0.0077314227819442
1768731345543,-0.1197662353515625,-0.9742889404296876,0.1658782958984375,0.0132281873375177,-0.003581951605156,0.0025222797412425
1768731345553,-0.11810302734375,-0.9757232666015624,0.172119140625,0.016115853562951,-0.002838663291186,0.000573112280108
1768731345563,-0.1211700439453125,-0.970672607421875,0.1711578369140625,0.0179337263107299,0.0025121597573161,-0.0060312608256936
1768731345573,-0.1224517822265625,-0.96112060546875,0.1697235107421875,0.0133584160357713,0.0044133905321359,-0.0103064337745308
1768731345583,-0.123931884765625,-0.95831298828125,0.1721954345703125,0.0014386395923793,0.0018213358707726,-0.0153680369257926
1768731345593,-0.1227264404296875,-0.9655914306640624,0.178466796875,-0.0168154649436473,0.0030937942210584,-0.020848024636507
1768731345603,-0.1210174560546875,-0.9738006591796876,0.1824188232421875,-0.032682579010725,0.0048951562494039,-0.0180258713662624
1768731345613,-0.1158294677734375,-0.9789276123046876,0.177825927734375,-0.0375396534800529,0.003123888047412,-0.0147091709077358
1768731345623,-0.1090087890625,-0.981689453125,0.1656036376953125,-0.0366453640162944,0.0070688282139599,-0.0088627338409423
1768731345633,-0.107879638671875,-0.9798431396484376,0.159332275390625,-0.0309898741543293,0.0044778389856219,-0.002780872862786
1768731345643,-0.1131591796875,-0.9799652099609376,0.1536865234375,-0.0211308524012565,0.0081127872690558,-0.0024258734192699
1768731345653,-0.11505126953125,-0.9770660400390624,0.1489715576171875,-0.0109237544238567,0.0102193476632237,-0.0024996430147439
1768731345663,-0.11676025390625,-0.978363037109375,0.1478424072265625,0.0002287655370309,0.0033060482237488,-0.0046749128960072
1768731345674,-0.1202239990234375,-0.9805755615234376,0.14910888671875,0.0091964276507496,0.0059878514148294,-0.0019086875254288
1768731345683,-0.116943359375,-0.9831390380859376,0.151123046875,0.0152798863127827,0.0037483992055058,-0.0027065705507993
1768731345694,-0.11639404296875,-0.9831390380859376,0.1553192138671875,0.0181960482150316,0.0047691888175904,-0.0006040049483999
1768731345704,-0.1165924072265625,-0.980133056640625,0.1573944091796875,0.0188346747308969,0.0091764545068144,0.0059716058894991
1768731345714,-0.110382080078125,-0.981842041015625,0.16015625,0.0145437885075807,0.0112260226160287,0.0111184315755963
1768731345724,-0.109161376953125,-0.9812774658203124,0.165069580078125,0.0129797141999006,0.0118167120963335,0.0134399086236953
1768731345734,-0.1103363037109375,-0.980926513671875,0.1680450439453125,0.0072222263552248,0.0111788846552371,0.0152588477358222
1768731345744,-0.1113433837890625,-0.9815673828125,0.170623779296875,0.0014602112350985,0.0084169209003448,0.0143957175314426
1768731345754,-0.1129150390625,-0.9824371337890624,0.1718292236328125,-0.0059827915392816,0.0060461745597422,0.0139054292812943
1768731345764,-0.109588623046875,-0.9813690185546876,0.1718292236328125,-0.0142191499471664,0.004914597608149,0.0186644978821277
1768731345774,-0.1109466552734375,-0.9808807373046876,0.1704559326171875,-0.0224419254809618,0.0007653924985788,0.0163643267005682
1768731345785,-0.123291015625,-0.97515869140625,0.1696929931640625,-0.0272944718599319,0.0065316688269376,0.0073612434789538
1768731345794,-0.1277923583984375,-0.9741668701171876,0.163970947265625,-0.025941053405404,0.0079447422176599,0.004996889270842
1768731345804,-0.1160430908203125,-0.980560302734375,0.1654205322265625,-0.0232291556894779,0.0045691854320466,0.0060440441593527
1768731345814,-0.11175537109375,-0.9775390625,0.1611175537109375,-0.0167872365564107,0.0082382224500179,0.0010868359822779
1768731345824,-0.120330810546875,-0.9654388427734376,0.1529083251953125,-0.002682602033019,0.0097482344135642,0.0007952199084684
1768731345834,-0.1244659423828125,-0.966339111328125,0.1541595458984375,0.005493835080415,-0.000311057199724,0.0003099919413216
1768731345844,-0.122100830078125,-0.9770355224609376,0.161376953125,0.0074491277337074,-0.0050743869505822,-0.0032527849543839
1768731345854,-0.1145477294921875,-0.9761199951171876,0.162261962890625,0.0062166168354451,0.0026029737200587,0.0007004113867878
1768731345864,-0.1132049560546875,-0.97320556640625,0.16162109375,0.0053010219708085,0.0058855861425399,0.002837331732735
1768731345874,-0.1129302978515625,-0.9756011962890624,0.1656646728515625,0.0044717136770486,0.003017894225195,0.0015699334908276
1768731345885,-0.1194000244140625,-0.9756011962890624,0.1674652099609375,0.0017611484508961,0.0064469804055988,0.0012362393317744
1768731345895,-0.1199493408203125,-0.9766082763671876,0.166900634765625,-0.0011789813870564,0.0075383437797427,-0.0001518001809017
1768731345905,-0.1203765869140625,-0.98028564453125,0.1689453125,-0.0088582066819071,0.0066046393476426,-0.0030730215366929
1768731345915,-0.120208740234375,-0.9796295166015624,0.168548583984375,-0.0138953095301985,0.0048016794025897,-0.0028884646017104
1768731345925,-0.1181488037109375,-0.9803009033203124,0.1674957275390625,-0.0156029276549816,0.0076904101297259,-0.0031308121979236
1768731345935,-0.1148681640625,-0.9780731201171876,0.163421630859375,-0.0142116928473114,0.0070802802219986,-0.0014141384745016
1768731345945,-0.1141815185546875,-0.9791412353515624,0.158966064453125,-0.0103770075365901,0.0130015527829527,0.0031214910559356
1768731345955,-0.115692138671875,-0.9770660400390624,0.1565093994140625,-0.0008386294357478,0.0134367132559418,0.005412608385086
1768731345965,-0.1156005859375,-0.9774627685546876,0.1535491943359375,0.0090163983404636,0.0138697428628802,0.0109328087419271
1768731345975,-0.1105194091796875,-0.9764862060546876,0.1518707275390625,0.0208799820393323,0.0120598590001463,0.0183289404958486
1768731345985,-0.1131591796875,-0.9761962890625,0.1513519287109375,0.0274896807968616,0.0148894675076007,0.0192575845867395
1768731345995,-0.117584228515625,-0.97808837890625,0.1584320068359375,0.0287592094391584,0.0107373325154185,0.0160314310342073
1768731346005,-0.1217193603515625,-0.9786224365234376,0.1646728515625,0.023207850754261,-0.000735831388738,0.0107884658500552
1768731346015,-0.1242828369140625,-0.97991943359375,0.172515869140625,0.0136907780542969,0.0011203918838873,0.0059966398403048
1768731346025,-0.1228179931640625,-0.979095458984375,0.175567626953125,0.0011049455497413,0.0055822520516812,0.0055891759693622
1768731346035,-0.1219940185546875,-0.9784088134765624,0.175628662109375,-0.0058565572835505,0.0017313209827989,0.0042136535048484
1768731346045,-0.1191864013671875,-0.97723388671875,0.1719970703125,-0.0106787430122494,0.0041364217177033,0.0066800070926547
1768731346055,-0.1150360107421875,-0.976287841796875,0.169219970703125,-0.0097431745380163,0.0007238471880555,0.0069998526014387
1768731346065,-0.1162872314453125,-0.976348876953125,0.165802001953125,-0.0112942000851035,-0.0004167847218923,0.0043571977876126
1768731346075,-0.118499755859375,-0.976165771484375,0.1648406982421875,-0.0085711171850562,0.0029411951545625,0.0029766152147203
1768731346085,-0.115386962890625,-0.9766082763671876,0.1618194580078125,-0.0094299865886569,0.000361124635674,0.0006873618694953
1768731346095,-0.1205291748046875,-0.971588134765625,0.160247802734375,-0.001824265345931,0.0028375980909913,-0.0016266588354483
1768731346105,-0.1209564208984375,-0.97149658203125,0.156768798828125,0.0029712887480854,0.0088978875428438,0.0010519486386328
1768731346116,-0.117279052734375,-0.9746856689453124,0.1594696044921875,0.0040751690976321,0.002118544653058,0.0018093516118824
1768731346126,-0.1176605224609375,-0.975830078125,0.1624298095703125,0.0035790221299976,-0.0024671524297446,0.001008006511256
1768731346136,-0.119903564453125,-0.9735565185546876,0.162139892578125,0.0049838395789265,0.0001797633740352,0.0004402205231599
1768731346146,-0.1210174560546875,-0.978729248046875,0.164093017578125,0.0043763727881014,0.0017425062833353,-0.0004807005752809
1768731346156,-0.118743896484375,-0.9807891845703124,0.168609619140625,-0.0024434502702206,0.0073210299015045,0.000990163302049
1768731346166,-0.11566162109375,-0.9821319580078124,0.1660614013671875,-0.0044338968582451,0.0083924196660518,0.002060487633571
1768731346176,-0.1119842529296875,-0.981964111328125,0.1650848388671875,0.0012389025650918,0.0087162600830197,0.0071993232704699
1768731346186,-0.1157684326171875,-0.9721221923828124,0.1599273681640625,0.0097162770107388,0.0142745431512594,0.0002117213007295
1768731346196,-0.130157470703125,-0.9696502685546876,0.157257080078125,0.0160348936915397,0.0088765826076269,-0.0013936321483924
1768731346206,-0.1215667724609375,-0.9777984619140624,0.1664276123046875,0.0136918434873223,0.0067793428897857,-0.0001454086013836
1768731346216,-0.117401123046875,-0.9864501953125,0.174530029296875,-0.0031870049424469,0.0039638490416109,0.0019022959750145
1768731346226,-0.119171142578125,-0.9843597412109376,0.17938232421875,-0.0119125861674547,0.0132915703579783,-0.0021971079986542
1768731346236,-0.123504638671875,-0.9734649658203124,0.1670074462890625,-0.0099189430475234,0.0054781222715973,-0.0046461508609354
1768731346246,-0.11480712890625,-0.9766845703125,0.167236328125,-0.0062485747039318,-0.000121440141811,-0.003614974906668
1768731346256,-0.1136322021484375,-0.976898193359375,0.16790771484375,0.0010836402652785,0.0039476035162806,-0.0032405343372374
1768731346266,-0.1226654052734375,-0.9677886962890624,0.1642913818359375,0.0062320632860064,0.0095197353512048,-0.0096457032486796
1768731346277,-0.12841796875,-0.959930419921875,0.1634368896484375,0.005886651109904,0.0088574076071381,-0.0182586330920457
1768731346286,-0.13177490234375,-0.9578704833984376,0.1668853759765625,-0.0022764701861888,0.0041697113774716,-0.0222629606723785
1768731346296,-0.125640869140625,-0.9664459228515624,0.17120361328125,-0.0122558670118451,0.0012623383663594,-0.023772707208991
1768731346306,-0.1172332763671875,-0.975311279296875,0.1730804443359375,-0.0206602718681097,-0.0048136636614799,-0.0221902579069137
1768731346316,-0.11505126953125,-0.979644775390625,0.167877197265625,-0.0205761156976223,-0.0048623993061482,-0.019857594743371
1768731346327,-0.1116485595703125,-0.9799041748046876,0.1597900390625,-0.0148444594815373,0.0044828988611698,-0.015041533857584
1768731346337,-0.1092987060546875,-0.9796905517578124,0.1543426513671875,-0.0048205880448222,-0.0010165285784751,-0.0070134345442056
1768731346347,-0.1143798828125,-0.9798736572265624,0.1528167724609375,0.0074773575179278,0.0022066952660679,-0.0054975631646811
1768731346357,-0.114654541015625,-0.9781646728515624,0.1504669189453125,0.0147493854165077,0.0058155446313321,-0.0027907264884561
1768731346367,-0.1169586181640625,-0.9796600341796876,0.1551361083984375,0.0207582749426364,0.0041286987252533,-0.0016567525453865
1768731346377,-0.1164398193359375,-0.9819793701171876,0.157806396484375,0.0231607127934694,0.0052333776839077,0.0020263993646949
1768731346387,-0.11572265625,-0.9832916259765624,0.1619873046875,0.0272822212427854,0.0018064221367239,0.001479918602854
1768731346397,-0.117950439453125,-0.9821624755859376,0.1651458740234375,0.0301070362329483,0.0037364149466156,0.0037694382481276
1768731346407,-0.11865234375,-0.97967529296875,0.1672515869140625,0.0293666776269674,0.0014205301413312,0.0027007116004824
1768731346417,-0.1197357177734375,-0.9788665771484376,0.171417236328125,0.0246446263045072,0.0038080539088696,0.001144893001765
1768731346427,-0.119415283203125,-0.9793853759765624,0.1766204833984375,0.0149560458958148,0.005142031237483,0.0014950985787436
1768731346437,-0.1166534423828125,-0.9800262451171876,0.1802978515625,0.002405633451417,0.0057108826003968,0.0020905814599245
1768731346447,-0.114501953125,-0.978973388671875,0.1815032958984375,-0.0091969603672623,0.0002572613593656,0.000393881520722
1768731346457,-0.1143341064453125,-0.9785003662109376,0.18353271484375,-0.0190147031098604,0.0001739044237183,-0.0009515474666841
1768731346468,-0.113525390625,-0.9806060791015624,0.1805572509765625,-0.029814887791872,-0.0017116136150434,0.0014583469601348
1768731346477,-0.112152099609375,-0.981903076171875,0.17913818359375,-0.0360807739198207,0.0030882016289979,0.0010295780375599
1768731346487,-0.1142730712890625,-0.9732513427734376,0.171295166015625,-0.0377761423587799,0.0078659122809767,0.0007733819657005
1768731346497,-0.1171722412109375,-0.9725494384765624,0.16314697265625,-0.0318865589797496,0.0085301045328378,0.0024405207950621
1768731346507,-0.11322021484375,-0.9772796630859376,0.1595306396484375,-0.0228421986103057,0.0051103397272527,0.0021329256705939
1768731346517,-0.119354248046875,-0.9734649658203124,0.15155029296875,-0.0059428438544273,0.0077458037994802,-0.0079721724614501
1768731346527,-0.126312255859375,-0.970062255859375,0.1461181640625,0.0103740775957703,0.0080201094970107,-0.0106414593756198
1768731346538,-0.1219635009765625,-0.9730682373046876,0.147491455078125,0.0184599664062261,0.0070954598486423,-0.0052024852484464
1768731346548,-0.1159210205078125,-0.978363037109375,0.154998779296875,0.0233159754425287,0.0057226005010306,-0.0022264027502387
1768731346558,-0.11566162109375,-0.97698974609375,0.1566314697265625,0.0320500768721103,-0.0023289343807846,0.0004961469094268
1768731346568,-0.1154632568359375,-0.975250244140625,0.15576171875,0.0353286974132061,-0.0010756507981568,0.0040136501193046
1768731346578,-0.1152191162109375,-0.97454833984375,0.1597900390625,0.0347151048481464,-0.0029254823457449,0.0025177525822073
1768731346588,-0.120880126953125,-0.9773101806640624,0.1710205078125,0.0243032090365886,-0.0019702066201716,-0.0034163030795753
1768731346598,-0.125640869140625,-0.9797210693359376,0.179901123046875,0.0119914151728153,-0.0010378338629379,-0.0095298560336232
1768731346608,-0.1197357177734375,-0.980194091796875,0.181610107421875,-9.960222087102012e-05,-0.001170192961581,-0.0093871103599667
1768731346618,-0.115142822265625,-0.9781951904296876,0.179443359375,-0.0076283584348857,0.0015174691798165,-0.0049233860336244
1768731346628,-0.1120758056640625,-0.9783782958984376,0.175506591796875,-0.0110265519469976,0.0015169365797191,-0.0030088394414633
1768731346638,-0.1147918701171875,-0.9784393310546876,0.1752777099609375,-0.0118076568469405,0.0036834180355072,-0.0019355855183675
1768731346648,-0.11785888671875,-0.976043701171875,0.1741943359375,-0.0121554657816886,0.0040522660128772,-0.002445048186928
1768731346658,-0.1199951171875,-0.97576904296875,0.1731719970703125,-0.014634602703154,0.001432514283806,-0.0056536244228482
1768731346668,-0.118560791015625,-0.9760589599609376,0.1723480224609375,-0.016056464985013,-0.0023307986557483,-0.0054427022114396
1768731346678,-0.115478515625,-0.976318359375,0.169830322265625,-0.0178540982306003,-0.001423992216587,-0.0023315974976867
1768731346688,-0.1174774169921875,-0.97235107421875,0.1678619384765625,-0.0156356841325759,-0.0011299792677164,-0.0045012747868895
1768731346698,-0.1195220947265625,-0.974853515625,0.1672821044921875,-0.01536750420928,-1.4114753867033867e-05,-0.0066259447485208
1768731346708,-0.1197662353515625,-0.9732513427734376,0.17022705078125,-0.0181427840143442,0.0055737299844622,-0.0060648168437182
1768731346718,-0.11907958984375,-0.975738525390625,0.170684814453125,-0.0182461161166429,0.0044426852837204,-0.0041390848346054
1768731346728,-0.1170501708984375,-0.9774627685546876,0.1711883544921875,-0.0174817889928817,-0.0068696239031851,-0.006949252448976
1768731346738,-0.1150970458984375,-0.9763946533203124,0.16864013671875,-0.0189092420041561,-0.0063010388985276,-0.0055092815309762
1768731346749,-0.1129608154296875,-0.9771728515625,0.1668243408203125,-0.0213327184319496,-0.0039374837651848,-0.0015582155901938
1768731346759,-0.11749267578125,-0.97796630859375,0.167205810546875,-0.023259250447154,-0.0001025317033054,-0.0065958509221673
1768731346769,-0.1204071044921875,-0.9769287109375,0.1664886474609375,-0.022169217467308,0.0004074636381119,-0.008607336319983
1768731346779,-0.1187591552734375,-0.975830078125,0.163330078125,-0.0188953932374715,-2.103897168126423e-05,-0.0098723378032445
1768731346789,-0.1120452880859375,-0.9767913818359376,0.16156005859375,-0.0174863152205944,-0.001440503867343,-0.0098387822508811
1768731346799,-0.11639404296875,-0.97576904296875,0.1610260009765625,-0.0175137463957071,0.0011006845161318,-0.01259755063802
1768731346809,-0.122589111328125,-0.974212646484375,0.1612701416015625,-0.0162902902811765,0.0055542886257171,-0.0140516366809606
1768731346819,-0.1220855712890625,-0.97467041015625,0.1609344482421875,-0.0159685797989368,0.0057827881537377,-0.0162103958427906
1768731346829,-0.1235809326171875,-0.976654052734375,0.1666717529296875,-0.0208879709243774,0.0052863745950162,-0.018606174737215
1768731346839,-0.119110107421875,-0.9777679443359376,0.1681976318359375,-0.0251192022114992,0.0087415594607591,-0.0145603008568286
1768731346849,-0.11419677734375,-0.9767913818359376,0.1671142578125,-0.0258345268666744,0.0015419702976942,-0.0128944935277104
1768731346859,-0.110443115234375,-0.97943115234375,0.165313720703125,-0.0252238642424345,-0.0055657401680946,-0.0071066454984247
1768731346869,-0.1099090576171875,-0.9798583984375,0.1656951904296875,-0.0272832866758108,-0.0064536384306848,-0.0040783649310469
1768731346879,-0.1106109619140625,-0.9809112548828124,0.1652069091796875,-0.0253378469496965,-0.0017443705582991,-0.0045486791059374
1768731346889,-0.1125640869140625,-0.977813720703125,0.161895751953125,-0.0160141196101903,0.0068781459704041,-0.0039862194098532
1768731346899,-0.120513916015625,-0.967437744140625,0.1539154052734375,-0.0048128645867109,0.0056408415548503,-0.0135411089286208
1768731346909,-0.11737060546875,-0.974853515625,0.1559600830078125,0.0031843415927141,0.0058163437061011,-0.0060445768758654
1768731346919,-0.1083984375,-0.98101806640625,0.161956787109375,0.0014860439114272,0.0033044503070414,0.0034176346380263
1768731346929,-0.1069793701171875,-0.9898834228515624,0.170867919921875,-0.0141642885282635,0.0006892260862514,0.0008367652189917
1768731346940,-0.1146392822265625,-0.9794769287109376,0.17333984375,-0.0167643334716558,0.0094504933804273,-0.0037899445742368
1768731346949,-0.118377685546875,-0.9758758544921876,0.16204833984375,-0.004128432366997,0.0080936131998896,0.0002181128947995
1768731346960,-0.111724853515625,-0.9749755859375,0.15948486328125,0.0021640846971422,0.000924649531953,-0.0003427488263696
1768731346970,-0.1143035888671875,-0.978607177734375,0.164337158203125,0.0048347027041018,0.0018785938154906,-0.007431018166244
1768731346980,-0.1220855712890625,-0.9714202880859376,0.1652679443359375,0.0070168967358767,0.0044591967016458,-0.0160506051033735
1768731346990,-0.12628173828125,-0.9623565673828124,0.1626739501953125,0.0060754693113267,-0.0040791640058159,-0.0225761495530605
1768731347000,-0.1265716552734375,-0.96710205078125,0.1674957275390625,-0.0040088561363518,-0.0058613512665033,-0.0307326130568981
1768731347010,-0.1175689697265625,-0.9759368896484376,0.17169189453125,-0.0125232487916946,0.0032117723021656,-0.0223878640681505
1768731347020,-0.1053924560546875,-0.9776153564453124,0.165863037109375,-0.0152021227404475,0.0036264264490455,-0.01514832675457
1768731347030,-0.105438232421875,-0.9816741943359376,0.1640167236328125,-0.0177275985479354,0.0001366201613564,-0.0109192263334989
1768731347040,-0.1048431396484375,-0.98175048828125,0.162078857421875,-0.0145203527063131,0.0002324939559912,-0.0082408860325813
1768731347051,-0.109588623046875,-0.981719970703125,0.160797119140625,-0.0129248537123203,0.0079050613567233,-0.0052272523753345
1768731347060,-0.1141815185546875,-0.9796295166015624,0.159271240234375,-0.0092861764132976,0.0077564567327499,-0.0045545380562543
1768731347070,-0.114990234375,-0.9805908203125,0.1595306396484375,-0.0029334719292819,0.0056730657815933,-0.0004910869174636
1768731347080,-0.115020751953125,-0.980255126953125,0.1593170166015625,-0.0001976065541384,0.0053007556125521,-0.0034490597900003
1768731347090,-0.116119384765625,-0.9788970947265624,0.15875244140625,0.0042541334405541,0.0115661080926656,-0.0001720402069622
1768731347100,-0.112884521484375,-0.9796142578125,0.1569671630859375,0.0131059484556317,0.0086997486650943,0.0042818305082619
1768731347110,-0.1133270263671875,-0.979766845703125,0.1577606201171875,0.0184029750525951,0.007603058591485,0.0041872882284224
1768731347120,-0.112213134765625,-0.9800872802734376,0.160736083984375,0.0172005575150251,0.0025710156187415,0.004882373381406
1768731347130,-0.11602783203125,-0.9817657470703124,0.168212890625,0.0114199006929993,0.0006982808117754,0.001577656599693
1768731347140,-0.1182403564453125,-0.981353759765625,0.175079345703125,0.001653823070228,0.0036112463567405,0.0021363878622651
1768731347151,-0.11151123046875,-0.9792633056640624,0.1772308349609375,-0.0094475634396076,0.0086797745898365,0.0075711007229983
1768731347160,-0.10986328125,-0.9784088134765624,0.1765594482421875,-0.017266072332859,0.0040621194057166,0.0096451705321669
1768731347171,-0.1088714599609375,-0.9809417724609376,0.1748199462890625,-0.0235218368470668,0.0099852560088038,0.0130577450618147
1768731347181,-0.108734130859375,-0.982177734375,0.1753082275390625,-0.0339081659913063,0.0084030721336603,0.0103668868541717
1768731347191,-0.1163330078125,-0.978668212890625,0.1748046875,-0.0405804477632045,0.0115051222965121,0.0023915185593068
1768731347201,-0.12030029296875,-0.9695587158203124,0.1651153564453125,-0.0443189963698387,0.005527923349291,0.0046227150596678
1768731347211,-0.115966796875,-0.971771240234375,0.162445068359375,-0.0401961542665958,0.0038125813007354,-0.000241548710619
1768731347221,-0.11761474609375,-0.972564697265625,0.15673828125,-0.0313400812447071,-0.0009515474666841,-0.0058775963261723
1768731347231,-0.1213836669921875,-0.9718780517578124,0.151397705078125,-0.0176769979298114,-0.0007342335302382,-0.006582002621144
1768731347241,-0.1152496337890625,-0.9727783203125,0.14666748046875,-0.0036336169578135,0.0045191179960966,-0.0045188516378402
1768731347251,-0.1128997802734375,-0.975555419921875,0.1464691162109375,0.010727479122579,-0.0008897621301002,-0.0055548213422298
1768731347261,-0.113739013671875,-0.9737548828125,0.1479339599609375,0.0192376095801591,-0.0011994877131655,-0.0028173581231385
1768731347271,-0.1108245849609375,-0.9739227294921876,0.1509857177734375,0.0256853904575109,0.0010737865231931,5.512743518920615e-05
1768731347281,-0.11395263671875,-0.97576904296875,0.156585693359375,0.0250699333846569,0.0016104135429486,-0.003107908880338
1768731347291,-0.119293212890625,-0.97735595703125,0.1649627685546875,0.0187582410871982,0.0002966761530842,-0.0071284831501543
1768731347301,-0.1193084716796875,-0.97906494140625,0.169036865234375,0.0115613145753741,0.005640575196594,-0.0070536485873162
1768731347311,-0.1146087646484375,-0.9791717529296876,0.16973876953125,0.0070142336189746,5.246427463134751e-05,-0.0106326704844832
1768731347321,-0.1159210205078125,-0.9802703857421876,0.17120361328125,0.0029606360476464,0.007023821119219,-0.010064085945487
1768731347331,-0.11566162109375,-0.97796630859375,0.1681365966796875,0.0004546015989035,0.0078821582719683,-0.0091191958636045
1768731347341,-0.114837646484375,-0.979736328125,0.166839599609375,-0.0035406725946813,0.0109895337373018,-0.0104718152433633
1768731347351,-0.1141815185546875,-0.9808807373046876,0.165191650390625,0.0012684636749327,0.0076552564278244,-0.0080528669059276
1768731347361,-0.1124725341796875,-0.9804534912109376,0.1624298095703125,0.0029728866647928,0.0093897730112075,-0.0065420549362897
1768731347371,-0.11175537109375,-0.9767303466796876,0.1577301025390625,0.0080235712230205,0.0085271755233407,-0.0048317732289433
1768731347381,-0.1147918701171875,-0.977569580078125,0.1584320068359375,0.0129645345732569,0.0064142234623432,-0.0032716933637857
1768731347392,-0.1175994873046875,-0.9796905517578124,0.162811279296875,0.0109634352847933,0.0068384651094675,-0.0040173786692321
1768731347402,-0.115081787109375,-0.9811859130859376,0.1659088134765625,0.0100667485967278,0.0106470519676804,-0.0025624935515224
1768731347412,-0.114959716796875,-0.9789581298828124,0.1657257080078125,0.0121197793632745,0.0152026545256376,-0.0039558592252433
1768731347422,-0.1151885986328125,-0.9770660400390624,0.1670379638671875,0.0113884760066866,0.0115631790831685,-0.0049939597956836
1768731347432,-0.1144256591796875,-0.976104736328125,0.1636199951171875,0.010200971737504,0.0098142810165882,-0.0073252907022833
1768731347442,-0.1103515625,-0.9776153564453124,0.1651458740234375,0.0089442264288663,0.0047268443740904,-0.0021576930303126
1768731347452,-0.10675048828125,-0.981964111328125,0.1682586669921875,0.0043462789617478,-0.0012474246323108,0.0007944209501147
1768731347462,-0.1070098876953125,-0.9796600341796876,0.168975830078125,0.000622647057753,-6.897587445564568e-05,0.0038157771341502
1768731347472,-0.1130523681640625,-0.9763336181640624,0.168792724609375,-0.0014668691437691,-0.0003997404710389,0.0001307612110394
1768731347482,-0.1158447265625,-0.9759368896484376,0.166015625,-0.0043907538056373,0.0031411985401064,-0.0025244103744626
1768731347492,-0.1136322021484375,-0.974029541015625,0.165191650390625,-0.0022615564521402,0.0069034462794661,0.0004665858286898
1768731347502,-0.1132965087890625,-0.9766845703125,0.1630096435546875,-0.0002335592289455,0.006499710958451,-0.0019867182709276
1768731347512,-0.1150665283203125,-0.9761199951171876,0.16119384765625,0.0033135050907731,0.0057276603765785,-0.0073806843720376
1768731347522,-0.116607666015625,-0.9742431640625,0.1611328125,0.0080017335712909,0.0031973912846297,-0.0070336745120584
1768731347532,-0.1156158447265625,-0.9771728515625,0.161590576171875,0.00998898409307,0.001563541823998,-0.0070576430298388
1768731347542,-0.115509033203125,-0.978912353515625,0.163818359375,0.0080518014729022,0.0075197014957666,-0.005667739547789
1768731347552,-0.1153106689453125,-0.97760009765625,0.1643524169921875,0.0074278223328292,0.0117719704285264,-0.0012226572725921
1768731347562,-0.11297607421875,-0.9766998291015624,0.1667938232421875,0.0041342913173139,0.0084928208962082,-0.0035294874105602
1768731347572,-0.1085968017578125,-0.9813995361328124,0.168426513671875,0.0008285093936137,0.0057841194793581,-0.0018506306223571
1768731347582,-0.1063079833984375,-0.982940673828125,0.16998291015625,-0.0039952741935849,-0.0001177117228507,-0.0013685984304174
1768731347593,-0.1089630126953125,-0.9836578369140624,0.171173095703125,-0.0062184808775782,0.0064576328732073,0.0015267902053892
1768731347603,-0.1104583740234375,-0.978179931640625,0.1653900146484375,-0.0006615291931666,0.0119525333866477,0.004006459377706
1768731347613,-0.1178741455078125,-0.9693603515625,0.1599273681640625,0.0092480927705764,0.0057401773519814,-0.0098206726834177
1768731347623,-0.1257171630859375,-0.97027587890625,0.1592864990234375,0.0185140296816825,-0.0002790992730297,-0.0095772594213485
1768731347633,-0.1136932373046875,-0.9767303466796876,0.164215087890625,0.0166439581662416,0.0010825749486684,-0.006539658177644
1768731347643,-0.10784912109375,-0.9862213134765624,0.1719512939453125,0.0034527883399277,-0.0002476739755365,-0.0050288471393287
1768731347653,-0.11199951171875,-0.9828033447265624,0.1773834228515625,-0.0031129689887166,0.0114151071757078,-0.009892045520246
1768731347663,-0.1166534423828125,-0.9785919189453124,0.165191650390625,0.0009624664089642,0.0104704843834042,-0.0064507089555263
1768731347673,-0.1063995361328125,-0.9773406982421876,0.1645355224609375,0.004857872147113,0.0050477553158998,-0.0016450346447527
1768731347683,-0.110443115234375,-0.975311279296875,0.1673583984375,0.0086254458874464,0.0067654945887625,-0.0067777447402477
1768731347693,-0.1228790283203125,-0.9676513671875,0.1668853759765625,0.0153669724240899,0.011478223837912,-0.0182479787617921
1768731347703,-0.1254730224609375,-0.9598541259765624,0.16436767578125,0.0165097340941429,0.0101841939613223,-0.0214973017573356
1768731347713,-0.1191864013671875,-0.9645843505859376,0.167083740234375,0.0100379865616559,0.0057673417031764,-0.0220717471092939
1768731347723,-0.1116485595703125,-0.9755706787109376,0.1725921630859375,-0.0034618431236594,0.0056743971072137,-0.017666345462203
1768731347733,-0.1087188720703125,-0.9813079833984376,0.17193603515625,-0.0083008063957095,0.0027001791168004,-0.0143746780231595
1768731347743,-0.109130859375,-0.981842041015625,0.1694183349609375,-0.0118175111711025,0.0002013349730987,-0.0117125827819108
1768731347753,-0.1098175048828125,-0.9827117919921876,0.165313720703125,-0.0056501626968383,-0.000327036192175,-0.0098220044746994
1768731347763,-0.1073455810546875,-0.980194091796875,0.1617279052734375,0.001177383470349,0.0013717942638322,-0.0093761915341019
1768731347773,-0.10986328125,-0.977996826171875,0.1585845947265625,0.0077487332746386,-0.0051169977523386,-0.0084504764527082
1768731347783,-0.1146240234375,-0.9774322509765624,0.1617584228515625,0.0145618980750441,0.0015089471125975,-0.0100339921191334
1768731347793,-0.112091064453125,-0.978729248046875,0.16156005859375,0.0176977701485157,0.0019952403381466,-0.0043968791142106
1768731347804,-0.11199951171875,-0.980621337890625,0.1645660400390625,0.0209588110446929,0.0006966829532757,-0.0034157703630626
1768731347813,-0.1116485595703125,-0.9809417724609376,0.16583251953125,0.0200805012136697,0.0031473238486796,-0.0010096043115481
1768731347824,-0.1090087890625,-0.97930908203125,0.1688690185546875,0.0206730533391237,0.0044536041095852,0.0038860845379531
1768731347834,-0.10968017578125,-0.9778289794921876,0.1704559326171875,0.0188706275075674,0.0049268477596342,0.0048853028565645
1768731347844,-0.111541748046875,-0.9761962890625,0.17181396484375,0.0164713840931653,0.0036061864811927,0.0067678913474082
1768731347854,-0.1121826171875,-0.9781341552734376,0.1777191162109375,0.0075532575137913,-0.0004809668753296,0.0004474110610317
1768731347864,-0.1146240234375,-0.9805450439453124,0.1815643310546875,-0.0008330367854796,-0.002404834376648,-0.000672181835398
1768731347874,-0.112091064453125,-0.9807281494140624,0.1850128173828125,-0.0129781169816851,0.0023036343045532,0.0002905508736148
1768731347884,-0.1084136962890625,-0.9818115234375,0.184295654296875,-0.0239479430019855,-0.0010620686225593,0.0021819279063493
1768731347894,-0.1040802001953125,-0.983123779296875,0.178863525390625,-0.0300785396248102,0.0044048684649169,0.0065164887346327
1768731347904,-0.1025390625,-0.97674560546875,0.17047119140625,-0.0298617593944072,0.0081783011555671,0.0042725093662738
1768731347914,-0.1129302978515625,-0.9704132080078124,0.163421630859375,-0.0279011391103267,0.0086843017488718,0.0034639735240489
1768731347924,-0.1113739013671875,-0.975982666015625,0.163787841796875,-0.0210786536335945,0.0022463763598352,0.0010623349808156
1768731347934,-0.110137939453125,-0.9796142578125,0.163421630859375,-0.0164641942828893,-0.0013164004776626,-0.0051659997552633
1768731347944,-0.1148223876953125,-0.97552490234375,0.1585540771484375,-0.0101658180356025,-0.0021571605466306,-0.0069401976652443
1768731347954,-0.11669921875,-0.972900390625,0.158172607421875,-0.0041494714096188,-0.0029579729307442,-0.0059974389150738
1768731347964,-0.1166534423828125,-0.97332763671875,0.161224365234375,-0.0005701828049495,-0.0025747441686689,-0.0102691492065787
1768731347974,-0.1129302978515625,-0.97540283203125,0.1624603271484375,0.002225870033726,-0.0037425402551889,-0.0076976008713245
1768731347985,-0.1105194091796875,-0.976043701171875,0.1650543212890625,-0.0004285026225261,-0.0066621638834476,-0.008370847441256
1768731347994,-0.11279296875,-0.9760894775390624,0.1687164306640625,-0.0030048445332795,-0.0066328691318631,-0.0105647603049874
1768731348004,-0.1119842529296875,-0.97906494140625,0.1700439453125,-0.0085087995976209,-0.0073942667804658,-0.0109658315777778
1768731348014,-0.1103668212890625,-0.9795379638671876,0.1740570068359375,-0.0138420462608337,-0.0098052266985178,-0.0120185799896717
1768731348024,-0.1133575439453125,-0.9773101806640624,0.173614501953125,-0.0166631322354078,-0.0020913803018629,-0.0110332099720835
1768731348034,-0.110992431640625,-0.9775848388671876,0.170013427734375,-0.0169859081506729,-0.0029084382113069,-0.0122678512707352
1768731348045,-0.111175537109375,-0.9780731201171876,0.170989990234375,-0.0166263803839683,-0.0025217472575604,-0.0131189981475472
1768731348055,-0.10968017578125,-0.9779815673828124,0.1658782958984375,-0.0093426350504159,-0.0108707575127482,-0.0077292923815548
1768731348065,-0.1063079833984375,-0.977508544921875,0.1637115478515625,-0.0058903796598315,-0.008877913467586,-0.0021326593123376
1768731348075,-0.1064300537109375,-0.9789886474609376,0.161895751953125,-0.0017630126094445,-0.0047723846510052,0.0006266417913138
1768731348085,-0.104827880859375,-0.978790283203125,0.1617279052734375,0.0012394351651892,-0.0036639769095927,0.0060293967835605
1768731348095,-0.1072845458984375,-0.9791412353515624,0.165740966796875,0.0005281048361212,-0.0012394351651892,0.0059311259537935
1768731348105,-0.1121673583984375,-0.9783172607421876,0.1681060791015625,-0.0020330571569502,0.0019816581625491,0.0056134108453989
1768731348115,-0.11358642578125,-0.97625732421875,0.17059326171875,-0.0046328348107635,0.0013792511308565,0.0060624200850725
1768731348125,-0.1098480224609375,-0.97674560546875,0.1721649169921875,-0.0063393884338438,-0.0031699605751782,0.0081207770854234
1768731348135,-0.1109619140625,-0.975555419921875,0.170867919921875,-0.005609415937215,-0.0005819007055833,0.0084478128701448
1768731348145,-0.1117706298828125,-0.975921630859375,0.170318603515625,-0.0076001291163265,0.0016631440958008,0.0077854851260781
1768731348155,-0.1118316650390625,-0.9781494140625,0.172149658203125,-0.0122777055948972,0.0026085663121193,0.0069428607821464
1768731348165,-0.1140289306640625,-0.978485107421875,0.1730804443359375,-0.0167544782161712,-0.0008743157959543,0.0024482440203428
1768731348175,-0.113525390625,-0.976959228515625,0.1708831787109375,-0.0177041627466678,-0.0020961740519851,0.0021454426459968
1768731348185,-0.1116485595703125,-0.9772796630859376,0.1678466796875,-0.0184514448046684,-0.0012114719720557,0.0038498656358569
1768731348196,-0.11083984375,-0.9759063720703124,0.1672515869140625,-0.0198890194296836,0.002690591616556,0.004449876025319
1768731348205,-0.1138763427734375,-0.9759368896484376,0.1652069091796875,-0.019218435510993,-0.0026306705549359,-0.0041393511928617
1768731348215,-0.115570068359375,-0.97418212890625,0.1651611328125,-0.0174330528825521,-0.01091496553272,-0.0072744246572256
1768731348225,-0.11383056640625,-0.9754486083984376,0.16644287109375,-0.0145885301753878,0.0012069445801898,-0.0014037522487342
1768731348236,-0.11029052734375,-0.9749908447265624,0.1612548828125,-0.010415356606245,0.0036503949668258,0.0008024104172363
1768731348246,-0.11041259765625,-0.9779052734375,0.1622314453125,-0.0063026370480656,0.0022692794445902,-0.000964596925769
1768731348256,-0.1120147705078125,-0.9781494140625,0.1612548828125,-0.0048509477637708,0.0002775013854261,-0.0007760451408103
1768731348266,-0.1106719970703125,-0.9766082763671876,0.16229248046875,-0.0013699301052838,0.0006207828409969,-0.0022266688756644
1768731348276,-0.1111907958984375,-0.97479248046875,0.1619110107421875,0.0020714066922664,0.0034469293896108,0.0014421016676351
1768731348286,-0.11004638671875,-0.9761962890625,0.1639251708984375,-0.0001416801678715,0.0028634308837354,-0.000899615813978
1768731348296,-0.111053466796875,-0.97869873046875,0.1666412353515625,-0.004879976157099,0.0006439523422159,0.0018357168883085
1768731348306,-0.1087799072265625,-0.981048583984375,0.1692657470703125,-0.0071340757422149,-2.1305288100847974e-05,0.0058717373758554
1768731348316,-0.104461669921875,-0.985015869140625,0.1702117919921875,-0.0096345180645585,-0.0007419566973112,0.0069782808423042
1768731348326,-0.11273193359375,-0.9753875732421876,0.1670074462890625,-0.0085977492853999,-0.0035923379473388,-0.0032828785479068
1768731348336,-0.1206207275390625,-0.9751434326171876,0.16656494140625,0.0015845808666199,0.0004908205592073,-0.0029012477025389
1768731348346,-0.112548828125,-0.973297119140625,0.1631011962890625,0.0019819245208054,0.0002553971426095,0.004931641742587
1768731348356,-0.1076812744140625,-0.98419189453125,0.171966552734375,-0.01239381916821,-0.0050608050078153,0.0011906992876902
1768731348366,-0.1080474853515625,-0.9805145263671876,0.176055908203125,-0.0124034062027931,0.0043060649186372,4.660531703848392e-05
1768731348376,-0.112030029296875,-0.97540283203125,0.162322998046875,-0.0056714676320552,0.0038312235847115,0.0037891454994678
1768731348386,-0.1060638427734375,-0.9769134521484376,0.1606292724609375,0.0004444815858732,0.0059995693154633,0.0060134176164865
1768731348396,-0.104522705078125,-0.977081298828125,0.16448974609375,0.0076688388362526,0.0092848446220159,0.0041023334488272
1768731348406,-0.1134185791015625,-0.967620849609375,0.162353515625,0.0175395794212818,0.007162039168179,-0.0064480453729629
1768731348416,-0.1255645751953125,-0.9582977294921876,0.159576416015625,0.0185273457318544,0.0068597705103456,-0.0176530294120311
1768731348426,-0.12518310546875,-0.962677001953125,0.1693572998046875,0.0069660302251577,0.002167280530557,-0.0182362608611583
1768731348437,-0.117889404296875,-0.9740447998046876,0.1791229248046875,-0.0096283927559852,0.0040788976475596,-0.0162154547870159
1768731348446,-0.112762451171875,-0.9805145263671876,0.1788787841796875,-0.0211481619626283,0.0081878891214728,-0.0127397635951638
1768731348456,-0.107513427734375,-0.984130859375,0.174163818359375,-0.0258366577327251,0.0041484059765934,-0.0086363647133111
1768731348467,-0.10498046875,-0.982086181640625,0.165252685546875,-0.0198794323951005,0.0009262474486604,-0.0033968619536608
1768731348477,-0.102294921875,-0.9808502197265624,0.1552886962890625,-0.0054656052961945,-0.0018820558907464,-0.0009209210984408
1768731348487,-0.107269287109375,-0.979522705078125,0.154266357421875,0.0059095541946589,0.0010343717876821,-0.0019198728259652
1768731348497,-0.1123809814453125,-0.9788665771484376,0.15472412109375,0.014535266906023,0.0056538907811045,-0.001325188903138
1768731348507,-0.1135101318359375,-0.980194091796875,0.1568603515625,0.0204413589090108,0.0074714985676109,-0.0004982774262316
1768731348517,-0.11163330078125,-0.98260498046875,0.161041259765625,0.0242906920611858,0.0077588534913957,0.0039966059848666
1768731348527,-0.1073150634765625,-0.9807281494140624,0.1643524169921875,0.0266092400997877,0.0018285263795405,0.0080536650493741
1768731348537,-0.11090087890625,-0.977691650390625,0.1668853759765625,0.0253993663936853,-0.0026636936236172,0.0065873288549482
1768731348547,-0.1128997802734375,-0.9788360595703124,0.1731414794921875,0.0196442753076553,0.000924116873648,0.0061036986298859
1768731348557,-0.1111907958984375,-0.9775848388671876,0.17950439453125,0.0089215897023677,-0.0021265340037643,0.0069260830059647
1768731348567,-0.11236572265625,-0.978302001953125,0.1837615966796875,-0.0013978932984173,0.0036695697344839,0.0054959654808044
1768731348577,-0.109954833984375,-0.979461669921875,0.184967041015625,-0.0136790601536631,0.0066613648086786,0.0050355051644146
1768731348587,-0.107391357421875,-0.9802398681640624,0.1844482421875,-0.028676651418209,0.0006652576266787,0.0069119683466851
1768731348597,-0.1058807373046875,-0.9841156005859376,0.183258056640625,-0.0391929410398006,-0.0056863813661038,0.0055351140908896
1768731348607,-0.1065826416015625,-0.9830474853515624,0.179962158203125,-0.0467499271035194,-0.0053154029883444,0.0023481091484427
1768731348617,-0.1119537353515625,-0.97412109375,0.1713104248046875,-0.0492128208279609,0.0031462584156543,5.352953667170368e-05
1768731348627,-0.114471435546875,-0.973541259765625,0.1649169921875,-0.0469227656722068,0.0104094976559281,0.0067849354818463
1768731348637,-0.1069793701171875,-0.97845458984375,0.162109375,-0.0389761626720428,0.0082779033109545,0.0090140011161565
1768731348647,-0.108154296875,-0.9766387939453124,0.152923583984375,-0.0214650779962539,0.0069766831584274,0.0049183256924152
1768731348658,-0.1171417236328125,-0.9688873291015624,0.14532470703125,-0.0027105652261525,0.006591323763132,-0.0008229167433455
1768731348668,-0.1170501708984375,-0.971160888671875,0.147216796875,0.0073971962556242,0.0044908886775374,0.0009816411184147
1768731348677,-0.1119232177734375,-0.977386474609375,0.1562042236328125,0.0095234643667936,-0.0033433323260396,0.0008761800127103
1768731348688,-0.1125335693359375,-0.9761505126953124,0.16400146484375,0.0096912430599331,0.0003131877456326,-0.001348891062662
1768731348698,-0.11456298828125,-0.9750823974609376,0.1664886474609375,0.0051950281485915,0.0029912625905126,0.0001933454914251
1768731348708,-0.108428955078125,-0.9800262451171876,0.1711273193359375,-0.0003336940717417,-0.0018655443564057,0.0019560917280614
1768731348718,-0.1060638427734375,-0.9799957275390624,0.1699371337890625,-0.0012098740553483,-0.0082603264600038,0.0020730046089738
1768731348728,-0.1096954345703125,-0.9786224365234376,0.1694183349609375,-0.0037997981999069,-0.0071154339239001,-0.0011715245200321
1768731348738,-0.111724853515625,-0.9791412353515624,0.1716156005859375,-0.0086611323058605,-0.0054253917187452,-0.0034719631075859
1768731348748,-0.11669921875,-0.982208251953125,0.17401123046875,-0.0196496006101369,-0.024892833083868,-0.0142321987077593
1768731348758,-0.1284637451171875,-0.9815826416015624,0.1815032958984375,-0.022350313141942,0.0019510318525135,-0.0171603448688983
1768731348768,-0.109649658203125,-0.9774017333984376,0.16668701171875,-0.0240451488643884,0.0063705476932227,-0.0037555897142738
1768731348778,-0.1002655029296875,-0.9773406982421876,0.16278076171875,-0.0184879302978515,0.0002114549861289,0.0003025351034011
1768731348788,-0.10687255859375,-0.975433349609375,0.1590423583984375,-0.008118912577629,-0.0022285331506282,0.0033025860320776
1768731348798,-0.11279296875,-0.9752197265625,0.156982421875,0.0036956686526536,0.0156231680884957,0.0087982853874564
1768731348808,-0.1100311279296875,-0.97418212890625,0.1549835205078125,0.0108750183135271,0.0095588844269514,0.0146868005394935
1768731348818,-0.10015869140625,-0.9814910888671876,0.16131591796875,0.0137491011992096,0.0034751589410007,0.0211087465286254
1768731348828,-0.1048736572265625,-0.975921630859375,0.162078857421875,0.0134822530671954,0.0061811967752873,0.0194930080324411
1768731348838,-0.1162261962890625,-0.977996826171875,0.170684814453125,0.0058192731812596,0.003613643348217,0.0148918638005852
1768731348848,-0.1215362548828125,-0.9794921875,0.1766815185546875,-0.0042061964049935,0.0056046224199235,0.0091972267255187
1768731348858,-0.11871337890625,-0.978179931640625,0.1783599853515625,-0.011635617353022,0.0069607039913535,0.0098353205248713
1768731348868,-0.1130523681640625,-0.97943115234375,0.17608642578125,-0.0162950828671455,-0.0018322548130527,0.0117272296920418
1768731348879,-0.10980224609375,-0.980682373046875,0.173004150390625,-0.0165070705115795,0.0025561018846929,0.0165816396474838
1768731348889,-0.107147216796875,-0.978179931640625,0.1693115234375,-0.0212680045515298,0.0032937976066023,0.0196698419749736
1768731348899,-0.10894775390625,-0.9792327880859376,0.16912841796875,-0.0250587482005357,0.0063495086506009,0.019939087331295
1768731348909,-0.1121368408203125,-0.9780731201171876,0.169403076171875,-0.0274641141295433,0.0059929112903773,0.0153419384732842
1768731348919,-0.1169586181640625,-0.9747314453125,0.1666412353515625,-0.0276984721422195,0.0087924264371395,0.0146654956042766
1768731348929,-0.112518310546875,-0.9742584228515624,0.163238525390625,-0.0225279461592435,0.0045167212374508,0.0130026172846555
1768731348939,-0.1132659912109375,-0.9733123779296876,0.160614013671875,-0.0188439954072237,0.0033579797018319,0.008929313160479
1768731348949,-0.1191558837890625,-0.9726715087890624,0.159759521484375,-0.0171712636947631,0.0014974954538047,0.0038570561446249
1768731348959,-0.1190643310546875,-0.975006103515625,0.1634368896484375,-0.0150359412655234,0.005959621630609,0.002934803487733
1768731348969,-0.1180572509765625,-0.974395751953125,0.1645355224609375,-0.0149967921897768,0.0091847097501158,0.0014474280178546
1768731348979,-0.11834716796875,-0.9738006591796876,0.1630401611328125,-0.0109184281900525,0.0116438725963234,7.80306218075566e-05
1768731348989,-0.115692138671875,-0.9751434326171876,0.1590423583984375,-0.0066400594078004,0.007514907978475,1.810949470382184e-05
1768731348999,-0.1114959716796875,-0.9761505126953124,0.159759521484375,-0.0058256648480892,0.0073364758864045,0.0067199543118476
1768731349009,-0.103851318359375,-0.9790496826171876,0.1615753173828125,-0.0050410977564752,0.005388906225562,0.0137067576870322
1768731349019,-0.1025238037109375,-0.9825286865234376,0.158416748046875,-0.0012080098967999,-0.000179230744834,0.0192298870533704
1768731349029,-0.1076507568359375,-0.9792938232421876,0.1589508056640625,0.0072214277461171,0.0005845638806931,0.0109594408422708
1768731349039,-0.1247406005859375,-0.9701080322265624,0.15521240234375,0.0138769336044788,-0.0008093346259556,-0.0011661982862278
1768731349049,-0.126007080078125,-0.974395751953125,0.162139892578125,0.0187878031283617,0.0004820321628358,-0.0051617389544844
1768731349059,-0.11761474609375,-0.9811859130859376,0.167572021484375,0.0031545143574476,-0.0099061606451869,0.0002143844612874
1768731349069,-0.110321044921875,-0.989105224609375,0.181976318359375,-0.0137059586122632,-0.0084355622529983,-0.0042778356000781
1768731349079,-0.1164398193359375,-0.9784088134765624,0.17230224609375,-0.0098568918183445,0.0015174691798165,-0.0081649851053953
1768731349089,-0.116180419921875,-0.9747467041015624,0.16094970703125,-0.0038858184125274,0.0075191687792539,-0.006074936594814
1768731349100,-0.1070709228515625,-0.9755706787109376,0.164703369140625,0.0052597429603338,0.0057329866103827,0.0005137237603776
1768731349109,-0.111907958984375,-0.9722137451171876,0.1635894775390625,0.0168383680284023,-0.0015379755059257,-0.0042152511887252
1768731349120,-0.1191864013671875,-0.963043212890625,0.160369873046875,0.0259538367390632,0.002543052425608,-0.0110246874392032
1768731349130,-0.1248016357421875,-0.959136962890625,0.162872314453125,0.0198349580168724,3.968110104324296e-05,-0.0153893427923321
1768731349140,-0.125213623046875,-0.966705322265625,0.1717681884765625,0.0036373452749103,-0.0009406284661963,-0.01975879073143
1768731349150,-0.118804931640625,-0.975494384765625,0.1786041259765625,-0.0090957600623369,0.0054182009771466,-0.0145054394379258
1768731349160,-0.1068572998046875,-0.9799041748046876,0.17291259765625,-0.0127088706940412,0.0086174570024013,-0.0063955811783671
1768731349170,-0.1068878173828125,-0.9805145263671876,0.16351318359375,-0.0064307348802685,0.0082382224500179,-0.0022943131625652
1768731349180,-0.1064605712890625,-0.9805450439453124,0.1586761474609375,0.0016253271605819,0.0126111330464482,0.0014703312190249
1768731349190,-0.1071929931640625,-0.9793243408203124,0.1562957763671875,0.0113123096525669,0.0043271039612591,0.002166481455788
1768731349200,-0.11151123046875,-0.9786224365234376,0.15765380859375,0.0191678348928689,-0.0019283948931843,-7.084008393576369e-05
1768731349210,-0.117156982421875,-0.97802734375,0.16015625,0.0212557539343833,0.0015608787070959,-0.002984870923683
1768731349221,-0.1180877685546875,-0.978363037109375,0.165008544921875,0.0200157854706048,0.0030056436080485,-0.0010423612548038
1768731349230,-0.1144866943359375,-0.9794921875,0.1688385009765625,0.0153805539011955,0.0028008464723825,0.0007970841252245
1768731349240,-0.120391845703125,-0.98193359375,0.171630859375,0.0102576976642012,0.0090936301276087,-0.0007491472060792
1768731349250,-0.11907958984375,-0.980743408203125,0.1731719970703125,0.0052517536096274,0.0114401411265134,0.0005099953268654
1768731349260,-0.1100616455078125,-0.9796142578125,0.17327880859375,0.0046235141344368,0.0005611280212178,0.0040677119977772
1768731349270,-0.1086273193359375,-0.9793853759765624,0.1714935302734375,0.0037175065372139,-5.1132694352418184e-05,0.0100805973634123
1768731349280,-0.107940673828125,-0.97900390625,0.1695709228515625,0.001373924780637,0.0063018379732966,0.0104616954922676
1768731349290,-0.1057281494140625,-0.9812164306640624,0.17095947265625,-0.0076342173852026,0.005527923349291,0.0164370294660329
1768731349300,-0.1011199951171875,-0.982452392578125,0.1736907958984375,-0.0151696316897869,0.0006378270918503,0.0198815632611513
1768731349310,-0.1090545654296875,-0.980682373046875,0.172821044921875,-0.019218435510993,0.0022551647853106,0.0178197436034679
1768731349321,-0.1189422607421875,-0.9783782958984376,0.1702728271484375,-0.0210706647485494,0.0099378516897559,0.0053929011337459
1768731349331,-0.12384033203125,-0.97247314453125,0.1644439697265625,-0.019384616985917,0.0129890358075499,0.001177383470349
1768731349341,-0.11517333984375,-0.9766845703125,0.1634979248046875,-0.0141248740255832,0.006476008798927,0.0086004119366407
1768731349351,-0.104736328125,-0.98040771484375,0.1620330810546875,-0.0030599720776081,0.0047998153604567,0.0121309645473957
1768731349361,-0.1122283935546875,-0.9763946533203124,0.1571807861328125,0.0085109304636716,0.0073631075210869,0.0070901336148381
1768731349371,-0.1218719482421875,-0.9683074951171876,0.15435791015625,0.0169150680303573,0.0072070462629199,8.52211542223813e-06
1768731349381,-0.1174468994140625,-0.97137451171875,0.160919189453125,0.0183222815394401,0.0002458097587805,0.0033214944414794
1768731349391,-0.111572265625,-0.9775238037109376,0.171142578125,0.0138194095343351,-0.0080043971538543,0.0073191653937101
1768731349401,-0.1133575439453125,-0.9776763916015624,0.1722869873046875,0.0107530457898974,-0.0026434536557644,0.0084291715174913
1768731349411,-0.1144866943359375,-0.9720001220703124,0.167572021484375,0.0095961680635809,-0.0049444246105849,0.0071037160232663
1768731349421,-0.116241455078125,-0.97296142578125,0.1699676513671875,0.0048919604159891,-0.0013491574209183,0.0073199644684791
1768731349431,-0.1178436279296875,-0.9745941162109376,0.1726837158203125,-0.0035001926589757,-0.0012825783342123,0.0022194783668965
1768731349441,-0.1227569580078125,-0.978363037109375,0.177032470703125,-0.0115322861820459,0.003188336500898,-0.0056807887740433
1768731349451,-0.117919921875,-0.9817047119140624,0.174774169921875,-0.0172160044312477,0.0014037522487342,-0.0038701056037098
1768731349461,-0.113677978515625,-0.98004150390625,0.1693267822265625,-0.0157001335173845,0.0001283643650822,-0.0018753979820758
1768731349471,-0.1081390380859375,-0.978179931640625,0.1649627685546875,-0.0135323200374841,-3.834952076431364e-05,0.0037571876309812
1768731349481,-0.1065521240234375,-0.977752685546875,0.1622314453125,-0.0059601543471217,0.0011307782260701,0.0117860855534672
1768731349491,-0.111083984375,-0.9766845703125,0.1602783203125,0.0004697816038969,0.0057521616108715,0.0158708412200212
1768731349502,-0.1158294677734375,-0.9760589599609376,0.1616058349609375,0.0038248319178819,0.0066381953656673,0.0149432634934782
1768731349511,-0.1183624267578125,-0.9770660400390624,0.1624298095703125,0.0088619347661733,0.007807589136064,0.0145973181352019
1768731349522,-0.116943359375,-0.9761810302734376,0.1637115478515625,0.0117440074682235,0.0043398872949182,0.0139879873022437
1768731349532,-0.1159515380859375,-0.9766998291015624,0.165771484375,0.0152543205767869,-0.0017699368763715,0.0096254628151655
1768731349542,-0.11895751953125,-0.9788360595703124,0.1686248779296875,0.015272962860763,-0.0058751995675265,0.0054554855450987
1768731349552,-0.1204833984375,-0.9788818359375,0.1703643798828125,0.0131725268438458,-0.0074219633825123,0.0007984156836755
1768731349562,-0.118896484375,-0.9770355224609376,0.1722259521484375,0.0094054862856864,-0.0022240057587623,0.0037033918779343
1768731349572,-0.1167449951171875,-0.9745635986328124,0.1729888916015625,0.0034671693574637,-0.0022186795249581,0.004161455668509
1768731349582,-0.1146240234375,-0.976409912109375,0.176513671875,-0.0029031119775027,0.0038045919500291,0.0067806742154061
1768731349592,-0.114501953125,-0.97479248046875,0.1767578125,-0.0115487975999712,0.0092425001785159,0.0083988113328814
1768731349602,-0.117950439453125,-0.9755859375,0.17840576171875,-0.0179299972951412,0.004668787587434,0.0063556339591741
1768731349612,-0.1138916015625,-0.9775390625,0.177490234375,-0.0217737387865781,0.0011307782260701,0.0049857036210596
1768731349622,-0.111053466796875,-0.9763946533203124,0.1730499267578125,-0.0215923767536878,-0.004129497334361,0.0044637243263423
1768731349632,-0.116180419921875,-0.9752960205078124,0.17010498046875,-0.0227801464498043,-0.0052171326242387,-0.0015611450653523
1768731349642,-0.1174774169921875,-0.9752349853515624,0.168365478515625,-0.0253690052777528,0.0020937772933393,-0.0006713828770443
1768731349652,-0.1152191162109375,-0.9739990234375,0.1676483154296875,-0.0245586056262254,0.0037683728151023,-0.0019196064677089
1768731349662,-0.1191558837890625,-0.9756927490234376,0.1669158935546875,-0.0230107773095369,0.0016820525052025,-0.0053428336977958
1768731349672,-0.12359619140625,-0.9748687744140624,0.1669464111328125,-0.02036545984447,0.0052805156446993,-0.007726895622909
1768731349682,-0.1171722412109375,-0.9770965576171876,0.165252685546875,-0.0162133239209651,-0.0038075214251875,-0.0055316518992185
1768731349692,-0.114654541015625,-0.976531982421875,0.164306640625,-0.0108222877606749,0.0013222594279795,0.0007984156836755
1768731349702,-0.110198974609375,-0.9734649658203124,0.1580810546875,-0.0041241711005568,0.0015917713753879,0.0059833237901329
1768731349712,-0.10968017578125,-0.976715087890625,0.1591796875,4.314320904086344e-05,-0.0007632619817741,0.0112190982326865
1768731349722,-0.1095428466796875,-0.9794921875,0.1639556884765625,-0.0041191112250089,0.0048341699875891,0.0128478882834315
1768731349733,-0.1157989501953125,-0.9811553955078124,0.1655731201171875,-0.0045683863572776,0.0035047200508415,0.0126188565045595
1768731349743,-0.1157379150390625,-0.9808349609375,0.16387939453125,0.0025659557431936,0.0042871567420661,0.0111165670678019
1768731349753,-0.1246337890625,-0.9693450927734376,0.1597137451171875,0.0038575888611376,0.0065646921284496,-0.0011377023765817
1768731349763,-0.1321258544921875,-0.9722747802734376,0.160491943359375,0.0103988451883196,0.0024722123052924,-0.0045587993226945
1768731349773,-0.12066650390625,-0.976165771484375,0.164031982421875,0.0086123961955308,0.0014088122406974,0.0010900318156927
1768731349783,-0.1121978759765625,-0.9862823486328124,0.1710052490234375,-0.0047550741583108,-0.0051225903443992,0.0018679412314668
1768731349793,-0.115081787109375,-0.9800262451171876,0.1736297607421875,-0.0025808694772422,0.004447478801012,-0.0040389499627053
1768731349803,-0.1189727783203125,-0.9727783203125,0.1609649658203125,0.0072840116918087,0.00096699380083,-0.0004585963324643
1768731349813,-0.1088104248046875,-0.9776763916015624,0.16314697265625,0.0125256450846791,-0.003262638580054,0.0066033080220222
1768731349823,-0.1103057861328125,-0.9788360595703124,0.1667633056640625,0.0188826117664575,0.0014093448407948,0.002453037770465
1768731349833,-0.1214141845703125,-0.9673004150390624,0.16558837890625,0.0235466044396162,0.0082483422011137,-0.0063998424448072
1768731349843,-0.130157470703125,-0.959197998046875,0.1664276123046875,0.0235711056739091,0.0066155586391687,-0.0121405525133013
1768731349853,-0.130096435546875,-0.9622039794921876,0.1731719970703125,0.0146127650514245,-0.0004000068001914,-0.0192637089639902
1768731349863,-0.1247100830078125,-0.970306396484375,0.179412841796875,-0.0002143844612874,9.53411654336378e-05,-0.0206631999462842
1768731349873,-0.117401123046875,-0.9794921875,0.1796417236328125,-0.0111804828047752,0.0035244273021817,-0.0170447640120983
1768731349883,-0.1099395751953125,-0.98187255859375,0.175872802734375,-0.0166253149509429,0.0057793259620666,-0.0094994958490133
1768731349893,-0.1046600341796875,-0.981719970703125,0.168548583984375,-0.0105293402448296,0.0102015044540166,-0.0016887104138731
1768731349904,-0.10650634765625,-0.977691650390625,0.1613311767578125,-0.0007550061563961,0.0110473250970244,0.0010527475969865
1768731349913,-0.114410400390625,-0.976898193359375,0.1613006591796875,0.0062251389026641,0.010041182860732,-0.0015270565636456
1768731349923,-0.1217193603515625,-0.9771881103515624,0.1637420654296875,0.011697668582201,0.0069548450410366,-0.0061529674567282
1768731349933,-0.1223602294921875,-0.9801177978515624,0.1662445068359375,0.0155528606846928,0.0067172911949455,-0.0050629354082047
1768731349943,-0.1207275390625,-0.979034423828125,0.165985107421875,0.018047709017992,0.008088020607829,-0.0035523904953151
1768731349954,-0.11663818359375,-0.976165771484375,0.1624755859375,0.0253543592989444,0.013360546901822,0.0028091021813452
1768731349964,-0.11114501953125,-0.9769134521484376,0.1632537841796875,0.0304412618279457,0.0105328019708395,0.0036373452749103
1768731349974,-0.11224365234375,-0.9772491455078124,0.167449951171875,0.0306769516319036,0.0083106607198715,0.006484530866146
1768731349984,-0.116607666015625,-0.9778594970703124,0.1728057861328125,0.0229418016970157,0.0052901031449437,0.0034136399626731
1768731349994,-0.11761474609375,-0.9779205322265624,0.1793670654296875,0.0134614799171686,0.0050629354082047,0.0037004624027758
1768731350004,-0.11517333984375,-0.9790191650390624,0.182464599609375,0.0019995013717561,0.000744087214116,0.0020016317721456
1768731350014,-0.1140289306640625,-0.9788970947265624,0.1863861083984375,-0.0134660080075263,0.0045574675314128,-0.0010735202813521
1768731350024,-0.1130828857421875,-0.980712890625,0.1855621337890625,-0.025219602510333,0.0045055360533297,0.0030708911363035
1768731350034,-0.1141357421875,-0.981048583984375,0.184967041015625,-0.0360757112503051,0.0095146754756569,0.0031875374261289
1768731350044,-0.1126708984375,-0.9752960205078124,0.1787261962890625,-0.0420438572764396,0.0186628997325897,0.0009547432418912
1768731350054,-0.1146392822265625,-0.9742431640625,0.170196533203125,-0.0390640459954738,0.0126721197739243,0.0044293696992099
1768731350064,-0.114776611328125,-0.977325439453125,0.165924072265625,-0.0325848422944545,0.0068983859382569,0.0066563049331307
1768731350074,-0.11529541015625,-0.974761962890625,0.157745361328125,-0.0177361201494932,0.0093506248667836,0.0007696535321883
1768731350084,-0.1202850341796875,-0.971282958984375,0.15045166015625,-0.0004436826275195,0.0071412664838135,-0.0025475798174738
1768731350094,-0.1195220947265625,-0.97021484375,0.151885986328125,0.0093144057318568,0.0013078784104436,-0.0011302455095574
1768731350104,-0.1159820556640625,-0.974029541015625,0.1575927734375,0.0122651886194944,-0.002487126039341,0.0014551512431353
1768731350114,-0.1197662353515625,-0.97601318359375,0.1613311767578125,0.0151174338534474,-1.2250540748937055e-05,-0.0013536848127841
1768731350124,-0.1192779541015625,-0.9741668701171876,0.1652069091796875,0.0143531067296862,0.0054128747433424,-0.0046181874349713
1768731350134,-0.1164398193359375,-0.9741668701171876,0.1684112548828125,0.0152255585417151,0.0023782027419656,-0.0022335932590067
1768731350144,-0.1132049560546875,-0.976104736328125,0.1713714599609375,0.0131152691319584,-0.0012865731259807,-0.0024969798978418
1768731350154,-0.1158599853515625,-0.9776611328125,0.1738433837890625,0.0076738987118005,-0.000899615813978,-0.0063681509345769
1768731350165,-0.1192779541015625,-0.9781036376953124,0.1765594482421875,-0.0007267766632139,0.0036216326989233,-0.0075151743367314
1768731350174,-0.1158294677734375,-0.977447509765625,0.174530029296875,-0.0024381240364164,0.0087620662525296,-0.0023473100736737
1768731350185,-0.11328125,-0.9752960205078124,0.1712646484375,-0.0020242687314748,0.0067910607904195,0.0024948492646217
1768731350195,-0.11358642578125,-0.9776611328125,0.1716461181640625,-0.0011121360585093,0.0048826392740011,0.004365986213088
1768731350205,-0.1160888671875,-0.9793548583984376,0.171051025390625,0.0010817759903147,0.0069580408744513,0.0027273432351648
1768731350215,-0.1167144775390625,-0.9771270751953124,0.1706085205078125,0.00192306865938,0.0022058964241296,0.0015875103417783
1768731350225,-0.115509033203125,-0.9770355224609376,0.170135498046875,0.0018117484869435,-0.0040107206441462,0.0016117451013997
1768731350235,-0.116790771484375,-0.9770965576171876,0.169708251953125,0.0012125372886657,-0.001831455854699,-7.004113285802305e-05
1768731350245,-0.11859130859375,-0.9766998291015624,0.1722564697265625,0.0015547533985227,-0.0019995013717561,0.002478603972122
1768731350255,-0.11761474609375,-0.9750213623046876,0.172271728515625,0.0026772757992148,0.0040807616896927,0.0041025998070836
1768731350265,-0.1183319091796875,-0.9752349853515624,0.1725921630859375,-0.0004852279380429,0.0043020704761147,0.0028557076584547
1768731350275,-0.1188812255859375,-0.975372314453125,0.17559814453125,-0.0034360103309154,0.0032421322539448,0.0011568771442398
1768731350285,-0.1173858642578125,-0.9759368896484376,0.174346923828125,-0.0081492727622389,0.0009629990672692,-0.0005922870477661
1768731350295,-0.1124420166015625,-0.9763031005859376,0.1745452880859375,-0.0102664856240153,-0.0037404096219688,-0.0013201289111748
1768731350305,-0.1131134033203125,-0.9753265380859376,0.171875,-0.0109882028773427,-0.0067748152650892,-0.0004415521107148
1768731350315,-0.1168670654296875,-0.9733123779296876,0.1712493896484375,-0.0134015595540404,-0.0042631882242858,0.0034961977507919
1768731350325,-0.1164398193359375,-0.974456787109375,0.172027587890625,-0.013399695046246,0.0009768474847078,0.0024817998055368
1768731350336,-0.1180572509765625,-0.97735595703125,0.1716156005859375,-0.0152921369299292,0.0078933434560894,0.0031393342651426
1768731350345,-0.1172027587890625,-0.97607421875,0.1700592041015625,-0.0138630848377943,0.0069766831584274,0.0015004249289631
1768731350355,-0.116943359375,-0.975128173828125,0.1684417724609375,-0.0089250514283776,0.0014274542918428,0.0006181196658872
1768731350365,-0.11651611328125,-0.975616455078125,0.1666412353515625,-0.0071737570688128,-0.0006844323943369,-0.0025619608350098
1768731350376,-0.11639404296875,-0.9755859375,0.168426513671875,-0.0052653355523943,-0.0061899852007627,-0.0059811933897435
1768731350386,-0.119384765625,-0.9760589599609376,0.169647216796875,-0.0020740698091685,-0.0060791978612542,-0.0094209322705864
1768731350396,-0.1200103759765625,-0.974334716796875,0.1681976318359375,-0.0045723812654614,-0.0006940197781659,-0.0080632530152797
1768731350406,-0.1195220947265625,-0.97589111328125,0.170379638671875,-0.0049691922031342,-0.0003480751474853,-0.0065676216036081
1768731350416,-0.1152801513671875,-0.978973388671875,0.170440673828125,-0.0037507959641516,-0.0043076630681753,-0.0055987634696066
1768731350426,-0.113433837890625,-0.977142333984375,0.1685333251953125,-0.0049116681329905,0.001414404832758,-0.0027742148377001
1768731350436,-0.1145782470703125,-0.9773406982421876,0.167999267578125,-0.0043739755637943,0.0020242687314748,0.0002551308425609
1768731350446,-0.1139373779296875,-0.9817657470703124,0.1701507568359375,-0.0060770674608647,-0.0062600262463092,0.001701493631117
1768731350456,-0.1107025146484375,-0.982513427734375,0.17047119140625,-0.0066477828659117,-0.0022104235831648,0.0045401570387184
1768731350466,-0.1098480224609375,-0.9808349609375,0.168304443359375,-0.0040405481122434,-0.0019595539197325,0.0090480893850326
1768731350476,-0.115478515625,-0.9755096435546876,0.1644439697265625,0.0064405887387692,0.0044900896027684,-0.0004098604840692
1768731350486,-0.128509521484375,-0.9635009765625,0.1583251953125,0.0154010606929659,-0.0009387642494402,-0.0111511880531907
1768731350496,-0.12408447265625,-0.9703216552734376,0.162017822265625,0.0254491679370403,-0.00458729499951,-0.0060741379857063
1768731350506,-0.113128662109375,-0.9760894775390624,0.16644287109375,0.0225801430642604,-0.0118428105488419,-0.0023180153220891
1768731350516,-0.1132049560546875,-0.983551025390625,0.1762237548828125,0.0134526919573545,-0.0086486153304576,-0.0058224690146744
1768731350526,-0.1152496337890625,-0.97509765625,0.1767120361328125,0.0106824720278382,0.0003707120195031,-0.0052578789182007
1768731350536,-0.1129608154296875,-0.9792022705078124,0.1729888916015625,0.0099170794710516,-0.0070453924126923,-0.0021718079224228
1768731350546,-0.1073150634765625,-0.980804443359375,0.1787872314453125,0.0059636165387928,-0.0041300300508737,4.793690095539205e-05
1768731350556,-0.113006591796875,-0.973968505859375,0.18182373046875,0.0061124870553612,-0.0022668826859444,-0.0016045545926317
1768731350566,-0.125823974609375,-0.9625244140625,0.1779937744140625,0.0045081991702318,-0.0008639294537715,-0.007807589136064
1768731350576,-0.1270904541015625,-0.9589996337890624,0.1753082275390625,-0.0027089675422757,-0.0052693304605782,-0.0138540305197238
1768731350587,-0.1228485107421875,-0.966796875,0.1793060302734375,-0.0131293842568993,-0.0088781798258423,-0.0185710210353136
1768731350597,-0.1164093017578125,-0.9769439697265624,0.182281494140625,-0.0238214433193206,-0.0076177059672772,-0.0181566327810287
1768731350607,-0.1154327392578125,-0.9806671142578124,0.17706298828125,-0.0265210904181003,-0.0046421559527516,-0.0156314242631196
1768731350617,-0.10943603515625,-0.980712890625,0.1692657470703125,-0.0234960056841373,-0.007571633439511,-0.0105589013546705
1768731350627,-0.1063079833984375,-0.9812774658203124,0.164794921875,-0.0170341115444898,-0.0012341088149696,-0.0023800670169293
1768731350637,-0.10894775390625,-0.9806060791015624,0.1592254638671875,-0.0056275255046784,0.0046746465377509,0.0023691481910645
1768731350647,-0.1126251220703125,-0.9803466796875,0.1585235595703125,0.0027595674619078,0.0021949773654341,0.0008111988427117
1768731350657,-0.117950439453125,-0.9785614013671876,0.161773681640625,0.0085735144093632,0.0023334617726504,-7.084008393576369e-05
1768731350667,-0.117462158203125,-0.97796630859375,0.1631317138671875,0.0153880110010504,-0.0006133259739726,0.0009251821320503
1768731350677,-0.1190643310546875,-0.98077392578125,0.1657257080078125,0.0197217725217342,-0.0041255028918385,-0.0015595471486449
1768731350687,-0.1219024658203125,-0.979156494140625,0.1714324951171875,0.0196655802428722,-0.0001203748834086,-0.0018298579379916
1768731350697,-0.118133544921875,-0.97735595703125,0.1719207763671875,0.0178900510072708,-0.0037966023664921,-0.0033241575583815
1768731350707,-0.1182708740234375,-0.9796295166015624,0.1760406494140625,0.0141829308122396,-0.0047361655160784,-0.0055343150161206
1768731350717,-0.1169891357421875,-0.9796600341796876,0.1798858642578125,0.0070954598486423,0.0017494305502623,-0.0052823801524937
1768731350727,-0.109771728515625,-0.9792327880859376,0.17999267578125,0.0015712650492787,0.0025145567487925,-0.0030692932195961
1768731350737,-0.108123779296875,-0.97760009765625,0.1817626953125,-0.0064986455254256,0.0006000102148391,-0.0050347060896456
1768731350747,-0.112701416015625,-0.976348876953125,0.182647705078125,-0.0150798829272389,0.0020303940400481,-0.0013267868198454
1768731350757,-0.1114654541015625,-0.9801177978515624,0.1829376220703125,-0.0247988235205411,-0.0004487426485866,-0.0002591255761217
1768731350767,-0.1127471923828125,-0.980255126953125,0.1819915771484375,-0.0317033343017101,-0.0018290589796379,-0.0069111692719161
1768731350777,-0.1176300048828125,-0.972747802734375,0.1741485595703125,-0.0329619459807872,0.003067162586376,-0.0066808057017624
1768731350788,-0.111663818359375,-0.9734039306640624,0.1690216064453125,-0.0307192970067262,0.004660265520215,0.0005225121858529
1768731350798,-0.1065216064453125,-0.976837158203125,0.16461181640625,-0.0215582884848117,0.002624811604619,0.0021062940359115
1768731350808,-0.1111602783203125,-0.97412109375,0.1583404541015625,-0.0120153836905956,0.0011012171162292,0.00067857344402
1768731350818,-0.1168212890625,-0.9740447998046876,0.1584014892578125,-0.0045071337372064,0.0021015002857893,0.0041553303599357
1768731350828,-0.117828369140625,-0.9753875732421876,0.163787841796875,-0.0008868326549418,0.0016258598770946,0.0013827132061123
1768731350838,-0.1177520751953125,-0.9767608642578124,0.1673431396484375,0.0010444917716085,-0.0004074636381119,-0.0016367788193747
1768731350848,-0.1129302978515625,-0.9739990234375,0.1661376953125,0.0047710528597235,0.0033169670496135,0.0007355650886893
1768731350858,-0.115142822265625,-0.9726104736328124,0.1671142578125,0.0065953182056546,0.001849565305747,-0.001471662777476
1768731350868,-0.1169891357421875,-0.975372314453125,0.1715545654296875,0.0066653597168624,0.0033742249943315,-0.0013129384024068
1768731350878,-0.1151123046875,-0.9788970947265624,0.1741485595703125,0.0020711403340101,0.004850149154663,-0.001628789352253
1768731350888,-0.1154327392578125,-0.9785003662109376,0.1776885986328125,-0.0030650321859866,0.0007267766632139,-0.0045729139819741
1768731350898,-0.115142822265625,-0.9753265380859376,0.175384521484375,-0.0021981731988489,0.0008588694618083,-0.0024253407027572
1768731350908,-0.110260009765625,-0.973358154296875,0.1690826416015625,0.0022719427943229,0.0022879217285662,0.0014839133946225
1768731350918,-0.1116180419921875,-0.9758758544921876,0.171295166015625,-3.914846820407547e-05,0.0044948831200599,0.0014487595763057
1768731350928,-0.1201934814453125,-0.9782867431640624,0.17657470703125,-0.001757686259225,-0.0014442323008552,-0.0032442628871649
1768731350938,-0.1215362548828125,-0.9784698486328124,0.1779937744140625,-0.004293015692383,-0.0055534895509481,-0.0063135558739304
1768731350948,-0.1165771484375,-0.978240966796875,0.173980712890625,-0.004482100252062,0.0001211738272104,-0.0018050905782729
1768731350958,-0.1124114990234375,-0.977752685546875,0.1722412109375,-0.005658418405801,-0.0003792341449297,0.0002141181466868
1768731350968,-0.11224365234375,-0.9754486083984376,0.1724700927734375,-0.0026378610637038,0.001553688198328,3.1691615731688216e-05
1768731350978,-0.1131439208984375,-0.9753875732421876,0.17083740234375,-0.003108707955107,0.0041816956363618,0.0029406624380499
1768731350988,-0.1116790771484375,-0.9763641357421876,0.17181396484375,-0.0025598304346203,-0.0009805759182199,0.0025055019650608
1768731350998,-0.1170501708984375,-0.9744110107421876,0.173675537109375,-0.0048879659734666,0.003532683243975,-0.0006844323943369
1768731351008,-0.1175537109375,-0.9738006591796876,0.174468994140625,-0.006197974551469,0.0094164051115512,0.0005616606795229
1768731351018,-0.113555908203125,-0.9739837646484376,0.172698974609375,-0.0058815912343561,0.0091444961726665,0.0044703823514282
1768731351029,-0.1094818115234375,-0.9753875732421876,0.1705780029296875,-0.0013611416798084,0.0081495391204953,0.0098398476839065
1768731351039,-0.110870361328125,-0.9744720458984376,0.1675872802734375,0.000761397765018,0.0094712655991315,0.0075521920807659
1768731351049,-0.1173858642578125,-0.973541259765625,0.16937255859375,0.0015036207623779,0.014549913816154,0.0040426785126328
1768731351059,-0.1198883056640625,-0.9770965576171876,0.1733245849609375,-0.003426689421758,0.0121938157826662,0.0007733819657005
1768731351069,-0.118316650390625,-0.977020263671875,0.1760101318359375,-0.0066563049331307,0.0128332404419779,0.0016476977616548
1768731351079,-0.1140289306640625,-0.973602294921875,0.172332763671875,-0.0071050473488867,0.0153467319905757,0.0062709455378353
1768731351089,-0.1093292236328125,-0.97479248046875,0.1686859130859375,-0.003516171593219,0.0091519532725214,0.0061657503247261
1768731351099,-0.113067626953125,-0.975616455078125,0.17083740234375,-0.0029073730111122,0.003123088972643,0.0033518546260893
1768731351109,-0.1179962158203125,-0.9761810302734376,0.1714019775390625,-0.0018844527658075,0.003778759157285,0.002567553659901
1768731351119,-0.1185760498046875,-0.974853515625,0.1729736328125,-0.0017763284267857,0.0063194148242473,0.0011627360945567
1768731351129,-0.1204833984375,-0.974334716796875,0.1732177734375,0.0003672499151434,0.0075969332829117,-0.0004010720585938
1768731351139,-0.1165618896484375,-0.9758148193359376,0.1724090576171875,-0.0017188041238114,0.0073026539757847,0.0018101505702361
1768731351149,-0.1156768798828125,-0.97698974609375,0.1724853515625,-0.0020687435753643,0.0045348308049142,0.000163784410688
1768731351159,-0.1147918701171875,-0.9776153564453124,0.1726837158203125,-0.0035148400347679,0.0079636508598923,0.0004700479330495
1768731351169,-0.1147613525390625,-0.976837158203125,0.172760009765625,-0.0047183223068714,0.0041944785043597,0.0022197447251528
1768731351179,-0.1161346435546875,-0.97808837890625,0.173095703125,-0.0065614962950348,0.0039302930235862,0.0028628981672227
1768731351189,-0.111297607421875,-0.9763946533203124,0.1713409423828125,-0.0074706994928419,0.0076728332787752,0.0090379696339368
1768731351199,-0.10711669921875,-0.97998046875,0.169952392578125,-0.0042464104481041,0.005388640332967,0.0124212494120001
1768731351210,-0.1135711669921875,-0.9786529541015624,0.16729736328125,0.0035135084763169,0.0037249634042382,0.0081719094887375
1768731351219,-0.119354248046875,-0.966522216796875,0.160064697265625,0.0166828390210866,0.0072200959548354,-0.0029590383637696
1768731351229,-0.1298828125,-0.96429443359375,0.1579132080078125,0.0282814390957355,5.0333743274677545e-05,-0.0105562377721071
1768731351240,-0.1238555908203125,-0.9720458984375,0.1655731201171875,0.0337547659873962,-0.0039931437931954,-0.0073170349933207
1768731351250,-0.1162261962890625,-0.9810028076171876,0.17529296875,0.0219961125403642,-0.0106790093705058,-0.0001065264441422
1768731351260,-0.112030029296875,-0.9810791015625,0.182891845703125,0.0124540068209171,-0.0063788034021854,-0.0066493805497884
1768731351270,-0.11712646484375,-0.9781646728515624,0.17401123046875,0.0166761819273233,-0.0028096348978579,-0.0045811696909368
1768731351280,-0.1107177734375,-0.98101806640625,0.176513671875,0.0181377250701189,0.0024921861477196,0.0001022653887048
1768731351290,-0.108184814453125,-0.97845458984375,0.1783905029296875,0.0202818363904953,0.0130329774692654,0.0040522660128772
1768731351300,-0.113433837890625,-0.965606689453125,0.17559814453125,0.0209095422178506,0.0196578577160835,-0.00154543237295
1768731351310,-0.122467041015625,-0.9600830078125,0.1753387451171875,0.0202208496630191,0.0119930133223533,-0.0057492321357131
1768731351320,-0.1198883056640625,-0.96612548828125,0.1795196533203125,0.0082414178177714,0.0041574607603251,-0.0070832096971571
1768731351330,-0.1157989501953125,-0.9737701416015624,0.183258056640625,-0.0038685076870024,-0.0039566583000123,-0.0069649652577936
1768731351340,-0.117584228515625,-0.979034423828125,0.1834869384765625,-0.0095554217696189,-0.0081812310963869,-0.0089543461799621
1768731351350,-0.1173553466796875,-0.9806671142578124,0.178955078125,-0.0117719704285264,-0.0021742046810686,-0.0068461881019175
1768731351360,-0.11260986328125,-0.981903076171875,0.1726226806640625,-0.0093748597428202,-0.0046022087335586,-0.0034493261482566
1768731351370,-0.1143798828125,-0.9808807373046876,0.170684814453125,-0.0038589204195886,-0.0025989788118749,-0.003312173532322
1768731351380,-0.1143341064453125,-0.9771270751953124,0.167022705078125,0.0028847360517829,0.0010122675448656,0.0009643306257203
1768731351390,-0.1131134033203125,-0.9771575927734376,0.1650848388671875,0.0109738213941454,-0.0010689928894862,-0.0015891082584857
1768731351400,-0.1129302978515625,-0.9750518798828124,0.1628570556640625,0.0200160518288612,0.011550928466022,0.0042818305082619
1768731351410,-0.11614990234375,-0.975341796875,0.1632080078125,0.0260955169796943,0.0186818093061447,0.0061777345836162
1768731351420,-0.116668701171875,-0.9742431640625,0.165191650390625,0.0360283069312572,0.0213926397264003,0.0040416130796074
1768731351430,-0.1185760498046875,-0.9748077392578124,0.169097900390625,0.0402853712439537,0.0173254609107971,0.0028194885235279
1768731351441,-0.1184844970703125,-0.9769134521484376,0.1744537353515625,0.041041973978281,0.0133943688124418,0.0048831719905138
1768731351450,-0.114471435546875,-0.9759521484375,0.17926025390625,0.0369372442364692,0.0120769031345844,0.0069348714314401
1768731351461,-0.1128082275390625,-0.97674560546875,0.1813812255859375,0.0342743508517742,0.013610883615911,0.0076707028783857
1768731351471,-0.1115875244140625,-0.97589111328125,0.1826019287109375,0.0296604242175817,0.0157288964837789,0.0093682017177343
1768731351481,-0.1151123046875,-0.9765777587890624,0.18505859375,0.0205849036574363,0.0179952457547187,0.0091237239539623
1768731351491,-0.1150054931640625,-0.979736328125,0.1900177001953125,0.0110593093559145,0.0153264915570616,0.0072382055222988
1768731351501,-0.1119232177734375,-0.980682373046875,0.1903228759765625,0.0033976607955992,0.0117903463542461,0.0031688953749835
1768731351511,-0.1178741455078125,-0.972564697265625,0.18414306640625,-0.0044301683083176,0.0084363613277673,0.0020911141764372
1768731351521,-0.1152191162109375,-0.9748992919921876,0.1839141845703125,-0.0126287098973989,0.0096989665180444,0.0085817705839872
1768731351531,-0.1147003173828125,-0.9768829345703124,0.182464599609375,-0.0158466082066297,0.0110459933057427,0.0012636699248105
1768731351541,-0.1220855712890625,-0.9734649658203124,0.1794586181640625,-0.0127877006307244,0.0111469272524118,-0.0047939564101397
1768731351551,-0.122467041015625,-0.9711456298828124,0.1736602783203125,-0.0053593451157212,0.0152300857007503,-0.0037705034483224
1768731351561,-0.11529541015625,-0.9730987548828124,0.1710052490234375,0.0003246393462177,0.0137536292895674,0.0016982977977022
1768731351571,-0.112152099609375,-0.97283935546875,0.170501708984375,0.0073231603018939,0.0153800211846828,0.0019401127938181
1768731351581,-0.1152801513671875,-0.97222900390625,0.169769287109375,0.0126934247091412,0.0117879500612616,0.0009920274605974
1768731351591,-0.118621826171875,-0.9730987548828124,0.17303466796875,0.0130881052464246,0.0093522230163216,0.0008133294177241
1768731351601,-0.1202545166015625,-0.9727935791015624,0.1758880615234375,0.0139549644663929,0.0102558331564068,0.0004154531343374
1768731351611,-0.1173248291015625,-0.9748077392578124,0.175994873046875,0.0136273950338363,0.0062155514024198,0.0001017327522276
1768731351621,-0.1173248291015625,-0.976806640625,0.176605224609375,0.0144633613526821,0.0065015750005841,-0.004407531581819
1768731351631,-0.1183319091796875,-0.9754180908203124,0.1772308349609375,0.0163179859519004,0.0066027753055095,-0.0072406022809445
1768731351641,-0.114837646484375,-0.975372314453125,0.1761016845703125,0.0199132543057203,0.0037316211964935,-0.0023116238880902
1768731351651,-0.113311767578125,-0.97314453125,0.1771240234375,0.0172855127602815,0.0072592445649206,-6.711165769957006e-05
1768731351661,-0.1169586181640625,-0.97412109375,0.18017578125,0.0125647941604256,0.0064043696038424,0.0008471515611745
1768731351672,-0.11798095703125,-0.9776458740234376,0.184844970703125,0.0075833513401448,0.0099112205207347,0.0048608016222715
1768731351682,-0.114288330078125,-0.978668212890625,0.185821533203125,0.0012785836588591,0.0128617361187934,0.0072267539799213
1768731351692,-0.115631103515625,-0.97802734375,0.18719482421875,-0.0026059031952172,0.0106164254248142,0.002258094260469
1768731351702,-0.118988037109375,-0.9761810302734376,0.1840362548828125,-0.0051196608692407,0.0068009146489202,-0.0015763250412419
1768731351712,-0.1179351806640625,-0.976348876953125,0.182159423828125,-0.00374600244686,0.001938781235367,-0.0014080132823437
1768731351722,-0.1162261962890625,-0.9753265380859376,0.1803436279296875,-0.0056594833731651,0.0022972426377236,-0.0010410296963527
1768731351732,-0.1187591552734375,-0.973968505859375,0.1801605224609375,-0.0038112497422844,0.0027832696214318,-0.0013731258222833
1768731351742,-0.1143646240234375,-0.9731903076171876,0.17669677734375,-0.0034013893455266,0.0058837216347455,0.0024527714122086
1768731351752,-0.1162109375,-0.9716033935546876,0.1751556396484375,-0.0021196098532527,0.0059537626802921,0.0002894856152124
1768731351762,-0.1174468994140625,-0.9739837646484376,0.176910400390625,-0.0030360035598278,0.0054416372440755,0.0023537017405033
1768731351772,-0.11444091796875,-0.9747467041015624,0.1780242919921875,-0.0008466189028695,0.0097072217613458,0.0026085663121193
1768731351782,-0.1156158447265625,-0.9737701416015624,0.17669677734375,-0.000205596035812,0.0065276739187538,0.0009922938188537
1768731351792,-0.1190185546875,-0.973876953125,0.1784210205078125,-0.0005728459218516,-4.793690095539205e-05,-0.001987517112866
1768731351802,-0.1193389892578125,-0.973907470703125,0.1793212890625,0.0005680522299371,0.0042850263416767,0.0024876587558537
1768731351812,-0.11767578125,-0.9716339111328124,0.17852783203125,0.000957406417001,0.0065854648128151,0.0021797972731292
1768731351822,-0.1175537109375,-0.97259521484375,0.1795806884765625,0.0042570629157125,0.007652326952666,0.0014772554859519
1768731351832,-0.1143341064453125,-0.9753570556640624,0.17913818359375,0.0043233758769929,0.0090195937082171,0.0038522623945027
1768731351842,-0.1152801513671875,-0.9763336181640624,0.1798095703125,0.0032687638886272,0.009098956361413,0.0048634647391736
1768731351852,-0.118560791015625,-0.9758148193359376,0.1816253662109375,0.0027515781112015,0.0136891808360815,0.0004607268783729
1768731351862,-0.1190338134765625,-0.972412109375,0.1802520751953125,0.0025739450938999,0.0120140518993139,-0.0009390306076966
1768731351873,-0.117828369140625,-0.9735870361328124,0.179718017578125,0.0025281386915594,0.0099738044664263,0.0008594020619057
1768731351882,-0.1150360107421875,-0.9741363525390624,0.1806182861328125,0.0004290352517273,0.0082475431263446,-0.0001544633414596
1768731351893,-0.117279052734375,-0.97576904296875,0.1824798583984375,-0.0021651498973369,0.0103051019832491,0.0055228634737432
1768731351903,-0.11767578125,-0.9772491455078124,0.1849517822265625,-0.0051172641105949,0.0103181516751647,0.0033388049341738
1768731351913,-0.115875244140625,-0.97381591796875,0.18231201171875,-0.006939931306988,0.009428123012185,0.0039856866933405
1768731351923,-0.122100830078125,-0.9738616943359376,0.1804046630859375,-0.0094675375148653,0.0096100168302655,-0.0017241304740309
1768731351933,-0.120697021484375,-0.97552490234375,0.1813812255859375,-0.0139605570584535,0.0080411480739712,-0.0013068130938336
1768731351943,-0.116424560546875,-0.978790283203125,0.1806640625,-0.0096299899742007,0.0029989855829626,0.0012748552253469
1768731351953,-0.108489990234375,-0.97833251953125,0.172882080078125,-0.0023052322212606,0.0010644654976204,0.0100297313183546
1768731351963,-0.1126708984375,-0.9701995849609376,0.1692047119140625,0.0092326467856764,0.0064618941396474,0.0019904465880244
1768731351973,-0.12628173828125,-0.96710205078125,0.1699981689453125,0.0165353007614612,0.0067148944362998,0.0014146711910143
