timestamp_ms,acc_x,acc_y,acc_z,gyro_x,gyro_y,gyro_z
1768726649091,-0.1364593505859375,-0.9858245849609376,-0.121429443359375,-0.0717873722314834,0.0035473306197673,0.0227820109575986
1768726649098,-0.1323699951171875,-0.9838714599609376,-0.134918212890625,-0.0519689247012138,0.0144817372784018,0.0240528713911771
1768726649109,-0.13104248046875,-0.9766998291015624,-0.1345977783203125,-0.0324570089578628,0.0069857379421591,0.0264941919595003
1768726649119,-0.133087158203125,-0.976287841796875,-0.126708984375,-0.0111647704616189,0.0066190203651785,0.0283938236534595
1768726649128,-0.1407318115234375,-0.979766845703125,-0.121795654296875,0.0096491649746894,0.0127594713121652,0.0253205373883247
1768726649139,-0.1401214599609375,-0.98248291015625,-0.119293212890625,0.0283211208879947,0.0058046258054673,0.0261090993881225
1768726649149,-0.140167236328125,-0.9853973388671876,-0.1175384521484375,0.0406510233879089,0.0045798378996551,0.0278912857174873
1768726649159,-0.1417236328125,-0.987579345703125,-0.1091156005859375,0.0433229729533195,0.0125898271799087,0.0211553517729043
1768726649169,-0.1495513916015625,-0.985076904296875,-0.0960693359375,0.0334666147828102,0.000280164531432,0.0192866120487451
1768726649179,-0.1443023681640625,-0.981689453125,-0.081451416015625,0.0190509222447872,-0.0267357397824525,0.0133616114035248
1768726649189,-0.1451416015625,-0.9850616455078124,-0.0792388916015625,-0.0053944992832839,-0.0448452346026897,0.0087199881672859
1768726649199,-0.142303466796875,-0.97357177734375,-0.073822021484375,-0.0380768105387687,-0.0505478605628013,0.0094291884452104
1768726649209,-0.139007568359375,-0.9688568115234376,-0.06689453125,-0.0642556846141815,-0.0508767627179622,0.0104944529011845
1768726649219,-0.1425628662109375,-0.9787750244140624,-0.072235107421875,-0.0914721265435218,-0.0411245338618755,0.0075833513401448
1768726649229,-0.1478424072265625,-0.985931396484375,-0.0754241943359375,-0.1052230894565582,-0.0146505814045667,0.0010623349808156
1768726649239,-0.14727783203125,-0.9830780029296876,-0.0836029052734375,-0.1124138906598091,0.0017454357584938,0.0018722022650763
1768726649249,-0.142486572265625,-0.9815521240234376,-0.0904083251953125,-0.1197628825902938,0.004334561061114,-0.0018130800453945
1768726649259,-0.1376190185546875,-0.9774932861328124,-0.0938262939453125,-0.1288527846336364,-0.0136652123183012,-0.0015571502735838
1768726649270,-0.137603759765625,-0.97723388671875,-0.0966949462890625,-0.1327420622110366,-0.0238451454788446,-0.0036179043818265
1768726649279,-0.1446380615234375,-0.983367919921875,-0.10040283203125,-0.1361485123634338,-0.0370807908475399,-0.0041827606037259
1768726649289,-0.1439208984375,-0.98577880859375,-0.1068267822265625,-0.1296392232179641,-0.0575373284518718,-0.00388422049582
1768726649299,-0.1421661376953125,-0.9863433837890624,-0.1173095703125,-0.1218460127711296,-0.0674085989594459,-0.0042442795820534
1768726649310,-0.14154052734375,-0.987274169921875,-0.1232757568359375,-0.1106066703796386,-0.0477331690490245,-0.0032423986122012
1768726649319,-0.1394195556640625,-0.98388671875,-0.1312103271484375,-0.097078613936901,-0.0283496156334877,0.0005278385360725
1768726649330,-0.137451171875,-0.98309326171875,-0.1381378173828125,-0.0834472253918647,-0.0086837690323591,0.0026666230987757
1768726649340,-0.1370849609375,-0.9830322265625,-0.1346893310546875,-0.0737610384821891,-0.0068568410351872,0.003892742563039
1768726649350,-0.141510009765625,-0.9852294921875,-0.130767822265625,-0.0632892251014709,-0.0216126181185245,0.0050472230650484
1768726649360,-0.1390228271484375,-0.9844512939453124,-0.1303863525390625,-0.0510048605501651,-0.0301126278936862,0.0079239690676331
1768726649370,-0.1376495361328125,-0.9838714599609376,-0.1338958740234375,-0.0364589430391788,-0.0199617240577936,0.0108222877606749
1768726649380,-0.1389923095703125,-0.9827423095703124,-0.136138916015625,-0.0246938951313495,-0.0122963469475507,0.0115959355607628
1768726649390,-0.137664794921875,-0.98297119140625,-0.1333465576171875,-0.0166724529117345,-0.0141999749466776,0.0093551520258188
1768726649400,-0.138275146484375,-0.980438232421875,-0.1275177001953125,-0.0140042323619127,-0.0212664064019918,0.0079210400581359
1768726649410,-0.1405487060546875,-0.9835052490234376,-0.123046875,-0.0117179090157151,-0.0286047458648681,0.0104023069143295
1768726649420,-0.14154052734375,-0.981597900390625,-0.1221923828125,-0.0085964174941182,-0.0340799391269683,0.010940265841782
1768726649430,-0.14007568359375,-0.975250244140625,-0.1215362548828125,-0.0098433094099164,-0.026723489165306,0.0182013735175132
1768726649440,-0.1411895751953125,-0.9724578857421876,-0.1223907470703125,-0.0112073803320527,-0.0066038402728736,0.0209660027176141
1768726649450,-0.147064208984375,-0.9778289794921876,-0.1213531494140625,-0.0176841877400875,0.0048775793984532,0.0158418137580156
1768726649460,-0.1496734619140625,-0.9811859130859376,-0.1162109375,-0.0285602714866399,0.000826911535114,0.0102334627881646
1768726649470,-0.146759033203125,-0.9775848388671876,-0.1092376708984375,-0.0365337766706943,-0.0189382713288068,0.0076544573530554
1768726649480,-0.143341064453125,-0.9803009033203124,-0.112030029296875,-0.0428705029189586,-0.0173084158450365,0.0017393104499205
1768726649490,-0.1467742919921875,-0.9830474853515624,-0.1173553466796875,-0.0453328602015972,-0.0036469327751547,0.0005885586142539
1768726649500,-0.1441802978515625,-0.977203369140625,-0.1195831298828125,-0.0431408137083053,0.0087399622425436,0.0025214808993041
1768726649510,-0.1424713134765625,-0.973480224609375,-0.1202392578125,-0.0435717105865478,0.0113948676735162,0.0201388243585824
1768726649520,-0.1361541748046875,-0.9440765380859376,-0.121673583984375,-0.0361353680491447,0.0031502533238381,0.0482961609959602
1768726649530,-0.12518310546875,-0.9535675048828124,-0.1269683837890625,-0.0238057300448417,-0.0108923288062214,0.0407335795462131
1768726649541,-0.1430511474609375,-1.0077972412109375,-0.1342010498046875,-0.0175845865160226,0.0063761402852833,0.0126976855099201
1768726649551,-0.1655120849609375,-1.018310546875,-0.1342620849609375,-0.0086435554549098,0.0388866774737834,-0.0036109799984842
1768726649561,-0.156890869140625,-0.9887237548828124,-0.1307525634765625,0.0107682254165411,0.0412265323102474,0.0107067069038748
1768726649571,-0.1321868896484375,-0.9605865478515624,-0.1252899169921875,0.0200645215809345,0.0244241170585155,0.0337726101279258
1768726649581,-0.1345977783203125,-0.962738037109375,-0.1166534423828125,0.0212775915861129,0.0059268651530146,0.0343784801661968
1768726649591,-0.1507110595703125,-0.9936370849609376,-0.112396240234375,0.0193571858108043,-0.0036035231314599,0.0180466454476118
1768726649601,-0.15667724609375,-0.9961395263671876,-0.1126708984375,0.0217825267463922,-0.0054629421792924,0.0137344542890787
1768726649611,-0.1494140625,-0.9829864501953124,-0.1104583740234375,0.021597970277071,-0.0090494211763143,0.0105802062898874
1768726649621,-0.14483642578125,-0.9781494140625,-0.10736083984375,0.0129072768613696,-0.0145299406722188,0.0087069384753704
1768726649631,-0.1442413330078125,-0.9764556884765624,-0.1047210693359375,-0.0107378652319312,-0.0172359775751829,0.009663812816143
1768726649641,-0.1433868408203125,-0.9739227294921876,-0.1013031005859375,-0.036097016185522,-0.0166231859475374,0.0115360151976346
1768726649651,-0.1468658447265625,-0.977996826171875,-0.101776123046875,-0.0560872368514537,-0.0158186443150043,0.0087234508246183
1768726649661,-0.1489715576171875,-0.98358154296875,-0.107086181640625,-0.0696587041020393,0.004546548705548,0.0073908045887947
1768726649671,-0.1488189697265625,-0.9839324951171876,-0.1141204833984375,-0.0731394588947296,0.0068722870200872,0.0046131275594234
1768726649681,-0.1495208740234375,-0.98504638671875,-0.123992919921875,-0.074313648045063,0.0061849253252148,0.0034951325505971
1768726649691,-0.1478271484375,-0.9827117919921876,-0.130157470703125,-0.0656423941254615,0.0109935291111469,0.0016647420125082
1768726649701,-0.15008544921875,-0.978607177734375,-0.133819580078125,-0.0571612901985645,0.0154330180957913,-0.0008029430755414
1768726649711,-0.1515350341796875,-0.980804443359375,-0.1365509033203125,-0.0442787818610668,0.0241045374423265,-0.0017624800093472
1768726649721,-0.1490020751953125,-0.983123779296875,-0.1424102783203125,-0.0309770908206701,0.0337928496301174,-0.0016554208705201
1768726649731,-0.14752197265625,-0.98333740234375,-0.145599365234375,-0.0191795527935028,0.0402275808155536,-0.0002159823634428
1768726649741,-0.1439208984375,-0.978851318359375,-0.142425537109375,-0.0031766186002641,0.0259873922914266,0.0015257250051945
1768726649751,-0.1401824951171875,-0.9792938232421876,-0.1403045654296875,0.0050397659651935,0.0242994800209999,0.0053763897158205
1768726649761,-0.1402587890625,-0.9769439697265624,-0.136749267578125,0.0128902317956089,0.0258278679102659,0.0040868869982659
1768726649771,-0.1417694091796875,-0.9810028076171876,-0.13446044921875,0.0157379508018493,0.0193984657526016,0.0007118629291653
1768726649782,-0.1405792236328125,-0.9828948974609376,-0.1305084228515625,0.0196381490677595,0.0097620831802487,0.003328418591991
1768726649792,-0.1393280029296875,-0.972991943359375,-0.1276397705078125,0.0253732670098543,-0.0005805690889246,0.0072440644726157
1768726649802,-0.139556884765625,-0.9759521484375,-0.127471923828125,0.0316553972661495,0.0066861324012279,0.0062997075729072
1768726649812,-0.1461334228515625,-0.9792327880859376,-0.1268157958984375,0.0330967009067535,0.0066784089431166,0.0047308392822742
1768726649822,-0.14776611328125,-0.977508544921875,-0.12200927734375,0.0290708001703023,-0.0010772485984489,0.0049236523918807
1768726649832,-0.1439666748046875,-0.9739990234375,-0.1146087646484375,0.0221875943243503,0.0095144091174006,0.0042575956322252
1768726649842,-0.148529052734375,-0.972381591796875,-0.1129302978515625,0.0179984420537948,0.0149203594774007,0.005927397403866
1768726649852,-0.151123046875,-0.9788055419921876,-0.1120452880859375,0.0113213639706373,0.0182016398757696,0.0022863238118588
1768726649862,-0.1507415771484375,-0.980621337890625,-0.1104583740234375,0.0010418286547064,0.0173579510301351,-0.0024296017363667
1768726649872,-0.151763916015625,-0.9807586669921876,-0.108428955078125,-0.0083303675055503,0.0112585136666893,-0.0044458811171352
1768726649882,-0.1531829833984375,-0.9845428466796876,-0.1079254150390625,-0.0177385173738002,0.0043603936210274,-0.0089450255036354
1768726649892,-0.15557861328125,-0.9859161376953124,-0.108154296875,-0.0262457188218832,0.0014998923288658,-0.0077631142921745
1768726649902,-0.1528167724609375,-0.982696533203125,-0.1106414794921875,-0.033203225582838,-0.0008213188848458,-0.0043827639892697
1768726649912,-0.14642333984375,-0.982177734375,-0.116363525390625,-0.0348368100821971,0.0141376564279198,-0.0039047268219292
1768726649922,-0.14984130859375,-0.9811859130859376,-0.12457275390625,-0.0359148569405078,0.0227383356541395,-0.0034168355632573
1768726649932,-0.149566650390625,-0.982269287109375,-0.125030517578125,-0.0390632450580596,0.0202634595334529,-0.0038048583082854
1768726649942,-0.147369384765625,-0.981353759765625,-0.1230316162109375,-0.0441259145736694,0.0153193017467856,-0.0064224791713058
1768726649952,-0.1473846435546875,-0.978546142578125,-0.1229248046875,-0.0435674525797367,0.0109913982450962,-0.0131863756105303
1768726649962,-0.1456298828125,-0.9798736572265624,-0.128082275390625,-0.0418454520404338,0.0069183600135147,-0.0167811103165149
1768726649972,-0.14312744140625,-0.9829254150390624,-0.1331939697265625,-0.0399721823632717,0.0132723953574895,-0.0174484979361295
1768726649982,-0.1444091796875,-0.9807891845703124,-0.1363372802734375,-0.0327781848609447,0.0283826384693384,-0.0155350174754858
1768726649992,-0.1421661376953125,-0.9736328125,-0.1394500732421875,-0.0246209241449832,0.0314253009855747,-0.0059007657691836
1768726650002,-0.13836669921875,-0.9716949462890624,-0.1360626220703125,-0.0208416320383548,0.0253844521939754,0.0002098570985253
1768726650013,-0.1387786865234375,-0.9702911376953124,-0.134307861328125,-0.0143243446946144,0.0138156805187463,0.0052568134851753
1768726650022,-0.1389007568359375,-0.9775390625,-0.1348114013671875,-0.0061529674567282,0.0014146711910143,0.0020738034509122
1768726650033,-0.143310546875,-0.9837799072265624,-0.136016845703125,-0.0050410977564752,-0.0003137203748337,0.0007038734620437
1768726650043,-0.1424102783203125,-0.9829254150390624,-0.13214111328125,0.0020370518323034,-0.004571315832436,-0.0027608990203589
1768726650053,-0.1432342529296875,-0.98321533203125,-0.135589599609375,0.0141387218609452,-0.0043782368302345,-0.0027334685437381
1768726650063,-0.147003173828125,-0.9842529296875,-0.1340789794921875,0.0198804978281259,0.0026386599056422,-0.0013861752813681
1768726650073,-0.14556884765625,-0.9778900146484376,-0.130828857421875,0.0224784109741449,0.0057590859942138,0.0025875272694975
1768726650083,-0.1457366943359375,-0.9765625,-0.129730224609375,0.0211460310965776,0.0198325607925653,0.0202631931751966
1768726650093,-0.140472412109375,-0.94244384765625,-0.1256256103515625,0.0252952370792627,0.0318492762744426,0.0393042638897895
1768726650103,-0.138702392578125,-0.95819091796875,-0.1237335205078125,0.0287171322852373,0.0299578979611396,0.0264161601662635
1768726650113,-0.1557769775390625,-1.0039215087890625,-0.1212158203125,0.0163611304014921,0.0331550240516662,-0.0063516390509903
1768726650123,-0.168365478515625,-1.0143585205078125,-0.1143341064453125,0.0096374470740556,0.0383058451116085,-0.0249178670346736
1768726650133,-0.1534423828125,-0.981170654296875,-0.1074066162109375,0.0106494482606649,0.0172207988798618,0.000851412594784
1768726650143,-0.1362152099609375,-0.95428466796875,-0.1041107177734375,0.0029601035639643,0.0029699571896344,0.0138545632362365
1768726650153,-0.1423492431640625,-0.972381591796875,-0.1025390625,-0.012573848478496,-0.0004913532175123,0.0036661075428128
1768726650163,-0.15667724609375,-0.9921112060546876,-0.10430908203125,-0.0265168286859989,-0.0051324442028999,-0.0079519329592585
1768726650173,-0.1537322998046875,-0.9918975830078124,-0.1044921875,-0.0389316864311695,-0.0144553715363144,-0.0117213707417249
1768726650183,-0.1460418701171875,-0.9787445068359376,-0.107147216796875,-0.0522347092628479,-0.0317033343017101,-0.0104361288249492
1768726650193,-0.1427764892578125,-0.972869873046875,-0.1134033203125,-0.0655166953802108,-0.0244779121130704,-0.0120673151686787
1768726650204,-0.14471435546875,-0.97601318359375,-0.125274658203125,-0.0749312341213226,0.0105429217219352,-0.0106726177036762
1768726650213,-0.1450347900390625,-0.977386474609375,-0.1327362060546875,-0.0830906257033348,0.0216626841574907,-0.0072360751219093
1768726650223,-0.14117431640625,-0.9803924560546876,-0.1361846923828125,-0.0811760798096656,0.008855010382831,-0.0046320362016558
1768726650233,-0.140289306640625,-0.98193359375,-0.14007568359375,-0.0694541782140731,-0.0159400850534439,0.0014871091116219
1768726650243,-0.1385498046875,-0.9859466552734376,-0.148773193359375,-0.0443048812448978,-0.007971373386681,0.0038304245099425
1768726650254,-0.145721435546875,-0.9860992431640624,-0.1634674072265625,-0.0097160106524825,0.0113269565626978,0.0031047132797539
1768726650264,-0.148345947265625,-0.98883056640625,-0.1696319580078125,0.0196437425911426,0.0244922935962677,0.0037124464288353
1768726650274,-0.1474609375,-0.9864959716796876,-0.1636505126953125,0.0445160679519176,0.0250401049852371,0.0040674461051821
1768726650284,-0.14862060546875,-0.9855804443359376,-0.151947021484375,0.0591820962727069,0.0159680470824241,0.0022005699574947
1768726650294,-0.152008056640625,-0.9876861572265624,-0.1404266357421875,0.0616393946111202,0.0022828616201877,-0.0023949807509779
1768726650304,-0.1515960693359375,-0.98858642578125,-0.1292266845703125,0.060538712888956,-0.0085119949653744,-0.0058917114511132
1768726650314,-0.14697265625,-0.9811859130859376,-0.123504638671875,0.0573775395750999,-0.0283112656325101,-0.0088635329157114
1768726650324,-0.144378662109375,-0.981231689453125,-0.1230621337890625,0.0552073307335376,-0.0214925091713666,-0.0143166212365031
1768726650334,-0.1478118896484375,-0.9797821044921876,-0.125885009765625,0.0555862970650196,0.010808172635734,-0.0146396625787019
1768726650344,-0.145477294921875,-0.972076416015625,-0.1296234130859375,0.0512184463441371,0.0244816411286592,-0.0067881313152611
1768726650354,-0.1393585205078125,-0.971435546875,-0.120269775390625,0.0422838069498539,0.0230533871799707,-0.0080012008547782
1768726650364,-0.1451873779296875,-0.9810638427734376,-0.109405517578125,0.0271429382264614,0.0058903796598315,-0.0123663879930973
1768726650374,-0.146514892578125,-0.981109619140625,-0.1033935546875,0.0211010240018367,-0.0157235693186521,-0.0129200592637062
1768726650384,-0.13885498046875,-0.97589111328125,-0.1091766357421875,0.0192940700799226,-0.0024538366124033,-0.0122020710259675
1768726650394,-0.1414947509765625,-0.9738311767578124,-0.120635986328125,0.0237657837569713,0.0286185946315526,-0.0131035512313246
1768726650404,-0.1448822021484375,-0.97747802734375,-0.1204071044921875,0.0174700710922479,0.0312375482171773,-0.0144614968448877
1768726650414,-0.147125244140625,-0.9802093505859376,-0.1133880615234375,0.0006791060441173,0.0191012565046548,-0.0196477379649877
1768726650424,-0.1485595703125,-0.977569580078125,-0.10504150390625,-0.0132870431989431,-0.0008737831376492,-0.0238555315881967
1768726650434,-0.14703369140625,-0.9770660400390624,-0.1030731201171875,-0.0264808759093284,-0.0173755288124084,-0.0266377367079257
1768726650444,-0.1462249755859375,-0.9809112548828124,-0.10760498046875,-0.0338325314223766,-0.0136915771290659,-0.0299600288271904
1768726650455,-0.1490478515625,-0.9835052490234376,-0.1182861328125,-0.0299805365502834,0.0122231105342507,-0.0313792265951633
1768726650465,-0.14654541015625,-0.9827117919921876,-0.130218505859375,-0.0244587380439043,0.0293661449104547,-0.0287642702460289
1768726650474,-0.1431884765625,-0.981170654296875,-0.1324462890625,-0.0185241494327783,0.0258662179112434,-0.0242179874330759
1768726650485,-0.1402740478515625,-0.97802734375,-0.13226318359375,-0.0158577933907508,0.0104699516668915,-0.0223388615995645
1768726650495,-0.137298583984375,-0.9793853759765624,-0.1333160400390625,-0.0085636610165238,0.0007137271459214,-0.0152189005166292
1768726650505,-0.1413726806640625,-0.9790191650390624,-0.13934326171875,0.0038679752033203,0.0115064540877938,-0.0150175653398036
1768726650515,-0.142852783203125,-0.9830780029296876,-0.14520263671875,0.017402958124876,0.0138662811368703,-0.012410064227879
1768726650525,-0.1414031982421875,-0.9837493896484376,-0.144195556640625,0.0321323685348033,0.0189739577472209,-0.0109029812738299
1768726650535,-0.1428985595703125,-0.9820404052734376,-0.138946533203125,0.0441349707543849,0.0172223970293998,-0.0082763060927391
1768726650545,-0.1403350830078125,-0.97930908203125,-0.133270263671875,0.0530107542872428,0.0073516559787094,-0.0032237565610557
1768726650555,-0.140380859375,-0.9782257080078124,-0.1284332275390625,0.0589541308581829,0.0062741413712501,0.0022442457266151
1768726650565,-0.1397247314453125,-0.976104736328125,-0.1227264404296875,0.061854314059019,-0.0007187871960923,0.0079194419085979
1768726650575,-0.14276123046875,-0.974273681640625,-0.119293212890625,0.0583754256367683,-0.01085717510432,0.0073745595291256
1768726650585,-0.1416778564453125,-0.9776763916015624,-0.11431884765625,0.0506165735423564,-0.0123767750337719,0.0008793757879175
1768726650595,-0.1468505859375,-0.9800262451171876,-0.108612060546875,0.0432622544467449,-0.0145536428317427,-0.0063090287148952
1768726650605,-0.1468963623046875,-0.9786376953125,-0.1082763671875,0.0377452485263347,-0.0133240614086389,-0.0031787490006536
1768726650615,-0.140716552734375,-0.9756622314453124,-0.1076507568359375,0.0348716974258422,-0.018705777823925,-0.0005086637684144
1768726650625,-0.139251708984375,-0.9776153564453124,-0.111785888671875,0.0325661972165107,-0.0111272195354104,0.0016327840276062
1768726650635,-0.1420135498046875,-0.981048583984375,-0.11407470703125,0.0270127095282077,0.0188911333680152,0.0011579424608498
1768726650645,-0.14324951171875,-0.9748382568359376,-0.1112060546875,0.0156311579048633,0.0326777845621109,0.0019614181946963
1768726650655,-0.14337158203125,-0.9728546142578124,-0.1050567626953125,0.002722815843299,0.0239756405353546,0.0113495932891964
1768726650665,-0.1397247314453125,-0.9552001953125,-0.0986480712890625,-0.0058586881496012,-0.0028344022575765,0.0158135835081338
1768726650675,-0.1341705322265625,-0.9693603515625,-0.1011810302734375,-0.010433199815452,-0.020905015990138,0.0070507191121578
1768726650685,-0.1462249755859375,-0.991668701171875,-0.1083831787109375,-0.0119826272130012,-0.0018543590558692,-0.0120294988155364
1768726650696,-0.1580352783203125,-0.9994049072265624,-0.1135711669921875,-0.0098132155835628,0.02342383377254,-0.0241085328161716
1768726650706,-0.1550445556640625,-0.99017333984375,-0.11297607421875,-0.0097836544737219,0.0283030103892087,-0.018637865781784
1768726650716,-0.141143798828125,-0.9675140380859376,-0.1062469482421875,-0.0149307465180754,-0.0017094830982387,-0.0062134210020303
1768726650726,-0.1344757080078125,-0.9702606201171876,-0.1018829345703125,-0.0284308418631553,-0.0182226803153753,-0.0048496164381504
1768726650736,-0.1416778564453125,-0.9796295166015624,-0.1055908203125,-0.0338399894535541,-0.0253194719552993,-0.0075274249538779
1768726650746,-0.14361572265625,-0.9905548095703124,-0.1160736083984375,-0.0386967957019805,-0.0162945501506328,-0.0104760769754648
1768726650756,-0.1410064697265625,-0.9864654541015624,-0.12371826171875,-0.0412150807678699,0.0003547330561559,-0.0048970207571983
1768726650766,-0.1382904052734375,-0.97430419921875,-0.1267852783203125,-0.0518972873687744,0.0196533296257257,-0.0019536949694156
1768726650776,-0.13763427734375,-0.973541259765625,-0.1265716552734375,-0.0616955868899822,0.0249527543783187,-0.0025374598335474
1768726650786,-0.1403656005859375,-0.98260498046875,-0.1257476806640625,-0.068300761282444,0.0281008761376142,-0.0055953012779355
1768726650796,-0.1385345458984375,-0.9828643798828124,-0.1298065185546875,-0.0585980638861656,0.0165805742144584,0.0001669802004471
1768726650806,-0.136505126953125,-0.9831085205078124,-0.1380767822265625,-0.0367082133889198,0.0147278131917119,0.0069037126377224
1768726650816,-0.1353302001953125,-0.980316162109375,-0.1421051025390625,-0.0093173356726765,0.0044352286495268,0.0145624307915568
1768726650826,-0.1368408203125,-0.97845458984375,-0.1435699462890625,0.0168141331523656,-0.0099556948989629,0.0202762428671121
1768726650836,-0.1414947509765625,-0.982147216796875,-0.1419677734375,0.0406997576355934,-0.0110049806535243,0.019145730882883
1768726650846,-0.14642333984375,-0.9849700927734376,-0.13818359375,0.056047823280096,-0.0126971527934074,0.0148945273831486
1768726650856,-0.1492767333984375,-0.98602294921875,-0.1323089599609375,0.0660639703273773,-0.0061870557256042,0.0102723445743322
1768726650866,-0.150665283203125,-0.9867095947265624,-0.1259613037109375,0.0657366663217544,-0.0012362393317744,0.0041404166258871
1768726650876,-0.15155029296875,-0.9864349365234376,-0.11712646484375,0.0575011111795902,0.0018740664236247,0.002453037770465
1768726650886,-0.14654541015625,-0.9752197265625,-0.106048583984375,0.0482788495719432,-0.006130862981081,0.000615456548985
1768726650896,-0.14312744140625,-0.98236083984375,-0.101593017578125,0.033728402107954,-0.0095058875158429,-0.0089950924739241
1768726650907,-0.146331787109375,-0.984832763671875,-0.0996856689453125,0.0203817039728164,-0.014674549922347,-0.010977815836668
1768726650916,-0.14154052734375,-0.973785400390625,-0.098297119140625,0.0103455819189548,-0.0170916356146335,-0.0064784055575728
1768726650927,-0.1374969482421875,-0.96673583984375,-0.0977935791015625,-0.0026410568971186,-0.0110244220122694,-0.0117029948160052
1768726650937,-0.144287109375,-0.9805908203125,-0.100006103515625,-0.014054300263524,-0.002542519941926,-0.0217529665678739
1768726650947,-0.1467742919921875,-0.9872589111328124,-0.1029052734375,-0.0250973626971244,0.0100494381040334,-0.0241351630538702
1768726650957,-0.144561767578125,-0.977813720703125,-0.106475830078125,-0.0293427091091871,0.0106989834457635,-0.0196695756167173
1768726650967,-0.1387786865234375,-0.9755706787109376,-0.1087646484375,-0.0348985940217971,0.0121213775128126,-0.0170245226472616
1768726650977,-0.1389312744140625,-0.9783477783203124,-0.10955810546875,-0.0437453500926494,0.0069002504460513,-0.0177009664475917
1768726650987,-0.141632080078125,-0.980316162109375,-0.1145477294921875,-0.0460990518331527,0.005642439238727,-0.0167952254414558
1768726650997,-0.1401519775390625,-0.9797515869140624,-0.120574951171875,-0.0416009724140167,0.0053138053044676,-0.0174242630600929
1768726651007,-0.1373291015625,-0.97686767578125,-0.130340576171875,-0.0311976000666618,0.0125501463189721,-0.0155097171664237
1768726651017,-0.1372528076171875,-0.9791717529296876,-0.13848876953125,-0.0178303960710763,0.0152977295219898,-0.0118673117831349
1768726651027,-0.136871337890625,-0.981201171875,-0.1406097412109375,-0.0011720572365447,0.0199071280658245,-0.0080912159755826
1768726651037,-0.1379547119140625,-0.9820556640625,-0.1415863037109375,0.0159390196204185,0.0200770385563373,-0.0035007251426577
1768726651047,-0.1413726806640625,-0.9837188720703124,-0.136962890625,0.0275626517832279,0.0151595119386911,-0.0018261295044794
1768726651057,-0.14202880859375,-0.9846954345703124,-0.1317138671875,0.0445735938847065,0.0095799230039119,-0.0007094661123119
1768726651067,-0.1429595947265625,-0.9852447509765624,-0.1321258544921875,0.0589243024587631,0.0146985184401273,0.0017475662752985
1768726651077,-0.1417388916015625,-0.9854736328125,-0.1323394775390625,0.073848657310009,0.0195084530860185,-0.000345678301528
1768726651087,-0.13763427734375,-0.9822540283203124,-0.1272735595703125,0.0840355157852172,0.0237218402326107,0.0030301446095108
1768726651097,-0.136474609375,-0.9815673828125,-0.1207122802734375,0.0882923081517219,0.0247921645641326,0.0072192968800663
1768726651107,-0.139617919921875,-0.981658935546875,-0.1136016845703125,0.0851681604981422,0.0146063733845949,0.00927818659693
1768726651117,-0.138641357421875,-0.98284912109375,-0.1080169677734375,0.0791179910302162,0.0160087943077087,0.0097413109615445
1768726651127,-0.138885498046875,-0.9769287109375,-0.1048431396484375,0.0675124675035476,0.0137387150898575,0.0121815651655197
1768726651137,-0.138397216796875,-0.9732208251953124,-0.102752685546875,0.0567567571997642,0.0230344794690608,0.0110859405249357
1768726651148,-0.1455078125,-0.9739990234375,-0.0991973876953125,0.0408920384943485,0.0313339531421661,0.0091903023421764
1768726651158,-0.146209716796875,-0.9747772216796876,-0.0980072021484375,0.0265935268253088,0.0387987941503524,0.0097953723743557
1768726651168,-0.1438751220703125,-0.970489501953125,-0.0982666015625,0.0162583328783512,0.0422137677669525,0.0102952476590871
1768726651178,-0.141571044921875,-0.970184326171875,-0.100128173828125,0.004185423720628,0.0347116403281688,0.0059947757981717
1768726651188,-0.1415557861328125,-0.973358154296875,-0.101226806640625,-0.0011600729776546,0.0402139984071254,0.0003336940717417
1768726651198,-0.147216796875,-0.9779205322265624,-0.1047821044921875,-0.0003715109778568,0.0436308346688747,-0.0030945930629968
1768726651208,-0.146209716796875,-0.980804443359375,-0.116668701171875,0.0050333742983639,0.0688309967517852,-0.0088299764320254
1768726651218,-0.144927978515625,-0.9798736572265624,-0.1241912841796875,0.0241910889744758,0.0695764124393463,-0.0055313855409622
1768726651228,-0.1396484375,-0.974212646484375,-0.1402740478515625,0.0537899956107139,0.1275454461574554,0.0112539865076541
1768726651238,-0.1229095458984375,-0.9492645263671876,-0.1464080810546875,0.0798599421977996,0.1242846697568893,0.0269173681735992
1768726651248,-0.1186676025390625,-0.988616943359375,-0.14434814453125,0.081300713121891,0.0818677023053169,0.0053652040660381
1768726651258,-0.136749267578125,-1.02252197265625,-0.133514404296875,0.0793885663151741,0.1296107172966003,-0.0173592828214168
1768726651268,-0.1445770263671875,-0.991973876953125,-0.1304931640625,0.1122362613677978,0.1220598593354225,-0.0011901666875928
1768726651278,-0.132598876953125,-0.978759765625,-0.1376800537109375,0.1432777941226959,0.1178392842411995,0.0275778323411941
1768726651288,-0.1204833984375,-0.971923828125,-0.1297760009765625,0.1531019359827041,0.1420418322086334,0.0347649045288562
1768726651298,-0.1359405517578125,-0.97735595703125,-0.1024932861328125,0.1292887479066848,0.1742636710405349,0.0360610634088516
1768726651308,-0.1482086181640625,-0.9847869873046876,-0.059326171875,0.0870318338274955,0.1156419068574905,0.0347984619438648
1768726651318,-0.15386962890625,-0.9882049560546876,-0.0333709716796875,0.0411184094846248,0.0392973385751247,0.0290782563388347
1768726651328,-0.151275634765625,-0.98248291015625,-0.0422515869140625,0.0048259142786264,-0.0325869731605052,0.0269655715674161
1768726651338,-0.142974853515625,-0.97735595703125,-0.0661773681640625,-0.0132353780791163,-0.0417557023465633,0.0243609994649887
1768726651348,-0.145751953125,-0.97705078125,-0.090850830078125,-0.0175345186144113,-0.003312706016004,0.0239239744842052
1768726651358,-0.14349365234375,-0.9833221435546876,-0.1104583740234375,-0.0286098066717386,0.047009851783514,0.0078507326543331
1768726651369,-0.155059814453125,-0.982818603515625,-0.10186767578125,-0.0405082777142524,0.0584609135985374,0.001792041119188
1768726651379,-0.15771484375,-0.9849090576171876,-0.088348388671875,-0.0371476337313652,0.0194322876632213,-0.0008506136364303
1768726651389,-0.15655517578125,-0.9850311279296876,-0.0957489013671875,-0.027278758585453,-0.0002559297718107,-0.0015949672088027
1768726651399,-0.1475372314453125,-0.9818267822265624,-0.1078948974609375,-0.0080302292481064,0.0035124430432915,0.0007097324123606
1768726651409,-0.1432342529296875,-0.9787139892578124,-0.12030029296875,0.0103977797552943,0.0133232623338699,-0.0026538399979472
1768726651419,-0.142181396484375,-0.98590087890625,-0.1171417236328125,0.0155251640826463,0.0234914775937795,-0.0037992654833942
1768726651429,-0.1433563232421875,-0.988372802734375,-0.1090545654296875,0.0128691932186484,0.0215031616389751,-0.0088776471093297
1768726651439,-0.1441192626953125,-0.9896240234375,-0.1002044677734375,0.0052181975916028,0.0074134413152933,-0.0113932695239782
1768726651449,-0.140716552734375,-0.98486328125,-0.0959014892578125,0.0023422501981258,-0.0038330876268446,-0.0068579060025513
1768726651459,-0.138214111328125,-0.9812774658203124,-0.1005706787109375,-0.0022463763598352,-0.0049755838699638,-0.0065114288590848
1768726651469,-0.1399993896484375,-0.9932098388671876,-0.103668212890625,-0.0070525831542909,0.0135112814605236,-0.0109903328120708
1768726651479,-0.14483642578125,-0.9863739013671876,-0.1019439697265625,-0.0098425103351473,0.0184591691941022,-0.0026807379908859
1768726651489,-0.1339569091796875,-0.9723968505859376,-0.0973968505859375,-0.0107304081320762,-0.0023515713401138,0.0028573055751621
1768726651499,-0.131195068359375,-0.976898193359375,-0.0997314453125,-0.0054741273634135,-0.0109053784981369,0.0001161138206953
1768726651509,-0.1361083984375,-0.985626220703125,-0.1099395751953125,-0.0032386700622737,-0.0081636542454361,-0.0040671797469258
1768726651519,-0.1380767822265625,-0.98162841796875,-0.1103363037109375,0.0010170611785724,-0.0126430904492735,-0.001349956379272
1768726651529,-0.138397216796875,-0.9791412353515624,-0.1116790771484375,0.0099849896505475,-0.0072786854580044,0.0037731665652245
1768726651539,-0.1406402587890625,-0.976409912109375,-0.1163330078125,0.0189806148409843,-0.0013409015955403,0.0051375040784478
1768726651550,-0.1403045654296875,-0.9758148193359376,-0.115447998046875,0.0227649677544832,0.0029164277948439,0.0057494984939694
1768726651559,-0.139434814453125,-0.976104736328125,-0.1075592041015625,0.0205598697066307,0.0001941444352269,0.0048629320226609
1768726651569,-0.141845703125,-0.978515625,-0.101287841796875,0.0133512252941727,-0.001725195790641,0.0045747780241072
1768726651579,-0.1430206298828125,-0.978790283203125,-0.09912109375,0.0128372348845005,0.0069902651011943,0.0045681199990212
1768726651589,-0.14471435546875,-0.9827117919921876,-0.1020660400390625,0.015491341240704,0.0176817923784255,0.0042786346748471
1768726651600,-0.1466217041015625,-0.98455810546875,-0.1044464111328125,0.0148401986807584,0.022756977006793,0.0026666230987757
1768726651609,-0.1441497802734375,-0.9850311279296876,-0.101837158203125,0.0175507646054029,0.0149246212095022,0.0002745719102676
1768726651620,-0.141998291015625,-0.9821624755859376,-0.102447509765625,0.0248723272234201,0.0057279267348349,0.0058115501888096
1768726651630,-0.14208984375,-0.982574462890625,-0.10455322265625,0.0301107633858919,0.005501558072865,0.0062693473882973
1768726651640,-0.1411590576171875,-0.9821929931640624,-0.101806640625,0.0286422967910766,0.0018245317041873,0.0056235310621559
1768726651650,-0.143280029296875,-0.984222412109375,-0.099365234375,0.0285834409296512,0.0001736380945658,0.0035691685043275
1768726651660,-0.1443328857421875,-0.9861602783203124,-0.097503662109375,0.0248512867838144,0.0012066783383488,0.0029502499382942
1768726651670,-0.14599609375,-0.9847259521484376,-0.0943603515625,0.0221678856760263,0.0006538060260936,0.000645816558972
1768726651681,-0.1451263427734375,-0.9841156005859376,-0.0939483642578125,0.0175302568823099,0.0078219706192612,-0.0038701056037098
1768726651690,-0.1458282470703125,-0.987945556640625,-0.0907745361328125,0.010439857840538,0.0121674500405788,-0.0062152855098247
1768726651700,-0.1489410400390625,-0.98651123046875,-0.0896453857421875,0.0018674085149541,0.0044578653760254,-0.0031241541728377
1768726651710,-0.14288330078125,-0.9795989990234376,-0.0909881591796875,0.0004308994684834,-0.0048509477637708,0.0019739349372684
1768726651720,-0.1407318115234375,-0.976318359375,-0.0951690673828125,0.0005017395596951,-0.0063423179090023,0.0060552293434739
1768726651730,-0.1427001953125,-0.9795684814453124,-0.0987548828125,-0.0066650933586061,-0.0035119105596095,0.002379800658673
1768726651740,-0.14508056640625,-0.978363037109375,-0.095916748046875,-0.008510397747159,-0.0005046690348535,0.0033204292412847
1768726651750,-0.1443634033203125,-0.977294921875,-0.098541259765625,-0.0074693677015602,0.0020943097770214,0.0022469090763479
1768726651760,-0.145904541015625,-0.984039306640625,-0.1002349853515625,-0.0099501023069024,0.0092329131439328,-0.0043436158448457
1768726651770,-0.147796630859375,-0.9868621826171876,-0.0972442626953125,-0.0112454639747738,0.0125898271799087,-0.0078494008630514
1768726651781,-0.1452789306640625,-0.9827423095703124,-0.09881591796875,-0.009010006673634,0.0062650865875184,-0.0036157737486064
1768726651790,-0.138702392578125,-0.978057861328125,-0.101531982421875,-0.0067306067794561,0.0100310621783137,0.0073330141603946
1768726651800,-0.1324005126953125,-0.951141357421875,-0.1043701171875,0.0042011365294456,0.0103905890136957,0.0304966568946838
1768726651811,-0.12274169921875,-0.9547119140625,-0.107452392578125,0.0164426229894161,-0.0042866240255534,0.0260984450578689
1768726651821,-0.139373779296875,-1.002227783203125,-0.111968994140625,0.0073889405466616,0.007800665218383,-0.0045793056488037
1768726651831,-0.1617889404296875,-1.0221710205078125,-0.1043243408203125,0.0019124159589409,0.0382216870784759,-0.0264278780668973
1768726651841,-0.156341552734375,-0.98565673828125,-0.096527099609375,0.0073114424012601,0.0180802009999752,-0.0041358890011906
1768726651851,-0.1334228515625,-0.95867919921875,-0.0926666259765625,0.0143267409875988,-0.017046894878149,0.0114499945193529
1768726651861,-0.1326751708984375,-0.9669189453125,-0.0906524658203125,0.0147701576352119,-0.0333238691091537,0.011354386806488
1768726651871,-0.1453094482421875,-0.99224853515625,-0.090972900390625,0.0143871949985623,-0.0363023467361927,-0.0018604843644425
1768726651881,-0.1530914306640625,-0.9998931884765624,-0.08984375,0.024547953158617,-0.0257008355110883,-0.0044906223192811
1768726651891,-0.14569091796875,-0.990753173828125,-0.100830078125,0.0411812588572502,0.0077737672254443,0.0041233724914491
1768726651901,-0.1393280029296875,-0.9786834716796876,-0.114227294921875,0.0536861307919025,0.0449024923145771,0.0129616046324372
1768726651911,-0.1375885009765625,-0.9786376953125,-0.1157379150390625,0.0559780485928058,0.0508187040686607,0.0215372499078512
1768726651921,-0.136993408203125,-0.9815673828125,-0.1082000732421875,0.0377724133431911,0.0368022210896015,0.0225276798009872
1768726651931,-0.135040283203125,-0.982696533203125,-0.0933837890625,0.0149419317021965,0.012092082761228,0.0173254609107971
1768726651941,-0.135528564453125,-0.9802093505859376,-0.09149169921875,0.0047047403641045,-0.0220112930983304,0.0204291082918643
1768726651951,-0.13775634765625,-0.985565185546875,-0.098724365234375,-0.0020524982828646,-0.0195593200623989,0.0185526460409164
1768726651961,-0.14306640625,-0.98333740234375,-0.1018218994140625,-0.0002769687562249,-0.0018511632224544,0.0152194332331418
1768726651971,-0.1512908935546875,-0.9809722900390624,-0.108062744140625,0.0144575024023652,0.0061098239384591,0.0139986397698521
1768726651982,-0.1522216796875,-0.9846038818359376,-0.1082305908203125,0.0240049343556165,0.0071021178737282,0.0166351702064275
1768726651991,-0.1505126953125,-0.984832763671875,-0.10333251953125,0.0297858584672212,0.0036360137164592,0.0090414322912693
1768726652001,-0.1498260498046875,-0.986572265625,-0.0940093994140625,0.0288180653005838,-0.0076547237113118,0.0061545651406049
1768726652011,-0.1493377685546875,-0.9890289306640624,-0.086334228515625,0.0211742613464593,-0.0146633647382259,0.0027561055030673
1768726652021,-0.1499176025390625,-0.98565673828125,-0.0816802978515625,0.0174620803445577,-0.0188511852174997,0.0025656893849372
1768726652031,-0.1458740234375,-0.9833984375,-0.0806732177734375,0.0105732819065451,-0.0269828811287879,0.0016676714876666
1768726652041,-0.142913818359375,-0.9832305908203124,-0.0814971923828125,0.0037494644057005,-0.0177520997822284,0.0042578619904816
1768726652052,-0.1436767578125,-0.974334716796875,-0.080718994140625,-0.0047532096505165,-0.0056493636220693,0.0056589511223137
1768726652062,-0.1425933837890625,-0.97991943359375,-0.0821380615234375,-0.017509751021862,0.0019454391440376,-0.0014546185266226
1768726652072,-0.144012451171875,-0.9812774658203124,-0.0811309814453125,-0.0334668792784214,0.0032482575625181,-0.0031686290167272
1768726652082,-0.145263671875,-0.9814910888671876,-0.0810546875,-0.0400068052113056,0.0048333709128201,-0.004619519226253
1768726652092,-0.1449432373046875,-0.9796905517578124,-0.087066650390625,-0.0446287207305431,0.0045910235494375,-0.0042413501068949
1768726652102,-0.1454620361328125,-0.979583740234375,-0.0871734619140625,-0.0491286627948284,0.0098702078685164,-0.0105573032051324
1768726652112,-0.1489410400390625,-0.98126220703125,-0.0872802734375,-0.0479701869189739,0.0037313550710678,-0.0102446479722857
1768726652122,-0.146697998046875,-0.980621337890625,-0.0911865234375,-0.0480767153203487,0.0111069791018962,-0.0097381146624684
1768726652132,-0.1452484130859375,-0.97918701171875,-0.092071533203125,-0.0499228201806545,0.0145832039415836,-0.0092712622135877
1768726652142,-0.1479034423828125,-0.9835357666015624,-0.092987060546875,-0.0574704818427562,0.0031864722259342,-0.01205959264189
1768726652152,-0.145233154296875,-0.9837188720703124,-0.093048095703125,-0.0616678930819034,-0.0094337156042456,-0.0106539754197001
1768726652162,-0.1440582275390625,-0.984039306640625,-0.0965423583984375,-0.0611038357019424,-0.0140239400789141,-0.0107546430081129
1768726652172,-0.14569091796875,-0.9846954345703124,-0.099029541015625,-0.0576523765921592,-0.0210216622799634,-0.0096584865823388
1768726652182,-0.145843505859375,-0.9859771728515624,-0.100738525390625,-0.0566494315862655,-0.0069260830059647,-0.0128249851986765
1768726652192,-0.147552490234375,-0.9849090576171876,-0.105682373046875,-0.0443440303206443,0.0243018772453069,-0.0135030252858996
1768726652202,-0.145965576171875,-0.9869384765625,-0.1214752197265625,-0.0364975556731224,0.0528693385422229,-0.0134031567722558
1768726652212,-0.14166259765625,-0.9828643798828124,-0.12091064453125,-0.0325353071093559,0.054104246199131,-0.0114819528535008
1768726652222,-0.140380859375,-0.98193359375,-0.1109771728515625,-0.0291110128164291,0.0374139510095119,-0.0112814167514443
1768726652232,-0.1444854736328125,-0.986083984375,-0.105743408203125,-0.0256707426160573,0.0153416721150279,-0.0103367930278182
1768726652242,-0.140869140625,-0.9840087890625,-0.1031646728515625,-0.0158892180770635,-0.0069758840836584,-0.0054118097759783
1768726652252,-0.1363677978515625,-0.983551025390625,-0.10791015625,1.7310547264060006e-05,-0.0200128573924303,-0.0020514330826699
1768726652262,-0.13641357421875,-0.9843902587890624,-0.110321044921875,0.0147925280034542,-0.0215692073106765,0.0031664986163377
1768726652273,-0.1382598876953125,-0.98321533203125,-0.110626220703125,0.0248334445059299,-0.026930684223771,0.0108185596764087
1768726652283,-0.1370086669921875,-0.9774322509765624,-0.10638427734375,0.0289160702377557,-0.0303661618381738,0.0181129574775695
1768726652293,-0.1383514404296875,-0.9729766845703124,-0.1026153564453125,0.0248582120984792,-0.0362453572452068,0.0185047090053558
1768726652303,-0.1456146240234375,-0.9758453369140624,-0.093994140625,0.0176016297191381,-0.043341614305973,0.0051481565460562
1768726652313,-0.152801513671875,-0.9802703857421876,-0.0903778076171875,0.025569275021553,-0.0663388073444366,0.0033553165849298
1768726652323,-0.1434326171875,-0.984588623046875,-0.1040496826171875,0.0229572467505931,-0.0616300739347934,-0.0013182647526264
1768726652333,-0.1410675048828125,-0.9837188720703124,-0.102508544921875,0.0231963992118835,-0.0717410296201706,-0.0096097504720091
1768726652343,-0.1430206298828125,-0.984771728515625,-0.0973052978515625,0.0087415594607591,-0.0895780846476554,-0.0235077235847711
1768726652353,-0.1548919677734375,-0.98883056640625,-0.0863800048828125,-0.0219620242714881,-0.097784087061882,-0.0164671242237091
1768726652363,-0.141632080078125,-0.981536865234375,-0.07598876953125,-0.032678585499525,-0.1204063072800636,-0.0080824270844459
1768726652373,-0.1392364501953125,-0.950653076171875,-0.0870819091796875,-0.0459925271570682,-0.0967529043555259,0.0216309931129217
1768726652383,-0.126922607421875,-0.9432373046875,-0.0921173095703125,-0.0493747405707836,-0.0594526752829551,0.0258640870451927
1768726652393,-0.14093017578125,-0.9951324462890624,-0.1045074462890625,-0.0527497641742229,-0.0074994615279138,0.0040703755803406
1768726652403,-0.1628265380859375,-1.017608642578125,-0.107696533203125,-0.0527175404131412,0.0442976914346218,-0.0211377758532762
1768726652413,-0.1674346923828125,-1.0010833740234375,-0.102813720703125,-0.0560563430190086,0.0663766264915466,-0.0148828094825148
1768726652423,-0.1410675048828125,-0.959808349609375,-0.0905303955078125,-0.0576411932706832,0.0606747977435588,0.0092190643772482
1768726652433,-0.13104248046875,-0.9573516845703124,-0.0830078125,-0.0704171732068061,0.0293488334864377,0.0086427563801407
1768726652444,-0.1475067138671875,-0.99505615234375,-0.0797271728515625,-0.0840051546692848,0.0112683670595288,-0.0075173047371208
1768726652453,-0.1565704345703125,-1.0027313232421875,-0.08563232421875,-0.0865479409694671,0.0149437952786684,-0.0111088436096906
1768726652463,-0.14990234375,-0.9894561767578124,-0.0945281982421875,-0.0858906731009483,0.015952069312334,-0.0129522839561104
1768726652474,-0.1425323486328125,-0.9804840087890624,-0.0997467041015625,-0.0861314237117767,0.0346274860203266,-0.0084914891049265
1768726652483,-0.1410369873046875,-0.98052978515625,-0.1041717529296875,-0.0922726690769195,0.0378230139613151,-0.0113969976082444
1768726652494,-0.1423187255859375,-0.9807891845703124,-0.10650634765625,-0.1039570271968841,0.036785177886486,-0.0082872249186038
1768726652504,-0.1365966796875,-0.9763946533203124,-0.1114959716796875,-0.1038502305746078,0.0345214903354644,-0.0015014902455732
1768726652513,-0.134246826171875,-0.9766845703125,-0.1255035400390625,-0.0978895425796508,0.0316647179424762,0.0049870354123413
1768726652523,-0.1369171142578125,-0.98175048828125,-0.130279541015625,-0.0812668949365615,0.0291965007781982,0.0072584454901516
1768726652534,-0.1385345458984375,-0.984893798828125,-0.1363067626953125,-0.0546368807554245,0.0307528525590896,0.0084118600934743
1768726652544,-0.140289306640625,-0.987762451171875,-0.1432647705078125,-0.0248494241386652,0.032852753996849,0.0109847402200102
1768726652554,-0.1442718505859375,-0.9894256591796876,-0.142425537109375,0.0018200043123215,0.0321302376687526,0.0105929896235466
1768726652564,-0.1456146240234375,-0.9867095947265624,-0.137451171875,0.0263077709823846,0.0285845063626766,0.0138492360711097
1768726652574,-0.147552490234375,-0.9870452880859376,-0.12823486328125,0.0403460897505283,0.0254931095987558,0.0132833151146769
1768726652584,-0.148590087890625,-0.9866180419921876,-0.1179046630859375,0.0429956689476966,0.0162077322602272,0.0127946250140666
1768726652594,-0.145355224609375,-0.985931396484375,-0.1080169677734375,0.0347057841718196,0.0077386135235428,0.0052096755243837
1768726652604,-0.147491455078125,-0.9838714599609376,-0.100006103515625,0.0235809590667486,0.0066099655814468,0.0013033510185778
1768726652614,-0.148284912109375,-0.9847259521484376,-0.0962677001953125,0.0108891334384679,0.0188232231885194,0.0004436826275195
1768726652624,-0.14617919921875,-0.9759979248046876,-0.0978546142578125,-0.0035499937366694,0.0283418931066989,-0.0034421356394886
1768726652634,-0.1449432373046875,-0.981842041015625,-0.0927276611328125,-0.0181646235287189,0.0183403920382261,-0.0111645041033625
1768726652644,-0.144256591796875,-0.98431396484375,-0.0885467529296875,-0.0339569002389907,0.002577407285571,-0.0133533561602234
1768726652654,-0.14019775390625,-0.9794464111328124,-0.089569091796875,-0.0435919538140296,-0.008504538796842,-0.0120603907853364
1768726652664,-0.1390533447265625,-0.9793701171875,-0.0955657958984375,-0.0446851812303066,-0.0037974014412611,-0.0118654482066631
1768726652674,-0.1428680419921875,-0.9782867431640624,-0.103729248046875,-0.0448947697877883,0.0065124942921102,-0.0116878151893615
1768726652684,-0.1425018310546875,-0.979949951171875,-0.1062469482421875,-0.0467312857508659,0.0215084869414567,-0.0157400816679
1768726652694,-0.1434783935546875,-0.979949951171875,-0.104217529296875,-0.052685048431158,0.0235452726483345,-0.0166463553905487
1768726652705,-0.1430511474609375,-0.9785003662109376,-0.1017608642578125,-0.0617605708539485,0.0156431421637535,-0.0176562257111072
1768726652714,-0.141845703125,-0.9787750244140624,-0.1015625,-0.0667950063943862,0.0062650865875184,-0.0187252182513475
1768726652725,-0.14251708984375,-0.9809417724609376,-0.1087646484375,-0.0730222761631012,0.0118316253647208,-0.0212922394275665
1768726652735,-0.1448516845703125,-0.984771728515625,-0.1128997802734375,-0.0744052603840828,0.0157355535775423,-0.0222477819770574
1768726652745,-0.1453094482421875,-0.9844970703125,-0.11920166015625,-0.0706557929515838,0.0166056081652641,-0.0245863031595945
1768726652755,-0.14471435546875,-0.9832305908203124,-0.1243896484375,-0.0654162913560867,0.0095908418297767,-0.0242044050246477
1768726652765,-0.141357421875,-0.98284912109375,-0.1258697509765625,-0.0609983727335929,-0.0060837250202894,-0.0230904053896665
1768726652775,-0.13812255859375,-0.98626708984375,-0.1279144287109375,-0.0536267422139644,-0.0092949643731117,-0.0200429502874612
1768726652785,-0.1390838623046875,-0.985565185546875,-0.1358184814453125,-0.0349108465015888,0.004946022760123,-0.0145477838814258
1768726652795,-0.139312744140625,-0.9847869873046876,-0.1416473388671875,-0.0177134834229946,0.0112529210746288,-0.0105871306732296
1768726652805,-0.13739013671875,-0.9842071533203124,-0.1388092041015625,-0.0004649879119824,0.0063516390509903,-0.0078262314200401
1768726652815,-0.137908935546875,-0.9871673583984376,-0.1319732666015625,0.0113810189068317,-0.0067242155782878,-0.0086725838482379
1768726652825,-0.136566162109375,-0.9860687255859376,-0.1295623779296875,0.0226110368967056,-0.0172439683228731,-0.0041087251156568
1768726652835,-0.1317596435546875,-0.982635498046875,-0.1289215087890625,0.0352048575878143,-0.0088222539052367,0.0008743157959543
1768726652845,-0.1355438232421875,-0.977813720703125,-0.1295318603515625,0.0444116741418838,0.0237085241824388,0.0100526344031095
1768726652855,-0.1411285400390625,-0.973602294921875,-0.1209869384765625,0.0462380684912204,0.0345028489828109,0.0154226319864392
1768726652865,-0.14398193359375,-0.977386474609375,-0.106353759765625,0.0363028794527053,0.0153805539011955,0.0130569459870457
1768726652875,-0.1449432373046875,-0.981964111328125,-0.095672607421875,0.0205100681632757,-0.0116782272234559,0.0036104475148022
1768726652885,-0.1455078125,-0.982421875,-0.089141845703125,0.0009944243356585,-0.0252923071384429,-0.0049028797075152
1768726652895,-0.1456756591796875,-0.9773712158203124,-0.0946807861328125,-0.0125450864434242,-0.0102268047630786,-0.0086283758282661
1768726652905,-0.14617919921875,-0.9769287109375,-0.1011199951171875,-0.0247964262962341,0.0067367320880293,-0.0111045828089118
1768726652916,-0.1474151611328125,-0.980224609375,-0.101348876953125,-0.039715189486742,0.0084877610206604,-0.0142250088974833
1768726652925,-0.1473388671875,-0.9785003662109376,-0.0984649658203125,-0.057316817343235,0.0011198592837899,-0.0149232894182205
1768726652935,-0.143646240234375,-0.97576904296875,-0.10015869140625,-0.0705311596393585,-0.0070368703454732,-0.0069319419562816
1768726652945,-0.13665771484375,-0.955535888671875,-0.10858154296875,-0.0703290253877639,-0.004684766754508,0.0082651199772953
1768726652956,-0.128509521484375,-0.95849609375,-0.1170806884765625,-0.0641283839941024,-0.0050426954403519,0.0088262483477592
1768726652965,-0.138824462890625,-0.989959716796875,-0.12103271484375,-0.0601096749305725,-0.0075572519563138,-0.0167701914906501
1768726652976,-0.157562255859375,-1.01318359375,-0.123260498046875,-0.0518908947706222,0.0079934783279895,-0.0395114570856094
1768726652986,-0.1501617431640625,-1.0001220703125,-0.12469482421875,-0.0351643785834312,-0.0024282701779156,-0.0306569784879684
1768726652996,-0.1337432861328125,-0.968658447265625,-0.126708984375,-0.0204509459435939,-0.0090688625350594,-0.0099003016948699
1768726653006,-0.1262054443359375,-0.9623565673828124,-0.124969482421875,-0.0064198160544037,-0.0122867599129676,0.0009102684562094
1768726653016,-0.133819580078125,-0.9808807373046876,-0.1265716552734375,-0.000319313025102,-0.0055217980407178,-0.001161937136203
1768726653026,-0.140716552734375,-0.9913482666015624,-0.12646484375,0.0052371062338352,0.0007528756395913,-0.005911951418966
1768726653036,-0.1385345458984375,-0.9891357421875,-0.120941162109375,0.0018996327416971,-0.0141304666176438,-0.0028091021813452
1768726653046,-0.13153076171875,-0.9794921875,-0.117340087890625,-0.0089812446385622,-0.0289991609752178,0.0018516959389671
1768726653056,-0.12823486328125,-0.9735870361328124,-0.11737060546875,-0.0206256490200757,-0.0143797378987073,0.0061455103568732
1768726653066,-0.1336669921875,-0.9731903076171876,-0.1227569580078125,-0.0298519041389226,0.0081660505384206,0.0083862943574786
1768726653076,-0.138397216796875,-0.982818603515625,-0.12469482421875,-0.0321299731731414,0.0157304927706718,0.0089378347620368
1768726653086,-0.1406402587890625,-0.9846038818359376,-0.123291015625,-0.0241942852735519,0.0080267675220966,0.0144907915964722
1768726653096,-0.13836669921875,-0.9813995361328124,-0.1251373291015625,-0.0123088639229536,-0.0103599624708294,0.0153089147061109
1768726653106,-0.1387481689453125,-0.98297119140625,-0.1292266845703125,0.0038711710367351,-0.0161057338118553,0.0142931854352355
1768726653116,-0.1441192626953125,-0.986907958984375,-0.1361236572265625,0.0169598087668418,0.0038432078436017,0.010981012135744
1768726653126,-0.14898681640625,-0.9839324951171876,-0.1351470947265625,0.0260369274765253,0.016808008775115,0.0075021246448159
1768726653136,-0.1511688232421875,-0.9871368408203124,-0.1269989013671875,0.0261045712977647,0.0144969169050455,0.0029992519412189
1768726653146,-0.153167724609375,-0.987701416015625,-0.1133575439453125,0.0193502623587846,0.0023086944129318,-0.0055462992750108
1768726653157,-0.152435302734375,-0.986785888671875,-0.1065521240234375,0.0091841770336031,-0.0052554821595549,-0.013544837012887
1768726653167,-0.150726318359375,-0.9821014404296876,-0.1041107177734375,-0.0007038734620437,-0.016334231942892,-0.0155744319781661
1768726653176,-0.1461334228515625,-0.9835205078125,-0.10235595703125,-0.0146857351064682,-0.0368400402367115,-0.0252462346106767
1768726653187,-0.14483642578125,-0.9849090576171876,-0.1031341552734375,-0.0268419999629259,-0.0385433956980705,-0.0269120410084724
1768726653197,-0.136627197265625,-0.9760284423828124,-0.1117401123046875,-0.0256576929241418,0.0027521105948835,-0.0236965417861938
1768726653207,-0.13372802734375,-0.9667816162109376,-0.1247406005859375,-0.0210546851158142,0.0320916250348091,-0.0167717896401882
1768726653217,-0.1289215087890625,-0.972412109375,-0.1200714111328125,-0.0199915505945682,0.0322266444563865,-0.0155310230329632
1768726653227,-0.131744384765625,-0.98321533203125,-0.111846923828125,-0.0255245342850685,0.0158167798072099,-0.018869562074542
1768726653237,-0.13323974609375,-0.98284912109375,-0.108978271484375,-0.0237620547413826,-0.0009443568997085,-0.0178588926792144
1768726653247,-0.1336517333984375,-0.9817962646484376,-0.1132049560546875,-0.0193635784089565,-0.0052277850918471,-0.0163153242319822
1768726653257,-0.13543701171875,-0.979888916015625,-0.1188507080078125,-0.0203092657029628,-0.0049524144269526,-0.012917130254209
1768726653267,-0.135833740234375,-0.975250244140625,-0.119720458984375,-0.0234816242009401,0.0004713795206043,-0.0105719501152634
1768726653277,-0.1395416259765625,-0.97869873046875,-0.1201171875,-0.0255106855183839,0.0194879472255706,-0.0118854213505983
1768726653287,-0.1432037353515625,-0.97857666015625,-0.1215057373046875,-0.0332242660224437,0.0150260869413614,-0.0133738620206713
1768726653297,-0.1431732177734375,-0.9794464111328124,-0.117156982421875,-0.0389495305716991,-0.0018498316640034,-0.0171789862215518
1768726653307,-0.142608642578125,-0.9818572998046876,-0.118194580078125,-0.040178045630455,-0.0123429521918296,-0.021925538778305
1768726653317,-0.1446075439453125,-0.9848175048828124,-0.1223907470703125,-0.0397980138659477,-0.0164809729903936,-0.0278231091797351
1768726653327,-0.143768310546875,-0.9850616455078124,-0.127410888671875,-0.035409390926361,-0.0199864916503429,-0.0265458561480045
1768726653337,-0.13616943359375,-0.9806365966796876,-0.1349334716796875,-0.0242965519428253,-0.0080201094970107,-0.0203084666281938
1768726653347,-0.135101318359375,-0.978271484375,-0.1379852294921875,-0.0110744889825582,0.004530569538474,-0.0156154446303844
1768726653357,-0.1357421875,-0.9835968017578124,-0.136016845703125,-0.0046568033285439,0.0079093221575021,-0.0153187690302729
1768726653367,-0.1356658935546875,-0.9828338623046876,-0.1307830810546875,0.0035590485204011,0.000630370224826,-0.0105530424043536
1768726653377,-0.1337127685546875,-0.9813690185546876,-0.128631591796875,0.014004498720169,0.0019377160351723,-0.0057119480334222
1768726653388,-0.13385009765625,-0.984527587890625,-0.128021240234375,0.0192658398300409,-0.0034882084000855,-0.0050624026916921
1768726653397,-0.1370849609375,-0.98388671875,-0.1230621337890625,0.0171001572161912,-0.0106691559776663,-0.0072509888559579
1768726653408,-0.13726806640625,-0.98052978515625,-0.117645263671875,0.0161595288664102,-0.0150644369423389,-0.0047473507001996
1768726653418,-0.13720703125,-0.9765777587890624,-0.1179046630859375,0.0162913557142019,-0.0141043672338128,-0.0010759170399978
1768726653428,-0.1352081298828125,-0.974273681640625,-0.113311767578125,0.0075564533472061,-0.019647205248475,0.0001283643650822
1768726653438,-0.1366729736328125,-0.9752044677734376,-0.1100311279296875,-0.0005507417372427,-0.0152782890945672,-0.0019313243683427
1768726653448,-0.140289306640625,-0.977630615234375,-0.1125030517578125,-0.0033486587926745,0.0020074907224625,-0.0039478698745369
1768726653458,-0.1404571533203125,-0.9771270751953124,-0.1175079345703125,-0.004979046061635,0.0116183068603277,-0.0047872983850538
1768726653468,-0.13922119140625,-0.97802734375,-0.11669921875,-0.0139224734157323,0.0019579560030251,-0.0068887989036738
1768726653478,-0.1390228271484375,-0.9814910888671876,-0.1097869873046875,-0.0223606992512941,-0.0107767479494214,-0.0130404345691204
1768726653488,-0.1401214599609375,-0.983917236328125,-0.1100311279296875,-0.0303784124553203,-0.0127565413713455,-0.0153001267462968
1768726653498,-0.13873291015625,-0.979034423828125,-0.1134796142578125,-0.031398668885231,-0.0144897270947694,-0.0108651649206876
1768726653508,-0.1354217529296875,-0.9798583984375,-0.1187286376953125,-0.0320625938475132,0.0007880293414928,-0.0102089615538716
1768726653518,-0.1328887939453125,-0.962646484375,-0.1269378662109375,-0.0253008287400007,0.0119671802967786,0.0092909699305891
1768726653528,-0.1222381591796875,-0.9519500732421876,-0.128875732421875,-0.016309730708599,-0.0046754456125199,0.0132793197408318
1768726653538,-0.1327667236328125,-0.989654541015625,-0.12469482421875,-0.0165448877960443,-0.012222577817738,-0.0157155804336071
1768726653548,-0.1509246826171875,-1.0123138427734375,-0.1204986572265625,-0.0144905252382159,-0.0016056197928264,-0.031181089580059
1768726653558,-0.1472625732421875,-0.9920501708984376,-0.12109375,0.003269829088822,7.74979853304103e-05,-0.0208746548742055
1768726653568,-0.1331939697265625,-0.967437744140625,-0.125732421875,0.014494520612061,-0.0076912092044949,-0.0032261533197015
1768726653578,-0.1279449462890625,-0.96624755859375,-0.1196136474609375,0.0095469001680612,-0.0220970455557107,0.0013662016717717
1768726653588,-0.13311767578125,-0.976470947265625,-0.112335205078125,-0.0070294137112796,-0.03538329154253,0.000737695605494
1768726653599,-0.1329193115234375,-0.9826812744140624,-0.11346435546875,-0.01685781031847,-0.0389862805604934,-0.0004410194815136
1768726653608,-0.135528564453125,-0.9865264892578124,-0.119873046875,-0.0310005266219377,-0.0225492510944604,-0.0022796657867729
1768726653619,-0.1362762451171875,-0.9768524169921876,-0.122833251953125,-0.0391894802451133,-0.018743060529232,0.0021968416403979
1768726653628,-0.1314849853515625,-0.971893310546875,-0.12493896484375,-0.0442915633320808,-0.0080131851136684,0.0035867453552782
1768726653639,-0.131011962890625,-0.97509765625,-0.1319580078125,-0.0452439114451408,0.0032517197541892,0.0040314933285117
1768726653650,-0.1337127685546875,-0.98223876953125,-0.1365814208984375,-0.0417418554425239,-0.0010114685865119,0.0042927493341267
1768726653659,-0.135894775390625,-0.989532470703125,-0.1344146728515625,-0.0292705371975898,-0.0136633478105068,0.0058032944798469
1768726653669,-0.1354827880859375,-0.986846923828125,-0.138458251953125,-0.0081743067130446,-0.0158503353595733,0.0075926720164716
1768726653679,-0.13531494140625,-0.98370361328125,-0.1463470458984375,0.0175584871321916,-0.010710434988141,0.0097500989213585
1768726653689,-0.1388397216796875,-0.9834136962890624,-0.1457366943359375,0.040948498994112,-0.0052940980531275,0.0085791070014238
1768726653699,-0.143157958984375,-0.9863128662109376,-0.1379852294921875,0.0534722805023193,-0.0051646684296429,0.0053092776797711
1768726653709,-0.1459503173828125,-0.98577880859375,-0.126312255859375,0.0572521053254604,-0.0155355501919984,0.0002716424351092
1768726653719,-0.145355224609375,-0.9884796142578124,-0.117767333984375,0.0513404197990894,-0.0223729498684406,-0.0054805190302431
1768726653729,-0.143798828125,-0.98992919921875,-0.11090087890625,0.041836928576231,-0.0157744362950325,-0.0110664991661906
1768726653739,-0.143707275390625,-0.98443603515625,-0.109619140625,0.030924092978239,0.0060730725526809,-0.0084685860201716
1768726653750,-0.136199951171875,-0.9728546142578124,-0.1071319580078125,0.0164596661925315,0.0104475812986493,-0.0118039287626743
1768726653759,-0.1367950439453125,-0.9819793701171876,-0.102691650390625,0.0003536677977535,0.0108678275719285,-0.0194703713059425
1768726653769,-0.14117431640625,-0.977874755859375,-0.098419189453125,-0.0152585813775658,0.0115211009979248,-0.0184330698102712
1768726653779,-0.132659912109375,-0.9669189453125,-0.0976715087890625,-0.0236403476446867,-0.0072240908630192,-0.0118779642507433
1768726653789,-0.1284027099609375,-0.9733123779296876,-0.1001129150390625,-0.0340929888188838,-0.0117160445079207,-0.0197201743721961
1768726653799,-0.138336181640625,-0.983917236328125,-0.104949951171875,-0.0456186160445213,-0.0048200553283095,-0.0241828337311744
1768726653809,-0.140625,-0.982391357421875,-0.106689453125,-0.0504551827907562,-0.0067431237548589,-0.0219313967972993
1768726653819,-0.1352081298828125,-0.9796905517578124,-0.1129150390625,-0.0516605302691459,-0.0134228644892573,-0.0176413115113973
1768726653829,-0.1327362060546875,-0.9781036376953124,-0.119659423828125,-0.053805973380804,-0.0185241494327783,-0.0178160145878791
1768726653840,-0.136505126953125,-0.98077392578125,-0.1237640380859375,-0.0562632717192173,-0.0124548049643635,-0.0166873671114444
1768726653850,-0.137908935546875,-0.9802398681640624,-0.1278839111328125,-0.0498615652322769,-0.0031808796338737,-0.0161523390561342
1768726653860,-0.1392364501953125,-0.9806976318359376,-0.1344146728515625,-0.0392030626535415,0.0018184063956141,-0.0151456631720066
1768726653870,-0.1356658935546875,-0.9828948974609376,-0.14007568359375,-0.0257343910634517,0.0081974761560559,-0.0169169325381517
1768726653880,-0.13555908203125,-0.982818603515625,-0.142578125,-0.0081751057878136,0.0155318221077322,-0.016433035954833
1768726653890,-0.132568359375,-0.9791717529296876,-0.1409454345703125,0.0036163064651191,0.0089005501940846,-0.0145877311006188
1768726653900,-0.1293792724609375,-0.9793243408203124,-0.1380157470703125,0.0153805539011955,-0.006057892460376,-0.0100390519946813
1768726653910,-0.1263427734375,-0.9769439697265624,-0.135284423828125,0.0222840011119842,-0.0134295225143432,-0.0031486554071307
1768726653920,-0.1258087158203125,-0.9755401611328124,-0.1344146728515625,0.0255349203944206,-0.0112976618111133,0.0050735883414745
1768726653930,-0.1268463134765625,-0.975799560546875,-0.13177490234375,0.0285671968013048,-0.011052917689085,0.0089074745774269
1768726653940,-0.1274261474609375,-0.9779205322265624,-0.1317291259765625,0.0285802464932203,0.0026884609833359,0.0124105969443917
1768726653950,-0.13037109375,-0.978607177734375,-0.12896728515625,0.0248499568551778,0.0130146015435457,0.0105562377721071
1768726653960,-0.1356201171875,-0.98052978515625,-0.120330810546875,0.015681492164731,0.0158620532602071,0.0057742656208574
1768726653970,-0.1381072998046875,-0.9808197021484376,-0.1151580810546875,0.0084877610206604,0.0081482073292136,-0.0004412857815623
1768726653980,-0.13916015625,-0.983123779296875,-0.114654541015625,0.0014359764754772,-0.0037382792215794,-0.0057977014221251
1768726653990,-0.1361846923828125,-0.9837646484375,-0.115692138671875,0.0009885653853416,-0.000341150938766,-0.007351123727858
1768726654000,-0.1396331787109375,-0.984130859375,-0.1200714111328125,-0.0014903049450367,0.0138231376186013,-0.0064254086464643
1768726654010,-0.139923095703125,-0.982940673828125,-0.1182708740234375,-0.0061404504813253,0.0202829018235206,-0.0072091771289706
1768726654020,-0.1401824951171875,-0.9853515625,-0.113433837890625,-0.0073567163199186,0.0203713178634643,-0.0060549629852175
1768726654030,-0.138641357421875,-0.9837188720703124,-0.111328125,-0.0113466642796993,0.0114396084100008,-0.0075516593642532
1768726654040,-0.1343994140625,-0.981231689453125,-0.1108856201171875,-0.0133078154176473,3.994741746282671e-06,-0.0029601035639643
1768726654050,-0.1301116943359375,-0.980621337890625,-0.1114044189453125,-0.0129355061799287,-0.0059039616025984,0.0003118561580777
1768726654060,-0.1298828125,-0.979339599609375,-0.1154632568359375,-0.0098435757681727,-0.0010122675448656,0.0022485069930553
1768726654071,-0.132781982421875,-0.977020263671875,-0.1179962158203125,-0.0152500588446855,-0.0017800568602979,0.0059263324365019
1768726654081,-0.1326751708984375,-0.9774017333984376,-0.1151580810546875,-0.0173584837466478,-0.0098419776186347,0.0107751497998833
1768726654091,-0.12872314453125,-0.957366943359375,-0.1173858642578125,-0.0133078154176473,-0.0040807616896927,0.0304231531918048
1768726654101,-0.1185150146484375,-0.9432525634765624,-0.1189727783203125,-0.0102180168032646,-0.0137376496568322,0.0330729968845844
1768726654111,-0.13189697265625,-0.98876953125,-0.1225738525390625,-0.0140218092128634,0.0005203816690482,-0.0036796897184103
1768726654121,-0.1600341796875,-1.0184478759765625,-0.12286376953125,-0.0185236167162656,0.0403463579714298,-0.0214232672005891
1768726654131,-0.154052734375,-0.9860992431640624,-0.117523193359375,-0.0159440785646438,0.0295634847134351,-0.011700065806508
1768726654141,-0.133056640625,-0.9621124267578124,-0.11175537109375,-0.0257676821202039,-0.0007707187905907,0.0014783206861466
1768726654151,-0.130523681640625,-0.9659576416015624,-0.1051788330078125,-0.0396861582994461,-0.0211859792470932,0.0014247911749407
1768726654161,-0.141387939453125,-0.9857177734375,-0.109039306640625,-0.0512123219668865,-0.0190567821264266,-0.0092510227113962
1768726654171,-0.14593505859375,-0.994537353515625,-0.114166259765625,-0.0623555183410644,-0.0188474580645561,-0.012599148787558
1768726654181,-0.136566162109375,-0.9877166748046876,-0.119781494140625,-0.0764020979404449,-0.0174146760255098,-0.0049521480686962
1768726654191,-0.129852294921875,-0.97711181640625,-0.1257781982421875,-0.0790298357605934,-0.0240819007158279,-0.0020993698853999
1768726654201,-0.1342315673828125,-0.9810638427734376,-0.139312744140625,-0.0731008425354957,-0.0002149171050405,0.0043638558126986
1768726654211,-0.13177490234375,-0.9810638427734376,-0.1492767333984375,-0.0635997503995895,0.0161286368966102,0.0044064661487936
1768726654221,-0.1237640380859375,-0.981109619140625,-0.1496734619140625,-0.0498732849955558,0.010162622667849,0.0041601238772273
1768726654231,-0.1211395263671875,-0.9811859130859376,-0.1492767333984375,-0.0327997580170631,0.0015307849971577,0.0109016494825482
1768726654241,-0.1252288818359375,-0.984588623046875,-0.154541015625,0.0010506170801818,0.0041761030443012,0.0096659427508711
1768726654251,-0.129119873046875,-0.9868927001953124,-0.1620941162109375,0.0313592553138732,0.0034455978311598,0.0126103339716792
1768726654261,-0.127197265625,-0.9813385009765624,-0.16253662109375,0.0633289068937301,-0.0064949174411594,0.0197396166622638
1768726654271,-0.1312103271484375,-0.9821929931640624,-0.1559295654296875,0.0889642238616943,0.0046472162939608,0.0209100749343633
1768726654284,-0.1341400146484375,-0.9844970703125,-0.1482086181640625,0.1072010248899459,0.0110819460824131,0.0205287113785743
1768726654291,-0.141571044921875,-0.989105224609375,-0.1375885009765625,0.1091525852680206,0.019376628100872,0.0209731925278902
1768726654301,-0.1414947509765625,-0.98779296875,-0.1174774169921875,0.0963078960776329,0.0071577779017388,0.0127187250182032
1768726654312,-0.1441497802734375,-0.986480712890625,-0.0985565185546875,0.0739160329103469,0.0100678140297532,0.0058363173156976
1768726654322,-0.144927978515625,-0.9783782958984376,-0.0873260498046875,0.0437767766416072,0.0043755737133324,-0.0019845876377075
1768726654332,-0.1462249755859375,-0.982177734375,-0.083892822265625,0.0073615098372101,0.0028738172259181,-0.0145214181393384
1768726654342,-0.1467742919921875,-0.97381591796875,-0.08306884765625,-0.0123003423213958,-0.0052024852484464,-0.0186437256634235
1768726654352,-0.134246826171875,-0.9689788818359376,-0.082977294921875,-0.0153981307521462,-0.048702023923397,-0.0347537174820899
1768726654362,-0.1263885498046875,-0.9770660400390624,-0.0838623046875,-0.0263935234397649,-0.0843252688646316,-0.0266132354736328
1768726654372,-0.1314239501953125,-0.972381591796875,-0.0882415771484375,-0.0829755738377571,-0.0402962900698185,-0.0134020913392305
1768726654382,-0.1460418701171875,-0.971923828125,-0.11297607421875,-0.1202039048075676,0.0708635225892067,-0.0094558196142315
1768726654392,-0.1403350830078125,-0.978302001953125,-0.1392974853515625,-0.1198046952486038,0.1351833939552307,-0.0080009344965219
1768726654402,-0.1267547607421875,-0.97528076171875,-0.136138916015625,-0.1061045974493026,0.0995819866657257,-0.0066698868758976
1768726654412,-0.12628173828125,-0.980743408203125,-0.1126556396484375,-0.1091219559311866,0.0110952612012624,-0.0073383403941988
1768726654422,-0.131103515625,-0.9851837158203124,-0.1077880859375,-0.0974490568041801,-0.0337225422263145,-0.0125645278021693
1768726654433,-0.1370849609375,-0.9829864501953124,-0.1336669921875,-0.0610183477401733,-0.0327464938163757,-0.0233916081488132
1768726654442,-0.1360931396484375,-0.98828125,-0.155914306640625,-0.0315033309161663,-0.0288433656096458,-0.0230983942747116
1768726654452,-0.136962890625,-0.9822998046875,-0.1580047607421875,-0.0225447230041027,-0.0168519504368305,-0.0145232826471328
1768726654462,-0.1405792236328125,-0.9797515869140624,-0.1556243896484375,-0.0142210135236382,0.0071476581506431,-0.0063668191432952
1768726654472,-0.1389617919921875,-0.980194091796875,-0.15875244140625,0.0094030890613794,0.0335233397781848,-0.0007193197961896
1768726654483,-0.13226318359375,-0.982513427734375,-0.1595916748046875,0.0325755216181278,0.0411247983574867,-0.000638626050204
1768726654492,-0.1251220703125,-0.9796905517578124,-0.1450042724609375,0.0484468936920166,0.0167350377887487,0.007244330830872
1768726654502,-0.1214447021484375,-0.975433349609375,-0.129302978515625,0.0526741296052932,-0.0119061945006251,0.013620470650494
1768726654512,-0.125518798828125,-0.97808837890625,-0.1214141845703125,0.0486202649772167,-0.0253072213381528,0.0192946027964353
1768726654523,-0.130828857421875,-0.9808807373046876,-0.1231689453125,0.0375795997679233,-0.0168428961187601,0.0216701421886682
1768726654532,-0.1327972412109375,-0.9801177978515624,-0.1250152587890625,0.026069151237607,0.0067135626450181,0.0211212635040283
1768726654543,-0.1368408203125,-0.9818572998046876,-0.1275482177734375,0.0198032651096582,0.0276995375752449,0.0184698216617107
1768726654553,-0.14459228515625,-0.9863433837890624,-0.124053955078125,0.0186538454145193,0.0283091366291046,0.0102390553802251
1768726654563,-0.1471405029296875,-0.9886474609375,-0.11541748046875,0.0138556277379393,0.0126366997137665,0.0020690099336206
1768726654573,-0.1467132568359375,-0.9872894287109376,-0.105926513671875,0.0093777887523174,-0.0112356105819344,-0.0032519858796149
1768726654583,-0.14520263671875,-0.980072021484375,-0.099700927734375,0.0005568669876083,-0.0229782871901989,-0.0052986252121627
1768726654593,-0.1400299072265625,-0.9752960205078124,-0.1029510498046875,-0.0136851854622364,-0.0160079952329397,-0.0102265384048223
1768726654603,-0.1407470703125,-0.9780120849609376,-0.1077423095703125,-0.0255671460181474,-0.0049212551675736,-0.0155928079038858
1768726654613,-0.13812255859375,-0.976806640625,-0.110321044921875,-0.0367492251098156,0.0026338663883507,-0.0196253657341003
1768726654623,-0.134033203125,-0.9767913818359376,-0.1121063232421875,-0.0519473552703857,0.0022801985032856,-0.0211814511567354
1768726654633,-0.1290130615234375,-0.9799346923828124,-0.1136474609375,-0.0668253675103187,-0.0029531794134527,-0.0232637766748666
1768726654643,-0.12762451171875,-0.9804840087890624,-0.1182098388671875,-0.0715341046452522,-3.7550569686573e-05,-0.0195920765399932
1768726654653,-0.1216583251953125,-0.9722747802734376,-0.1297760009765625,-0.0650983080267906,0.0047811730764806,-0.0065814699046313
1768726654663,-0.12030029296875,-0.9700469970703124,-0.1424560546875,-0.0510994046926498,0.0255359858274459,0.0149009190499782
1768726654673,-0.112579345703125,-0.942291259765625,-0.1504058837890625,-0.030704915523529,0.0239210445433855,0.035951342433691
1768726654684,-0.1117095947265625,-0.9623870849609376,-0.1518096923828125,-0.0161424838006496,0.0068198228254914,0.0283802431076765
1768726654693,-0.13555908203125,-1.0044097900390625,-0.1492767333984375,-0.0095066856592893,0.0147142307832837,-0.0054525560699403
1768726654703,-0.15673828125,-1.016937255859375,-0.147430419921875,0.0075753615237772,0.0352333560585975,-0.0216871853917837
1768726654713,-0.1432952880859375,-0.9840850830078124,-0.1430816650390625,0.0228778850287199,0.0189294833689928,0.0044911550357937
1768726654723,-0.1214599609375,-0.9558258056640624,-0.13555908203125,0.0271525252610445,-0.013253754004836,0.0196224376559257
1768726654733,-0.12939453125,-0.9726715087890624,-0.1258697509765625,0.023264842107892,-0.0291477646678686,0.0133970314636826
1768726654743,-0.1450042724609375,-0.9979705810546876,-0.1217803955078125,0.0213657431304454,-0.0233061220496892,0.0047324374318122
1768726654754,-0.145965576171875,-1.0025787353515625,-0.12548828125,0.0263581033796072,-0.0090102730318903,-0.0013060141354799
1768726654764,-0.1373291015625,-0.9888458251953124,-0.1318206787109375,0.0248664673417806,0.0058757322840392,0.0021062940359115
1768726654774,-0.1309661865234375,-0.9771575927734376,-0.1264495849609375,0.0128066092729568,0.0057130130007863,0.0061939801089465
1768726654784,-0.1313323974609375,-0.974456787109375,-0.1212921142578125,-0.0013515542959794,-0.0022556975018233,0.0123405558988451
1768726654794,-0.1307525634765625,-0.97711181640625,-0.1208343505859375,-0.0110992565751075,0.001153415068984,0.0144290067255496
1768726654804,-0.1288604736328125,-0.9767303466796876,-0.1238250732421875,-0.0160471424460411,0.0038557245861738,0.0191673021763563
1768726654814,-0.1305694580078125,-0.9781341552734376,-0.12359619140625,-0.0152782890945672,0.0025126924738287,0.0178306624293327
1768726654824,-0.1351776123046875,-0.98052978515625,-0.1224517822265625,-0.0162687189877033,-0.0044741104356944,0.016816796734929
1768726654834,-0.138214111328125,-0.981903076171875,-0.1226959228515625,-0.0137975709512829,-0.0080027990043163,0.0132220620289444
1768726654844,-0.1409759521484375,-0.9764556884765624,-0.12579345703125,-0.0075372783467173,-0.007333546411246,0.0099775325506925
1768726654854,-0.1436309814453125,-0.978424072265625,-0.133056640625,-0.0014484933344647,0.0044104610569775,0.0074198329821228
1768726654864,-0.1450653076171875,-0.981597900390625,-0.1337738037109375,0.0006191849242895,0.0124319018796086,0.0041010016575455
1768726654874,-0.1441802978515625,-0.9854888916015624,-0.128448486328125,-0.0048855687491595,0.0086731165647506,-0.0027345337439328
1768726654884,-0.145477294921875,-0.987701416015625,-0.1212158203125,-0.0058016963303089,-0.0010594055056571,-0.0077154440805315
1768726654894,-0.1433563232421875,-0.9833831787109376,-0.119537353515625,-0.0047236490063369,-0.01137968711555,-0.0064254086464643
1768726654904,-0.1351165771484375,-0.9830780029296876,-0.122772216796875,-0.0072754896245896,-0.0147453900426626,-0.0065513760782778
1768726654914,-0.13446044921875,-0.984283447265625,-0.128662109375,-0.0037473340053111,0.001848233747296,-0.0062967780977487
1768726654924,-0.133026123046875,-0.975616455078125,-0.133697509765625,-0.0006101301987655,0.0196088552474975,-0.0034389398060739
1768726654934,-0.128631591796875,-0.9762420654296876,-0.13189697265625,-0.0026567694731056,0.0222986470907926,-0.005079180933535
1768726654945,-0.128509521484375,-0.9782867431640624,-0.1245880126953125,-0.0102249402552843,0.0091269193217158,-0.0020503676496446
1768726654954,-0.127655029296875,-0.97412109375,-0.12176513671875,-0.0113378753885626,0.001054611755535,-0.0014357101172208
1768726654964,-0.130615234375,-0.9757843017578124,-0.124053955078125,-0.0108249504119157,0.0048102014698088,0.0015611450653523
1768726654975,-0.1310272216796875,-0.975006103515625,-0.126495361328125,-0.0109738213941454,0.0067987837828695,0.0013992248568683
1768726654985,-0.132568359375,-0.977081298828125,-0.1258087158203125,-0.0093737943097949,0.0019864519126713,0.0006575344596058
1768726654995,-0.1339111328125,-0.9774627685546876,-0.1239166259765625,-0.0098592890426516,-0.0078944079577922,0.001023452845402
1768726655005,-0.13372802734375,-0.9778594970703124,-0.1229248046875,-0.0126303080469369,0.0040663806721568,0.0006607302348129
1768726655015,-0.1391754150390625,-0.98223876953125,-0.127716064453125,-0.0169632714241743,0.012909673154354,0.0003608583356253
1768726655025,-0.1390533447265625,-0.9826812744140624,-0.12860107421875,-0.018788069486618,0.0172085482627153,0.0016551546286791
1768726655035,-0.1384429931640625,-0.9798583984375,-0.1280517578125,-0.0184144265949726,0.0124036725610494,0.001978195970878
1768726655045,-0.137603759765625,-0.982269287109375,-0.1277923583984375,-0.017217868939042,0.0049548111855983,0.0025683525018393
1768726655055,-0.1361083984375,-0.9836273193359376,-0.1297149658203125,-0.0132018215954303,0.0062211444601416,0.0028674255590885
1768726655065,-0.13861083984375,-0.9833831787109376,-0.132049560546875,-0.0117325559258461,0.005233644042164,-0.0038738341536372
1768726655075,-0.1385955810546875,-0.98443603515625,-0.132720947265625,-0.0105043062940239,0.0095996307209134,-0.0043790359050035
1768726655085,-0.135498046875,-0.9798126220703124,-0.1323394775390625,-0.0043505397625267,0.0070307450369,-0.0011488876771181
1768726655095,-0.135040283203125,-0.9791259765625,-0.1311492919921875,-0.0025124261155724,0.000966461142525,0.0007981493836268
1768726655105,-0.13525390625,-0.982147216796875,-0.1286163330078125,-0.005291168577969,-0.0093397060409188,-0.0016522251535207
1768726655117,-0.1370391845703125,-0.9835968017578124,-0.12548828125,-0.0093927029520273,-0.0114009929820895,-0.0051007522270083
1768726655125,-0.1390533447265625,-0.98431396484375,-0.1253204345703125,-0.0149757536128163,-0.0089064091444015,-0.0057297912426292
1768726655135,-0.1377716064453125,-0.9820098876953124,-0.130279541015625,-0.0132572157308459,0.0025952504947781,-0.003532683243975
1768726655145,-0.1373748779296875,-0.97918701171875,-0.1330413818359375,-0.0101932492107152,0.0089141326025128,0.0012825783342123
1768726655155,-0.1362152099609375,-0.975433349609375,-0.1329193115234375,-0.0069460566155612,0.0115514611825346,0.0078704403713345
1768726655165,-0.1346282958984375,-0.97259521484375,-0.1331024169921875,-0.0021387846209108,0.0086467517539858,0.0136220688000321
1768726655175,-0.1338958740234375,-0.97509765625,-0.1342926025390625,-0.0007811051327735,0.0120598590001463,0.0089412974193692
1768726655185,-0.1368255615234375,-0.9799957275390624,-0.1324920654296875,-0.0025949841365218,0.0216853208839893,0.0028146950062364
1768726655195,-0.1385040283203125,-0.9780731201171876,-0.1269683837890625,-0.0065814699046313,0.0201603956520557,0.0005531385540962
1768726655206,-0.13775634765625,-0.981597900390625,-0.1251373291015625,-0.0085961511358618,0.0072390045970678,-0.0040791640058159
1768726655216,-0.13922119140625,-0.9853057861328124,-0.125152587890625,-0.0122209796682,-0.0012418320402503,-0.0049297772347927
1768726655226,-0.135162353515625,-0.979248046875,-0.1242828369140625,-0.0064733456820249,-0.0084595307707786,-0.0023656859993934
1768726655236,-0.131378173828125,-0.9769439697265624,-0.127166748046875,-0.0086161252111196,-0.0122595960274338,0.0034413367975503
1768726655246,-0.128570556640625,-0.9653472900390624,-0.1305084228515625,-0.0040559940971434,-0.0005776396137662,0.0292367152869701
1768726655256,-0.1184234619140625,-0.9381256103515624,-0.13519287109375,0.0054797204211354,-0.0009598032338544,0.0427887439727783
1768726655266,-0.12432861328125,-0.9756011962890624,-0.1376190185546875,0.0022479742765426,0.0061971759423613,0.0215833224356174
1768726655276,-0.145050048828125,-1.00213623046875,-0.130859375,-0.0079852221533656,0.009131446480751,-0.0001438106992281
1768726655287,-0.154541015625,-1.006195068359375,-0.130828857421875,-0.0068379323929548,0.0255141481757164,-0.0094222640618681
1768726655296,-0.13922119140625,-0.9770965576171876,-0.1312408447265625,0.0043372241780161,0.0154226319864392,0.0173449013382196
1768726655306,-0.124664306640625,-0.9555206298828124,-0.132476806640625,0.0112545182928442,0.0056285909377038,0.0319787040352821
1768726655316,-0.13580322265625,-0.977813720703125,-0.1304779052734375,0.0111471936106681,0.0064136907458305,0.0202466826885938
1768726655326,-0.1474151611328125,-1.0002593994140625,-0.1290740966796875,0.0147632332518696,0.0193997975438833,0.0098981708288192
1768726655336,-0.1453857421875,-0.9908905029296876,-0.1270751953125,0.0168530158698558,0.0229593776166439,0.0107461214065551
1768726655346,-0.1376495361328125,-0.9788055419921876,-0.123199462890625,0.0150660350918769,0.0147019810974597,0.0093032205477356
1768726655356,-0.1316070556640625,-0.9761505126953124,-0.119659423828125,0.0028091021813452,0.0045217811129987,0.0109983226284384
1768726655366,-0.1327056884765625,-0.9765167236328124,-0.1163330078125,-0.0134441694244742,0.0035148400347679,0.0142492428421974
1768726655376,-0.13470458984375,-0.9775848388671876,-0.1195068359375,-0.0247460920363664,0.008658736012876,0.017374463379383
1768726655387,-0.134552001953125,-0.979339599609375,-0.1232147216796875,-0.0347092449665069,0.0092076128348708,0.0179238729178905
1768726655396,-0.136383056640625,-0.980499267578125,-0.1243896484375,-0.0397838987410068,0.0106356004253029,0.0181837975978851
1768726655406,-0.140594482421875,-0.9818115234375,-0.1280059814453125,-0.0400938913226127,0.0087239826098084,0.0142329977825284
1768726655417,-0.145233154296875,-0.9842071533203124,-0.1318511962890625,-0.037447240203619,0.0108233531937003,0.0082597937434911
1768726655426,-0.1468353271484375,-0.9845733642578124,-0.1345367431640625,-0.0303698889911174,0.0192541219294071,0.0036272252909839
1768726655437,-0.1488037109375,-0.9835968017578124,-0.1382598876953125,-0.0236635170876979,0.0237255692481994,-0.0008527441532351
1768726655446,-0.1488189697265625,-0.983489990234375,-0.1376953125,-0.0223351325839757,0.0174817889928817,-0.001546763931401
1768726655457,-0.145751953125,-0.982452392578125,-0.132232666015625,-0.0244241170585155,0.009467271156609,-0.0045747780241072
1768726655467,-0.1447601318359375,-0.9843597412109376,-0.1297149658203125,-0.0284955576062202,0.0090073430910706,-0.0081380875781178
1768726655477,-0.1415557861328125,-0.9817352294921876,-0.1295623779296875,-0.0349755622446537,-0.0003640541108325,-0.008952216245234
1768726655487,-0.13873291015625,-0.9845428466796876,-0.13177490234375,-0.0396043993532657,0.0043502734042704,-0.0086257122457027
1768726655497,-0.1366424560546875,-0.9759521484375,-0.135589599609375,-0.0415098927915096,0.0163422208279371,-0.0058072889223694
1768726655507,-0.1326751708984375,-0.975677490234375,-0.1407928466796875,-0.0370973013341426,0.0179252047091722,-0.0059859869070351
1768726655517,-0.13214111328125,-0.9811553955078124,-0.14044189453125,-0.031837023794651,0.0204418916255235,-0.0069910641759634
1768726655527,-0.1332550048828125,-0.9786376953125,-0.139312744140625,-0.0233364813029766,0.0163669884204864,-0.0066834688186645
1768726655537,-0.1340484619140625,-0.9784393310546876,-0.1380462646484375,-0.0112571818754076,0.007940481416881,-0.0027092336677014
1768726655547,-0.133087158203125,-0.9780120849609376,-0.1387939453125,0.0026146916206926,0.0044477451592683,-0.0016642092959955
1768726655557,-0.1345977783203125,-0.97760009765625,-0.1380615234375,0.0105730155482888,0.0033859428949654,-0.0032519858796149
1768726655568,-0.1362152099609375,-0.9792022705078124,-0.1357879638671875,0.0164961516857147,0.0021491709630936,-0.0014231932582333
1768726655577,-0.1354522705078125,-0.977874755859375,-0.1309356689453125,0.0179483741521835,0.0030293457675725,-0.0004948153509758
1768726655587,-0.137176513671875,-0.9781951904296876,-0.1273193359375,0.0131685324013233,0.0033095101825892,-0.003982757218182
1768726655597,-0.1403961181640625,-0.9806365966796876,-0.1236114501953125,0.0029073730111122,0.0027917916886508,-0.0081772357225418
1768726655607,-0.142852783203125,-0.98297119140625,-0.120880126953125,-0.008942361921072,0.0020538298413157,-0.0156205045059323
1768726655617,-0.1429290771484375,-0.9818572998046876,-0.120758056640625,-0.021229388192296,0.0071809473447501,-0.0155462026596069
1768726655627,-0.13916015625,-0.9807586669921876,-0.1219329833984375,-0.0333414450287818,0.009869142435491,-0.0177033636718988
1768726655637,-0.1413116455078125,-0.9824371337890624,-0.12445068359375,-0.0429541245102882,0.0071157002821564,-0.0201798360794782
1768726655647,-0.1415252685546875,-0.9835968017578124,-0.1231536865234375,-0.0514069981873035,0.0093892402946949,-0.023471238091588
1768726655658,-0.1419219970703125,-0.981353759765625,-0.1253814697265625,-0.0594172552227973,0.0066717509180307,-0.0265871360898017
1768726655668,-0.1385345458984375,-0.9856414794921876,-0.128143310546875,-0.0615544393658638,-0.0003696467611007,-0.027490746229887
1768726655678,-0.13824462890625,-0.9853057861328124,-0.131988525390625,-0.0626319572329521,-0.0043388218618929,-0.0286950282752513
1768726655688,-0.1350555419921875,-0.9834136962890624,-0.136993408203125,-0.0592555999755859,-0.0054576159454882,-0.0298511069267988
1768726655698,-0.132720947265625,-0.9807586669921876,-0.14166259765625,-0.0479520782828331,0.0020024308469146,-0.0261117611080408
1768726655708,-0.130096435546875,-0.9813690185546876,-0.147552490234375,-0.0399777777493,0.0042296322062611,-0.0270372107625007
1768726655718,-0.1270599365234375,-0.97955322265625,-0.1461181640625,-0.0296023674309253,-0.0002492718631401,-0.0223263446241617
1768726655728,-0.1250762939453125,-0.9764556884765624,-0.148223876953125,-0.0174980331212282,0.0034381409641355,-0.0158719066530466
1768726655738,-0.1244354248046875,-0.9717559814453124,-0.1496429443359375,-0.0112688997760415,0.0105522433295845,-0.0071316789835691
1768726655748,-0.1255340576171875,-0.9720611572265624,-0.146942138671875,-0.0098446412011981,0.0062914518639445,-0.0025736789684742
1768726655758,-0.1304931640625,-0.9757232666015624,-0.1451416015625,-0.0086688557639718,-0.0025473134592175,-0.0012277172645553
1768726655768,-0.1348724365234375,-0.977142333984375,-0.14404296875,-0.00847923848778,0.0113751599565148,-0.0027611653786152
1768726655778,-0.1383056640625,-0.977081298828125,-0.141143798828125,-0.0080027990043163,0.0059668123722076,-0.0018508969806134
1768726655788,-0.1389923095703125,-0.9786224365234376,-0.1408233642578125,-0.0055849151685833,0.0072214277461171,0.0025907231029123
1768726655798,-0.141204833984375,-0.982513427734375,-0.1436309814453125,-0.0004886900424025,0.0170088112354278,0.0026945862919092
1768726655808,-0.1405792236328125,-0.976470947265625,-0.1435699462890625,0.0055542886257171,0.0170687325298786,0.005583050660789
1768726655818,-0.135986328125,-0.97247314453125,-0.144561767578125,0.0122260395437479,0.0132942339405417,0.0172000266611576
1768726655828,-0.130645751953125,-0.9491424560546876,-0.14044189453125,0.0170844439417123,0.0052922335453331,0.0305091738700866
1768726655838,-0.1310272216796875,-0.964263916015625,-0.136474609375,0.0193609148263931,-0.0094875115901231,0.0184205528348684
1768726655848,-0.1455535888671875,-0.9965362548828124,-0.1356658935546875,0.0189174991101026,-0.0044035366736352,-0.0090297134593129
1768726655858,-0.1585540771484375,-1.0108642578125,-0.13519287109375,0.0215055588632822,0.0106539754197001,-0.0309491269290447
1768726655868,-0.149810791015625,-0.99957275390625,-0.13055419921875,0.028832446783781,0.0097732683643698,-0.0221782736480236
1768726655878,-0.1340484619140625,-0.9639434814453124,-0.1255340576171875,0.0274766311049461,-9.24116902751848e-05,0.0038645130116492
1768726655889,-0.1269073486328125,-0.96185302734375,-0.117889404296875,0.0197364203631877,-0.0074376761913299,0.0037744981236755
1768726655899,-0.1364898681640625,-0.985260009765625,-0.116058349609375,0.0077380808070302,-0.0056722667068243,-0.0035105790011584
1768726655909,-0.1374664306640625,-0.9883880615234376,-0.1138153076171875,-0.010013485327363,-0.0075647090561687,-0.0072169001214206
1768726655919,-0.1306915283203125,-0.9811859130859376,-0.1138153076171875,-0.027674239128828,-0.0098968390375375,-0.0063926517032086
1768726655929,-0.129608154296875,-0.97454833984375,-0.1142730712890625,-0.048213068395853,-0.0094566186890006,-0.0077335536479949
1768726655939,-0.1282196044921875,-0.972625732421875,-0.11798095703125,-0.0695500522851944,-0.0115613145753741,-0.0047849016264081
1768726655949,-0.127532958984375,-0.97393798828125,-0.1269989013671875,-0.0831476151943206,-0.0074877436272799,-0.0034163030795753
1768726655959,-0.1280364990234375,-0.9776763916015624,-0.1342010498046875,-0.088498443365097,0.0055566853843629,-0.0047769118100404
1768726655969,-0.1304168701171875,-0.98077392578125,-0.1450347900390625,-0.0812959223985672,0.0144007774069905,-0.0047228499315679
1768726655979,-0.1316375732421875,-0.9821929931640624,-0.1528778076171875,-0.0721916407346725,0.0057087522000074,-0.0039542615413665
1768726655989,-0.1336822509765625,-0.9844207763671876,-0.15435791015625,-0.0581948645412921,-0.0063404538668692,-0.0029294772539287
1768726655999,-0.1356964111328125,-0.9837188720703124,-0.1559906005859375,-0.0399282425642013,-0.0118617191910743,-0.0050165965221822
1768726656009,-0.1393585205078125,-0.98455810546875,-0.1608123779296875,-0.0224693566560745,-0.0115234982222318,-0.0102451806887984
1768726656019,-0.139556884765625,-0.9870758056640624,-0.1627655029296875,-0.0065500447526574,-0.0040543964132666,-0.0134324515238404
1768726656029,-0.13604736328125,-0.986968994140625,-0.1620941162109375,0.0087069384753704,0.0020437098573893,-0.0165382307022809
1768726656039,-0.13616943359375,-0.9862518310546876,-0.1626434326171875,0.0183896590024232,0.0108142979443073,-0.0208376366645097
1768726656050,-0.134490966796875,-0.9801025390625,-0.1533203125,0.0231708325445652,0.0068757492117583,-0.0195816904306411
1768726656059,-0.13104248046875,-0.981170654296875,-0.1461944580078125,0.0227641686797142,-0.000867391587235,-0.019269835203886
1768726656069,-0.1326904296875,-0.98046875,-0.1439056396484375,0.0241058692336082,0.0012058793799951,-0.0176879167556762
1768726656079,-0.129913330078125,-0.974273681640625,-0.144378662109375,0.0335891172289848,0.00314093218185,-0.0080086579546332
1768726656089,-0.1241455078125,-0.9661712646484376,-0.1413726806640625,0.0369388423860073,-0.0002157160488422,-0.0041350903920829
1768726656099,-0.1240234375,-0.9732818603515624,-0.138458251953125,0.0371287278831005,0.0079596554860472,-0.0063987770117819
1768726656110,-0.13128662109375,-0.983154296875,-0.138763427734375,0.0394877530634403,0.0138777326792478,-0.0063561666756868
1768726656120,-0.1329803466796875,-0.978607177734375,-0.1369781494140625,0.0396683178842067,0.0054498929530382,-0.0039105857722461
1768726656130,-0.1307220458984375,-0.9759674072265624,-0.133453369140625,0.0334543623030185,-0.0085825687274336,-0.0064227455295622
1768726656140,-0.13299560546875,-0.972808837890625,-0.127532958984375,0.030146449804306,-0.0199846271425485,-0.0097077544778585
1768726656150,-0.1332855224609375,-0.97491455078125,-0.1279296875,0.0332714021205902,-0.0170815158635377,-0.0033949976786971
1768726656160,-0.135345458984375,-0.9761810302734376,-0.12945556640625,0.0070658987388014,0.0054927696473896,-0.0001371527905575
1768726656170,-0.1449127197265625,-0.977630615234375,-0.128692626953125,-0.0065210163593292,0.0258244071155786,-0.0078177088871598
1768726656180,-0.1418609619140625,-0.9831085205078124,-0.131622314453125,-0.0076762954704463,0.026978088542819,-0.0124806379899382
1768726656190,-0.1339569091796875,-0.981353759765625,-0.127777099609375,-0.0158143825829029,0.0041619879193603,-0.0104635600000619
1768726656200,-0.139129638671875,-0.9807281494140624,-0.1224822998046875,-0.0205345693975687,-0.0033896714448928,-0.0128542799502611
1768726656210,-0.139312744140625,-0.9832611083984376,-0.1270599365234375,-0.0153794884681701,-0.0081713767722249,-0.0169736575335264
1768726656220,-0.1344757080078125,-0.9819183349609376,-0.138824462890625,-0.0083173187449574,-0.0200149863958358,-0.0173654071986675
1768726656230,-0.1308441162109375,-0.9783172607421876,-0.141937255859375,-0.0011536814272403,-0.0130044817924499,-0.0147163616493344
1768726656240,-0.1324310302734375,-0.9738311767578124,-0.1459197998046875,0.0067812069319188,0.0109003186225891,-0.0092385057359933
1768726656250,-0.1323089599609375,-0.9789886474609376,-0.1455535888671875,0.0147592388093471,0.0141232758760452,-0.0084331659600138
1768726656260,-0.131011962890625,-0.9827728271484376,-0.1411895751953125,0.0186146963387727,0.0048725195229053,-0.0069929282180964
1768726656270,-0.129730224609375,-0.981048583984375,-0.134368896484375,0.0218887869268655,-0.0150290168821811,-0.0027065705507993
1768726656281,-0.129852294921875,-0.9828948974609376,-0.1304168701171875,0.0243495479226112,-0.0159004032611846,7.137271313695237e-05
1768726656290,-0.132781982421875,-0.985015869140625,-0.133697509765625,0.0273432079702615,-0.0092749912291765,-0.0005211806274019
1768726656300,-0.1336517333984375,-0.9806365966796876,-0.1346588134765625,0.0261192191392183,-0.0088057424873113,-0.0003917510039173
1768726656310,-0.132904052734375,-0.977447509765625,-0.1306610107421875,0.0203548055142164,-0.0022836606949567,0.0009720537927933
1768726656320,-0.133819580078125,-0.971160888671875,-0.1271514892578125,0.0199273694306612,-0.007245129905641,-0.0034567830152809
1768726656330,-0.13433837890625,-0.9765777587890624,-0.127105712890625,0.0157209057360887,-0.0074054519645869,-0.0045105959288775
1768726656341,-0.134765625,-0.9805908203125,-0.1271209716796875,0.0096403770148754,0.002356098499149,-0.0088851042091846
1768726656351,-0.1369781494140625,-0.9765472412109376,-0.124237060546875,0.0017105482984334,0.0082123894244432,-0.0085628619417548
1768726656361,-0.1348724365234375,-0.9764251708984376,-0.1232757568359375,-0.0113317500799894,0.0077340858988463,-0.0107621001079678
1768726656371,-0.1334686279296875,-0.97967529296875,-0.1204071044921875,-0.0249697975814342,-0.0037784930318593,-0.013081713579595
1768726656381,-0.132965087890625,-0.9806671142578124,-0.121673583984375,-0.0327355749905109,-0.004310059826821,-0.0124673219397664
1768726656391,-0.1289215087890625,-0.9750518798828124,-0.1278533935546875,-0.0416891239583492,-0.0073215626180171,-0.0119509352371096
1768726656401,-0.12603759765625,-0.9686126708984376,-0.1334686279296875,-0.038914643228054,0.0005613943794742,0.0062467106617987
1768726656411,-0.11492919921875,-0.94744873046875,-0.1413116455078125,-0.0308007895946502,0.0031188279390335,0.0176711380481719
1768726656421,-0.1159515380859375,-0.970489501953125,-0.147216796875,-0.0293344520032405,0.000296143523883,0.0017078851815313
1768726656431,-0.1362762451171875,-1.0006103515625,-0.1463623046875,-0.0297341924160718,0.0123786386102437,-0.0195095185190439
1768726656441,-0.1425628662109375,-1.001861572265625,-0.146575927734375,-0.0173294562846422,0.0187947265803813,-0.0214632134884595
1768726656451,-0.1328582763671875,-0.9805755615234376,-0.14910888671875,-0.0060791978612542,0.008100270293653,-0.0028186896815896
1768726656461,-0.1219329833984375,-0.961395263671875,-0.1472625732421875,0.0001035969689837,-9.800432599149644e-05,0.0089902989566326
1768726656471,-0.1265716552734375,-0.968597412109375,-0.14019775390625,-0.0026397253386676,-0.0087412940338253,0.0122843626886606
1768726656481,-0.131011962890625,-0.98223876953125,-0.1395111083984375,-0.003540406236425,-0.0181441158056259,0.0108539788052439
1768726656491,-0.1299591064453125,-0.989166259765625,-0.1437530517578125,-0.0049473545514047,-0.0162945501506328,0.0068696239031851
1768726656501,-0.1314544677734375,-0.9849090576171876,-0.1497955322265625,-0.0019888486713171,-0.0034248251467943,0.0087202545255422
1768726656511,-0.129669189453125,-0.9771881103515624,-0.155853271484375,0.0053929011337459,0.0090209254994988,0.0102867260575294
1768726656521,-0.1282196044921875,-0.9808502197265624,-0.156494140625,0.0178700778633356,0.0110933976247906,0.0118649154901504
1768726656531,-0.1266632080078125,-0.9848175048828124,-0.1569061279296875,0.0375132858753204,0.013137905858457,0.0144335338845849
1768726656541,-0.1279754638671875,-0.9873504638671876,-0.1536407470703125,0.0652634277939796,0.0069772158749401,0.0205260477960109
1768726656551,-0.1265716552734375,-0.9906463623046876,-0.1497802734375,0.0994999557733535,0.0008072041091509,0.0251855142414569
1768726656561,-0.129791259765625,-0.98968505859375,-0.14697265625,0.1364862024784088,0.0017614146927371,0.0294319242238998
1768726656572,-0.1323699951171875,-0.987945556640625,-0.1391143798828125,0.1612922251224517,0.002241050126031,0.0301824025809764
1768726656582,-0.135772705078125,-0.9808349609375,-0.1253814697265625,0.1721161007881164,0.0005928196478635,0.0312679074704647
1768726656592,-0.1407928466796875,-0.9789581298828124,-0.1057281494140625,0.16258305311203,-0.0055660065263509,0.0251293219625949
1768726656602,-0.1501617431640625,-0.98028564453125,-0.0855560302734375,0.1352683454751968,-0.0242422223091125,0.0167552772909402
1768726656612,-0.151824951171875,-0.9857635498046876,-0.0745849609375,0.0821396112442016,-0.0214456375688314,0.004743356257677
1768726656622,-0.154693603515625,-0.9799957275390624,-0.06365966796875,0.0340533070266246,-0.0208946298807859,0.0030426615849137
1768726656632,-0.149200439453125,-0.966552734375,-0.068756103515625,-0.023267239332199,-0.0015989618841558,-0.0023292007390409
1768726656642,-0.14776611328125,-0.97393798828125,-0.066314697265625,-0.0891722217202186,0.0119855562224984,-0.0192432031035423
1768726656652,-0.1515350341796875,-0.9777069091796876,-0.0673980712890625,-0.1456086039543151,0.0189976599067449,-0.0318056009709835
1768726656662,-0.1457977294921875,-0.9708251953125,-0.0771331787109375,-0.1854313760995865,0.0171100106090307,-0.0345340073108673
1768726656672,-0.1336212158203125,-0.9636383056640624,-0.0931243896484375,-0.2127958834171295,0.0048735849559307,-0.0428462661802768
1768726656682,-0.1333465576171875,-0.9796295166015624,-0.1116943359375,-0.2274890840053558,0.0008266451768577,-0.0539638996124267
1768726656692,-0.1358642578125,-0.9864044189453124,-0.1330718994140625,-0.2258523106575012,-0.0016181366518139,-0.0552707128226757
1768726656702,-0.12725830078125,-0.9804840087890624,-0.157745361328125,-0.1992033869028091,-0.0096241310238838,-0.0456838645040988
1768726656712,-0.117401123046875,-0.979888916015625,-0.1829681396484375,-0.1582330465316772,-0.0109780821949243,-0.0357894226908683
1768726656722,-0.110931396484375,-0.9786376953125,-0.20062255859375,-0.1133268252015113,-0.0010021475609391,-0.0259530376642942
1768726656732,-0.1115875244140625,-0.9792938232421876,-0.2064361572265625,-0.0631616562604904,0.006948453374207,-0.0124340327456593
1768726656742,-0.1099090576171875,-0.980712890625,-0.2078704833984375,-0.013963752426207,0.0187116358429193,-0.0057835867628455
1768726656752,-0.112396240234375,-0.9812774658203124,-0.2040252685546875,0.031505461782217,0.0105394599959254,0.0008194546680897
1768726656762,-0.10919189453125,-0.980712890625,-0.1950836181640625,0.0751011446118354,-0.005763613153249,0.0091929659247398
1768726656772,-0.109405517578125,-0.97900390625,-0.1942901611328125,0.121096596121788,-0.0014359764754772,0.020693028345704
1768726656783,-0.1114349365234375,-0.9751434326171876,-0.191558837890625,0.1627803891897201,0.0152007909491658,0.0319930873811244
1768726656793,-0.11358642578125,-0.9741058349609376,-0.1793212890625,0.1929734498262405,0.0275538638234138,0.0412861853837966
1768726656803,-0.1228179931640625,-0.974456787109375,-0.160736083984375,0.2031611055135727,0.0285102035850286,0.0449115484952926
1768726656813,-0.1291046142578125,-0.9742584228515624,-0.13671875,0.1976544857025146,0.0274718385189771,0.0408366471529006
1768726656823,-0.1356658935546875,-0.977203369140625,-0.1143035888671875,0.1769540011882782,0.0253325216472148,0.0315411463379859
1768726656833,-0.1444244384765625,-0.98394775390625,-0.094696044921875,0.1434588879346847,0.0311390105634927,0.0202000774443149
1768726656843,-0.1519775390625,-0.98687744140625,-0.0816497802734375,0.1047852709889411,0.0231748279184103,0.0092632733285427
1768726656853,-0.1546478271484375,-0.98748779296875,-0.0727386474609375,0.0619525834918022,0.0102313319221138,0.000974184309598
1768726656863,-0.1552886962890625,-0.989593505859375,-0.06829833984375,0.0216797292232513,0.0023646207991987,-0.0112955309450626
1768726656873,-0.15692138671875,-0.989288330078125,-0.0694732666015625,-0.0198341589421033,0.0033116408158093,-0.0192112457007169
1768726656883,-0.15386962890625,-0.9876556396484376,-0.0706329345703125,-0.0523494891822338,-0.0009361011325381,-0.0247226562350988
1768726656893,-0.14691162109375,-0.9833831787109376,-0.0784912109375,-0.0790439546108245,-0.0036780918017029,-0.0275839567184448
1768726656903,-0.1432037353515625,-0.980499267578125,-0.0877838134765625,-0.0971984565258026,-0.0022112226579338,-0.0317781679332256
1768726656913,-0.1374359130859375,-0.9774017333984376,-0.0991668701171875,-0.1055237650871276,-0.0003398193512111,-0.0296404492110013
1768726656923,-0.131744384765625,-0.97265625,-0.1116943359375,-0.1021119877696037,-0.002871686592698,-0.0271693021059036
1768726656933,-0.1259765625,-0.9764556884765624,-0.1269989013671875,-0.0960927084088325,0.0016282566357403,-0.0269866101443767
1768726656943,-0.125701904296875,-0.979339599609375,-0.1336669921875,-0.0877761915326118,0.0062344600446522,-0.0271099135279655
1768726656953,-0.1253814697265625,-0.977264404296875,-0.13555908203125,-0.0775781497359275,-0.001071389648132,-0.018851451575756
1768726656963,-0.118072509765625,-0.968780517578125,-0.1408843994140625,-0.0676355063915252,-0.0128145981580019,-0.0125109981745481
1768726656973,-0.118255615234375,-0.9662017822265624,-0.1457672119140625,-0.0517414920032024,-0.0024674187880009,0.0065380604937672
1768726656983,-0.1120147705078125,-0.93878173828125,-0.150970458984375,-0.0339023061096668,-0.0076001291163265,0.0300252772867679
1768726656994,-0.1068572998046875,-0.9574737548828124,-0.15667724609375,-0.0226376671344041,-0.0171986948698759,0.0182256083935499
1768726657004,-0.1317291259765625,-1.0047454833984375,-0.162109375,-0.0135693382471799,0.0074717649258673,-0.0054514906369149
1768726657013,-0.1449432373046875,-1.0015106201171875,-0.161590576171875,0.0078805601224303,0.0255064256489276,-0.0092174671590328
1768726657024,-0.1311187744140625,-0.9758758544921876,-0.1600799560546875,0.0301427226513624,0.0164593998342752,0.010324808768928
1768726657035,-0.11834716796875,-0.9599456787109376,-0.1542816162109375,0.0464673675596714,-0.0004247741890139,0.021760955452919
1768726657044,-0.1258544921875,-0.974273681640625,-0.143646240234375,0.0491904504597187,-0.0131597444415092,0.0146196894347667
1768726657054,-0.1366729736328125,-0.99560546875,-0.1346588134765625,0.0514291040599346,-0.0141448471695184,0.005920473486185
1768726657064,-0.137969970703125,-0.9961395263671876,-0.133087158203125,0.0536528415977954,-0.0070395334623754,0.0038448055274784
1768726657074,-0.130950927734375,-0.987823486328125,-0.1369781494140625,0.0538182258605957,0.0002362223895033,0.0101660843938589
1768726657084,-0.1288909912109375,-0.9792022705078124,-0.13226318359375,0.0419138930737972,0.0151294181123375,0.0153507264330983
1768726657094,-0.131744384765625,-0.9780426025390624,-0.125396728515625,0.0268926005810499,0.0154964020475745,0.0142353950068354
1768726657104,-0.131439208984375,-0.9823150634765624,-0.115234375,0.0091732582077384,0.0026296053547412,0.0142329977825284
1768726657114,-0.1280364990234375,-0.9821014404296876,-0.1110382080078125,-0.0033920682035386,-0.0065524415113031,0.0154793569818139
1768726657124,-0.129058837890625,-0.9795684814453124,-0.114013671875,-0.0073356772772967,-0.0092446310445666,0.0167869701981544
1768726657134,-0.1294708251953125,-0.9786529541015624,-0.1191864013671875,-0.0058754659257829,-0.0115168401971459,0.0169661995023489
1768726657144,-0.1318817138671875,-0.97808837890625,-0.127960205078125,-0.000933704257477,0.0012588762911036,0.0182101633399724
1768726657154,-0.134368896484375,-0.9753570556640624,-0.132171630859375,0.0091740572825074,0.0134066194295883,0.0215034279972314
1768726657164,-0.1395721435546875,-0.9764556884765624,-0.132965087890625,0.0177172124385833,0.0141139542683959,0.0198517348617315
1768726657174,-0.140228271484375,-0.981231689453125,-0.123687744140625,0.0147248841822147,0.0013265205780044,0.0165025442838668
1768726657184,-0.1430206298828125,-0.9856414794921876,-0.115753173828125,0.0088278464972972,-0.0080547304823994,0.0058826566673815
1768726657194,-0.146392822265625,-0.986328125,-0.1142730712890625,-0.0030322752427309,-0.0072374064475297,0.0004988100845366
1768726657204,-0.144622802734375,-0.9815826416015624,-0.1162567138671875,-0.0131126064807176,0.0057359160855412,-0.0022298647090792
1768726657214,-0.139556884765625,-0.9794769287109376,-0.117218017578125,-0.0261357296258211,0.007210508454591,-0.0079215727746486
1768726657224,-0.1427764892578125,-0.9827728271484376,-0.1175384521484375,-0.038442462682724,0.0107189565896987,-0.0095301214605569
1768726657235,-0.1379241943359375,-0.9744110107421876,-0.1170501708984375,-0.0455600284039974,0.000524376402609,-0.0089173289015889
1768726657245,-0.1312408447265625,-0.975494384765625,-0.118072509765625,-0.0529297925531864,-0.0148119693621993,-0.0124577349051833
1768726657255,-0.1327362060546875,-0.983306884765625,-0.1213226318359375,-0.0616620332002639,-0.0201433505862951,-0.0193976666778326
1768726657265,-0.1314849853515625,-0.98297119140625,-0.1280059814453125,-0.0566611476242542,-0.0147097036242485,-0.0160279683768749
1768726657275,-0.1241912841796875,-0.9776763916015624,-0.1429290771484375,-0.0431810244917869,0.0033920682035386,-0.0084115946665406
1768726657285,-0.1224822998046875,-0.976776123046875,-0.1491241455078125,-0.0322306416928768,0.017716946080327,-0.0018530274974182
1768726657295,-0.1244659423828125,-0.9791412353515624,-0.146575927734375,-0.0185739509761333,0.0161499418318271,0.0025646241847425
1768726657305,-0.1242828369140625,-0.9776458740234376,-0.14324951171875,-0.0100595578551292,0.0008724515791982,0.0078256987035274
1768726657315,-0.12005615234375,-0.9769439697265624,-0.143463134765625,0.001415470149368,-0.0007928230334073,0.0138289965689182
1768726657325,-0.1231689453125,-0.9787139892578124,-0.146881103515625,0.0110414661467075,0.0162026714533567,0.0158130507916212
1768726657335,-0.1298065185546875,-0.98089599609375,-0.1467437744140625,0.0173355806618928,0.021523667499423,0.0163419544696807
1768726657345,-0.1336517333984375,-0.979888916015625,-0.1399688720703125,0.0222805384546518,0.013530989177525,0.0151331461966037
1768726657355,-0.1326751708984375,-0.9765625,-0.138092041015625,0.0244278442114591,-0.0001930791768245,0.0159816294908523
1768726657365,-0.13427734375,-0.9794769287109376,-0.13519287109375,0.0264244172722101,-0.0063612265512347,0.0090563455596566
1768726657375,-0.136810302734375,-0.98065185546875,-0.132904052734375,0.0273176413029432,-0.0136652123183012,0.0056893108412623
1768726657385,-0.137664794921875,-0.9821624755859376,-0.131317138671875,0.0264550428837537,-0.002185123739764,0.0036362800747156
1768726657395,-0.1387786865234375,-0.9831390380859376,-0.1293487548828125,0.0232659075409173,0.0155786937102675,0.0029398635961115
1768726657405,-0.138336181640625,-0.983154296875,-0.126495361328125,0.0203484147787094,0.0226451251655817,0.0032330774702131
1768726657415,-0.1375885009765625,-0.9832916259765624,-0.1207122802734375,0.0117762321606278,0.0189649034291505,0.0060869208537042
1768726657425,-0.13677978515625,-0.982513427734375,-0.11376953125,0.0010532801970839,0.0083972131833434,0.0058826566673815
1768726657435,-0.13531494140625,-0.984954833984375,-0.110595703125,-0.0117887491360306,-0.0015235944883897,0.0006207828409969
1768726657446,-0.1340179443359375,-0.9853515625,-0.1097869873046875,-0.0189297497272491,-0.0015965650090947,0.0027670243289321
1768726657455,-0.1351165771484375,-0.98095703125,-0.1202545166015625,-0.0259383898228406,0.0064493771642446,0.0023321302141994
1768726657465,-0.1342010498046875,-0.977783203125,-0.1241607666015625,-0.032590165734291,0.0107458550482988,0.0080139841884374
1768726657476,-0.1339569091796875,-0.9744720458984376,-0.1229095458984375,-0.0386970601975917,0.0055337822996079,0.0098054930567741
1768726657486,-0.135986328125,-0.97650146484375,-0.1250762939453125,-0.0419746153056621,0.006615025922656,0.004285292699933
1768726657496,-0.1389007568359375,-0.979034423828125,-0.1289825439453125,-0.0433842241764068,0.0064981128089129,-0.0001102548703784
1768726657506,-0.1355438232421875,-0.9776458740234376,-0.1297454833984375,-0.0437959507107734,0.0078398138284683,-0.0014897723449394
1768726657516,-0.1333465576171875,-0.9789886474609376,-0.131744384765625,-0.0428510606288909,0.0051473579369485,-0.00077870831592
1768726657526,-0.1334381103515625,-0.9842987060546876,-0.1347198486328125,-0.0384903997182846,-0.0009656621841713,-0.0049212551675736
1768726657536,-0.1346588134765625,-0.981658935546875,-0.1358184814453125,-0.0322407595813274,-0.0039912792854011,-0.0026032398454844
1768726657546,-0.129425048828125,-0.9766998291015624,-0.13922119140625,-0.0259740762412548,-0.0081620560958981,0.0064126253128051
1768726657556,-0.124420166015625,-0.957489013671875,-0.1453704833984375,-0.0065330006182193,0.0030455910600721,0.0361241810023784
1768726657566,-0.112274169921875,-0.9368896484375,-0.1499176025390625,0.0094449007883667,0.0005595301627181,0.043252132833004
1768726657576,-0.122406005859375,-0.977935791015625,-0.1508636474609375,0.0114100473001599,0.0009249158320017,0.0223457850515842
1768726657586,-0.1458740234375,-1.0135498046875,-0.1434783935546875,0.0076454025693237,0.010416155681014,-0.0091743236407637
1768726657596,-0.15338134765625,-1.0041046142578125,-0.138763427734375,0.0137997018173336,0.0277016684412956,-0.0101431813091039
1768726657606,-0.131500244140625,-0.9703216552734376,-0.1346435546875,0.0260220132768154,0.0135576203465461,0.0191270895302295
1768726657616,-0.1230010986328125,-0.9569549560546876,-0.1266021728515625,0.023479226976633,-0.0002162486780434,0.0281605310738086
1768726657626,-0.137176513671875,-0.98382568359375,-0.1217193603515625,0.0175555571913719,-0.0024663533549755,0.0144196860492229
1768726657636,-0.1500396728515625,-1.00628662109375,-0.120941162109375,0.0117219034582376,-0.0003126551164314,0.0012889700010418
1768726657646,-0.141693115234375,-0.990020751953125,-0.12127685546875,0.0082733761519193,0.0018551580142229,0.0016548882704228
1768726657656,-0.1334228515625,-0.9794921875,-0.1221466064453125,0.0008697884040884,0.0045422874391078,0.0021489046048372
1768726657666,-0.1314544677734375,-0.9759979248046876,-0.11920166015625,-0.0163611304014921,0.0049390983767807,0.0037992654833942
1768726657676,-0.1337432861328125,-0.975738525390625,-0.1150665283203125,-0.0379979833960533,0.001015197020024,0.0051625375635921
1768726657687,-0.13482666015625,-0.977630615234375,-0.118682861328125,-0.0501161627471447,-0.0052395029924809,0.0083812344819307
1768726657697,-0.1306304931640625,-0.97601318359375,-0.12481689453125,-0.0547226332128047,-0.0105596994981169,0.0135807897895574
1768726657707,-0.1290283203125,-0.975830078125,-0.1322174072265625,-0.0505569167435169,-0.0109349396079778,0.0184162911027669
1768726657717,-0.1316070556640625,-0.9801025390625,-0.1381683349609375,-0.0406339801847934,-0.0163819026201963,0.0157171785831451
1768726657727,-0.1377105712890625,-0.984344482421875,-0.1455841064453125,-0.0333654135465621,-0.0094723310321569,0.0083458144217729
1768726657737,-0.1416015625,-0.982208251953125,-0.146697998046875,-0.0178525000810623,-0.0092909699305891,0.0075122448615729
1768726657747,-0.1415557861328125,-0.9833526611328124,-0.1522369384765625,-0.0018612833227962,0.0041332258842885,0.006278402172029
1768726657757,-0.14111328125,-0.9825592041015624,-0.1565093994140625,0.0113589148968458,0.0196597222238779,0.0082954801619052
1768726657767,-0.143768310546875,-0.9849395751953124,-0.1493988037109375,0.0205367002636194,0.0209462940692901,0.0052632051520049
1768726657777,-0.1466064453125,-0.9871063232421876,-0.1396331787109375,0.0242374297231435,0.0088635329157114,0.005699164699763
1768726657787,-0.13800048828125,-0.981414794921875,-0.1322784423828125,0.023642212152481,-0.0040088561363518,0.0013691311469301
1768726657797,-0.1358642578125,-0.9808807373046876,-0.1268463134765625,0.0147302104160189,-0.0080411480739712,0.0026218821294605
1768726657807,-0.13421630859375,-0.97344970703125,-0.1239166259765625,0.008004929870367,-0.0083516733720898,0.0010631339391693
1768726657817,-0.133544921875,-0.9792938232421876,-0.12493896484375,-0.0036099147982895,0.0108840726315975,-0.006229932885617
1768726657827,-0.1346435546875,-0.9827880859375,-0.12579345703125,-0.0130707947537302,0.0274542607367038,-0.0066616311669349
1768726657837,-0.1317291259765625,-0.97552490234375,-0.126556396484375,-0.0164684560149908,0.0244768466800451,-0.0013576794881373
1768726657847,-0.1290740966796875,-0.9750213623046876,-0.1244659423828125,-0.0220384560525417,0.0154471332207322,-0.0024072313681244
1768726657857,-0.1329498291015625,-0.9769134521484376,-0.1238250732421875,-0.0257050972431898,0.0082408860325813,-0.0037151097785681
1768726657869,-0.1367645263671875,-0.9785003662109376,-0.1239166259765625,-0.0256600901484489,-0.0023518374655395,-0.0025827335193753
1768726657877,-0.135589599609375,-0.9804534912109376,-0.1292724609375,-0.0234073214232921,0.0048525459133088,-0.0034655714407563
1768726657887,-0.134490966796875,-0.979248046875,-0.1342315673828125,-0.0237751044332981,0.0124771762639284,-0.0041521345265209
1768726657898,-0.1383514404296875,-0.9793853759765624,-0.1326141357421875,-0.0292811896651983,0.0130169987678527,-0.006678675301373
1768726657907,-0.140167236328125,-0.9804534912109376,-0.1312713623046875,-0.033229324966669,0.0040850229561328,-0.0078888153657317
1768726657917,-0.1387786865234375,-0.9796600341796876,-0.1325531005859375,-0.0332114845514297,-0.003901264630258,-0.0061958441510796
1768726657928,-0.1365509033203125,-0.9800567626953124,-0.139404296875,-0.0294239353388547,-0.0057838531211018,-0.0067508472129702
1768726657938,-0.1363677978515625,-0.980133056640625,-0.1439361572265625,-0.0250161364674568,0.0035348136443644,-0.0064717475324869
1768726657948,-0.1343841552734375,-0.978057861328125,-0.145721435546875,-0.0205137971788644,0.0079399487003684,-0.003662911709398
1768726657958,-0.133453369140625,-0.9808197021484376,-0.1462249755859375,-0.0148766841739416,0.0128100709989666,-0.0012658004416152
1768726657968,-0.1363067626953125,-0.981658935546875,-0.145172119140625,-0.006729541812092,0.0111927334219217,-0.0005344964447431
1768726657978,-0.13482666015625,-0.98101806640625,-0.1416778564453125,-0.00192306865938,0.0071058464236557,0.0023952471092343
1768726657988,-0.13519287109375,-0.9810943603515624,-0.139251708984375,0.0007219829712994,0.0015441008144989,0.0038461373187601
1768726657998,-0.1326904296875,-0.9800262451171876,-0.139801025390625,0.0020868529099971,0.006385994143784,0.0029622339643538
1768726658008,-0.1353607177734375,-0.9828338623046876,-0.1412506103515625,0.0053699980489909,0.0201651901006698,0.0012391688069328
1768726658018,-0.1387481689453125,-0.98370361328125,-0.13775634765625,0.0049042110331356,0.0210259221494197,0.0004109257424715
1768726658028,-0.1365203857421875,-0.981048583984375,-0.1325531005859375,-0.001088966615498,0.0146479187533259,-0.0001019990668282
1768726658038,-0.1345062255859375,-0.9782257080078124,-0.1283416748046875,-0.0058568236418068,0.0103125581517815,0.0043992758728563
1768726658048,-0.1341552734375,-0.9743804931640624,-0.125946044921875,-0.0057210028171539,0.0047079361975193,0.0080853570252656
1768726658058,-0.135650634765625,-0.9746551513671876,-0.125762939453125,-0.0071178306825459,0.003032807726413,0.0078368838876485
1768726658068,-0.1378631591796875,-0.9770355224609376,-0.127838134765625,-0.0082480758428573,0.0056973006576299,0.0034253578633069
1768726658078,-0.1373443603515625,-0.980682373046875,-0.1314697265625,-0.0146369999274611,0.0209162011742591,-0.0039252331480383
1768726658088,-0.142486572265625,-0.9817047119140624,-0.1299591064453125,-0.0232904087752103,0.0287000872194767,-0.0056554889306426
1768726658098,-0.1422882080078125,-0.9791717529296876,-0.12628173828125,-0.0299805365502834,0.0206999517977237,-0.0107240173965692
1768726658109,-0.1396484375,-0.981781005859375,-0.124298095703125,-0.0347681008279323,0.0137677434831857,-0.0110164321959018
1768726658118,-0.135498046875,-0.9779052734375,-0.1267242431640625,-0.0368187353014946,0.0086571378633379,-0.0090070767328143
1768726658128,-0.131439208984375,-0.972259521484375,-0.1299285888671875,-0.0377697497606277,0.0016093482263386,0.0074749602936208
1768726658139,-0.124847412109375,-0.9485626220703124,-0.1364898681640625,-0.0254547595977783,0.0043388218618929,0.0307613741606473
1768726658149,-0.11566162109375,-0.9496612548828124,-0.14642333984375,-0.014258830808103,0.006499710958451,0.0289272554218769
1768726658159,-0.1312408447265625,-0.98590087890625,-0.14959716796875,-0.0157302264124155,0.0199872907251119,0.0058698733337223
1768726658169,-0.1519622802734375,-1.015838623046875,-0.1464080810546875,-0.0199441462755203,0.0423533171415329,-0.0284292437136173
1768726658179,-0.1551971435546875,-1.002288818359375,-0.13958740234375,-0.0147837400436401,0.0349398739635944,-0.0203729160130023
1768726658189,-0.13140869140625,-0.96630859375,-0.135040283203125,-0.0057353838346898,0.0083966804668307,0.0032850091811269
1768726658199,-0.125,-0.9580535888671876,-0.1354522705078125,-0.0064685516990721,-0.0036751623265445,0.012264123186469
1768726658209,-0.135528564453125,-0.9847412109375,-0.13427734375,-0.0102888569235801,-0.0062030348926782,0.0015741945244371
1768726658219,-0.145172119140625,-0.994964599609375,-0.133880615234375,-0.01475684158504,-0.0081117218360304,-0.0065867961384356
1768726658229,-0.1388702392578125,-0.9884490966796876,-0.133544921875,-0.0192503929138183,-0.0070994547568261,-0.0041188448667526
1768726658239,-0.1302032470703125,-0.9785003662109376,-0.1394500732421875,-0.0236619189381599,0.0058669438585639,-0.0006647250265814
1768726658249,-0.131317138671875,-0.976165771484375,-0.1444091796875,-0.0307877399027347,0.0180213451385498,0.000549942778889
1768726658259,-0.1317138671875,-0.975067138671875,-0.1439208984375,-0.0402962900698185,0.0140692135319113,0.0036778254434466
1768726658269,-0.1320037841796875,-0.977874755859375,-0.1420440673828125,-0.0409215986728668,-0.0033254891168326,0.0083490097895264
1768726658279,-0.1314544677734375,-0.9800872802734376,-0.146759033203125,-0.0280430857092142,-0.0043627903796732,0.0118904812261462
1768726658289,-0.133209228515625,-0.9819793701171876,-0.1539154052734375,-0.0073157036677002,0.0042815641500055,0.0115804895758628
1768726658299,-0.13702392578125,-0.9837646484375,-0.158355712890625,0.0142777394503355,0.0103514408692717,0.0132851786911487
1768726658309,-0.1380615234375,-0.9851837158203124,-0.160614013671875,0.0344820767641067,0.0178117547184228,0.011478223837912
1768726658319,-0.1400146484375,-0.9833831787109376,-0.15570068359375,0.0498573035001754,0.018764367327094,0.0121844941750168
1768726658329,-0.141265869140625,-0.983367919921875,-0.1465606689453125,0.0540238209068775,0.0079340897500514,0.0083543360233306
1768726658340,-0.14227294921875,-0.9841156005859376,-0.136444091796875,0.0518605336546897,-0.0049689258448779,0.0017973673529922
1768726658349,-0.1435699462890625,-0.98590087890625,-0.127838134765625,0.0391372814774513,-0.0072312811389565,-0.0051763863302767
1768726658360,-0.14410400390625,-0.9831085205078124,-0.1224212646484375,0.0254611521959304,0.0011656655697152,-0.0093777887523174
1768726658370,-0.14349365234375,-0.979644775390625,-0.1182403564453125,0.006476008798927,-0.0063537694513797,-0.0140660181641578
1768726658380,-0.141143798828125,-0.98248291015625,-0.11773681640625,-0.007219829596579,-0.0007771103992126,-0.0182418543845415
1768726658390,-0.140045166015625,-0.978729248046875,-0.1211700439453125,-0.0194242987781763,0.008665126748383,-0.0160239730030298
1768726658400,-0.1327972412109375,-0.9690399169921876,-0.1248016357421875,-0.027147464454174,0.0059146145358681,-0.0158716402947902
