timestamp_ms,acc_x,acc_y,acc_z,gyro_x,gyro_y,gyro_z
1769145108854,-0.1650543212890625,-0.9728851318359376,0.211273193359375,-0.0342493169009685,0.0243237148970365,0.0229415353387594
1769145108864,-0.178070068359375,-0.9602203369140624,0.2095184326171875,-0.036022450774908,0.0362070053815841,0.0116846188902854
1769145108874,-0.175445556640625,-0.9509124755859376,0.20379638671875,-0.0268009882420301,0.0395873561501503,0.0054112770594656
1769145108884,-0.16290283203125,-0.9467926025390624,0.1976470947265625,-0.0058624162338674,0.0230368766933679,0.0033369408920407
1769145108894,-0.149932861328125,-0.9480438232421876,0.19110107421875,0.0177523661404848,0.016897490248084,0.0028011128306388
1769145108904,-0.1415252685546875,-0.9513702392578124,0.1905059814453125,0.0417615622282028,0.003246126929298,0.0030852721538394
1769145108914,-0.12890625,-0.9582366943359376,0.1978759765625,0.058291271328926,-0.0065617626532912,0.0098917791619896
1769145108924,-0.12274169921875,-0.9617919921875,0.2067413330078125,0.068753495812416,-0.0080241039395332,0.0235759001225233
1769145108934,-0.124664306640625,-0.9628448486328124,0.215057373046875,0.0722731277346611,0.0050541469827294,0.0371729359030723
1769145108944,-0.1343536376953125,-0.964111328125,0.2274169921875,0.0669265687465667,0.0182767417281866,0.0471115857362747
1769145108954,-0.1450958251953125,-0.96539306640625,0.23431396484375,0.0600161999464035,0.0299927871674299,0.0422579757869243
1769145108964,-0.1570892333984375,-0.9674072265625,0.24310302734375,0.0409594178199768,0.0355848930776119,0.0275839567184448
1769145108974,-0.1665496826171875,-0.9701385498046876,0.2481689453125,0.0180407855659723,0.0342549085617065,0.006868558935821
1769145108985,-0.1662445068359375,-0.97076416015625,0.247100830078125,-0.003639209549874,0.0248339772224426,-0.0092515554279088
1769145108995,-0.159393310546875,-0.970367431640625,0.2400360107421875,-0.0199148524552583,0.0120002040639519,-0.0210778545588254
1769145109005,-0.1522216796875,-0.969146728515625,0.2305145263671875,-0.0314612537622451,-0.0010671286145225,-0.0268057808279991
1769145109015,-0.1539459228515625,-0.9698486328125,0.22650146484375,-0.0469400770962238,-0.0067899953573942,-0.0271141752600669
1769145109025,-0.1634674072265625,-0.9713897705078124,0.2288818359375,-0.060210607945919,-0.0207795798778533,-0.0373923778533935
1769145109035,-0.1669921875,-0.9691619873046876,0.22454833984375,-0.074639618396759,-0.0315888188779354,-0.0441914312541484
1769145109045,-0.163299560546875,-0.9629669189453124,0.217742919921875,-0.0850914567708969,-0.0347896702587604,-0.0496066994965076
1769145109055,-0.1597442626953125,-0.9618682861328124,0.2106781005859375,-0.0878731310367584,-0.0372696071863174,-0.051080759614706
1769145109065,-0.1544952392578125,-0.9575653076171876,0.2012786865234375,-0.0837217941880226,-0.0369372442364692,-0.0450753308832645
1769145109075,-0.1504669189453125,-0.9569854736328124,0.187652587890625,-0.0691255405545234,-0.0229756236076354,-0.0387625768780708
1769145109085,-0.1501922607421875,-0.95751953125,0.1764068603515625,-0.0472980067133903,-0.0152655057609081,-0.0271322857588529
1769145109095,-0.149383544921875,-0.9577789306640624,0.1667022705078125,-0.0152351455762982,-0.0108507834374904,-0.0201380252838134
1769145109105,-0.1482391357421875,-0.9541168212890624,0.159576416015625,0.0186021793633699,-0.0034397388808429,-0.0035646411124616
1769145109115,-0.1519927978515625,-0.949859619140625,0.1582183837890625,0.0549109205603599,-0.0038634478114545,0.00837910361588
1769145109125,-0.154815673828125,-0.9498291015625,0.16009521484375,0.0884467735886573,0.0093831149861216,0.0194605160504579
1769145109135,-0.1632232666015625,-0.9536590576171876,0.1730499267578125,0.1172685697674751,0.0181648898869752,0.025170600041747
1769145109145,-0.1683349609375,-0.954345703125,0.1898193359375,0.1297534704208374,0.0239692479372024,0.028136296197772
1769145109155,-0.162200927734375,-0.9629974365234376,0.2067413330078125,0.1324041187763214,0.0342724844813346,0.0406845808029174
1769145109165,-0.15496826171875,-0.968902587890625,0.22271728515625,0.1245682910084724,0.0345193594694137,0.0551005378365516
1769145109175,-0.15423583984375,-0.960906982421875,0.22967529296875,0.1191559508442878,0.0334524996578693,0.0677308440208435
1769145109185,-0.1545257568359375,-0.9503173828125,0.231658935546875,0.1144085973501205,0.0330916419625282,0.0715018808841705
1769145109195,-0.15704345703125,-0.95269775390625,0.2419891357421875,0.1019572541117668,0.0248904358595609,0.0687923803925514
1769145109205,-0.16314697265625,-0.9567413330078124,0.2563629150390625,0.0815286785364151,0.0157094541937112,0.0605999641120433
1769145109215,-0.1714019775390625,-0.957794189453125,0.2705535888671875,0.0486924387514591,0.0188732892274856,0.0471041277050972
1769145109226,-0.1769561767578125,-0.960784912109375,0.278411865234375,0.0157909467816352,0.0182538386434316,0.0232693701982498
1769145109236,-0.1757049560546875,-0.96612548828125,0.2877960205078125,-0.0217692106962203,0.0168594066053628,-0.0045883604325354
1769145109246,-0.1647186279296875,-0.9718017578125,0.290802001953125,-0.0665462687611579,0.0249207951128482,-0.0212166048586368
1769145109256,-0.155029296875,-0.9663543701171876,0.28717041015625,-0.1020949408411979,0.0094385091215372,-0.0363920964300632
1769145109266,-0.1413726806640625,-0.955963134765625,0.26556396484375,-0.117066703736782,0.0063729444518685,-0.0446700006723403
1769145109276,-0.1297149658203125,-0.9543304443359376,0.241485595703125,-0.1171681657433509,0.0003291667089797,-0.0429261624813079
1769145109286,-0.1177215576171875,-0.9651641845703124,0.233612060546875,-0.1150296479463577,-0.0149906668812036,-0.027198864147067
1769145109296,-0.11492919921875,-0.9748992919921876,0.225738525390625,-0.1172075793147087,-0.0273450706154108,-0.0079255672171711
1769145109306,-0.12579345703125,-0.9727630615234376,0.2126312255859375,-0.1182398274540901,-0.0274460054934024,-0.0015568839153274
1769145109316,-0.1522674560546875,-0.95745849609375,0.1955413818359375,-0.1067512109875679,-0.0178351905196905,-0.0151139721274375
1769145109326,-0.171722412109375,-0.9546966552734376,0.1835784912109375,-0.0852672234177589,-0.0006322344415821,-0.0380307398736476
1769145109336,-0.1760406494140625,-0.96435546875,0.1847686767578125,-0.0712757781147956,0.0092353103682398,-0.0611903853714466
1769145109346,-0.17724609375,-0.9661865234375,0.1847991943359375,-0.0611517690122127,0.0048743835650384,-0.0806647539138794
1769145109356,-0.165802001953125,-0.9657745361328124,0.176605224609375,-0.0436926186084747,0.0016727314796298,-0.082177959382534
1769145109366,-0.1446685791015625,-0.96783447265625,0.1672821044921875,-0.0208397675305604,-0.0064965151250362,-0.0684072896838188
1769145109376,-0.12548828125,-0.9642333984375,0.155609130859375,0.0120191117748618,-0.0101359905675053,-0.0393117181956768
1769145109386,-0.1140594482421875,-0.961700439453125,0.1491241455078125,0.051427237689495,-0.0118761006742715,-0.0038935414049774
1769145109396,-0.12066650390625,-0.9630126953125,0.1515655517578125,0.0954897701740264,-0.0151682998985052,0.0264563746750354
1769145109406,-0.1352996826171875,-0.9633026123046876,0.1567230224609375,0.1309095472097396,-0.0107642309740185,0.0438231155276298
1769145109416,-0.147552490234375,-0.96319580078125,0.16925048828125,0.1564039885997772,-0.0005816344055347,0.052713543176651
1769145109426,-0.161285400390625,-0.9613037109375,0.1820526123046875,0.1739326417446136,0.0066171563230454,0.0497297383844852
1769145109437,-0.175384521484375,-0.959564208984375,0.1966094970703125,0.1818661987781524,0.0157616529613733,0.0416997745633125
1769145109447,-0.1803436279296875,-0.9531097412109376,0.209808349609375,0.1859427094459533,0.0242406241595745,0.0375905185937881
1769145109457,-0.1710662841796875,-0.9485015869140624,0.2237091064453125,0.1870178282260894,0.0159035995602607,0.0387015901505947
1769145109467,-0.1673736572265625,-0.9481964111328124,0.2384490966796875,0.1840470731258392,0.0228896029293537,0.0489246658980846
1769145109477,-0.1637725830078125,-0.9453125,0.248504638671875,0.1795063763856887,0.0342762134969234,0.0569652803242206
1769145109487,-0.162628173828125,-0.944671630859375,0.2594146728515625,0.1726077198982238,0.0318399555981159,0.0602217949926853
1769145109497,-0.163543701171875,-0.948883056640625,0.2730865478515625,0.1520057767629623,0.0292122140526771,0.0581980571150779
1769145109507,-0.1654205322265625,-0.9523162841796876,0.2826080322265625,0.1192755252122879,0.0335491709411144,0.053324207663536
1769145109517,-0.1687469482421875,-0.9539947509765624,0.2892303466796875,0.0846299305558204,0.032487902790308,0.0451866537332534
1769145109527,-0.179962158203125,-0.956390380859375,0.292144775390625,0.0460316725075244,0.0337787345051765,0.0281006097793579
1769145109537,-0.1862030029296875,-0.9567718505859376,0.291961669921875,0.0049713226035237,0.0429051220417022,0.0067090354859828
1769145109547,-0.1858367919921875,-0.9556121826171876,0.2890472412109375,-0.0330295898020267,0.0361116640269756,-0.0093958983197808
1769145109557,-0.1712493896484375,-0.9560089111328124,0.2779083251953125,-0.0655063018202781,0.0247538164258003,-0.0215388480573892
1769145109567,-0.15667724609375,-0.9557647705078124,0.2664337158203125,-0.0908958166837692,0.0160761717706918,-0.0249610096216201
1769145109577,-0.1526947021484375,-0.9632415771484376,0.26019287109375,-0.1102932170033454,0.0006838997360318,-0.030067354440689
1769145109587,-0.1473388671875,-0.9743499755859376,0.2558135986328125,-0.1278604865074157,-0.0096121476963162,-0.0342903286218643
1769145109597,-0.1436920166015625,-0.9772491455078124,0.250152587890625,-0.1486731022596359,-0.0144910579547286,-0.0375327281653881
1769145109607,-0.15142822265625,-0.962890625,0.2321624755859375,-0.1534502804279327,-0.0032708945218473,-0.0469384789466857
1769145109617,-0.1544036865234375,-0.962646484375,0.214599609375,-0.1397754698991775,-0.0020572920329868,-0.0544219613075256
1769145109627,-0.1428070068359375,-0.964019775390625,0.2078094482421875,-0.1272479593753814,-0.0073663033545017,-0.0487608797848224
1769145109637,-0.134307861328125,-0.9607391357421876,0.19415283203125,-0.1086500510573387,-0.0131237916648387,-0.0355995409190654
1769145109647,-0.129425048828125,-0.9547576904296876,0.1793212890625,-0.0809076353907585,-0.0239543356001377,-0.0194157753139734
1769145109657,-0.1304779052734375,-0.9531097412109376,0.173187255859375,-0.0491907149553298,-0.0269498582929372,-0.0047422908246517
1769145109667,-0.1417388916015625,-0.9563751220703124,0.1702880859375,-0.0205803755670785,-0.022237129509449,-0.0025803367607295
1769145109678,-0.156951904296875,-0.9623565673828124,0.1761322021484375,0.0043140547350049,-0.0200152527540922,-0.0075465994887053
1769145109688,-0.1648101806640625,-0.9642791748046876,0.18072509765625,0.0304633677005767,-0.0233098492026329,-0.0176948402076959
1769145109698,-0.1591796875,-0.9629364013671876,0.182098388671875,0.0474785678088665,-0.013561082072556,-0.0190818160772323
1769145109708,-0.152801513671875,-0.961669921875,0.1895904541015625,0.0620122365653514,-0.0082499403506517,-0.0118409469723701
1769145109718,-0.1539764404296875,-0.960235595703125,0.1989593505859375,0.0755320414900779,-0.0057124802842736,-0.0072579127736389
1769145109728,-0.1546478271484375,-0.9580230712890624,0.2095794677734375,0.0834948942065239,-0.00323121342808,-0.0059311259537935
1769145109738,-0.1509552001953125,-0.956085205078125,0.220855712890625,0.0866592600941658,-0.0059476378373801,0.0014431669842451
1769145109748,-0.1449737548828125,-0.9559173583984376,0.230865478515625,0.0875596776604652,-0.0056640109978616,0.0157661791890859
1769145109758,-0.144256591796875,-0.9542694091796876,0.23858642578125,0.0865527316927909,-0.0106124309822916,0.0305009167641401
1769145109768,-0.1528778076171875,-0.9530181884765624,0.2457275390625,0.0788780376315116,-0.0009635316673666,0.0391535274684429
1769145109778,-0.162933349609375,-0.954132080078125,0.251190185546875,0.0687825232744216,0.0020485036075115,0.0451499000191688
1769145109788,-0.170196533203125,-0.955352783203125,0.2535400390625,0.0595533400774002,0.0087436903268098,0.0415285341441631
1769145109798,-0.17388916015625,-0.9556427001953124,0.25628662109375,0.0461179614067077,0.0099077578634023,0.0334559604525566
1769145109808,-0.1777496337890625,-0.9551544189453124,0.25567626953125,0.0293437745422124,0.0180660858750343,0.0169922988861799
1769145109818,-0.176666259765625,-0.9551544189453124,0.2572174072265625,0.0047127297148108,0.0243005454540252,0.0013038836186751
1769145109828,-0.1773681640625,-0.9559173583984376,0.26202392578125,-0.019294336438179,0.0159174483269453,-0.0196858197450637
1769145109838,-0.173492431640625,-0.959716796875,0.26458740234375,-0.044483046978712,0.0067828050814569,-0.0342993848025798
1769145109848,-0.1627349853515625,-0.95855712890625,0.2638092041015625,-0.0651121586561203,-0.0088909631595015,-0.0427136421203613
1769145109858,-0.1517181396484375,-0.9553070068359376,0.258819580078125,-0.0858669728040695,-0.0228184964507818,-0.0388840176165103
1769145109868,-0.1425628662109375,-0.954986572265625,0.2529449462890625,-0.1013985276222229,-0.0338298678398132,-0.0283903628587722
1769145109878,-0.13873291015625,-0.956207275390625,0.2501983642578125,-0.1132871434092521,-0.0394925475120544,-0.0210560169070959
1769145109889,-0.14361572265625,-0.9597320556640624,0.2447357177734375,-0.1248050481081008,-0.0299067664891481,-0.0194567888975143
1769145109899,-0.156494140625,-0.959503173828125,0.2380828857421875,-0.1322424560785293,-0.0281642600893974,-0.0244659278541803
1769145109909,-0.1624908447265625,-0.96014404296875,0.2227935791015625,-0.1291646361351013,-0.0177185423672199,-0.0365148670971393
1769145109919,-0.157440185546875,-0.958892822265625,0.2049560546875,-0.1163311377167701,-0.0065836003050208,-0.0408046878874301
1769145109929,-0.1521453857421875,-0.962799072265625,0.1924591064453125,-0.0976043194532394,-0.0021156151778995,-0.0408206656575202
1769145109939,-0.140228271484375,-0.972198486328125,0.182403564453125,-0.0730561017990112,-0.0070983893238008,-0.0271203014999628
1769145109949,-0.12554931640625,-0.96875,0.1734466552734375,-0.043729905039072,-0.0110664991661906,0.0013915016315877
1769145109959,-0.11944580078125,-0.9600067138671876,0.1618804931640625,0.0032999229151755,-0.0136873163282871,0.0278018042445182
1769145109969,-0.1242523193359375,-0.9539642333984376,0.1562957763671875,0.0550829581916332,-0.0148657653480768,0.0424851439893245
1769145109979,-0.139190673828125,-0.957611083984375,0.1648712158203125,0.09494648873806,-0.0112270880490541,0.0466575175523757
1769145109989,-0.14984130859375,-0.9615478515625,0.1791839599609375,0.1210111081600189,-0.0054959654808044,0.0449501648545265
1769145109999,-0.1646728515625,-0.9619293212890624,0.194793701171875,0.1288554519414901,0.000172839150764,0.0247271843254566
1769145110009,-0.177734375,-0.96356201171875,0.2152252197265625,0.1220388263463974,0.0093724625185132,0.0047369645908474
1769145110019,-0.17791748046875,-0.9649810791015624,0.232696533203125,0.1089792177081108,0.005232844967395,-0.0078488681465387
1769145110029,-0.1684417724609375,-0.9568634033203124,0.236297607421875,0.0965158864855766,0.016221847385168,-0.0127496169880032
1769145110039,-0.1548004150390625,-0.9496612548828124,0.2337646484375,0.0904505401849746,0.0120414830744266,0.0006322344415821
1769145110049,-0.14801025390625,-0.9473876953125,0.2379150390625,0.0924196764826774,0.0009933591354638,0.0116281602531671
1769145110059,-0.144256591796875,-0.952056884765625,0.2396697998046875,0.0979755669832229,-0.0105136269703507,0.0251911077648401
1769145110069,-0.13958740234375,-0.9655914306640624,0.2493896484375,0.0915232598781585,-0.0167765822261571,0.0408057533204555
1769145110079,-0.1361846923828125,-0.9670867919921876,0.2584228515625,0.076997309923172,-0.0202320348471403,0.0538903959095478
1769145110090,-0.1488037109375,-0.957000732421875,0.2598724365234375,0.058750931173563,-0.0149728246033191,0.0504804849624633
1769145110099,-0.1685028076171875,-0.9483795166015624,0.2605133056640625,0.0437520071864128,-0.0024311996530741,0.0290002264082431
1769145110109,-0.184173583984375,-0.9536590576171876,0.271636962890625,0.0168940294533967,0.0034679684322327,-9.187905379803853e-05
1769145110119,-0.1920013427734375,-0.9597320556640624,0.2841644287109375,-0.0246598068624734,0.0032631712965667,-0.0299453828483819
1769145110130,-0.1931304931640625,-0.9595794677734376,0.2855987548828125,-0.0688091591000557,-0.0078914789482951,-0.058076087385416
1769145110140,-0.183074951171875,-0.9568023681640624,0.2729034423828125,-0.1066137924790382,-0.0125581361353397,-0.0644682049751281
1769145110150,-0.1593170166015625,-0.9551544189453124,0.254547119140625,-0.1234673410654068,-0.0134782586246728,-0.0581807494163513
1769145110160,-0.143798828125,-0.955780029296875,0.235870361328125,-0.1245019808411598,-0.0200557336211204,-0.0419799387454986
1769145110170,-0.13525390625,-0.958343505859375,0.220916748046875,-0.1113579496741294,-0.0277298986911773,-0.0246467571705579
1769145110180,-0.125030517578125,-0.95648193359375,0.2125244140625,-0.0973515883088111,-0.027362648397684,0.0008860336965881
1769145110190,-0.1236724853515625,-0.9578399658203124,0.2031707763671875,-0.0766367241740226,-0.0204647947102785,0.0201476123183965
1769145110200,-0.1374053955078125,-0.961273193359375,0.1987457275390625,-0.0494964458048343,-0.016039153560996,0.0239703133702278
1769145110210,-0.1522979736328125,-0.9613800048828124,0.197723388671875,-0.0261562373489141,-0.007448861375451,0.0175861846655607
1769145110220,-0.1617431640625,-0.960723876953125,0.1978759765625,-0.0062746736221015,0.0022519689518958,0.0059417788870632
1769145110230,-0.1626434326171875,-0.95947265625,0.199554443359375,0.0100941797718405,0.0087213199585676,-0.0056248623877763
1769145110240,-0.159393310546875,-0.958282470703125,0.2045135498046875,0.0212712008506059,0.0173760615289211,-0.0091266529634594
1769145110250,-0.1541900634765625,-0.9551544189453124,0.21038818359375,0.0354666486382484,0.0084374267607927,-0.0069359368644654
1769145110260,-0.1439361572265625,-0.953277587890625,0.2123870849609375,0.0464636385440826,0.0083934850990772,0.0050565437413752
1769145110270,-0.1361236572265625,-0.9535369873046876,0.2167205810546875,0.0593868941068649,0.0011837751371785,0.0227734893560409
1769145110280,-0.1362762451171875,-0.956298828125,0.2186737060546875,0.0751575976610183,-0.0045076664537191,0.03371562063694
1769145110290,-0.135772705078125,-0.95526123046875,0.22100830078125,0.084400899708271,-0.0001510012370999,0.0455176830291748
1769145110300,-0.144805908203125,-0.958648681640625,0.22882080078125,0.086429163813591,-0.0022082931827753,0.0497441217303276
1769145110310,-0.15362548828125,-0.9584808349609376,0.2275848388671875,0.0916183367371559,0.0070198262110352,0.0481827072799205
1769145110320,-0.1548614501953125,-0.958160400390625,0.225799560546875,0.0980741009116172,0.0151975946500897,0.0461845397949218
1769145110330,-0.1644287109375,-0.9611968994140624,0.2284088134765625,0.0974847450852394,0.0304963905364274,0.0395490080118179
1769145110340,-0.171722412109375,-0.9570770263671876,0.2339324951171875,0.0923392474651336,0.0319036059081554,0.0264265481382608
1769145110350,-0.1756744384765625,-0.961273193359375,0.24322509765625,0.0729434490203857,0.0287243220955133,0.0096789924427866
1769145110361,-0.169281005859375,-0.9688262939453124,0.2561187744140625,0.049416285008192,0.0069729546085,0.003508981084451
1769145110371,-0.1552276611328125,-0.9689483642578124,0.2651824951171875,0.0172860454767942,-0.0140777360647916,0.0065894592553377
1769145110381,-0.1493072509765625,-0.953155517578125,0.2591552734375,-0.0014053500490263,-0.0211404394358396,0.017258882522583
1769145110391,-0.1536407470703125,-0.9477386474609376,0.251312255859375,-0.0020338559988886,-0.0261711496859788,0.0179337263107299
1769145110401,-0.159637451171875,-0.949493408203125,0.251434326171875,-0.0080113215371966,-0.0221638921648263,0.015263108536601
1769145110411,-0.1651153564453125,-0.9559783935546876,0.2576751708984375,-0.0164237134158611,-0.0145754804834723,0.0090592745691537
1769145110421,-0.1713409423828125,-0.9605560302734376,0.2574462890625,-0.0281381607055664,-0.0061111557297408,-0.0063891895115375
1769145110431,-0.1724090576171875,-0.957672119140625,0.250823974609375,-0.0382541790604591,0.0047582699917256,-0.0162045359611511
1769145110441,-0.1693115234375,-0.95648193359375,0.240692138671875,-0.0433719754219055,0.0112044513225555,-0.0285019483417272
1769145110451,-0.1613922119140625,-0.9563446044921876,0.2315673828125,-0.0415383875370025,0.0096214683726429,-0.0274089872837066
1769145110461,-0.150238037109375,-0.954010009765625,0.221923828125,-0.0319893583655357,0.006002765148878,-0.0186509154736995
1769145110471,-0.14056396484375,-0.9552764892578124,0.2160797119140625,-0.0210589468479156,0.0037851508241146,-0.0020983046852052
1769145110481,-0.14398193359375,-0.9556121826171876,0.2188568115234375,-0.0151440650224685,-0.0056115468032658,0.003376621985808
1769145110491,-0.1526336669921875,-0.9564361572265624,0.2246551513671875,-0.0120476083829998,-0.0205779783427715,0.0060469736345112
1769145110501,-0.1613311767578125,-0.9556884765625,0.231048583984375,-0.0161936171352863,-0.0198994055390357,0.0044224453158676
1769145110511,-0.1631011962890625,-0.9572601318359376,0.23406982421875,-0.0119373528286814,-0.0241772420704364,0.0018461032304912
1769145110521,-0.1597900390625,-0.95770263671875,0.2309722900390625,-0.0071553811430931,-0.0177835244685411,-0.0007603325066156
1769145110531,-0.1569976806640625,-0.95611572265625,0.230010986328125,9.187905379803853e-05,-0.008257663808763,0.0011704593198373
1769145110541,-0.1539764404296875,-0.9540863037109376,0.227020263671875,0.0127416281029582,0.0052205948159098,0.0023443805985152
1769145110551,-0.1508026123046875,-0.954071044921875,0.2254791259765625,0.0225769486278295,0.0159920156002044,0.011486480012536
1769145110561,-0.1446533203125,-0.9526214599609376,0.225433349609375,0.0382864028215408,0.0130572123453021,0.0226344726979732
1769145110572,-0.14117431640625,-0.954010009765625,0.2235260009765625,0.0502914004027843,0.0108350710943341,0.0359406918287277
1769145110581,-0.144287109375,-0.9535064697265624,0.2252349853515625,0.0564331822097301,0.00949337054044,0.045635662972927
1769145110592,-0.15460205078125,-0.9559326171875,0.2300872802734375,0.0582643710076808,0.0122161861509084,0.0444058142602443
1769145110602,-0.1675872802734375,-0.955230712890625,0.2372589111328125,0.0520368367433548,0.0105109643191099,0.0321321040391922
1769145110612,-0.1794281005859375,-0.951995849609375,0.24444580078125,0.0440553426742553,0.0100041646510362,0.0104619618505239
1769145110622,-0.1851654052734375,-0.9514923095703124,0.2491607666015625,0.0355460084974765,0.0003621898940764,-0.0124076670035719
1769145110632,-0.1772003173828125,-0.9520721435546876,0.249908447265625,0.0259557012468576,-0.0017243968322873,-0.023026755079627
1769145110642,-0.164276123046875,-0.955047607421875,0.2493743896484375,0.0190679673105478,0.0057854512706398,-0.0272848848253488
1769145110652,-0.1552276611328125,-0.961273193359375,0.251251220703125,0.0130739901214838,0.0022636868525296,-0.0219569634646177
1769145110662,-0.148651123046875,-0.96649169921875,0.2557373046875,-0.0001379517489112,0.008633435703814,-0.0104217482730746
1769145110672,-0.1421966552734375,-0.957611083984375,0.2584381103515625,-0.0109330751001834,0.0011076086666435,0.0054213968105614
1769145110682,-0.1368560791015625,-0.949951171875,0.2480621337890625,-0.0124726481735706,9.427589975530282e-05,0.0204986166208982
1769145110692,-0.136962890625,-0.94647216796875,0.2448577880859375,-0.0116217685863375,-0.0040200417861342,0.0328357107937336
1769145110702,-0.147003173828125,-0.950225830078125,0.2472076416015625,-0.0152026545256376,-0.0153882773593068,0.0368459001183509
1769145110712,-0.159454345703125,-0.9524383544921876,0.244140625,-0.0243159923702478,-0.0122430836781859,0.0257146842777729
1769145110723,-0.1738433837890625,-0.9592437744140624,0.2445831298828125,-0.0344525165855884,-0.012223376892507,0.0082182483747601
1769145110732,-0.1824493408203125,-0.969573974609375,0.24542236328125,-0.0452284626662731,-0.0092739257961511,-0.0147448573261499
1769145110742,-0.18487548828125,-0.9612884521484376,0.23760986328125,-0.0517803728580474,-0.0025166871491819,-0.0373830571770668
1769145110752,-0.1811676025390625,-0.956787109375,0.226531982421875,-0.0508117824792861,0.0066861324012279,-0.0486191995441913
1769145110762,-0.1700286865234375,-0.9560699462890624,0.2245941162109375,-0.0406994931399822,0.0089234542101621,-0.0523188635706901
1769145110772,-0.1590423583984375,-0.95458984375,0.2215728759765625,-0.0262092333287,0.0058328555896878,-0.0449621491134166
1769145110782,-0.1399078369140625,-0.9535980224609376,0.2264251708984375,-0.0099109541624784,-0.0226858705282211,-0.0144833354279398
1769145110793,-0.1107940673828125,-0.95404052734375,0.2195587158203125,0.0113953994587063,-0.031850341707468,0.0248981583863496
1769145110802,-0.1086578369140625,-0.9506378173828124,0.2170867919921875,0.0372981019318103,-0.0375015698373317,0.0577754154801368
1769145110813,-0.131591796875,-0.9440155029296876,0.22076416015625,0.0594766438007354,-0.0312159769237041,0.0648578256368637
1769145110823,-0.1563873291015625,-0.948638916015625,0.2251129150390625,0.0762516260147094,-0.0210938341915607,0.0549806952476501
1769145110833,-0.175994873046875,-0.954742431640625,0.2339935302734375,0.0788833647966384,0.0090214582160115,0.0320937559008598
1769145110843,-0.1990814208984375,-0.9599151611328124,0.239044189453125,0.0705109164118766,0.0388070493936538,-0.0001187769812531
1769145110853,-0.21087646484375,-0.9630889892578124,0.2423248291015625,0.0540714897215366,0.0575450509786605,-0.0413626208901405
1769145110863,-0.2002410888671875,-0.963958740234375,0.2413330078125,0.0360850319266319,0.0709735080599784,-0.0636844336986541
1769145110873,-0.175567626953125,-0.9606475830078124,0.2350006103515625,0.0246416963636875,0.068262942135334,-0.0666701048612594
1769145110883,-0.14898681640625,-0.9546051025390624,0.22918701171875,0.026104038581252,0.0487164072692394,-0.0481925643980503
1769145110893,-0.118804931640625,-0.9462890625,0.224700927734375,0.0398813709616661,0.0140718771144747,-0.0092739257961511
1769145110903,-0.1035614013671875,-0.9445953369140624,0.223114013671875,0.0615341998636722,-0.0120369549840688,0.0315627194941043
1769145110913,-0.11138916015625,-0.9506072998046876,0.2302093505859375,0.0740750283002853,-0.0306164994835853,0.0595930218696594
1769145110923,-0.140411376953125,-0.9515838623046876,0.246795654296875,0.0782513990998268,-0.0416553020477294,0.0612540356814861
1769145110933,-0.1674041748046875,-0.9594573974609376,0.2593231201171875,0.0690102279186248,-0.0237343572080135,0.044029776006937
1769145110943,-0.18524169921875,-0.96258544921875,0.2660675048828125,0.0581525191664695,-0.0004636563535314,0.0221926532685756
1769145110954,-0.1910247802734375,-0.9604034423828124,0.2649993896484375,0.0537058375775814,0.0210738591849803,-0.0074525899253785
1769145110963,-0.1853179931640625,-0.9561614990234376,0.255706787109375,0.0497997812926769,0.041293378919363,-0.0285754520446062
1769145110973,-0.17388916015625,-0.959564208984375,0.253814697265625,0.0462308786809444,0.0532991737127304,-0.0429583862423896
1769145110983,-0.1649932861328125,-0.9580078125,0.2526702880859375,0.0406443662941455,0.0529569573700428,-0.0501933954656124
1769145110993,-0.1500244140625,-0.9462738037109376,0.2534637451171875,0.0370211340487003,0.0216078236699104,-0.0318998768925666
1769145111003,-0.1207122802734375,-0.9396514892578124,0.245208740234375,0.0474814996123313,-0.0002455434587318,0.0094994958490133
1769145111013,-0.104949951171875,-0.9386749267578124,0.2373046875,0.0670003369450569,-0.0239255726337432,0.0533092953264713
1769145111023,-0.120269775390625,-0.940948486328125,0.2436981201171875,0.0814115032553672,-0.0354607887566089,0.0794556736946106
1769145111034,-0.146270751953125,-0.947265625,0.247650146484375,0.0886462479829788,-0.0264627654105424,0.0808450505137443
1769145111044,-0.1795654296875,-0.9539031982421876,0.2588043212890625,0.0817332118749618,-0.0121863586828112,0.0536091662943363
1769145111054,-0.204864501953125,-0.9627227783203124,0.2642822265625,0.0612495094537735,0.0212296545505523,0.0145517783239483
1769145111064,-0.214569091796875,-0.9656219482421876,0.2663726806640625,0.0428390763700008,0.039841953665018,-0.0281016752123832
1769145111074,-0.2042388916015625,-0.9707183837890624,0.2614593505859375,0.023848608136177,0.0602731928229332,-0.0608292631804943
1769145111084,-0.1818695068359375,-0.96795654296875,0.2537841796875,0.0001107874995796,0.070526897907257,-0.0731498450040817
1769145111094,-0.1695098876953125,-0.94805908203125,0.2417144775390625,-0.0035382758360356,0.0563852451741695,-0.0623235628008842
1769145111104,-0.1427001953125,-0.9393768310546876,0.2268524169921875,0.0264300089329481,0.0353734381496906,-0.0370712019503116
1769145111114,-0.1236724853515625,-0.9345550537109376,0.215667724609375,0.0590587928891181,0.0093980291858315,0.0062664179131388
1769145111124,-0.11492919921875,-0.93304443359375,0.22161865234375,0.092504896223545,-0.0096640791743993,0.0394374206662178
1769145111134,-0.1188812255859375,-0.9370574951171876,0.2265777587890625,0.1163298040628433,-0.0111389374360442,0.0639869719743728
1769145111144,-0.134918212890625,-0.9487457275390624,0.2518463134765625,0.1194981709122657,-0.0146891977638006,0.0722632780671119
1769145111154,-0.158477783203125,-0.9599151611328124,0.2773590087890625,0.0987180545926094,-0.0092598106712102,0.0615230165421962
1769145111164,-0.184906005859375,-0.959930419921875,0.2996063232421875,0.0628332942724227,-0.0146902631968259,0.0318016037344932
1769145111174,-0.199005126953125,-0.959320068359375,0.3099365234375,0.017560351639986,0.0057004964910447,-0.0062102251686155
1769145111184,-0.2037506103515625,-0.9596710205078124,0.3167572021484375,-0.0341073684394359,0.0244960226118564,-0.0392384827136993
1769145111194,-0.1991424560546875,-0.9574127197265624,0.320587158203125,-0.0871098712086677,0.026184732094407,-0.0647382512688636
1769145111204,-0.1928863525390625,-0.945587158203125,0.31494140625,-0.1201035007834434,-0.0105972504243254,-0.0745911449193954
1769145111214,-0.1685943603515625,-0.9505615234375,0.286712646484375,-0.1356198787689209,-0.0045252433046698,-0.0701356753706932
1769145111224,-0.1446380615234375,-0.942230224609375,0.2647857666015625,-0.1271877735853195,-0.0172045528888702,-0.0467960014939308
1769145111234,-0.1278533935546875,-0.93804931640625,0.2430267333984375,-0.1033594086766243,-0.0292028933763504,-0.0164053384214639
1769145111244,-0.1196746826171875,-0.9439849853515624,0.228363037109375,-0.0767546966671943,-0.0266976580023765,0.0091876396909356
1769145111255,-0.126068115234375,-0.946563720703125,0.2304229736328125,-0.0597019456326961,-0.0220847949385643,0.0256675463169813
1769145111264,-0.144989013671875,-0.953033447265625,0.239410400390625,-0.0587895475327968,-0.0046943537890911,0.0269945990294218
1769145111275,-0.1722869873046875,-0.95782470703125,0.2523956298828125,-0.0720419660210609,0.0166436918079853,0.0096353171393275
1769145111285,-0.1934051513671875,-0.95947265625,0.261932373046875,-0.0877796560525894,0.025726668536663,-0.0170564819127321
1769145111295,-0.2006988525390625,-0.955047607421875,0.2636260986328125,-0.1052822172641754,0.0240845642983913,-0.0463869385421276
1769145111305,-0.1917572021484375,-0.9496002197265624,0.25,-0.1040433123707771,0.0162820350378751,-0.0628708377480506
1769145111315,-0.167327880859375,-0.9476165771484376,0.2323150634765625,-0.0871607363224029,0.004889297299087,-0.0621342100203037
1769145111325,-0.1434478759765625,-0.9476165771484376,0.22076416015625,-0.0602249912917614,-0.0118326907977461,-0.0468742996454238
1769145111335,-0.1295623779296875,-0.950592041015625,0.2151031494140625,-0.0313789620995521,-0.0207897014915943,-0.0238376893103122
1769145111345,-0.126861572265625,-0.94940185546875,0.2138824462890625,-0.0061052967794239,-0.015736885368824,-0.003376621985808
1769145111355,-0.132476806640625,-0.94696044921875,0.2176513671875,0.0119024654850363,-0.0082675172016024,0.0117240343242883
1769145111365,-0.14312744140625,-0.948760986328125,0.2256317138671875,0.0214072875678539,0.0106760803610086,0.0183909907937049
1769145111375,-0.1584930419921875,-0.9530029296875,0.23846435546875,0.0217337906360626,0.0301222167909145,0.0159717760980129
1769145111385,-0.1736602783203125,-0.9564208984375,0.2481689453125,0.0154378125444054,0.0335678122937679,0.0021475730463862
1769145111395,-0.1702423095703125,-0.960296630859375,0.2554779052734375,0.0061436463147401,0.0236576590687036,-0.0066011771559715
1769145111405,-0.15045166015625,-0.96356201171875,0.2531280517578125,0.0050589409656822,0.0053092776797711,-0.000868723145686
1769145111415,-0.1346588134765625,-0.958160400390625,0.2446136474609375,0.0097839208319783,-0.0036818201187998,0.0131059484556317
1769145111425,-0.1379852294921875,-0.948211669921875,0.23760986328125,0.0222762767225503,-0.0106952544301748,0.0235042609274387
1769145111435,-0.1502227783203125,-0.9459228515625,0.2419281005859375,0.0342892631888389,-0.0196237694472074,0.0244097355753183
1769145111445,-0.16156005859375,-0.9551239013671876,0.2515869140625,0.0311760287731885,-0.0163006763905286,0.0157382171601057
1769145111455,-0.1731414794921875,-0.9578857421875,0.261260986328125,0.0159459430724382,-0.001373924780637,0.0048413607291877
1769145111465,-0.18231201171875,-0.9555816650390624,0.2677459716796875,-0.0090984236449003,0.0090986900031566,-0.0142614934593439
1769145111475,-0.189483642578125,-0.95758056640625,0.2701568603515625,-0.037330862134695,0.0218469761312007,-0.0310902744531631
1769145111486,-0.18707275390625,-0.951629638671875,0.2665557861328125,-0.0552850924432277,0.0205193888396024,-0.0488602183759212
1769145111496,-0.1705322265625,-0.949798583984375,0.2548980712890625,-0.0566675402224063,0.0149387354031205,-0.0485198646783828
1769145111506,-0.14697265625,-0.947235107421875,0.2460479736328125,-0.0489198714494705,0.0044014062732458,-0.0326519533991813
1769145111516,-0.134490966796875,-0.9434356689453124,0.2368316650390625,-0.0248142704367637,-0.013719274662435,-0.0147003829479217
1769145111526,-0.12127685546875,-0.9592437744140624,0.237945556640625,-0.0087444894015789,-0.0231892094016075,0.013989052735269
1769145111536,-0.1202239990234375,-0.96246337890625,0.2458953857421875,-0.00715351710096,-0.0276958104223012,0.0335254706442356
1769145111546,-0.1385650634765625,-0.954833984375,0.2476348876953125,-0.0068211546167731,-0.0159565955400466,0.0302135627716779
1769145111557,-0.1609954833984375,-0.9472503662109376,0.2469940185546875,-0.0029004486277699,0.0029507824219763,0.0138929123058915
1769145111566,-0.1815338134765625,-0.9518280029296876,0.2518768310546875,0.000958737975452,0.0131458956748247,-0.0140172820538282
1769145111576,-0.1829376220703125,-0.95867919921875,0.2612457275390625,-0.0139381857588887,0.0276353564113378,-0.0375223420560359
1769145111586,-0.1785430908203125,-0.9555206298828124,0.263763427734375,-0.035518579185009,0.0346115082502365,-0.0498218834400177
1769145111596,-0.1665802001953125,-0.95123291015625,0.2626953125,-0.0506442673504352,0.0089008165523409,-0.0482966937124729
1769145111606,-0.146392822265625,-0.947662353515625,0.249298095703125,-0.0532802641391754,-0.0110768862068653,-0.0273946058005094
1769145111616,-0.1276092529296875,-0.946136474609375,0.225799560546875,-0.0389471314847469,-0.0223314054310321,0.0056626792065799
1769145111626,-0.1247406005859375,-0.948974609375,0.2158050537109375,-0.0152905397117137,-0.0263101663440465,0.0327731259167194
1769145111636,-0.137237548828125,-0.955474853515625,0.2183380126953125,0.0037670412566512,-0.0266595743596553,0.0401772484183311
1769145111646,-0.1530609130859375,-0.9631195068359376,0.2249298095703125,0.0112691661342978,-0.0118526648730039,0.0338019058108329
1769145111656,-0.170135498046875,-0.9651031494140624,0.2352142333984375,0.0121197793632745,0.0041239047423005,0.0100310621783137
1769145111666,-0.1852264404296875,-0.9644775390625,0.2447052001953125,0.0009805759182199,0.0206331070512533,-0.019998475909233
1769145111676,-0.187103271484375,-0.961334228515625,0.2523193359375,-0.0102092279121279,0.0300793386995792,-0.0507201701402664
1769145111686,-0.17462158203125,-0.9612274169921876,0.25042724609375,-0.0156769640743732,0.0442699939012527,-0.0645784586668014
1769145111696,-0.15545654296875,-0.951904296875,0.247650146484375,-0.0113493269309401,0.0293059572577476,-0.0582995265722274
1769145111707,-0.13372802734375,-0.9445037841796876,0.23565673828125,0.0032887374982237,0.0142665542662143,-0.0323443561792373
1769145111717,-0.1127777099609375,-0.9382781982421876,0.222625732421875,0.0312311556190252,0.0007672567153349,0.0136779956519603
1769145111726,-0.107666015625,-0.9391632080078124,0.2184600830078125,0.0695969238877296,-0.0147765493020415,0.0515910238027572
1769145111737,-0.1148223876953125,-0.9423675537109376,0.2191009521484375,0.1008150279521942,-0.0246941614896059,0.0761424377560615
1769145111747,-0.1355133056640625,-0.9489593505859376,0.2320709228515625,0.1181567311286926,-0.0251410398632287,0.07896139472723
1769145111757,-0.1631011962890625,-0.9573822021484376,0.2476806640625,0.1151990294456482,-0.0073806843720376,0.0591996721923351
1769145111767,-0.1892852783203125,-0.9619903564453124,0.263153076171875,0.0955387726426124,0.0194141771644353,0.0245974883437156
1769145111777,-0.2019195556640625,-0.9643707275390624,0.2767486572265625,0.0681257918477058,0.0472793653607368,-0.0153368785977363
1769145111787,-0.203582763671875,-0.96392822265625,0.2900848388671875,0.0310838837176561,0.0633499473333358,-0.0508269630372524
1769145111797,-0.18853759765625,-0.957611083984375,0.2976837158203125,-0.0118175111711025,0.0672070011496543,-0.0656831413507461
1769145111807,-0.163360595703125,-0.952056884765625,0.29998779296875,-0.0470434091985225,0.0498658269643783,-0.0524323135614395
1769145111817,-0.1393890380859375,-0.9475555419921876,0.2873077392578125,-0.0634149238467216,0.0204088687896728,-0.0225114338099956
1769145111827,-0.1196136474609375,-0.9522857666015624,0.273345947265625,-0.0710717812180519,-0.0026104305870831,0.0108502507209777
1769145111837,-0.1236572265625,-0.9523162841796876,0.268218994140625,-0.0816264227032661,-0.020505541935563,0.0272372141480445
1769145111847,-0.1486968994140625,-0.9485626220703124,0.2607269287109375,-0.0852043777704238,-0.0337968468666076,0.0198826286941766
1769145111857,-0.1705169677734375,-0.955078125,0.25457763671875,-0.0897855460643768,-0.0297384541481733,-0.0027579695452004
1769145111867,-0.182098388671875,-0.9549713134765624,0.2499847412109375,-0.0969454571604728,-0.0205228514969348,-0.0323068052530288
1769145111877,-0.1895599365234375,-0.9573974609375,0.2426300048828125,-0.1014264896512031,-0.0042461440898478,-0.0630330294370651
1769145111887,-0.184326171875,-0.9575042724609376,0.236175537109375,-0.1081781387329101,0.013782924041152,-0.0812170952558517
1769145111897,-0.1749420166015625,-0.9536895751953124,0.2294921875,-0.1073328480124473,0.0240997429937124,-0.0898768901824951
1769145111907,-0.16192626953125,-0.9495849609375,0.2219085693359375,-0.0946221128106117,0.0141552332788705,-0.0845335274934768
1769145111917,-0.1383209228515625,-0.9472808837890624,0.20965576171875,-0.0657659620046615,-0.00322908279486,-0.0607459060847759
1769145111927,-0.111968994140625,-0.94549560546875,0.2025146484375,-0.0291552226990461,-0.0182021725922822,-0.0153214316815137
1769145111938,-0.095428466796875,-0.94464111328125,0.199188232421875,0.0093969637528061,-0.0288995578885078,0.029634591192007
1769145111948,-0.0968170166015625,-0.94793701171875,0.2051849365234375,0.0461445935070514,-0.0336783342063427,0.0674605295062065
1769145111958,-0.11492919921875,-0.956085205078125,0.212310791015625,0.0684885159134864,-0.0121823642402887,0.0845039635896682
1769145111968,-0.1475677490234375,-0.9629669189453124,0.2283935546875,0.0732473134994506,0.0023941819090396,0.0725037604570388
1769145111978,-0.1844024658203125,-0.9660797119140624,0.2433013916015625,0.0645297244191169,0.0245852377265691,0.0376565642654895
1769145111988,-0.2026214599609375,-0.9632110595703124,0.2501373291015625,0.0499334707856178,0.0475297011435031,-0.0013592774048447
1769145111998,-0.200927734375,-0.959625244140625,0.2511749267578125,0.037673607468605,0.0561021529138088,-0.0275237690657377
1769145112008,-0.18194580078125,-0.956146240234375,0.2462310791015625,0.0400145277380943,0.0445666685700416,-0.0370501615107059
1769145112018,-0.1559295654296875,-0.9510955810546876,0.2401123046875,0.0465973280370235,0.0247415658086538,-0.0264417268335819
1769145112028,-0.1305389404296875,-0.9453887939453124,0.2362060546875,0.0611078292131423,0.0006412891671061,-0.0019526296528056
1769145112038,-0.1145172119140625,-0.94415283203125,0.2377471923828125,0.0724944397807121,-0.0262808725237846,0.031664453446865
1769145112048,-0.1112823486328125,-0.9468231201171876,0.24346923828125,0.0759365782141685,-0.0370224677026271,0.0569170787930488
1769145112058,-0.12896728515625,-0.9519805908203124,0.2584228515625,0.0699543207883834,-0.0376496389508247,0.0660229623317718
1769145112068,-0.15435791015625,-0.9569854736328124,0.274383544921875,0.0444462932646274,-0.0238952133804559,0.0491827242076396
1769145112078,-0.1800689697265625,-0.961700439453125,0.2872314453125,0.0103607615455985,-0.0022996396292001,0.0250515565276145
1769145112088,-0.199554443359375,-0.96136474609375,0.29052734375,-0.0228240899741649,0.0188772846013307,-0.0133365783840417
1769145112098,-0.2033843994140625,-0.9582061767578124,0.2880401611328125,-0.0558693893253803,0.0379945188760757,-0.0507454685866832
1769145112108,-0.194427490234375,-0.9558563232421876,0.2841644287109375,-0.0787837579846382,0.0364259183406829,-0.0709713771939277
1769145112118,-0.1685943603515625,-0.950042724609375,0.2706451416015625,-0.0797848403453826,0.0159499384462833,-0.0710318312048912
1769145112128,-0.1344146728515625,-0.94482421875,0.24713134765625,-0.0649305284023284,-0.0099564939737319,-0.0470399484038353
1769145112138,-0.1126861572265625,-0.94317626953125,0.2314453125,-0.0464151687920093,-0.0244693905115127,-0.0084480792284011
1769145112148,-0.11114501953125,-0.946014404296875,0.2264404296875,-0.027092071250081,-0.0349286906421184,0.019726300612092
1769145112158,-0.1317901611328125,-0.9530029296875,0.2324066162109375,-0.0197225715965032,-0.0367185994982719,0.0264877993613481
1769145112169,-0.154449462890625,-0.960601806640625,0.2399749755859375,-0.0248038824647665,-0.021924739703536,0.0173004269599914
1769145112179,-0.1705474853515625,-0.9618682861328124,0.24383544921875,-0.0358133912086486,0.0012221246724948,-0.0021784657146781
1769145112189,-0.1861572265625,-0.9597930908203124,0.24578857421875,-0.0444353744387626,0.0283221844583749,-0.0287837106734514
1769145112199,-0.1932373046875,-0.9562835693359376,0.2450103759765625,-0.0490703396499156,0.0456306003034114,-0.0573351942002773
1769145112209,-0.1866912841796875,-0.954132080078125,0.2452239990234375,-0.0493797995150089,0.045047104358673,-0.0779882743954658
1769145112219,-0.16461181640625,-0.9548797607421876,0.2403106689453125,-0.0437219142913818,0.0260694175958633,-0.0739290863275528
1769145112229,-0.129119873046875,-0.955657958984375,0.230438232421875,-0.0301728155463933,0.0065303370356559,-0.0403186604380607
1769145112239,-0.103912353515625,-0.9512176513671876,0.2170562744140625,-0.0014242585748434,-0.005314071662724,0.0058834552764892
1769145112249,-0.1041107177734375,-0.9435882568359376,0.206329345703125,0.0385015867650508,-0.0125261778011918,0.0390089191496372
1769145112259,-0.116729736328125,-0.9396209716796876,0.2045745849609375,0.0733538419008255,-0.0127496169880032,0.0554595291614532
1769145112269,-0.1344757080078125,-0.9500579833984376,0.21466064453125,0.0922524333000183,0.0064171529375016,0.0572315976023674
1769145112279,-0.1577606201171875,-0.9596405029296876,0.230255126953125,0.0997561514377594,0.015656990930438,0.0399330332875251
1769145112289,-0.17559814453125,-0.96142578125,0.2459564208984375,0.0878566205501556,0.0307589769363403,0.0115514611825346
1769145112299,-0.1838836669921875,-0.9615631103515624,0.2605743408203125,0.0698507204651832,0.0394054614007473,-0.016520919278264
1769145112309,-0.1828460693359375,-0.962982177734375,0.273223876953125,0.0430350862443447,0.0275045949965715,-0.0396584644913673
1769145112319,-0.1742401123046875,-0.9564666748046876,0.27960205078125,0.0155970687046647,0.004692489746958,-0.0508219003677368
1769145112329,-0.1633148193359375,-0.9460601806640624,0.27301025390625,0.0006266417913138,-0.0094792554154992,-0.0492048300802707
1769145112339,-0.1461334228515625,-0.9408721923828124,0.26446533203125,-0.0036762275267392,-0.0239306334406137,-0.0408526249229908
1769145112349,-0.1329193115234375,-0.9482269287109376,0.26031494140625,0.0009906959021463,-0.0388081148266792,-0.021155884489417
1769145112359,-0.122406005859375,-0.9637603759765624,0.2643890380859375,0.0031470574904233,-0.0456516407430172,0.0020349214319139
1769145112369,-0.1202545166015625,-0.9706878662109376,0.26727294921875,-0.0104851312935352,-0.0360046066343784,0.0229870751500129
1769145112379,-0.1332550048828125,-0.9557952880859376,0.26318359375,-0.01836409419775,-0.0130833117291331,0.0258116237819194
1769145112390,-0.1564483642578125,-0.945892333984375,0.2571868896484375,-0.0181747432798147,0.0199558641761541,0.0096350507810711
1769145112400,-0.170196533203125,-0.9519805908203124,0.2591705322265625,-0.0151690989732742,0.0358703844249248,-0.0128015493974089
1769145112410,-0.1793975830078125,-0.9559326171875,0.2672576904296875,-0.0295672137290239,0.0359673202037811,-0.0360908918082714
1769145112420,-0.17645263671875,-0.9549102783203124,0.2720947265625,-0.0468087829649448,0.0168740544468164,-0.0519348382949829
1769145112430,-0.1646728515625,-0.953948974609375,0.26434326171875,-0.0635121315717697,-0.0067095682024955,-0.0548781640827655
1769145112440,-0.1453399658203125,-0.952239990234375,0.251922607421875,-0.0687606856226921,-0.0244161263108253,-0.0443903692066669
1769145112450,-0.1368865966796875,-0.9500579833984376,0.239410400390625,-0.0680275186896324,-0.0357042029500007,-0.0260827336460351
1769145112460,-0.13885498046875,-0.949432373046875,0.236602783203125,-0.0620220936834812,-0.0430017970502376,-0.0120654515922069
1769145112471,-0.1389923095703125,-0.9544525146484376,0.232757568359375,-0.0575487799942493,-0.035220306366682,-0.0023545008152723
1769145112480,-0.14654541015625,-0.960205078125,0.2343902587890625,-0.0539516471326351,-0.0262262783944606,-0.0020636834669858
1769145112490,-0.1560516357421875,-0.9586029052734376,0.2389984130859375,-0.0568361170589923,-0.0129706598818302,-0.0136657450348138
1769145112500,-0.1622772216796875,-0.959808349609375,0.2400054931640625,-0.0616777464747428,0.0006673881434835,-0.0301307383924722
1769145112510,-0.1630859375,-0.95806884765625,0.24200439453125,-0.0582832805812358,-0.0020322583150118,-0.0398190505802631
1769145112520,-0.152008056640625,-0.9581298828125,0.23968505859375,-0.0493196137249469,-0.0030362699180841,-0.0419346652925014
1769145112530,-0.1396942138671875,-0.9549560546875,0.2364959716796875,-0.0419280081987381,-0.003776895115152,-0.0313227698206901
1769145112540,-0.1354827880859375,-0.9517059326171876,0.2381134033203125,-0.0368770584464073,-0.0125554725527763,-0.0176077559590339
1769145112550,-0.1369781494140625,-0.9504547119140624,0.239593505859375,-0.0335246697068214,-0.0115456022322177,-0.0115338843315839
1769145112560,-0.143463134765625,-0.952484130859375,0.23944091796875,-0.0309424698352813,-0.0073745595291256,-0.0074595143087208
1769145112570,-0.1534271240234375,-0.9571685791015624,0.2427825927734375,-0.0295608211308717,-0.0048775793984532,-0.012999421916902
1769145112580,-0.158966064453125,-0.9583892822265624,0.2441253662109375,-0.0332301259040832,0.0007843009079806,-0.0191739611327648
1769145112591,-0.1578826904296875,-0.957672119140625,0.2416534423828125,-0.0359377600252628,0.0233037248253822,-0.0267583765089511
1769145112600,-0.156646728515625,-0.9561920166015624,0.2355804443359375,-0.0341076366603374,0.0334841907024383,-0.0285360366106033
1769145112611,-0.15557861328125,-0.95648193359375,0.232086181640625,-0.0292569547891616,0.0351678393781185,-0.0368853136897087
1769145112621,-0.1514739990234375,-0.9555206298828124,0.23284912109375,-0.0232368800789117,0.025376196950674,-0.037360955029726
1769145112631,-0.139892578125,-0.9519805908203124,0.2332763671875,-0.0152665711939334,0.0028730181511491,-0.0327765867114067
1769145112641,-0.123260498046875,-0.9476776123046876,0.2245025634765625,0.0023813985753804,-0.0077820229344069,-0.0150516536086797
1769145112651,-0.10943603515625,-0.9478302001953124,0.2208709716796875,0.0255615524947643,-0.0265945922583341,0.0097077544778585
1769145112661,-0.1059112548828125,-0.95904541015625,0.228729248046875,0.0399828366935253,-0.042657982558012,0.030297452583909
1769145112671,-0.1213226318359375,-0.9615631103515624,0.2438812255859375,0.0334181450307369,-0.0449674762785434,0.040655817836523
1769145112681,-0.1508636474609375,-0.9555206298828124,0.2493133544921875,0.026445722207427,-0.0283458866178989,0.0275336224585771
1769145112691,-0.172576904296875,-0.959564208984375,0.256317138671875,0.0187462568283081,-0.0025241440162062,0.0100020337849855
1769145112701,-0.181121826171875,-0.9677276611328124,0.26849365234375,-0.0015736619243398,0.0241207815706729,-0.0166333056986331
1769145112711,-0.18450927734375,-0.967559814453125,0.269561767578125,-0.0246773827821016,0.0444878377020359,-0.0426404029130935
1769145112721,-0.17755126953125,-0.956695556640625,0.2582244873046875,-0.0424116402864456,0.0525295212864875,-0.0586936734616756
1769145112731,-0.160614013671875,-0.9483184814453124,0.2465362548828125,-0.0457043722271919,0.0307453963905572,-0.0607408434152603
1769145112741,-0.134368896484375,-0.94244384765625,0.2279815673828125,-0.0296985078603029,0.0007723167072981,-0.0447083488106727
1769145112751,-0.1064910888671875,-0.94305419921875,0.2064208984375,-0.0001523328101029,-0.0197196416556835,-0.0138630848377943
1769145112761,-0.096282958984375,-0.94842529296875,0.202392578125,0.0306441951543092,-0.0430313572287559,0.0211300533264875
1769145112771,-0.1063385009765625,-0.956512451171875,0.21209716796875,0.047444213181734,-0.0513928830623626,0.0419634282588958
1769145112781,-0.1260833740234375,-0.963958740234375,0.227996826171875,0.0504698306322097,-0.0388981290161609,0.050061035901308
1769145112791,-0.1533050537109375,-0.9669342041015624,0.243011474609375,0.0426907390356063,-0.0216096881777048,0.0345814116299152
1769145112801,-0.1783599853515625,-0.966552734375,0.2589569091796875,0.02225230820477,0.0055862464942038,0.006149505265057
1769145112811,-0.1881103515625,-0.9651947021484376,0.2677459716796875,-0.0020847225096076,0.0410789921879768,-0.0219995751976966
1769145112822,-0.1864013671875,-0.96356201171875,0.270416259765625,-0.026316825300455,0.0637994855642318,-0.040183637291193
1769145112831,-0.1706085205078125,-0.958740234375,0.26458740234375,-0.031000792980194,0.0582033842802047,-0.0505452007055282
1769145112842,-0.1411285400390625,-0.951934814453125,0.2440948486328125,-0.0173427704721689,0.0444361753761768,-0.0399695187807083
1769145112851,-0.110076904296875,-0.947052001953125,0.22662353515625,0.0055071506649255,0.0289592128247022,-0.0109597072005271
1769145112862,-0.0949859619140625,-0.9465789794921876,0.2181243896484375,0.0350402742624282,0.0026162895374,0.0218549650162458
1769145112872,-0.1026611328125,-0.9486541748046876,0.2191162109375,0.0526456348598003,-0.0203686542809009,0.0416531711816787
1769145112882,-0.1227264404296875,-0.9502105712890624,0.22967529296875,0.0620090439915657,-0.0331691391766071,0.0467206351459026
1769145112892,-0.1499786376953125,-0.9533843994140624,0.2445526123046875,0.0522698611021041,-0.0327235907316207,0.0329518243670463
1769145112902,-0.1718597412109375,-0.9561920166015624,0.25860595703125,0.0321475490927696,-0.0254859179258346,0.0066690878011286
1769145112912,-0.1863555908203125,-0.960845947265625,0.2693328857421875,0.0068808090873062,-0.0093796532601118,-0.0256960429251194
1769145112922,-0.1905059814453125,-0.9614105224609376,0.276458740234375,-0.0272095166146755,0.0150290168821811,-0.0562693960964679
1769145112932,-0.1837005615234375,-0.9603118896484376,0.2785797119140625,-0.0575916580855846,0.0365468263626098,-0.0770971849560737
1769145112942,-0.17266845703125,-0.9599761962890624,0.274993896484375,-0.0748926177620887,0.0359572023153305,-0.088175930082798
1769145112952,-0.1436004638671875,-0.9537353515625,0.267303466796875,-0.0807497054338455,0.0177627522498369,-0.0727833956480026
1769145112962,-0.1161346435546875,-0.9517059326171876,0.25054931640625,-0.0730102956295013,0.0086054727435112,-0.0502322763204574
1769145112972,-0.1060638427734375,-0.9518890380859376,0.2416534423828125,-0.0589131191372871,-0.0082030687481164,-0.0206355042755603
1769145112982,-0.101776123046875,-0.9509429931640624,0.2339935302734375,-0.0449190065264701,-0.0197380185127258,0.0034863441251218
1769145112992,-0.10858154296875,-0.9535675048828124,0.2332305908203125,-0.0376645550131797,-0.0321933552622795,0.0186210889369249
1769145113002,-0.1224365234375,-0.9547576904296876,0.2340087890625,-0.0323922932147979,-0.034442663192749,0.0196187086403369
1769145113012,-0.1441497802734375,-0.958892822265625,0.2390899658203125,-0.0366283170878887,-0.0183145590126514,0.0115000624209642
1769145113022,-0.1710968017578125,-0.961151123046875,0.244171142578125,-0.0474969446659088,-2.370213405811228e-05,-0.014231932349503
1769145113032,-0.1888275146484375,-0.96099853515625,0.244598388671875,-0.0620937310159206,0.0203036740422248,-0.0477265082299709
1769145113042,-0.18438720703125,-0.9600677490234376,0.243927001953125,-0.073889136314392,0.0292167402803897,-0.0692744106054306
1769145113052,-0.1606292724609375,-0.96728515625,0.23980712890625,-0.0768662840127945,0.0234427414834499,-0.0686429738998413
1769145113062,-0.1311492919921875,-0.966278076171875,0.2299652099609375,-0.0656964555382728,0.0074501931667327,-0.0487054884433746
1769145113072,-0.11077880859375,-0.9508819580078124,0.2084503173828125,-0.0360959507524967,-0.0037910097744315,-0.0179829951375722
1769145113083,-0.107696533203125,-0.9391632080078124,0.19989013671875,-0.0012008192716166,-0.0304822754114866,0.0141190150752663
1769145113093,-0.1012725830078125,-0.9448089599609376,0.197967529296875,0.0318937487900257,-0.0248632710427045,0.0356876887381076
1769145113103,-0.113037109375,-0.9516448974609376,0.2089996337890625,0.0556914918124675,-0.0192416049540042,0.0451120845973491
1769145113113,-0.13018798828125,-0.9584808349609376,0.2234954833984375,0.066583551466465,-0.0136838546022772,0.0398736447095871
1769145113123,-0.147216796875,-0.9624481201171876,0.2366943359375,0.0612500421702861,0.0027587686199694,0.0248222593218088
1769145113133,-0.1591644287109375,-0.9661712646484376,0.2491912841796875,0.0507856830954551,0.0192916728556156,0.0082001388072967
1769145113143,-0.161773681640625,-0.96417236328125,0.25634765625,0.0291613470762968,0.0307845436036586,-0.0030815436039119
1769145113153,-0.1614227294921875,-0.957672119140625,0.254913330078125,0.0139632197096943,0.0311994645744562,-0.0143304700031876
1769145113163,-0.1554107666015625,-0.9496612548828124,0.2507781982421875,0.0141243413090705,0.0066347331739962,-0.0160695146769285
1769145113173,-0.14141845703125,-0.949188232421875,0.242340087890625,0.0200434830039739,-0.0104656899347901,-0.0090403668582439
1769145113183,-0.1213226318359375,-0.9600982666015624,0.2425384521484375,0.027498735114932,-0.0256387833505868,0.0118641164153814
1769145113193,-0.108551025390625,-0.97509765625,0.251983642578125,0.0231713652610778,-0.0391197055578231,0.0361068733036518
1769145113203,-0.1171112060546875,-0.970947265625,0.2578277587890625,0.010014284402132,-0.0431946069002151,0.0454604253172874
1769145113213,-0.1429901123046875,-0.9505462646484376,0.25433349609375,-0.0007869640830904,-0.0214688070118427,0.0284135323017835
1769145113223,-0.1596832275390625,-0.9472198486328124,0.2567596435546875,-0.0113080479204654,0.001252484624274,0.0081370221450924
1769145113233,-0.164306640625,-0.95465087890625,0.2629547119140625,-0.0232725664973258,0.018255703151226,-0.0149552477523684
1769145113243,-0.1633758544921875,-0.95892333984375,0.2620391845703125,-0.0409439727663993,0.042359173297882,-0.0313595198094844
1769145113253,-0.1610260009765625,-0.9610595703125,0.2614593505859375,-0.058353055268526,0.0443400330841541,-0.036786776036024
1769145113263,-0.14581298828125,-0.9615325927734376,0.2508087158203125,-0.0623185001313686,0.0211311168968677,-0.0350336171686649
1769145113273,-0.125244140625,-0.954833984375,0.2335662841796875,-0.0582894049584865,0.0050200587138533,-0.0138550950214266
1769145113283,-0.1105194091796875,-0.9496002197265624,0.2188262939453125,-0.0447003580629825,-0.0128388330340385,0.0128537472337484
1769145113293,-0.1103057861328125,-0.95245361328125,0.212615966796875,-0.028587969020009,-0.0183814037591218,0.0324335731565952
1769145113304,-0.127532958984375,-0.958282470703125,0.21856689453125,-0.0207236539572477,-0.0236102547496557,0.0370259284973144
1769145113314,-0.15045166015625,-0.96063232421875,0.2251434326171875,-0.0209481585770845,-0.0167765822261571,0.0234738998115062
1769145113324,-0.1744384765625,-0.9637451171875,0.2318115234375,-0.0245775151997804,-0.0037806234322488,-0.0071596424095332
1769145113334,-0.185211181640625,-0.9647979736328124,0.2346649169921875,-0.029985861852765,0.0315565951168537,-0.0382853373885154
1769145113344,-0.1820526123046875,-0.9647979736328124,0.237701416015625,-0.0329470299184322,0.0543183647096157,-0.0612223446369171
1769145113354,-0.1626129150390625,-0.9589691162109376,0.2355194091796875,-0.0216823928058147,0.0530467070639133,-0.0662858113646507
1769145113364,-0.1287384033203125,-0.9496307373046876,0.2268218994140625,-0.0024546354543417,0.0432089902460575,-0.044736310839653
1769145113374,-0.0951385498046875,-0.9451446533203124,0.2137908935546875,0.0322048068046569,0.0239884238690137,-0.0056379120796918
1769145113384,-0.0765380859375,-0.9444122314453124,0.207489013671875,0.067363329231739,0.0014168017078191,0.0387332811951637
1769145113394,-0.08148193359375,-0.948699951171875,0.212310791015625,0.0939864143729209,-0.0148487212136387,0.0741165727376937
1769145113404,-0.1053314208984375,-0.954498291015625,0.224517822265625,0.1039106845855712,-0.0250864438712596,0.0872326418757438
1769145113414,-0.1389312744140625,-0.960113525390625,0.2393646240234375,0.1029956266283989,-0.0260257422924041,0.0721961632370948
1769145113424,-0.1647796630859375,-0.965301513671875,0.251312255859375,0.0865378230810165,-0.0033665020018815,0.0478599332273006
1769145113434,-0.18603515625,-0.96929931640625,0.265289306640625,0.0601701289415359,0.0205382984131574,0.0097967041656374
1769145113444,-0.1961212158203125,-0.9683685302734376,0.2742767333984375,0.0285536143928766,0.034837607294321,-0.0329603478312492
1769145113454,-0.194183349609375,-0.9647674560546876,0.27935791015625,-0.0112316152080893,0.0453480407595634,-0.0625488683581352
1769145113464,-0.1814117431640625,-0.958587646484375,0.2834625244140625,-0.0482623390853405,0.0349449329078197,-0.0795392990112304
1769145113474,-0.155303955078125,-0.9566650390625,0.2771148681640625,-0.0743495970964431,0.0178362540900707,-0.0754319056868553
1769145113484,-0.1250457763671875,-0.95855712890625,0.267974853515625,-0.085566833615303,-0.0108196241781115,-0.0471581891179084
1769145113494,-0.097686767578125,-0.9551239013671876,0.2542572021484375,-0.0861585885286331,-0.0305603053420782,-0.0081024011597037
1769145113505,-0.0909881591796875,-0.942047119140625,0.232513427734375,-0.0692773386836052,-0.030228741466999,0.0262731499969959
1769145113515,-0.1081695556640625,-0.9443359375,0.22283935546875,-0.0423559807240963,-0.0320716500282287,0.037197969853878
1769145113524,-0.1288909912109375,-0.9571533203125,0.227813720703125,-0.0278494749218225,-0.0331678055226802,0.0320761762559413
1769145113534,-0.14678955078125,-0.9626617431640624,0.2374420166015625,-0.0297570973634719,-0.0195862185209989,0.0124390926212072
1769145113545,-0.163909912109375,-0.9628448486328124,0.2400665283203125,-0.0355428121984005,-0.0007512777228839,-0.0125426901504397
1769145113555,-0.1711578369140625,-0.95916748046875,0.24273681640625,-0.0460130311548709,0.0138119524344801,-0.0392387472093105
1769145113565,-0.170135498046875,-0.9593048095703124,0.2443084716796875,-0.0561756528913974,0.0248515531420707,-0.0587767623364925
1769145113575,-0.1612548828125,-0.9612884521484376,0.2436981201171875,-0.0678464248776435,0.0316282324492931,-0.0720869749784469
1769145113585,-0.1556243896484375,-0.9623870849609376,0.2433624267578125,-0.0779539197683334,0.0271421391516923,-0.0764058232307434
1769145113595,-0.141998291015625,-0.9611053466796876,0.2412109375,-0.0826775655150413,0.0143025061115622,-0.0695495158433914
1769145113605,-0.1234130859375,-0.9596099853515624,0.2330780029296875,-0.0724765956401825,-0.0078994687646627,-0.0473659187555313
1769145113615,-0.1070404052734375,-0.9538421630859376,0.222412109375,-0.0526211336255073,-0.0191987287253141,-0.0179880559444427
1769145113625,-0.1027069091796875,-0.952484130859375,0.2103424072265625,-0.0282841026782989,-0.0159241054207086,0.0070698936469852
1769145113635,-0.10662841796875,-0.955841064453125,0.210601806640625,-0.0032463932875543,-0.023321833461523,0.0231250263750553
1769145113645,-0.1150054931640625,-0.958953857421875,0.217437744140625,0.0124180540442466,-0.0299970470368862,0.0311533920466899
1769145113655,-0.1321868896484375,-0.96124267578125,0.2244415283203125,0.0127802435308694,-0.0222022403031587,0.0264470539987087
1769145113665,-0.15252685546875,-0.961639404296875,0.233367919921875,0.0078589878976345,-0.012025237083435,0.0078853536397218
1769145113675,-0.16363525390625,-0.964324951171875,0.2405548095703125,-0.0050642671994864,0.0064917216077446,-0.0145011786371469
1769145113685,-0.170745849609375,-0.9657745361328124,0.2431640625,-0.0195601191371679,0.0278406850993633,-0.034819234162569
1769145113695,-0.1702423095703125,-0.9628143310546876,0.2451019287109375,-0.0329717993736267,0.0294234026223421,-0.0509484000504016
1769145113705,-0.155853271484375,-0.95794677734375,0.240142822265625,-0.0332365147769451,0.0295736044645309,-0.0475211814045906
1769145113715,-0.13128662109375,-0.9510955810546876,0.2256622314453125,-0.0146487178280949,0.0223090332001447,-0.0250523556023836
1769145113725,-0.1041717529296875,-0.9486541748046876,0.2141571044921875,0.0117181753739714,0.009321330115199,0.0096702044829726
1769145113736,-0.0888671875,-0.948089599609375,0.21044921875,0.0389868132770061,-0.0074022561311721,0.043490219861269
1769145113746,-0.0939483642578125,-0.950347900390625,0.210968017578125,0.0591320283710956,-0.0232848152518272,0.0689673498272895
1769145113756,-0.1118316650390625,-0.9552764892578124,0.217926025390625,0.0690946504473686,-0.0259061660617589,0.0749362930655479
1769145113766,-0.1343841552734375,-0.9598846435546876,0.229278564453125,0.0707237049937248,-0.0185294765979051,0.0654530450701713
1769145113776,-0.15966796875,-0.96405029296875,0.2424468994140625,0.0623001269996166,-0.0121626565232872,0.0408246628940105
1769145113786,-0.178985595703125,-0.9671630859375,0.2514190673828125,0.042290199548006,0.0100603569298982,0.0076454025693237
1769145113796,-0.181793212890625,-0.96710205078125,0.255767822265625,0.016620522364974,0.0363050103187561,-0.0214608162641525
1769145113806,-0.1865386962890625,-0.9651641845703124,0.26116943359375,-0.0007017429452389,0.0329643413424491,-0.0504551827907562
1769145113816,-0.1633148193359375,-0.959014892578125,0.2559356689453125,-0.0156700406223535,0.0344248190522193,-0.0518152602016925
1769145113827,-0.1334686279296875,-0.95294189453125,0.2506103515625,-0.0237274337559938,0.0172005575150251,-0.0352543927729129
1769145113836,-0.111541748046875,-0.9498443603515624,0.2417144775390625,-0.016300942748785,-0.0117197725921869,-0.0058448393829166
1769145113846,-0.100799560546875,-0.9477386474609376,0.2324066162109375,0.0004926847759634,-0.0349947363138198,0.0211047530174255
1769145113856,-0.1009674072265625,-0.9510498046875,0.22613525390625,0.019144132733345,-0.0406299829483032,0.0380565710365772
1769145113866,-0.1111297607421875,-0.9635772705078124,0.2310638427734375,0.0245271809399127,-0.0359132587909698,0.048531848937273
1769145113876,-0.1271514892578125,-0.9770965576171876,0.2443389892578125,0.0154109140858054,-0.0249876417219638,0.045420479029417
1769145113886,-0.1503448486328125,-0.97210693359375,0.2498321533203125,4.314320904086344e-05,-0.0088113350793719,0.0246835090219974
1769145113896,-0.17010498046875,-0.9607696533203124,0.2450408935546875,-0.0150295495986938,0.0191438663750886,0.0007933556917123
1769145113906,-0.1792449951171875,-0.9553680419921876,0.244964599609375,-0.028187695890665,0.0441336371004581,-0.0240193158388137
1769145113916,-0.17608642578125,-0.957061767578125,0.2449798583984375,-0.0333949737250804,0.0454915836453437,-0.0462465919554233
1769145113927,-0.1628570556640625,-0.9589080810546876,0.244476318359375,-0.0343052446842193,0.0188719574362039,-0.0515987463295459
1769145113936,-0.1356048583984375,-0.950042724609375,0.2357025146484375,-0.02348561771214,-0.0120263025164604,-0.0401847027242183
1769145113947,-0.1025848388671875,-0.9503021240234376,0.2177886962890625,-0.0034533210564404,-0.026741599664092,-0.0119189769029617
1769145113956,-0.0848846435546875,-0.955413818359375,0.21588134765625,0.0192083157598972,-0.049661561846733,0.0237471405416727
1769145113967,-0.0923004150390625,-0.95440673828125,0.2209014892578125,0.0337377227842807,-0.0609789304435253,0.0460934601724147
1769145113976,-0.118896484375,-0.95343017578125,0.2288360595703125,0.0356932841241359,-0.0527931749820709,0.0483616739511489
1769145113987,-0.147918701171875,-0.955230712890625,0.239471435546875,0.0311049222946167,-0.030812507495284,0.0284348372370004
1769145113997,-0.168914794921875,-0.972900390625,0.2519989013671875,0.014976286329329,-0.0088289119303226,0.0008708536624908
1769145114007,-0.17694091796875,-0.988037109375,0.2684326171875,-0.0144777428358793,0.0042109903879463,-0.0253823213279247
1769145114017,-0.1776123046875,-0.981903076171875,0.2731781005859375,-0.051526840776205,0.0228557810187339,-0.0470777638256549
1769145114027,-0.171600341796875,-0.9576416015625,0.2580718994140625,-0.0701713636517524,0.039889357984066,-0.0563839152455329
1769145114037,-0.1510772705078125,-0.9417724609375,0.23419189453125,-0.0508237667381763,0.036103144288063,-0.0518911592662334
1769145114047,-0.1164093017578125,-0.9421844482421876,0.2188262939453125,-0.014536865055561,0.0129935629665851,-0.0248116068542003
1769145114057,-0.0887908935546875,-0.9467010498046876,0.212738037109375,0.0159946791827678,-0.0073063825257122,0.0118244355544447
1769145114067,-0.0858154296875,-0.9489593505859376,0.212677001953125,0.0373803935945034,-0.0292545575648546,0.0455214120447635
1769145114077,-0.09857177734375,-0.95684814453125,0.2215728759765625,0.0461690947413444,-0.0466655045747756,0.0624932050704956
1769145114087,-0.1228485107421875,-0.963348388671875,0.2316131591796875,0.0407948344945907,-0.0390110500156879,0.0602329820394516
1769145114097,-0.14910888671875,-0.965057373046875,0.241912841796875,0.0283999498933553,-0.0217929128557443,0.0421088375151157
1769145114107,-0.1702423095703125,-0.9676971435546876,0.251007080078125,0.0068877334706485,0.0066073024645447,0.009891246445477
1769145114117,-0.1822052001953125,-0.9676666259765624,0.2551422119140625,-0.0169901680201292,0.0392757654190063,-0.0210690665990114
1769145114127,-0.184478759765625,-0.96307373046875,0.254638671875,-0.0370067544281482,0.0565210655331611,-0.042439866811037
1769145114137,-0.1711883544921875,-0.9593505859375,0.2462158203125,-0.0422979220747947,0.0525777228176593,-0.0537545755505561
1769145114147,-0.14501953125,-0.952423095703125,0.2344207763671875,-0.0274665113538503,0.0342578403651714,-0.0408161394298076
1769145114157,-0.114471435546875,-0.9482269287109376,0.2172698974609375,0.0022042985074222,0.0138106206431984,-0.0132090123370289
1769145114167,-0.0965576171875,-0.9479217529296876,0.2064666748046875,0.0402451567351818,-0.0062206117436289,0.0215495005249977
1769145114177,-0.0906219482421875,-0.9469451904296876,0.2088623046875,0.0725125521421432,-0.0272974018007516,0.0526925064623355
1769145114188,-0.097686767578125,-0.9519500732421876,0.2156219482421875,0.0955174639821052,-0.0295669473707675,0.0733189582824707
1769145114197,-0.1177825927734375,-0.9560394287109376,0.227020263671875,0.1047256141901016,-0.0196725036948919,0.0750830322504043
1769145114208,-0.142059326171875,-0.9619140625,0.244873046875,0.0988512113690376,-0.0008098672842606,0.0578039102256298
1769145114218,-0.1655426025390625,-0.968109130859375,0.2640380859375,0.0748252421617508,0.0353939421474933,0.0329020246863365
1769145114228,-0.1827392578125,-0.971160888671875,0.279815673828125,0.0405391715466976,0.0493465103209018,-0.0025297366082668
1769145114238,-0.1868743896484375,-0.9660491943359376,0.289276123046875,-0.0009598032338544,0.0444923676550388,-0.036209937185049
1769145114248,-0.1772918701171875,-0.958740234375,0.2890167236328125,-0.0444601438939571,0.0356128551065921,-0.0461179614067077
1769145114258,-0.157806396484375,-0.9517669677734376,0.28070068359375,-0.0730529054999351,0.0159528665244579,-0.0419258773326873
1769145114268,-0.1346282958984375,-0.9463958740234376,0.2615814208984375,-0.0743546560406684,-0.0038807583041489,-0.0239165183156728
1769145114278,-0.1199493408203125,-0.9454803466796876,0.243316650390625,-0.0657060444355011,-0.0173859149217605,-0.0033286849502474
1769145114288,-0.11846923828125,-0.9510345458984376,0.2377166748046875,-0.0525170043110847,-0.0434366911649704,0.0099295964464545
1769145114298,-0.1173553466796875,-0.965576171875,0.234588623046875,-0.0450673438608646,-0.0369244627654552,0.0165052078664302
1769145114308,-0.1244354248046875,-0.97406005859375,0.239715576171875,-0.0545921400189399,-0.0221923869103193,0.018821358680725
1769145114318,-0.1493988037109375,-0.9660186767578124,0.2418060302734375,-0.061339259147644,-0.0006250438746064,0.0023419838398694
1769145114328,-0.1678009033203125,-0.9597625732421876,0.236297607421875,-0.0604194030165672,0.0264968555420637,-0.0289810504764318
1769145114338,-0.17236328125,-0.956878662109375,0.239898681640625,-0.0640389025211334,0.0375641547143459,-0.0546240955591201
1769145114348,-0.1624298095703125,-0.95611572265625,0.2451629638671875,-0.0727319940924644,0.0327038839459419,-0.0628071948885917
1769145114358,-0.139801025390625,-0.9556427001953124,0.2393951416015625,-0.0754950270056724,0.0300295371562242,-0.0518213845789432
1769145114368,-0.1196746826171875,-0.945556640625,0.2317657470703125,-0.0675007477402687,-0.0041063278913497,-0.0243641957640647
1769145114378,-0.101959228515625,-0.9416656494140624,0.2231903076171875,-0.0465624406933784,-0.039426501840353,0.0081764375790953
1769145114388,-0.091217041015625,-0.95062255859375,0.212677001953125,-0.0261061694473028,-0.0395825617015361,0.0378435179591178
1769145114398,-0.104400634765625,-0.9606475830078124,0.22283935546875,-0.0121112577617168,-0.0461160950362682,0.0538049079477787
1769145114408,-0.1370391845703125,-0.9693756103515624,0.2342681884765625,-0.0119741046801209,-0.0379031747579574,0.038687739521265
1769145114418,-0.1624603271484375,-0.9722137451171876,0.2400360107421875,-0.0233412757515907,-0.0088182585313916,0.0142431184649467
1769145114429,-0.176055908203125,-0.9685516357421876,0.24432373046875,-0.0375508368015289,0.018877550959587,-0.0155936069786548
1769145114439,-0.1776123046875,-0.965576171875,0.240325927734375,-0.0473946779966354,0.0352077893912792,-0.0409447699785232
1769145114449,-0.167755126953125,-0.9628143310546876,0.2285003662109375,-0.0487060211598873,0.0488378480076789,-0.0564872436225414
1769145114459,-0.148406982421875,-0.9600372314453124,0.21856689453125,-0.0381745509803295,0.0522091425955295,-0.0567146763205528
1769145114469,-0.127716064453125,-0.95501708984375,0.2136077880859375,-0.0201300363987684,0.032744362950325,-0.0381625667214393
1769145114479,-0.1084136962890625,-0.9481048583984376,0.20672607421875,0.0131227262318134,0.0038988678716123,-0.013595437631011
1769145114489,-0.091827392578125,-0.9443206787109376,0.2034759521484375,0.0449520274996757,-0.0400446206331253,0.0290223304182291
1769145114499,-0.0867462158203125,-0.9474945068359376,0.204193115234375,0.0761115476489067,-0.0443701259791851,0.0614662915468215
1769145114509,-0.096099853515625,-0.95281982421875,0.2125701904296875,0.0983172506093978,-0.0347396060824394,0.0811214819550514
1769145114519,-0.1234588623046875,-0.9614715576171876,0.23126220703125,0.1049501150846481,-0.0224477853626012,0.0807363912463188
1769145114529,-0.154327392578125,-0.962921142578125,0.2474212646484375,0.0924287363886833,0.0034376082476228,0.062760055065155
1769145114539,-0.177001953125,-0.965179443359375,0.2602081298828125,0.0651861950755119,0.0301379282027483,0.0321009457111358
1769145114549,-0.18994140625,-0.9640655517578124,0.2660064697265625,0.0415945798158645,0.0588806271553039,-0.0069061093963682
1769145114559,-0.18603515625,-0.96331787109375,0.2661895751953125,0.01555578969419,0.0684323236346244,-0.0337971113622188
1769145114569,-0.1712188720703125,-0.9584503173828124,0.2647857666015625,-0.006197974551469,0.0663228332996368,-0.0420790091156959
1769145114579,-0.1403656005859375,-0.9508056640625,0.252777099609375,-0.0150849428027868,0.0499630309641361,-0.0308495257049798
1769145114589,-0.1156463623046875,-0.9426727294921876,0.246002197265625,-0.0109226889908313,0.0074323499575257,-0.00594337657094
1769145114599,-0.1061248779296875,-0.940521240234375,0.2388458251953125,0.0005262406193651,-0.0387583151459693,0.0201529394835233
1769145114609,-0.1100311279296875,-0.946929931640625,0.236663818359375,0.0069860043004155,-0.0629065260291099,0.0378331318497657
1769145114620,-0.1235504150390625,-0.9600830078125,0.2440032958984375,0.0041734399273991,-0.0579495877027511,0.0439903624355793
1769145114629,-0.142425537109375,-0.9686737060546876,0.25457763671875,-0.0094385091215372,-0.0370618812739849,0.034451451152563
1769145114639,-0.1607208251953125,-0.97674560546875,0.26385498046875,-0.0296998377889394,-0.0182924550026655,0.0139879873022437
1769145114650,-0.1746368408203125,-0.9749755859375,0.266815185546875,-0.0556803047657012,0.0159376878291368,-0.0161795020103454
1769145114659,-0.18218994140625,-0.9664154052734376,0.25836181640625,-0.0767174139618873,0.046151515096426,-0.0479962863028049
1769145114670,-0.1775970458984375,-0.959228515625,0.2466583251953125,-0.0817380025982856,0.0616204887628555,-0.0713551416993141
1769145114680,-0.15667724609375,-0.9530487060546876,0.2367401123046875,-0.075767196714878,0.0447530895471572,-0.0726949796080589
1769145114690,-0.12359619140625,-0.9462738037109376,0.2196044921875,-0.0562566146254539,0.0247719250619411,-0.0452476404607296
1769145114700,-0.094329833984375,-0.942626953125,0.201416015625,-0.0198954101651906,-0.0013448963873088,0.0004058657505083
1769145114710,-0.079833984375,-0.9451446533203124,0.19158935546875,0.0210541523993015,-0.0277610570192337,0.047762993723154
1769145114720,-0.0856781005859375,-0.9483642578125,0.1896209716796875,0.0586308240890502,-0.0398848317563533,0.0784966722130775
1769145114730,-0.1103057861328125,-0.9537353515625,0.19580078125,0.0862986668944358,-0.0402984209358692,0.0878438353538513
1769145114740,-0.1358489990234375,-0.9619903564453124,0.212738037109375,0.0969225540757179,-0.0114681040868163,0.0763773322105407
1769145114750,-0.1639862060546875,-0.96490478515625,0.2303619384765625,0.0995905026793479,0.0118553275242447,0.0478234477341175
1769145114760,-0.179840087890625,-0.9759674072265624,0.2471771240234375,0.0858243629336357,0.0470817573368549,0.0143693517893552
1769145114770,-0.1844482421875,-0.9771270751953124,0.2645263671875,0.059980247169733,0.0625579208135604,-0.013736318796873
1769145114780,-0.178131103515625,-0.9688720703125,0.264434814453125,0.0361614674329757,0.0746550634503364,-0.0362104699015617
1769145114790,-0.1630859375,-0.9519195556640624,0.2537078857421875,0.0288793183863163,0.075452409684658,-0.0424268208444118
1769145114800,-0.142303466796875,-0.9422454833984376,0.243896484375,0.0409660749137401,0.052870936691761,-0.0315392836928367
1769145114810,-0.1145782470703125,-0.942291259765625,0.2358551025390625,0.0591743737459182,0.0195806249976158,-0.0044123250991106
1769145114820,-0.0984649658203125,-0.9408416748046876,0.237762451171875,0.0679628029465675,-0.0146460542455315,0.032001607120037
1769145114830,-0.103851318359375,-0.9457244873046876,0.2346343994140625,0.079223446547985,-0.031323567032814,0.0567500963807106
1769145114841,-0.1137237548828125,-0.9502410888671876,0.24176025390625,0.0745179131627082,-0.0437996797263622,0.0694158226251602
1769145114850,-0.1325225830078125,-0.9615020751953124,0.2541656494140625,0.0599536150693893,-0.0403016172349453,0.065912440419197
1769145114860,-0.1562347412109375,-0.966796875,0.2672271728515625,0.0314977392554283,-0.0219037011265754,0.0470735020935535
1769145114871,-0.1800079345703125,-0.9718475341796876,0.278472900390625,-0.0042879558168351,0.0116153769195079,0.0170567482709884
1769145114880,-0.198272705078125,-0.9727630615234376,0.285430908203125,-0.0456801354885101,0.0398001447319984,-0.024361265823245
1769145114891,-0.2002410888671875,-0.9672698974609376,0.287811279296875,-0.0791648626327514,0.0560592748224735,-0.0602974295616149
1769145114900,-0.1829986572265625,-0.9603118896484376,0.2805328369140625,-0.1019777655601501,0.0590832941234111,-0.0782149136066436
1769145114911,-0.154144287109375,-0.9545745849609376,0.2623291015625,-0.1088148951530456,0.0484580807387828,-0.0717575401067733
1769145114921,-0.123687744140625,-0.9496612548828124,0.2446441650390625,-0.0920207351446151,0.0239463448524475,-0.0499332062900066
1769145114931,-0.0980377197265625,-0.9488067626953124,0.227081298828125,-0.0613373927772045,-0.0006346312584355,-0.0127384318038821
1769145114941,-0.0877838134765625,-0.945892333984375,0.2130279541015625,-0.0274971388280391,-0.0095141427591443,0.0246590077877044
1769145114951,-0.09564208984375,-0.9454498291015624,0.207122802734375,0.0024170849937945,-0.007398793939501,0.0540520511567592
1769145114961,-0.11474609375,-0.9519500732421876,0.2155914306640625,0.0258622225373983,-0.0061335260979831,0.0625890791416168
1769145114971,-0.1366729736328125,-0.9572601318359376,0.2275390625,0.0371015630662441,-0.0023252058308571,0.0558555424213409
1769145114981,-0.157989501953125,-0.9605255126953124,0.2392425537109375,0.0320740453898906,0.0109162973240017,0.0359795726835727
1769145114991,-0.1759490966796875,-0.96343994140625,0.250885009765625,0.0164532754570245,0.0202504098415374,0.0037278928793966
1769145115001,-0.1847076416015625,-0.9636688232421876,0.2615814208984375,-0.0097000319510698,0.0265719555318355,-0.0263120308518409
1769145115011,-0.179443359375,-0.9592742919921876,0.2674713134765625,-0.0339582338929176,0.0194487981498241,-0.0416885912418365
1769145115023,-0.163787841796875,-0.9534454345703124,0.2633056640625,-0.0525401718914508,0.0095200017094612,-0.0394707098603248
1769145115031,-0.1417083740234375,-0.949005126953125,0.2512969970703125,-0.0550022646784782,-0.0020714066922664,-0.0185260139405727
1769145115041,-0.1158905029296875,-0.9472808837890624,0.2318115234375,-0.0383423306047916,-0.000924116873648,0.0095160072669386
1769145115051,-0.104644775390625,-0.961181640625,0.227325439453125,-0.0230523217469453,-0.0038256309926509,0.0326610058546066
1769145115061,-0.11029052734375,-0.9726715087890624,0.2309417724609375,-0.0189172327518463,-0.008422247134149,0.045457761734724
1769145115071,-0.1268310546875,-0.961273193359375,0.2269439697265625,-0.0171411707997322,0.0018122810870409,0.0444614738225936
1769145115081,-0.1443634033203125,-0.956329345703125,0.2183074951171875,-0.003156644757837,0.0227396674454212,0.0325523503124713
1769145115091,-0.157806396484375,-0.9576568603515624,0.22283935546875,0.0087575390934944,0.0419722162187099,0.0169930979609489
1769145115101,-0.166717529296875,-0.9579925537109376,0.2321319580078125,0.0131693314760923,0.0434731766581535,0.0020738034509122
1769145115112,-0.173492431640625,-0.95111083984375,0.2371368408203125,0.016842097043991,0.0254097525030374,-0.0176229365170002
1769145115122,-0.1660919189453125,-0.9496307373046876,0.237091064453125,0.0183116290718317,0.0093903057277202,-0.0220669526606798
1769145115132,-0.1428375244140625,-0.951019287109375,0.2377777099609375,0.0294689424335956,-0.0202259086072444,-0.0076238312758505
1769145115142,-0.122467041015625,-0.9548492431640624,0.2318878173828125,0.0423871390521526,-0.0341664925217628,0.0140465768054127
1769145115152,-0.114166259765625,-0.954315185546875,0.2316741943359375,0.0552944131195545,-0.0346410684287548,0.0375479087233543
1769145115162,-0.1189117431640625,-0.9564971923828124,0.2319183349609375,0.0607834570109844,-0.0247799139469862,0.0490266643464565
1769145115172,-0.13470458984375,-0.9607696533203124,0.237945556640625,0.0601267218589782,0.0024612934794276,0.0457565709948539
1769145115182,-0.1543426513671875,-0.9649200439453124,0.245361328125,0.0511438772082328,0.0341047085821628,0.0303155612200498
1769145115192,-0.1707000732421875,-0.96429443359375,0.2546539306640625,0.0351662412285804,0.052310075610876,0.0026844663079828
1769145115202,-0.176513671875,-0.9613189697265624,0.2568359375,0.0192695688456296,0.0566070862114429,-0.0235415454953908
1769145115212,-0.169158935546875,-0.9552459716796876,0.2553863525390625,0.0090851075947284,0.0472021326422691,-0.0357318967580795
1769145115222,-0.1544189453125,-0.9482269287109376,0.2490997314453125,0.0106784766539931,0.0262398589402437,-0.0292843859642744
1769145115232,-0.13543701171875,-0.9420928955078124,0.2426300048828125,0.0169683303683996,-0.0023057649377733,-0.0062768044881522
1769145115242,-0.1201934814453125,-0.9439239501953124,0.2397308349609375,0.0354056619107723,-0.0215644147247076,0.018598984926939
1769145115252,-0.1153564453125,-0.9481201171875,0.2376251220703125,0.0507180392742157,-0.0374608226120471,0.0460772141814231
1769145115262,-0.1197967529296875,-0.9515838623046876,0.2459869384765625,0.053373210132122,-0.0355785004794597,0.0615922585129737
1769145115272,-0.1351470947265625,-0.957366943359375,0.2559967041015625,0.0424811467528343,-0.0148183610290288,0.0591703802347183
1769145115282,-0.16094970703125,-0.962188720703125,0.2649383544921875,0.0239633899182081,0.0128180608153343,0.0401964224874973
1769145115292,-0.1841278076171875,-0.964508056640625,0.2727508544921875,-0.0009688580175861,0.0343878008425235,0.0042789010331034
1769145115302,-0.1953277587890625,-0.96563720703125,0.2759552001953125,-0.0258992407470941,0.0384134352207183,-0.0365055464208126
1769145115312,-0.1863555908203125,-0.9603118896484376,0.2709503173828125,-0.0482104048132896,0.0336924493312835,-0.0602385737001895
1769145115323,-0.16455078125,-0.9499664306640624,0.2581024169921875,-0.0579897984862327,0.0178937800228595,-0.0574619621038436
1769145115332,-0.132568359375,-0.94427490234375,0.2376861572265625,-0.0445139370858669,0.0058637480251491,-0.0344112366437912
1769145115343,-0.112548828125,-0.9416046142578124,0.224609375,-0.0183965843170881,-0.014576013199985,-0.0035262915771454
1769145115353,-0.110595703125,-0.9434356689453124,0.22235107421875,0.0099375853314995,-0.036909282207489,0.0235237013548612
1769145115363,-0.11328125,-0.945465087890625,0.2266845703125,0.0264550428837537,-0.0459925271570682,0.0404835119843483
1769145115373,-0.129486083984375,-0.952880859375,0.233245849609375,0.0301515106111764,-0.0357968807220459,0.04443084821105
1769145115383,-0.14837646484375,-0.9674530029296876,0.2460174560546875,0.0240731127560138,-0.0189028512686491,0.0323472879827022
1769145115393,-0.16009521484375,-0.977142333984375,0.258087158203125,0.0061905179172754,0.0016660735709592,0.0146037098020315
1769145115403,-0.1717376708984375,-0.9700775146484376,0.262115478515625,-0.0149629702791571,0.0289765242487192,-0.010644388385117
1769145115413,-0.18194580078125,-0.959930419921875,0.255462646484375,-0.0292175393551588,0.0548017285764217,-0.0358677208423614
1769145115423,-0.1796417236328125,-0.9552001953125,0.2523040771484375,-0.0331371799111366,0.0537029094994068,-0.055541556328535
1769145115433,-0.1641082763671875,-0.9510650634765624,0.252685546875,-0.0337523706257343,0.0297062303870916,-0.05508828535676
1769145115443,-0.1356658935546875,-0.9449920654296876,0.2391204833984375,-0.0206368342041969,0.0145661598071455,-0.0337305329740047
1769145115453,-0.1130218505859375,-0.9433441162109376,0.225982666015625,0.0025382589083164,-0.0066259447485208,-0.001881523290649
1769145115463,-0.1021881103515625,-0.948760986328125,0.2236480712890625,0.0264862012118101,-0.0194264277815818,0.0304417945444583
1769145115473,-0.1086883544921875,-0.9486541748046876,0.224700927734375,0.0461701564490795,-0.029682794585824,0.0503116399049758
1769145115483,-0.12213134765625,-0.951385498046875,0.2254486083984375,0.0606367141008377,-0.0281637273728847,0.0575557053089141
1769145115493,-0.13653564453125,-0.955474853515625,0.23577880859375,0.064312145113945,-0.0190229602158069,0.0583226941525936
1769145115503,-0.1593017578125,-0.958221435546875,0.2418975830078125,0.0630396828055381,-0.0009709885343909,0.0434651859104633
1769145115513,-0.167572021484375,-0.973724365234375,0.2540130615234375,0.0523015521466732,0.0230326149612665,0.0236723069101572
1769145115523,-0.1717376708984375,-0.97869873046875,0.269317626953125,0.0293469689786434,0.0393186435103416,-0.0014852449530735
1769145115533,-0.1822967529296875,-0.965118408203125,0.2722625732421875,0.002944124629721,0.0404891036450862,-0.0331710018217563
1769145115543,-0.179656982421875,-0.946197509765625,0.2688751220703125,-0.0104441186413168,0.0306886695325374,-0.0532741397619247
1769145115554,-0.154449462890625,-0.937744140625,0.262115478515625,-0.0108699584379792,0.0099767344072461,-0.0438430868089199
1769145115563,-0.123687744140625,-0.94110107421875,0.257537841796875,-0.0044354945421218,-0.0089199915528297,-0.0133054191246628
1769145115574,-0.11468505859375,-0.94024658203125,0.251800537109375,0.005150553304702,-0.0250211972743272,0.0177659466862678
1769145115584,-0.1243743896484375,-0.9442596435546876,0.2518157958984375,0.0133008919656276,-0.0317052006721496,0.030648723244667
1769145115594,-0.1324005126953125,-0.9522552490234376,0.2521514892578125,0.0067724185064435,-0.0200336296111345,0.0373542979359626
1769145115604,-0.1492767333984375,-0.9601593017578124,0.25396728515625,-0.0052219261415302,-0.0062781358137726,0.0277823619544506
1769145115614,-0.1669921875,-0.9642791748046876,0.25469970703125,-0.0190716944634914,0.0108755510300397,0.0047553405165672
1769145115624,-0.177520751953125,-0.96630859375,0.2528839111328125,-0.0309107787907123,0.0182338654994964,-0.0263527780771255
1769145115634,-0.179595947265625,-0.9636077880859376,0.251007080078125,-0.037686925381422,0.0168921649456024,-0.0549985356628894
1769145115644,-0.1717987060546875,-0.9589385986328124,0.2472076416015625,-0.0462127700448036,0.0115429386496543,-0.0688035637140274
1769145115655,-0.1556396484375,-0.952484130859375,0.24359130859375,-0.0459898635745048,0.001276186783798,-0.0648090913891792
1769145115664,-0.1364898681640625,-0.9474029541015624,0.24017333984375,-0.0364711917936801,-0.0129032814875245,-0.0467272922396659
1769145115674,-0.121612548828125,-0.945465087890625,0.236968994140625,-0.023265641182661,-0.024842232465744,-0.0179771352559328
1769145115684,-0.1137542724609375,-0.9474029541015624,0.2357025146484375,-0.0063963802531361,-0.0187883358448743,0.0092387720942497
1769145115694,-0.1143035888671875,-0.94970703125,0.2416839599609375,0.0058230017311871,-0.0121480096131563,0.0290228631347417
1769145115704,-0.1255950927734375,-0.9521636962890624,0.247802734375,0.0149970585480332,-0.006286924239248,0.0324913635849952
1769145115714,-0.138214111328125,-0.9546051025390624,0.251312255859375,0.0122835645452141,0.0131032848730683,0.0267932638525962
1769145115724,-0.15087890625,-0.9604034423828124,0.2577056884765625,0.0065540391951799,0.0252656750380992,0.0132481614127755
1769145115734,-0.16748046875,-0.9598236083984376,0.2601165771484375,-0.0018809906905516,0.0235255658626556,-0.0083135897293686
1769145115744,-0.17388916015625,-0.9571685791015624,0.25799560546875,-0.0136588206514716,0.0247753877192735,-0.026390329003334
1769145115754,-0.168853759765625,-0.957672119140625,0.2524566650390625,-0.0198179129511117,0.0211393740028142,-0.0364616028964519
1769145115764,-0.157867431640625,-0.95318603515625,0.248504638671875,-0.0216006338596344,0.0085016088560223,-0.0356791689991951
1769145115774,-0.141693115234375,-0.948089599609375,0.2407989501953125,-0.0170929674059152,-0.0017931063193827,-0.0200725104659795
1769145115784,-0.125335693359375,-0.9474334716796876,0.236114501953125,-0.010694189928472,-0.0016703346045687,0.0033593112602829
1769145115795,-0.1197662353515625,-0.950164794921875,0.2370147705078125,-0.0011755193118005,-0.0096606165170669,0.025104820728302
1769145115805,-0.1236419677734375,-0.957794189453125,0.240478515625,0.006811833474785,-0.0182588994503021,0.0354868881404399
1769145115815,-0.133514404296875,-0.964874267578125,0.24755859375,0.0066882628016173,-0.0221108943223953,0.0336674153804779
1769145115825,-0.1460723876953125,-0.9659881591796876,0.25250244140625,-0.0016679377295076,-0.0108901979401707,0.0235167779028415
1769145115835,-0.1613922119140625,-0.955108642578125,0.2482147216796875,-0.0075657744891941,0.0130710611119866,0.0053052832372486
1769145115845,-0.1708221435546875,-0.957122802734375,0.24627685546875,-0.0077801588922739,0.0276707764714956,-0.0138550950214266
1769145115855,-0.1694793701171875,-0.95379638671875,0.245880126953125,-0.0057351174764335,0.0313038602471351,-0.0331459678709507
1769145115865,-0.159637451171875,-0.95172119140625,0.2445831298828125,-0.0055209994316101,0.036567598581314,-0.0390291586518287
1769145115875,-0.1462554931640625,-0.9506072998046876,0.24322509765625,-0.0058664111420512,0.0285589396953582,-0.0297070294618606
1769145115885,-0.13427734375,-0.94696044921875,0.24560546875,0.0003214435419067,-8.122641156660393e-05,-0.0142436502501368
1769145115895,-0.126434326171875,-0.946563720703125,0.2425689697265625,0.0095453020185232,-0.0170929674059152,0.0067239492200315
1769145115905,-0.12115478515625,-0.9488677978515624,0.2409515380859375,0.0242661908268928,-0.0290236622095108,0.0257077608257532
1769145115915,-0.12103271484375,-0.9525146484375,0.24530029296875,0.0315422117710113,-0.0310404747724533,0.0385164991021156
1769145115925,-0.1279449462890625,-0.9573822021484376,0.2527923583984375,0.0324972234666347,-0.0257514361292123,0.0420462526381015
1769145115935,-0.1407012939453125,-0.961090087890625,0.2566070556640625,0.0240342300385236,-0.0117852864786982,0.0332620814442634
1769145115945,-0.156463623046875,-0.963775634765625,0.262481689453125,0.0115884793922305,0.0067204870283603,0.0170602090656757
1769145115955,-0.1728668212890625,-0.9664459228515624,0.2670135498046875,-0.0083964141085743,0.0229018535465002,-0.0115581192076206
1769145115965,-0.181243896484375,-0.9618988037109376,0.266326904296875,-0.034243457019329,0.0359564013779163,-0.0381545759737491
1769145115975,-0.1809844970703125,-0.9588623046875,0.26422119140625,-0.052113801240921,0.03099200502038,-0.0582465268671512
1769145115986,-0.166107177734375,-0.9521331787109376,0.255828857421875,-0.0589432120323181,0.0159789659082889,-0.0540054440498352
1769145115995,-0.1414794921875,-0.9475250244140624,0.241363525390625,-0.0485960319638252,-0.0023616913240402,-0.0362839698791503
1769145116006,-0.118011474609375,-0.9441680908203124,0.2271881103515625,-0.0246496871113777,-0.0192908737808465,-0.0049090050160884
1769145116016,-0.1031646728515625,-0.94195556640625,0.22003173828125,0.006762565113604,-0.0340546406805515,0.0285296458750963
1769145116026,-0.10052490234375,-0.9453887939453124,0.221435546875,0.0320929549634456,-0.0356661193072795,0.0583804845809936
1769145116036,-0.116668701171875,-0.9524993896484376,0.2299957275390625,0.0474372915923595,-0.0281730480492115,0.0654977858066558
1769145116046,-0.1439971923828125,-0.95703125,0.242828369140625,0.0478255786001682,-0.0068648303858935,0.0515042021870613
1769145116056,-0.1719512939453125,-0.96429443359375,0.2569580078125,0.0340210832655429,0.0218914505094289,0.0200299005955457
1769145116066,-0.1893768310546875,-0.9657745361328124,0.2718505859375,0.0105674229562282,0.0311062540858984,-0.0172620769590139
1769145116076,-0.1949310302734375,-0.96405029296875,0.2744293212890625,-0.016496418043971,0.0397130586206913,-0.0509294942021369
1769145116086,-0.1813812255859375,-0.956207275390625,0.2649078369140625,-0.0355294980108737,0.0459994487464427,-0.063637301325798
1769145116096,-0.1600494384765625,-0.9502410888671876,0.25323486328125,-0.0365212596952915,0.0293594859540462,-0.0569202750921249
1769145116106,-0.1339111328125,-0.944610595703125,0.239898681640625,-0.0206141974776983,-0.0018261295044794,-0.0359734483063221
1769145116116,-0.1077117919921875,-0.942413330078125,0.2263641357421875,0.0038986015133559,-0.0211260579526424,0.0015052186790853
1769145116126,-0.0908966064453125,-0.9448394775390624,0.222442626953125,0.0287458933889865,-0.039591085165739,0.0398621931672096
1769145116136,-0.0978546142578125,-0.9493408203125,0.2281646728515625,0.0472743064165115,-0.0457110293209552,0.0655433237552642
1769145116146,-0.1201324462890625,-0.9535980224609376,0.2394256591796875,0.0539894662797451,-0.0367473624646663,0.0721532925963401
1769145116156,-0.1513824462890625,-0.9561614990234376,0.2534637451171875,0.0490570254623889,-0.0129959592595696,0.0532099567353725
1769145116166,-0.1794281005859375,-0.958160400390625,0.2667236328125,0.0328106768429279,0.0153877446427941,0.0182799380272626
1769145116176,-0.1939697265625,-0.96563720703125,0.2766876220703125,0.0068350029177963,0.0376562997698783,-0.0227623041719198
1769145116187,-0.1905364990234375,-0.973968505859375,0.284881591796875,-0.0241751112043857,0.0498027093708515,-0.0492349229753017
1769145116196,-0.1745147705078125,-0.971710205078125,0.283203125,-0.0528951734304428,0.0470013320446014,-0.0646770000457763
1769145116206,-0.159423828125,-0.9540863037109376,0.26885986328125,-0.0664179027080535,0.0300322007387876,-0.0649188086390495
1769145116216,-0.1415863037109375,-0.9410400390625,0.2452850341796875,-0.0541063770651817,0.0053606769070029,-0.0509116500616073
1769145116226,-0.1173248291015625,-0.93890380859375,0.2283935546875,-0.0309187676757574,-0.0125139271840453,-0.0210831817239522
1769145116237,-0.102264404296875,-0.943511962890625,0.2234344482421875,-0.0045569348149001,-0.0277884881943464,0.0158615205436944
1769145116247,-0.102264404296875,-0.9457855224609376,0.221405029296875,0.0164764449000358,-0.038205973803997,0.0422124341130256
1769145116257,-0.1157684326171875,-0.951995849609375,0.226287841796875,0.0328799188137054,-0.0349441356956958,0.0519657284021377
1769145116267,-0.135101318359375,-0.9570465087890624,0.2401275634765625,0.0353465378284454,-0.0214040912687778,0.0486016236245632
1769145116277,-0.1574249267578125,-0.964752197265625,0.2535858154296875,0.0243759136646986,-0.0057777278125286,0.0272001959383487
1769145116287,-0.1773834228515625,-0.9621429443359376,0.2601776123046875,0.0081359567120671,0.0141131561249494,-0.0047446875832974
1769145116297,-0.1893768310546875,-0.9553985595703124,0.2651214599609375,-0.0050813113339245,0.0280342977494001,-0.0393814928829669
1769145116307,-0.1863250732421875,-0.956390380859375,0.2672271728515625,-0.0201702490448951,0.0311536584049463,-0.0618647001683712
1769145116317,-0.1636962890625,-0.9670257568359376,0.272247314453125,-0.028300879523158,0.0254694074392318,-0.0598739869892597
1769145116327,-0.132843017578125,-0.971160888671875,0.271392822265625,-0.0423466563224792,0.0112489257007837,-0.034028273075819
1769145116337,-0.121337890625,-0.95562744140625,0.259490966796875,-0.0419794097542762,-0.0062576294876635,-0.0153714995831251
1769145116347,-0.121856689453125,-0.93792724609375,0.2396240234375,-0.0259043015539646,-0.0044022053480148,-0.0011502192355692
1769145116357,-0.1214599609375,-0.9380950927734376,0.2290802001953125,-0.0022999059874564,0.0011688614031299,0.0138958422467112
1769145116367,-0.1263885498046875,-0.9457550048828124,0.23272705078125,0.0142308678478002,-0.0044690505601465,0.019226424396038
1769145116377,-0.13702392578125,-0.952117919921875,0.236663818359375,0.020374247804284,0.0020114856306463,0.0151797514408826
1769145116387,-0.151702880859375,-0.9572906494140624,0.2423095703125,0.0185595694929361,0.0113602457568049,0.0046639940701425
1769145116397,-0.1611328125,-0.9601898193359376,0.249267578125,0.0090819122269749,0.0204128641635179,-0.0115645108744502
1769145116407,-0.166839599609375,-0.9614105224609376,0.254180908203125,-0.0041177794337272,0.0227553788572549,-0.0273136459290981
1769145116417,-0.161285400390625,-0.9583282470703124,0.2567901611328125,-0.0167981553822755,0.016889501363039,-0.0337401218712329
1769145116427,-0.152099609375,-0.9584197998046876,0.2581634521484375,-0.0240621920675039,0.0048165931366384,-0.0342450551688671
1769145116437,-0.1450958251953125,-0.9560546875,0.2574310302734375,-0.0241593979299068,-0.0137208718806505,-0.0256252028048038
1769145116447,-0.1333770751953125,-0.9506988525390624,0.2510833740234375,-0.0203268434852361,-0.0280236452817916,-0.0093631418421864
1769145116458,-0.1220703125,-0.9500274658203124,0.2398681640625,-0.0102619584649801,-0.0151541857048869,0.0087407613173127
1769145116468,-0.120697021484375,-0.950775146484375,0.2340545654296875,0.003131611039862,-0.0041204430162906,0.0237652510404586
1769145116478,-0.1288604736328125,-0.95318603515625,0.232757568359375,0.0189044494181871,0.0014761901693418,0.0293544270098209
1769145116488,-0.1368408203125,-0.9553375244140624,0.2292938232421875,0.0372661463916301,0.0160836279392242,0.0285118017345666
1769145116498,-0.1423797607421875,-0.953277587890625,0.230133056640625,0.0531135499477386,0.0245604701340198,0.0227934624999761
1769145116508,-0.1499176025390625,-0.9543914794921876,0.2357025146484375,0.0644005611538887,0.0235644485801458,0.0122670521959662
1769145116520,-0.15740966796875,-0.955902099609375,0.244873046875,0.0663675740361213,0.0111349429935216,-0.0001720402069622
1769145116528,-0.158294677734375,-0.9552764892578124,0.2541656494140625,0.0627621859312057,0.004383829422295,-0.0080344909802079
1769145116538,-0.150390625,-0.954864501953125,0.2611236572265625,0.0526829175651073,-0.001373924780637,-0.0071889371611177
1769145116548,-0.143310546875,-0.9511871337890624,0.268157958984375,0.0385415330529212,-0.014396515674889,0.0033321471419185
1769145116558,-0.1380767822265625,-0.9480743408203124,0.2739715576171875,0.0230355449020862,-0.0200442820787429,0.017217868939042
1769145116568,-0.1358642578125,-0.9510345458984376,0.2715606689453125,0.0092614088207483,-0.0050608050078153,0.0268281511962413
1769145116578,-0.1408233642578125,-0.95416259765625,0.27435302734375,-0.0052272523753345,0.0105365300551056,0.0285048782825469
1769145116588,-0.152099609375,-0.9557952880859376,0.2780914306640625,-0.0261557046324014,0.0223854668438434,0.0202956832945346
1769145116598,-0.1630706787109375,-0.958831787109375,0.2756195068359375,-0.0434883534908294,0.0275091230869293,0.003001382574439
1769145116608,-0.1652679443359375,-0.9588470458984376,0.267364501953125,-0.0510794296860694,0.0228800158947706,-0.016359532251954
1769145116618,-0.1575469970703125,-0.960968017578125,0.259857177734375,-0.0559066757559776,0.0126699889078736,-0.0284915622323751
1769145116628,-0.14984130859375,-0.9630584716796876,0.25555419921875,-0.062868446111679,-0.0026730147656053,-0.0334879197180271
1769145116638,-0.1460723876953125,-0.949798583984375,0.2458343505859375,-0.0641867071390152,-0.0036735644098371,-0.0288905035704374
1769145116648,-0.14227294921875,-0.9433441162109376,0.238311767578125,-0.0514727793633937,-0.0098755341023206,-0.0255647487938404
1769145116658,-0.135498046875,-0.9494171142578124,0.2411956787109375,-0.0381812080740928,-0.0242712516337633,-0.0155099835246801
1769145116668,-0.1341705322265625,-0.952728271484375,0.2456512451171875,-0.0388177037239074,-0.0249437000602483,-0.0066645606420934
1769145116679,-0.13885498046875,-0.9508819580078124,0.2502288818359375,-0.0399444848299026,-0.0227678958326578,-0.0021539647132158
1769145116689,-0.14068603515625,-0.9506072998046876,0.24847412109375,-0.0329307839274406,-0.0120697123929858,-2.7696874894900247e-05
1769145116698,-0.14349365234375,-0.9505157470703124,0.244293212890625,-0.0258092265576124,-0.0030551783274859,-0.0025539714843034
1769145116709,-0.14581298828125,-0.954559326171875,0.2438507080078125,-0.0172439683228731,0.0091527523472905,-0.0078225033357739
1769145116719,-0.1464080810546875,-0.9572296142578124,0.2410736083984375,-0.0129240546375513,0.0269200317561626,-0.0126468194648623
1769145116729,-0.1482086181640625,-0.9604949951171876,0.2379302978515625,-0.006467486731708,0.0332045592367649,-0.0148884020745754
1769145116739,-0.145782470703125,-0.9603271484375,0.23583984375,-0.0001334243715973,0.0318950824439525,-0.0143895922228693
1769145116749,-0.1400909423828125,-0.9563446044921876,0.2335052490234375,0.0047401604242622,0.0162689853459596,-0.0033196301665157
1769145116759,-0.12872314453125,-0.9529876708984376,0.230133056640625,0.0227487217634916,-0.006425941362977,0.0117429420351982
1769145116769,-0.122222900390625,-0.9481201171875,0.2282562255859375,0.0354232378304004,-0.0150772202759981,0.0305413976311683
1769145116779,-0.1275787353515625,-0.949188232421875,0.2345428466796875,0.044469729065895,-0.0180109590291976,0.0429043248295784
1769145116789,-0.14154052734375,-0.954437255859375,0.2449798583984375,0.051262654364109,-0.0130492225289344,0.0395431481301784
1769145116799,-0.157318115234375,-0.960235595703125,0.2558746337890625,0.0455722771584987,-0.0056557552888989,0.0223918575793504
1769145116809,-0.1684112548828125,-0.9627838134765624,0.2696990966796875,0.0279051344841718,0.0077034598216414,-0.0053968960419297
1769145116820,-0.1710357666015625,-0.959991455078125,0.2771759033203125,0.0004404868523124,0.0225420612841844,-0.0249202642589807
1769145116829,-0.163116455078125,-0.9568328857421876,0.279693603515625,-0.0224059727042913,0.0258382558822631,-0.0341001786291599
1769145116839,-0.1519775390625,-0.953521728515625,0.2727508544921875,-0.0400888286530971,0.0289006233215332,-0.0387939997017383
1769145116849,-0.1378021240234375,-0.9482574462890624,0.2635650634765625,-0.041780736297369,0.0168727226555347,-0.021657358855009
1769145116859,-0.1215057373046875,-0.9431304931640624,0.2508087158203125,-0.0328679345548152,-0.0044352286495268,-0.0017915084026753
1769145116869,-0.115570068359375,-0.941986083984375,0.2377777099609375,-0.0139605570584535,-0.0126348352059721,0.0177853889763355
1769145116879,-0.1194915771484375,-0.9459991455078124,0.2335662841796875,0.0049492185935378,-0.0217657499015331,0.0340077690780162
1769145116890,-0.132476806640625,-0.95477294921875,0.2386474609375,0.0150631051510572,-0.0328780561685562,0.0327582135796546
1769145116899,-0.151641845703125,-0.9585723876953124,0.2456512451171875,0.0139789320528507,-0.0290409717708826,0.0191201642155647
1769145116910,-0.164581298828125,-0.961029052734375,0.2508392333984375,0.0056000952608883,-0.0054458980448544,-0.0011965582380071
1769145116920,-0.177001953125,-0.9638824462890624,0.2599945068359375,-0.0078129153698682,0.0104792723432183,-0.0258377231657505
1769145116930,-0.17645263671875,-0.96075439453125,0.2647857666015625,-0.0282396264374256,0.0216246023774147,-0.0470527298748493
1769145116940,-0.165740966796875,-0.958038330078125,0.2625579833984375,-0.0420582368969917,0.0281083341687917,-0.0558443553745746
1769145116950,-0.1490478515625,-0.9560699462890624,0.2589874267578125,-0.0471584573388099,0.0198826286941766,-0.0531289987266063
1769145116960,-0.133544921875,-0.951995849609375,0.25445556640625,-0.0486077480018138,0.0062115569598972,-0.0397154539823532
1769145116970,-0.11798095703125,-0.94927978515625,0.2447967529296875,-0.0382294096052646,-0.0073609771206974,-0.0149432634934782
1769145116980,-0.1081390380859375,-0.946990966796875,0.236846923828125,-0.0228770859539508,-0.0142689505591988,0.0106379967182874
1769145116990,-0.1120452880859375,-0.9483795166015624,0.2332763671875,-0.0037353497464209,-0.0225633662194013,0.030427947640419
1769145117000,-0.1293792724609375,-0.950347900390625,0.2334136962890625,0.0127003490924835,-0.0204165913164615,0.0342144295573234
1769145117010,-0.1447296142578125,-0.949981689453125,0.235443115234375,0.0220701489597558,-0.0122665194794535,0.0302846692502498
1769145117020,-0.156097412109375,-0.9589385986328124,0.242706298828125,0.0210405699908733,0.0037302896380424,0.0169126708060503
1769145117030,-0.1572265625,-0.969024658203125,0.2528839111328125,0.0105447862297296,0.0173089485615491,0.0082667181268334
1769145117040,-0.1584625244140625,-0.9663543701171876,0.257965087890625,-0.0025798040442168,0.0219953134655952,0.0005536712124012
1769145117050,-0.1616058349609375,-0.9537506103515624,0.2546844482421875,-0.0100893853232264,0.017753429710865,-0.0090387687087059
1769145117060,-0.1531982421875,-0.9453582763671876,0.249114990234375,-0.0045904908329248,0.0109360050410032,-0.0064270067960023
1769145117070,-0.133636474609375,-0.9469146728515624,0.2433929443359375,0.0060411146841943,0.0025427863001823,0.003182477550581
1769145117080,-0.124237060546875,-0.949615478515625,0.245025634765625,0.0140665508806705,-0.0078296931460499,0.0167853720486164
1769145117090,-0.131744384765625,-0.9510650634765624,0.247894287109375,0.0153848156332969,-0.0168471578508615,0.0202304366976022
1769145117100,-0.142578125,-0.954559326171875,0.247039794921875,0.0184852667152881,-0.0167731214314699,0.0146311409771442
1769145117110,-0.1471710205078125,-0.958953857421875,0.2511138916015625,0.0147059755399823,-0.0114353476092219,0.0058799935504794
1769145117120,-0.150970458984375,-0.959320068359375,0.252655029296875,0.0070182285271584,-0.0083934850990772,-0.0021174794528633
1769145117130,-0.1563720703125,-0.955078125,0.2475738525390625,0.008315454237163,0.0001070590733434,-0.0141136888414621
1769145117140,-0.1583251953125,-0.950439453125,0.2440643310546875,0.0093713970854878,0.0087290434166789,-0.0232073180377483
1769145117151,-0.153594970703125,-0.9541778564453124,0.2446136474609375,0.0157992038875818,0.0207068771123886,-0.0250046849250793
1769145117161,-0.1385650634765625,-0.9661407470703124,0.25286865234375,0.0146617665886878,0.0183542389422655,-0.0123155219480395
1769145117171,-0.123809814453125,-0.971649169921875,0.263702392578125,0.00631994754076,0.0044663874432444,0.0104318680241703
1769145117181,-0.12249755859375,-0.955963134765625,0.2615814208984375,-0.0008692557457834,-0.0026035062037408,0.0239322297275066
1769145117191,-0.1311492919921875,-0.939361572265625,0.246795654296875,0.0100052300840616,-0.0002796319022309,0.0284606702625751
1769145117201,-0.13629150390625,-0.9410858154296876,0.2462005615234375,0.0253724679350852,0.0010104032699018,0.0297664180397987
1769145117211,-0.140411376953125,-0.949432373046875,0.2537841796875,0.0301286075264215,-0.0010490191634744,0.0250888410955667
1769145117221,-0.149200439453125,-0.9540252685546876,0.2586669921875,0.024330373853445,0.0023648869246244,0.0162862949073314
1769145117231,-0.1585540771484375,-0.9580230712890624,0.2614288330078125,0.0103525063022971,0.0125719849020242,0.0031670311000198
1769145117241,-0.1650390625,-0.963470458984375,0.2636871337890625,-0.0060009006410837,0.0207590740174055,-0.012771189212799
1769145117251,-0.166290283203125,-0.963348388671875,0.264251708984375,-0.0264968555420637,0.0197164472192525,-0.02610963024199
1769145117261,-0.16265869140625,-0.958099365234375,0.2605438232421875,-0.0400225184857845,0.0072294170968234,-0.0354967415332794
1769145117271,-0.151702880859375,-0.9526519775390624,0.252899169921875,-0.0427610464394092,-0.0119152488186955,-0.036421924829483
1769145117281,-0.1358489990234375,-0.947784423828125,0.2471923828125,-0.0384949296712875,-0.0333379842340946,-0.0262513104826211
1769145117291,-0.1211700439453125,-0.946044921875,0.2404327392578125,-0.0252518262714147,-0.0505260229110717,-0.0024932513479143
1769145117301,-0.11474609375,-0.9469146728515624,0.2317352294921875,-0.009475527331233,-0.0462050437927246,0.0203880965709686
1769145117311,-0.1241607666015625,-0.949554443359375,0.23248291015625,0.0091191958636045,-0.0336892530322074,0.0336900539696216
1769145117321,-0.137298583984375,-0.9557952880859376,0.2382659912109375,0.0231119766831398,-0.0196938104927539,0.0333742015063762
1769145117331,-0.1476898193359375,-0.957672119140625,0.2416839599609375,0.0308878738433122,0.0107154948636889,0.0246334411203861
1769145117341,-0.157379150390625,-0.9599151611328124,0.2453765869140625,0.0325728580355644,0.0454156845808029,0.0113727627322077
1769145117351,-0.1636199951171875,-0.9604339599609376,0.246612548828125,0.0381156951189041,0.0661121755838394,0.0018285263795405
1769145117361,-0.1583099365234375,-0.957763671875,0.244598388671875,0.0432393476366996,0.0772769451141357,-0.0085514103993773
1769145117372,-0.1468963623046875,-0.95391845703125,0.2442169189453125,0.0513452142477035,0.0606465674936771,-0.00600116699934
1769145117382,-0.1340484619140625,-0.9506378173828124,0.2467193603515625,0.0536200851202011,0.0236078575253486,0.0042213764972984
1769145117392,-0.1236724853515625,-0.946807861328125,0.2512054443359375,0.055297877639532,-0.0159978754818439,0.020026171579957
1769145117402,-0.1279144287109375,-0.945098876953125,0.2559356689453125,0.0540469884872436,-0.0413743369281291,0.0320532731711864
1769145117412,-0.1385955810546875,-0.9473114013671876,0.26519775390625,0.0474330298602581,-0.0550416819751262,0.0341782085597515
1769145117422,-0.1522064208984375,-0.952728271484375,0.2727813720703125,0.0331856496632099,-0.0467366129159927,0.0266808792948722
1769145117432,-0.165740966796875,-0.9572296142578124,0.2826995849609375,0.0057441722601652,-0.0133791882544755,0.0086278431117534
1769145117442,-0.1735382080078125,-0.9587554931640624,0.2901763916015625,-0.0216472391039133,0.0120372213423252,-0.0094638094305992
1769145117452,-0.1739501953125,-0.9630126953125,0.2873077392578125,-0.0448311194777488,0.0356525368988513,-0.028909146785736
1769145117462,-0.1604461669921875,-0.9686737060546876,0.2824249267578125,-0.0662453323602676,0.0424337424337863,-0.0405783206224441
1769145117472,-0.1435546875,-0.963043212890625,0.2758941650390625,-0.0798074826598167,0.0255764666944742,-0.0364336408674716
1769145117482,-0.1301422119140625,-0.94384765625,0.2537994384765625,-0.0766886547207832,0.0133472308516502,-0.0183507781475782
1769145117493,-0.1198577880859375,-0.9362640380859376,0.231414794921875,-0.0464665666222572,-0.0099815279245376,0.0016876452136784
1769145117502,-0.115875244140625,-0.94390869140625,0.222442626953125,-0.0156636480242013,-0.0165941566228866,0.0232499279081821
1769145117512,-0.12469482421875,-0.9513702392578124,0.2279052734375,0.005984122864902,-0.0192559864372015,0.0358570665121078
1769145117522,-0.145477294921875,-0.95196533203125,0.2342529296875,0.0135051561519503,-0.0133688021451234,0.0280721150338649
1769145117532,-0.1656951904296875,-0.951934814453125,0.2401123046875,0.0139064947143197,0.0013603427214547,0.0059297946281731
1769145117542,-0.176513671875,-0.9560089111328124,0.2484893798828125,0.00636229198426,0.0216480381786823,-0.0190509222447872
1769145117552,-0.1796417236328125,-0.9596710205078124,0.25445556640625,-0.0021944446489214,0.0283083375543355,-0.0464447289705276
1769145117562,-0.1715850830078125,-0.9601898193359376,0.25787353515625,-0.0085205174982547,0.0234371498227119,-0.0669540017843246
1769145117572,-0.148712158203125,-0.9576568603515624,0.257171630859375,-0.0139301968738436,0.0067468523047864,-0.0644216015934944
1769145117582,-0.1217041015625,-0.9525909423828124,0.249542236328125,-0.0082946810871362,-0.0125890290364623,-0.0366829149425029
1769145117592,-0.10101318359375,-0.9482879638671876,0.239501953125,0.0071854749694466,-0.0246134679764509,0.0033635725267231
1769145117603,-0.096893310546875,-0.94580078125,0.2324066162109375,0.0299629587680101,-0.0320588648319244,0.0405524857342243
1769145117613,-0.1107025146484375,-0.9490814208984376,0.2356414794921875,0.0464886724948883,-0.0285900998860597,0.0613573677837848
1769145117623,-0.1344451904296875,-0.95477294921875,0.2454376220703125,0.0541087761521339,-0.0194820892065763,0.05973656848073
1769145117633,-0.154876708984375,-0.9594268798828124,0.2544708251953125,0.0530536323785781,0.0042496062815189,0.0411751344799995
1769145117643,-0.1704254150390625,-0.9627685546875,0.2634735107421875,0.0406140051782131,0.0330548882484436,0.0131733259186148
1769145117653,-0.177581787109375,-0.9631195068359376,0.2720947265625,0.0271144416183233,0.04069310054183,-0.0157909467816352
1769145117663,-0.1755218505859375,-0.95941162109375,0.2754364013671875,0.0078994687646627,0.0339670218527317,-0.0403673946857452
1769145117673,-0.1589508056640625,-0.95538330078125,0.2741851806640625,-0.0095935054123401,0.0270337481051683,-0.0481819100677967
1769145117683,-0.140350341796875,-0.9485931396484376,0.27508544921875,-0.0222355313599109,7.350324449362233e-05,-0.0362916961312294
1769145117693,-0.1273193359375,-0.9443206787109376,0.2685089111328125,-0.0269157700240612,-0.0226046442985534,-0.0150218261405825
1769145117703,-0.119384765625,-0.9412384033203124,0.2601470947265625,-0.0237055961042642,-0.0316719077527523,0.0105232149362564
1769145117713,-0.121246337890625,-0.946319580078125,0.2575531005859375,-0.0193854160606861,-0.0310945361852645,0.0289011560380458
1769145117723,-0.1385650634765625,-0.9520721435546876,0.262481689453125,-0.0241221133619546,-0.0303371325135231,0.0276643838733434
1769145117733,-0.15679931640625,-0.956329345703125,0.2634735107421875,-0.0338322669267654,-0.0194171071052551,0.011444135569036
1769145117743,-0.1710052490234375,-0.95849609375,0.2620391845703125,-0.0436896905303001,-0.0112446649000048,-0.0174546241760253
1769145117753,-0.17340087890625,-0.95953369140625,0.259674072265625,-0.0533713474869728,0.002306031063199,-0.0422081723809242
1769145117763,-0.1657562255859375,-0.959320068359375,0.2515411376953125,-0.0556787103414535,0.0143858632072806,-0.0595560036599636
1769145117773,-0.156646728515625,-0.956390380859375,0.24896240234375,-0.0538943894207477,0.0086150597780942,-0.0693401917815208
1769145117784,-0.1434173583984375,-0.956268310546875,0.24951171875,-0.0554877594113349,-0.0048842374235391,-0.0696411281824112
1769145117793,-0.1306915283203125,-0.952545166015625,0.2496185302734375,-0.0574771426618099,-0.0163616631180048,-0.0550275668501853
1769145117803,-0.12103271484375,-0.947509765625,0.2503814697265625,-0.0555317029356956,-0.033214945346117,-0.0273687727749347
1769145117813,-0.1185455322265625,-0.9418487548828124,0.24725341796875,-0.0458236820995807,-0.0405777879059314,0.0004000068001914
1769145117823,-0.117919921875,-0.943878173828125,0.2402191162109375,-0.0263336021453142,-0.0286532156169414,0.0218632202595472
1769145117834,-0.12554931640625,-0.9516754150390624,0.24005126953125,-0.0076422072015702,-0.01074212603271,0.031726237386465
1769145117844,-0.1360015869140625,-0.96331787109375,0.24310302734375,0.0003123887872789,0.0091490233317017,0.0306737571954727
1769145117854,-0.1442108154296875,-0.9716033935546876,0.247802734375,0.0024442493449896,0.0195747669786214,0.0237777680158615
1769145117864,-0.1485748291015625,-0.969146728515625,0.2466583251953125,-0.0013411679537966,0.0284279119223356,0.0117522636428475
1769145117874,-0.151885986328125,-0.9587249755859376,0.240081787109375,0.003729490796104,0.0287469588220119,-0.0022631543688476
1769145117884,-0.1556549072265625,-0.9521484375,0.2391510009765625,0.0096209356561303,0.0209369733929634,-0.0170570146292448
1769145117894,-0.1516876220703125,-0.9512786865234376,0.243133544921875,0.0110577112063765,0.0001446096430299,-0.0283445566892623
1769145117904,-0.1486663818359375,-0.9471893310546876,0.2500457763671875,0.0076874806545674,-0.0255988370627164,-0.0278987418860197
1769145117914,-0.14215087890625,-0.9440155029296876,0.2501983642578125,0.0041004689410328,-0.0352890156209468,-0.0218014363199472
1769145117924,-0.132415771484375,-0.9466705322265624,0.250946044921875,0.0053329798392951,-0.0351052582263946,-0.0048520131967961
1769145117934,-0.1246795654296875,-0.951690673828125,0.2575531005859375,0.0060363207012414,-0.0311462022364139,0.0121570639312267
1769145117945,-0.1287384033203125,-0.950225830078125,0.2549896240234375,0.009957293048501,-0.0191486608237028,0.024179371073842
1769145117954,-0.13262939453125,-0.954925537109375,0.25347900390625,0.0126681244000792,0.0054602790623903,0.0286103393882513
1769145117964,-0.14129638671875,-0.957244873046875,0.254669189453125,0.0161478109657764,0.0303408615291118,0.0223116967827081
1769145117974,-0.1501312255859375,-0.96661376953125,0.25732421875,0.0188660994172096,0.0379955843091011,0.0120872892439365
1769145117984,-0.1479339599609375,-0.9733734130859376,0.2631072998046875,0.0115919411182403,0.0340522415935993,0.0043702474795281
1769145117994,-0.14208984375,-0.9670867919921876,0.2617034912109375,0.004039482679218,0.0251045543700456,0.0019430422689765
1769145118004,-0.142974853515625,-0.948028564453125,0.2552642822265625,0.0042051314376294,0.0048967543989419,-0.0029811426065862
1769145118014,-0.142547607421875,-0.9372711181640624,0.244720458984375,0.0162902902811765,-0.0094385091215372,-0.001751561067067
1769145118024,-0.135101318359375,-0.942138671875,0.2445831298828125,0.0266819447278976,-0.0197662468999624,0.0076512619853019
1769145118034,-0.13604736328125,-0.949798583984375,0.2546234130859375,0.0226682946085929,-0.0305046457797288,0.0120393522083759
1769145118044,-0.14532470703125,-0.9540557861328124,0.2612762451171875,0.0088765826076269,-0.0249820481985807,0.0099599556997418
1769145118055,-0.1529388427734375,-0.956939697265625,0.2674407958984375,-0.0116851516067981,-0.0184935238212347,0.0052554821595549
1769145118065,-0.1596221923828125,-0.959686279296875,0.2677459716796875,-0.0294108856469392,-0.0071772192604839,-0.0079820267856121
1769145118075,-0.1587677001953125,-0.95947265625,0.26397705078125,-0.0413929782807827,0.0106502473354339,-0.016335031017661
1769145118085,-0.150848388671875,-0.95855712890625,0.2554779052734375,-0.0436406880617141,0.0249929670244455,-0.0172253251075744
1769145118095,-0.1426849365234375,-0.9559326171875,0.2474212646484375,-0.0321776419878006,0.0196874178946018,-0.0176538284868001
1769145118105,-0.1342620849609375,-0.954193115234375,0.237884521484375,-0.0159366223961114,0.0141621576622128,-0.0144330011680722
1769145118115,-0.1265869140625,-0.9497222900390624,0.2320556640625,0.0023837955668568,0.0023505059070885,-0.0062882560305297
1769145118125,-0.1226806640625,-0.947601318359375,0.229095458984375,0.0235194414854049,-0.0129972910508513,0.0057433731853961
1769145118135,-0.1219329833984375,-0.9496612548828124,0.230194091796875,0.0415746085345745,-0.0150018529966473,0.016437828540802
1769145118145,-0.12677001953125,-0.9535980224609376,0.240020751953125,0.0489076226949691,-0.0162213146686553,0.0258284006267786
1769145118155,-0.138427734375,-0.9562530517578124,0.2527923583984375,0.0516719818115234,-0.0224975850433111,0.0249681994318962
1769145118165,-0.14849853515625,-0.9523162841796876,0.260498046875,0.0423514507710933,-0.0085793733596801,0.018930546939373
1769145118175,-0.1579742431640625,-0.9524078369140624,0.2679901123046875,0.0311768278479576,-0.000422111043008,0.0070030484348535
1769145118185,-0.166748046875,-0.9581451416015624,0.27392578125,0.0150995906442403,0.01325055770576,-0.0111549161374568
1769145118195,-0.1649169921875,-0.9583282470703124,0.2782745361328125,-0.0001579254458192,0.0237660501152277,-0.024362863972783
1769145118205,-0.155792236328125,-0.95538330078125,0.2779998779296875,-0.0139190116897225,0.0276960767805576,-0.0268060471862554
1769145118215,-0.141143798828125,-0.9514007568359376,0.2700347900390625,-0.019350528717041,0.0181009732186794,-0.0171203967183828
1769145118225,-0.128173828125,-0.9463653564453124,0.2614898681640625,-0.0178397167474031,0.0056815878488123,-0.0036171053070575
1769145118235,-0.1176605224609375,-0.9457550048828124,0.2527313232421875,-0.0132332472130656,1.7843178284238093e-05,0.017135577276349
