timestamp_ms,acc_x,acc_y,acc_z,gyro_x,gyro_y,gyro_z
1769251355719,-0.018096923828125,-0.098175048828125,-0.964874267578125,0.0180985759943723,-0.0216786637902259,0.0451405793428421
1769251355724,-0.0175018310546875,-0.102142333984375,-0.964935302734375,0.0180985759943723,-0.0216786637902259,0.0451405793428421
1769251355734,-0.0366058349609375,-0.09814453125,-0.9674835205078124,-0.0152777563780546,-0.0299102291464805,0.0346570461988449
1769251355744,-0.0663604736328125,-0.0942535400390625,-0.9698028564453124,-0.0465986616909503,-0.0485904403030872,0.0092448974028229
1769251355754,-0.07000732421875,-0.0753173828125,-0.9864349365234376,-0.058257445693016,-0.0457706823945045,-0.0046243127435445
1769251355764,-0.0573577880859375,-0.062835693359375,-1.0037384033203125,-0.0572901889681816,-0.0199995413422584,-0.00402243854478
1769251355774,-0.0456085205078125,-0.06390380859375,-1.0019683837890625,-0.0547684393823146,-0.0096012279391288,0.0140622891485691
1769251355785,-0.0453033447265625,-0.071624755859375,-0.98895263671875,-0.0543785542249679,-0.0102688828483223,0.0128817101940512
1769251355795,-0.04998779296875,-0.0776824951171875,-0.9761962890625,-0.0625411421060562,-0.017217868939042,0.0013142699608579
1769251355805,-0.039215087890625,-0.0766754150390625,-0.985137939453125,-0.063149407505989,-0.0024383901618421,0.0008796420879662
1769251355815,-0.027374267578125,-0.0761871337890625,-0.9899749755859376,-0.0634892284870147,0.0102379899471998,0.0076001291163265
1769251355825,-0.03582763671875,-0.0747222900390625,-0.9865875244140624,-0.0606066212058067,-0.0033433323260396,-0.0007877630414441
1769251355835,-0.05462646484375,-0.0638275146484375,-0.9847259521484376,-0.0555317029356956,-0.0350844822824001,-0.0199899524450302
1769251355845,-0.06011962890625,-0.071319580078125,-0.984466552734375,-0.0550920143723487,-0.0357209779322147,-0.0332101508975029
1769251355855,-0.05438232421875,-0.0731964111328125,-0.9917449951171876,-0.0524972975254058,-0.0285730548202991,-0.0350053869187831
1769251355866,-0.049835205078125,-0.0677490234375,-0.9960174560546876,-0.047761395573616,-0.0173100139945745,-0.0333824567496776
1769251355875,-0.0511322021484375,-0.0607452392578125,-1.0021209716796875,-0.0420941896736621,-0.0151656372472643,-0.0374989062547683
1769251355885,-0.0485992431640625,-0.0579681396484375,-1.0084991455078125,-0.032346487045288,-0.0232587177306413,-0.0360155254602432
1769251355895,-0.0373687744140625,-0.060577392578125,-1.0114288330078125,-0.0236320924013853,-0.0145227499306201,-0.0233071874827146
1769251355905,-0.0316314697265625,-0.0641632080078125,-1.006317138671875,-0.0195835549384355,-0.0033481260761618,-0.0138617530465126
1769251355916,-0.02642822265625,-0.0699005126953125,-0.99957275390625,-0.0143043706193566,-0.0181704815477132,-0.0067220847122371
1769251355925,-0.0279388427734375,-0.0734710693359375,-0.9959869384765624,-0.0207763854414224,-0.017404556274414,-0.001602690317668
1769251355935,-0.027801513671875,-0.075592041015625,-0.9923248291015624,-0.0285711903125047,-0.008894957602024,0.0011763182701542
1769251355945,-0.02496337890625,-0.0701904296875,-0.9909515380859376,-0.0329265259206295,-0.0145765459164977,0.0097447726875543
1769251355955,-0.0219879150390625,-0.071563720703125,-0.9871063232421876,-0.0392038598656654,-0.0227119699120521,0.0215580221265554
1769251355966,-0.0256500244140625,-0.067291259765625,-0.9933929443359376,-0.0365417674183845,-0.0368797220289707,0.0281765107065439
1769251355976,-0.0616455078125,-0.062744140625,-0.993682861328125,-0.049770750105381,-0.0271666403859853,0.0029060414526611
1769251355986,-0.0965576171875,-0.056640625,-0.9936370849609376,-0.0746755674481391,0.0221292711794376,-0.0234941411763429
1769251355996,-0.0732574462890625,-0.057159423828125,-0.995635986328125,-0.0890723541378974,0.046809583902359,-0.0092590125277638
1769251356007,-0.0397186279296875,-0.0636138916015625,-0.9979248046875,-0.0832701250910759,0.0501646324992179,0.0274510644376277
1769251356021,-0.0203704833984375,-0.0641021728515625,-1.0062255859375,-0.0616292767226696,0.0352567918598651,0.0764329880475997
1769251356026,-0.016754150390625,-0.06451416015625,-1.003936767578125,-0.0616292767226696,0.0352567918598651,0.0764329880475997
1769251356036,-0.014129638671875,-0.0728759765625,-0.99542236328125,-0.0457288734614849,0.0127384318038821,0.0866464748978614
1769251356046,-0.01605224609375,-0.0846710205078125,-0.986053466796875,-0.0508016608655452,0.0060530989430844,0.0899970009922981
1769251356056,-0.036407470703125,-0.0760498046875,-0.9998321533203124,-0.0544880107045173,0.0268582459539175,0.0779081135988235
1769251356067,-0.067596435546875,-0.0442657470703125,-1.020050048828125,-0.0324170626699924,0.0028013791888952,0.0568776652216911
1769251356076,-0.08135986328125,-0.0080413818359375,-1.0455169677734375,-0.0068520470522344,0.0013518205378204,0.0435703806579113
1769251356089,-0.07086181640625,-0.042205810546875,-1.038330078125,0.0183891262859106,0.0119727728888392,0.067838966846466
1769251356096,-0.04144287109375,-0.1015625,-0.9837493896484376,0.0400331690907478,-0.0199673157185316,0.0849511101841926
1769251356106,-0.0345306396484375,-0.1178436279296875,-0.9707489013671876,0.0397753752768039,-0.0248347762972116,0.0761099457740783
1769251356116,-0.0490264892578125,-0.107452392578125,-0.9853668212890624,0.0253759305924177,0.0268502570688724,0.0503776855766773
1769251356126,-0.0584716796875,-0.062713623046875,-1.006591796875,0.0331299901008605,0.0541306138038635,0.0357103273272514
1769251356136,-0.0626068115234375,-0.0356903076171875,-1.012939453125,0.0552914850413799,0.0209191311150789,0.0354266986250877
1769251356146,-0.05841064453125,-0.0385284423828125,-1.0041351318359375,0.0727873891592025,-0.0417048372328281,0.047993890941143
1769251356156,-0.0580291748046875,-0.0540618896484375,-0.9949188232421876,0.07956513017416,-0.0966487750411033,0.0513492077589035
1769251356166,-0.07373046875,-0.0743865966796875,-0.9881744384765624,0.0751163214445114,-0.1201993748545646,0.0344533137977123
1769251356176,-0.061859130859375,-0.0899200439453125,-0.9938201904296876,0.0776500552892685,-0.1020712405443191,0.0343411974608898
1769251356186,-0.0384368896484375,-0.0973968505859375,-1.0028076171875,0.0854818746447563,-0.0752646625041961,0.0415860600769519
1769251356197,-0.0394439697265625,-0.0974578857421875,-1.0046844482421875,0.0849276706576347,-0.0581645034253597,0.0359428189694881
1769251356206,-0.056304931640625,-0.091522216796875,-0.99725341796875,0.0743445381522178,-0.0332511626183986,0.0202685203403234
1769251356217,-0.0635833740234375,-0.08831787109375,-0.990478515625,0.0576148256659507,-0.0048187235370278,0.0084424866363406
1769251356227,-0.058868408203125,-0.07855224609375,-0.9871063232421876,0.0444470942020416,0.0008737831376492,0.006296245381236
1769251356237,-0.0616912841796875,-0.069183349609375,-0.9818572998046876,0.0291637443006038,0.0080225067213177,0.0040195090696215
1769251356247,-0.0625457763671875,-0.0647125244140625,-0.979522705078125,0.0136236669495701,0.0175052247941494,0.0040203081443905
1769251356257,-0.057403564453125,-0.0658111572265625,-0.9725799560546876,-0.0054080812260508,0.0159688461571931,0.0022256036754697
1769251356267,-0.0483245849609375,-0.0661773681640625,-0.9712371826171876,-0.0221503097563982,0.0052099418826401,0.00243785767816
1769251356277,-0.0443878173828125,-0.068084716796875,-0.974365234375,-0.0347372069954872,-0.0101415840908885,0.0012628709664568
1769251356287,-0.0582427978515625,-0.063201904296875,-0.9884490966796876,-0.0403772518038749,-0.0152487279847264,-0.0123080648481845
1769251356297,-0.0794525146484375,-0.0637359619140625,-0.992950439453125,-0.0502011179924011,0.0076834862120449,-0.0388166382908821
1769251356307,-0.0688629150390625,-0.072998046875,-0.9903106689453124,-0.0518205873668193,0.0153187690302729,-0.0445104762911796
1769251356317,-0.0512847900390625,-0.0801544189453125,-0.9830169677734376,-0.0485401041805744,0.0001725728361634,-0.0413780659437179
1769251356327,-0.04541015625,-0.0729827880859375,-0.994415283203125,-0.0266180280596017,-0.0292598847299814,-0.0478154607117176
1769251356337,-0.0489044189453125,-0.0629730224609375,-1.0062408447265625,-0.005036836490035,-0.0766178146004676,-0.0550994724035263
1769251356348,-0.051727294921875,-0.0655364990234375,-1.0135650634765625,0.0098888492211699,-0.0704901441931724,-0.0631904229521751
1769251356357,-0.0459136962890625,-0.0760650634765625,-1.0112457275390625,0.0106087019667029,-0.0173414405435323,-0.0581226907670497
1769251356367,-0.030364990234375,-0.0831451416015625,-0.9978485107421876,0.0134178046137094,0.0075961342081427,-0.0449349842965602
1769251356377,-0.0176239013671875,-0.08489990234375,-0.9878692626953124,0.0143286054953932,0.00767602911219,-0.0204884968698024
1769251356387,-0.0206146240234375,-0.0759429931640625,-0.98126220703125,0.0120380204170942,-0.021121796220541,-0.0063463128171861
1769251356398,-0.05133056640625,-0.067596435546875,-0.9734954833984376,-0.001398958498612,-0.0428294874727726,-0.0217311289161443
1769251356408,-0.0773468017578125,-0.0616607666015625,-0.9843902587890624,-0.0156431421637535,0.0164013430476188,-0.0359462834894657
1769251356418,-0.0505523681640625,-0.0686187744140625,-0.993133544921875,-0.0258768703788518,0.0641409009695053,-0.007987885735929
1769251356428,-0.035003662109375,-0.0774383544921875,-0.9846649169921876,-0.0350991301238536,0.062710516154766,0.0192479975521564
1769251356438,-0.0348968505859375,-0.0740509033203125,-0.9817047119140624,-0.0457962490618228,0.0428380109369754,0.0256837923079729
1769251356448,-0.0439300537109375,-0.072357177734375,-0.981353759765625,-0.0562763214111328,0.0228179637342691,0.0180282685905694
1769251356458,-0.0472412109375,-0.075653076171875,-0.978912353515625,-0.077551782131195,0.0124739799648523,0.013759221881628
1769251356468,-0.0428009033203125,-0.0794830322265625,-0.9761505126953124,-0.0960863158106803,0.0101884556934237,0.0156774967908859
1769251356478,-0.055511474609375,-0.0733795166015625,-0.98291015625,-0.1044960469007492,-0.0261354632675647,-0.0009440905996598
1769251356488,-0.0832366943359375,-0.0580291748046875,-1.0048828125,-0.099293828010559,-0.0226797461509704,-0.0230235606431961
1769251356498,-0.0688629150390625,-0.0624542236328125,-1.0235595703125,-0.1003545671701431,0.0448271259665489,-0.0211593471467494
1769251356508,-0.0479278564453125,-0.072906494140625,-1.0219879150390625,-0.0932620391249656,0.0637251809239387,-0.0033302828669548
1769251356518,-0.0437774658203125,-0.085968017578125,-1.0022735595703125,-0.0779563188552856,0.0386206284165382,-0.004194744862616
1769251356531,-0.0378875732421875,-0.0987396240234375,-0.990478515625,-0.0693865343928337,0.0098595544695854,-0.0058682751841843
1769251356538,-0.0427398681640625,-0.08355712890625,-0.9990386962890624,-0.0740233585238456,0.0221298038959503,-0.0241636596620082
1769251356548,-0.0528717041015625,-0.0606231689453125,-1.000762939453125,-0.0774399265646934,0.0458015762269496,-0.0362759828567504
1769251356558,-0.0448455810546875,-0.0420379638671875,-1.00335693359375,-0.0968099012970924,0.0456708148121833,-0.0319099947810173
1769251356568,-0.057342529296875,-0.021240234375,-1.00885009765625,-0.0826964750885963,0.0262385290116071,-0.0272204354405403
1769251356578,-0.066070556640625,-0.0555572509765625,-0.9881744384765624,-0.0585908740758895,0.0009345032158307,-0.0177105534821748
1769251356588,-0.0352935791015625,-0.0927276611328125,-0.974151611328125,-0.050541203469038,-0.009008408524096,-0.0033473272342234
1769251356598,-0.0259246826171875,-0.1045989990234375,-0.99395751953125,-0.0510402806103229,0.0363380350172519,-0.0038376150187104
1769251356608,-0.041839599609375,-0.07177734375,-1.0131072998046875,-0.0445933006703853,0.0881988331675529,-0.0194820892065763
1769251356619,-0.0604095458984375,-0.04229736328125,-1.0158233642578125,-0.0292297899723052,0.0752598643302917,-0.0372080877423286
1769251356628,-0.082122802734375,-0.0338592529296875,-1.0021820068359375,-0.0159403514117002,0.0050349724479019,-0.0518722534179687
1769251356639,-0.0734100341796875,-0.039642333984375,-0.99395751953125,-0.0107490504160523,-0.0455853268504142,-0.041414551436901
1769251356650,-0.034454345703125,-0.0568389892578125,-0.9917144775390624,-0.0107213538140058,-0.0452620200812816,-0.0082757733762264
1769251356659,-0.016265869140625,-0.0700836181640625,-0.992828369140625,-0.0113570503890514,-0.0233777612447738,0.0142420530319213
1769251356669,-0.01312255859375,-0.0641326904296875,-1.0006256103515625,-0.0038280277512967,-0.0249836463481187,0.0210978277027606
1769251356679,-0.03515625,-0.0564422607421875,-0.999298095703125,-0.0124569358304142,-0.0399383604526519,0.0034357442054897
1769251356689,-0.0719451904296875,-0.0580291748046875,-0.9969940185546876,-0.0412339903414249,0.009705358184874,-0.0204291082918643
1769251356699,-0.0586395263671875,-0.066986083984375,-0.99395751953125,-0.0662035197019577,0.0634356960654258,-0.0056509613059461
1769251356709,-0.042938232421875,-0.0729827880859375,-0.9875335693359376,-0.0801009610295295,0.0769586935639381,0.0163949523121118
1769251356719,-0.0416412353515625,-0.069915771484375,-0.9881591796875,-0.0817606449127197,0.0771280750632286,0.0249333120882511
1769251356729,-0.0436859130859375,-0.06317138671875,-0.988189697265625,-0.0888438522815704,0.0714131966233253,0.0234976019710302
1769251356739,-0.0398712158203125,-0.0599517822265625,-0.98333740234375,-0.0871839076280593,0.0594798400998115,0.022325811907649
1769251356749,-0.0396728515625,-0.0543670654296875,-0.9872589111328124,-0.0789813697338104,0.0412813946604728,0.0155414091423153
1769251356759,-0.05328369140625,-0.0516204833984375,-0.995208740234375,-0.0680576115846633,0.0057409764267504,-0.0018567559309303
1769251356769,-0.0668792724609375,-0.0481414794921875,-1.0051422119140625,-0.0605301894247531,0.0214538928121328,-0.0183518435806036
1769251356779,-0.057891845703125,-0.047088623046875,-1.009429931640625,-0.0484631396830081,0.0266968589276075,-0.0155760301277041
1769251356789,-0.0443572998046875,-0.048858642578125,-1.016387939453125,-0.0188000537455081,0.0153203662484884,-0.0085364961996674
1769251356800,-0.0446929931640625,-0.052520751953125,-1.0109100341796875,0.0047145942226052,-0.0035638420376926,-0.0172788556665182
1769251356809,-0.052398681640625,-0.0575103759765625,-1.001953125,0.0196077898144722,-0.0061124870553612,-0.0273690391331911
1769251356820,-0.0475921630859375,-0.059844970703125,-0.9967041015625,0.0333196073770523,0.0090470248833298,-0.0388480648398399
1769251356830,-0.0508575439453125,-0.0589141845703125,-0.9872283935546876,0.0378440506756305,0.0186176262795925,-0.0487824529409408
1769251356840,-0.04644775390625,-0.053497314453125,-0.98980712890625,0.0449389778077602,0.0240667201578617,-0.0503795519471168
1769251356850,-0.036285400390625,-0.0491485595703125,-0.9964752197265624,0.0530757345259189,0.0272060539573431,-0.0370080843567848
1769251356860,-0.03179931640625,-0.0439300537109375,-1.0001373291015625,0.0550573915243148,0.0074637751094996,-0.0273770298808813
1769251356870,-0.0336456298828125,-0.0451507568359375,-0.9985198974609376,0.0506141744554042,-0.0157901477068662,-0.0173427704721689
1769251356880,-0.0370941162109375,-0.050567626953125,-0.9935455322265624,0.0373242013156414,-0.0139427138492465,-0.0174801908433437
1769251356890,-0.041412353515625,-0.058563232421875,-0.9875640869140624,0.0190477278083562,-0.0034139060880988,-0.0171390399336814
1769251356900,-0.0376739501953125,-0.061309814453125,-0.982940673828125,0.0013054815353825,0.0100361220538616,-0.0146077051758766
1769251356910,-0.0467071533203125,-0.06353759765625,-0.9788818359375,-0.0159486066550016,0.0307901371270418,-0.023339943960309
1769251356920,-0.04571533203125,-0.0551910400390625,-0.97601318359375,-0.0316886864602565,0.0135560221970081,-0.0258574299514293
1769251356930,-0.04364013671875,-0.0506591796875,-0.980010986328125,-0.044569332152605,0.0161326304078102,-0.0255221370607614
1769251356940,-0.0405120849609375,-0.045501708984375,-0.9871673583984376,-0.0534946508705616,0.0211697332561016,-0.0216935779899358
1769251356950,-0.0322113037109375,-0.039825439453125,-0.9946746826171876,-0.058020956814289,0.0266369376331567,-0.0104755442589521
1769251356960,-0.036163330078125,-0.04156494140625,-0.9962005615234376,-0.0657752826809883,0.0307760220021009,-0.005461610853672
1769251356970,-0.040679931640625,-0.0419158935546875,-1.002227783203125,-0.063974991440773,0.0232954695820808,-0.0028000476304441
1769251356980,-0.044647216796875,-0.0440826416015625,-1.014404296875,-0.0533108934760093,0.0230296850204467,0.0001707086194073
1769251356990,-0.0481109619140625,-0.05194091796875,-1.0121307373046875,-0.0458633638918399,0.0222840011119842,-0.0036203011404722
1769251357001,-0.0548248291015625,-0.0596160888671875,-1.0082244873046875,-0.0354019328951835,0.0134918401017785,-0.0139424474909901
1769251357010,-0.04241943359375,-0.0703887939453125,-1.003814697265625,-0.0134305879473686,0.0010112022282555,-0.0156724359840154
1769251357021,-0.0277099609375,-0.0803680419921875,-0.9996490478515624,-0.0094907069578766,0.0072781527414917,-0.0107730189338326
1769251357031,-0.035186767578125,-0.0685882568359375,-1.00347900390625,-0.0093724625185132,0.0326918996870517,-0.0236552618443965
1769251357041,-0.0540924072265625,-0.030975341796875,-1.0020751953125,-0.0006514092092402,0.0303669609129428,-0.0442542806267738
1769251357051,-0.063812255859375,0.0102996826171875,-1.0098724365234375,0.0075082499533891,-0.0044794371351599,-0.0558763146400451
1769251357061,-0.05413818359375,-0.027557373046875,-0.99908447265625,0.0049928943626582,-0.0199116561561822,-0.0257080271840095
1769251357071,-0.0223846435546875,-0.0831756591796875,-0.969879150390625,0.0140002379193902,-0.0195731688290834,-0.0016333166277036
1769251357081,-0.010040283203125,-0.09771728515625,-0.9716644287109376,0.0128201907500624,0.0141080953180789,-0.0074006584472954
1769251357091,-0.024627685546875,-0.0841064453125,-0.987579345703125,0.0109983226284384,0.0602287203073501,-0.0255959071218967
1769251357101,-0.0489044189453125,-0.0390167236328125,-1.0045166015625,0.0146300755441188,0.0651161521673202,-0.0464942641556263
1769251357113,-0.06549072265625,-0.013671875,-1.00531005859375,0.0211614780128002,-0.0347318798303604,-0.019916983321309
1769251357121,-0.058685302734375,-0.0171051025390625,-0.9966583251953124,0.0211614780128002,-0.0347318798303604,-0.019916983321309
1769251357134,-0.049102783203125,-0.0308380126953125,-0.9830322265625,-0.0108380001038312,-0.0344858057796955,0.0059846555814146
1769251357141,-0.037322998046875,-0.04730224609375,-0.971405029296875,-0.0108380001038312,-0.0344858057796955,0.0059846555814146
1769251357151,-0.0296783447265625,-0.053985595703125,-0.97418212890625,-0.0173070840537548,-0.0112942000851035,0.0069511164911091
1769251357161,-0.022064208984375,-0.0494537353515625,-0.9893646240234376,-0.0159201100468635,-0.0159712433815002,0.011405786499381
1769251357171,-0.029083251953125,-0.056488037109375,-0.9915313720703124,-0.0338431857526302,-0.014430072158575,0.0091444961726665
1769251357181,-0.0364532470703125,-0.0653839111328125,-0.9888916015625,-0.0600060783326625,0.0070677632465958,0.0113229621201753
1769251357191,-0.0391082763671875,-0.06634521484375,-0.9853057861328124,-0.0797361060976982,0.0283386968076229,0.0120947463437914
1769251357201,-0.0525970458984375,-0.061767578125,-0.9810943603515624,-0.0928721502423286,0.0348820835351944,-0.001856489572674
1769251357212,-0.06768798828125,-0.0465850830078125,-0.984954833984375,-0.1065975502133369,0.0122105935588479,-0.0232816208153963
1769251357221,-0.0579986572265625,-0.04327392578125,-0.993133544921875,-0.1070236563682556,0.0229710955172777,-0.0180541016161441
1769251357232,-0.034759521484375,-0.0441436767578125,-1.001373291015625,-0.0920034274458885,0.0484844446182251,-0.0034501252230256
1769251357242,-0.03338623046875,-0.04461669921875,-0.993804931640625,-0.0738265514373779,0.030728617683053,-0.0042778356000781
1769251357252,-0.0286712646484375,-0.04461669921875,-0.9977874755859376,-0.0570379868149757,0.0063537694513797,-0.0035854137968271
1769251357262,-0.026611328125,-0.041473388671875,-1.00872802734375,-0.0349009931087493,-0.0083032036200165,-0.0010572749888524
1769251357272,-0.04345703125,-0.03948974609375,-1.0130615234375,-0.0150449955835938,0.0028791434597223,-0.0159960109740495
1769251357282,-0.06280517578125,-0.0356597900390625,-1.0087432861328125,0.000572579621803,0.0268153697252273,-0.0296668149530887
1769251357292,-0.0489654541015625,-0.0389251708984375,-1.005035400390625,0.0254355855286121,0.0303286109119653,-0.0235988032072782
1769251357302,-0.03375244140625,-0.045654296875,-1.002716064453125,0.0473094582557678,0.0204189885407686,-0.019334016367793
1769251357312,-0.0340118408203125,-0.0441131591796875,-0.998504638671875,0.0618987865746021,0.0008138620178215,-0.023984694853425
1769251357322,-0.0423126220703125,-0.0400543212890625,-0.9900665283203124,0.0619019828736782,-0.0229545850306749,-0.0375966429710388
1769251357332,-0.0527191162109375,-0.039093017578125,-0.9816436767578124,0.0520482882857322,-0.0367502905428409,-0.0494258739054203
1769251357342,-0.0456085205078125,-0.036102294921875,-0.9818572998046876,0.0392552614212036,-0.0311243627220392,-0.0416880585253238
1769251357352,-0.034759521484375,-0.0399169921875,-0.9821319580078124,0.0244741830974817,-0.0219628233462572,-0.0260334648191928
1769251357365,-0.031494140625,-0.0415802001953125,-0.9837646484375,-0.0075244954787194,0.0031356059480458,-0.0080672474578022
1769251357372,-0.03179931640625,-0.040069580078125,-0.98602294921875,-0.0075244954787194,0.0031356059480458,-0.0080672474578022
1769251357382,-0.03094482421875,-0.0457763671875,-0.98443603515625,-0.0284462887793779,0.0182205494493246,-0.0020809939596801
1769251357392,-0.035888671875,-0.050201416015625,-0.9794158935546876,-0.0484370402991771,0.0287749227136373,-0.0023574302904307
1769251357402,-0.0442962646484375,-0.0460205078125,-0.9816741943359376,-0.0628572627902031,0.0381588377058506,-0.0122292358428239
1769251357412,-0.052764892578125,-0.0408477783203125,-0.9824371337890624,-0.0767975747585296,0.0386656373739242,-0.0255927108228206
1769251357422,-0.0573272705078125,-0.037139892578125,-0.9845123291015624,-0.0849122256040573,0.0228445958346128,-0.0399956181645393
1769251357433,-0.048828125,-0.035888671875,-0.986083984375,-0.0873641967773437,0.0092198634520173,-0.0437911562621593
1769251357442,-0.049163818359375,-0.0382537841796875,-0.98651123046875,-0.0882140174508094,0.0018221348291262,-0.0505089797079563
1769251357453,-0.0487823486328125,-0.032928466796875,-0.9916534423828124,-0.0829137936234474,-0.0056536244228482,-0.0536075681447982
1769251357462,-0.038543701171875,-0.0305023193359375,-1.00079345703125,-0.068409152328968,-0.0142005076631903,-0.05031643435359
1769251357473,-0.0285186767578125,-0.0296173095703125,-1.0076751708984375,-0.0541220903396606,-0.0203263107687234,-0.0408883094787597
1769251357483,-0.0332794189453125,-0.0354156494140625,-1.0086212158203125,-0.0420137643814086,-0.0234400779008865,-0.0389343500137329
1769251357493,-0.0326385498046875,-0.0459747314453125,-1.005279541015625,-0.0200461465865373,-0.0323334373533725,-0.0306852087378501
1769251357503,-0.02142333984375,-0.062103271484375,-1.003143310546875,-0.0043846284970641,-0.0340708866715431,-0.0208315122872591
1769251357513,-0.0323028564453125,-0.059722900390625,-1.013946533203125,-0.002011751756072,-0.0026431872975081,-0.0236544627696275
1769251357524,-0.049835205078125,-0.035675048828125,-1.0211029052734375,0.0097018955275416,0.0260060336440801,-0.0334032289683818
1769251357533,-0.0582275390625,0.012481689453125,-1.0178680419921875,0.035869050770998,-0.0204179231077432,-0.0383303463459014
1769251357543,-0.0526275634765625,0.0031585693359375,-1.0204010009765625,0.0570995062589645,-0.0418377295136451,-0.0096494313329458
1769251357553,-0.0244903564453125,-0.0807342529296875,-0.9741973876953124,0.0671968832612037,-0.0615152940154075,0.015695072710514
1769251357563,-0.0132598876953125,-0.0902557373046875,-0.9619598388671876,0.0757461562752723,-0.0643302500247955,-0.0003448793722782
1769251357573,-0.022003173828125,-0.08319091796875,-0.9862213134765624,0.0648359879851341,-0.0024881914723664,-0.0171062815934419
1769251357583,-0.034912109375,-0.035430908203125,-1.0218505859375,0.0653854012489318,0.0494927167892456,-0.0224219523370265
1769251357594,-0.0561370849609375,-0.0013427734375,-1.0258636474609375,0.0762569531798362,0.0242470167577266,-0.0158897507935762
1769251357603,-0.0744476318359375,-0.0027313232421875,-1.0039215087890625,0.0793424919247627,-0.0218680147081613,-0.0060597565025091
1769251357613,-0.0691375732421875,-0.0210113525390625,-0.9831390380859376,0.0763914436101913,-0.0483187958598136,0.0081609906628727
1769251357623,-0.0483245849609375,-0.0371246337890625,-0.9722747802734376,0.0753639936447143,-0.0574824661016464,0.0182615611702203
1769251357634,-0.0323333740234375,-0.04638671875,-0.9802398681640624,0.0791664570569992,-0.0546736307442188,0.0230816174298524
1769251357643,-0.0231170654296875,-0.0456390380859375,-0.993499755859375,0.0883234739303588,-0.0587983354926109,0.0217303298413753
1769251357654,-0.029388427734375,-0.0522613525390625,-0.992279052734375,0.0757919624447822,-0.0326556824147701,0.0194711703807115
1769251357664,-0.0381927490234375,-0.067138671875,-0.981231689453125,0.0475195832550525,-0.0263727512210607,0.0212821196764707
1769251357674,-0.032684326171875,-0.0675201416015625,-0.9775543212890624,0.0262459851801395,-0.0242856312543153,0.0317544676363468
1769251357684,-0.03375244140625,-0.064788818359375,-0.9834136962890624,0.0123328324407339,-0.0170085448771715,0.03769251704216
1769251357694,-0.0380401611328125,-0.0566864013671875,-0.989501953125,0.0080970749258995,-0.0112377405166625,0.0329326502978801
1769251357704,-0.053009033203125,-0.040802001953125,-0.9956512451171876,-0.0011113371001556,0.0118872858583927,0.0224112998694181
1769251357714,-0.0605621337890625,-0.040313720703125,-0.9920654296875,-0.0150013202801346,0.0368038192391395,0.0171976294368505
1769251357724,-0.048309326171875,-0.044464111328125,-0.9847412109375,-0.0158532653003931,0.027490746229887,0.0220818668603897
1769251357734,-0.042144775390625,-0.0442657470703125,-0.987548828125,-0.0091919004917144,0.0034972631838172,0.0259868595749139
1769251357744,-0.0431976318359375,-0.03948974609375,-0.9953155517578124,0.0010341054294258,-0.0256608892232179,0.0220003742724657
1769251357754,-0.0617218017578125,-0.038177490234375,-1.001953125,0.004104730207473,-0.0443685315549373,0.0051500210538506
1769251357766,-0.0655975341796875,-0.0465240478515625,-0.997894287109375,0.010694189928472,-0.0218744054436683,0.0014269216917455
1769251357774,-0.0475616455078125,-0.0544281005859375,-0.9929962158203124,0.010694189928472,-0.0218744054436683,0.0014269216917455
1769251357784,-0.037994384765625,-0.05987548828125,-0.984375,0.0174216013401746,-0.021624069660902,0.0033124396577477
1769251357794,-0.0384674072265625,-0.06097412109375,-0.9773712158203124,0.0146950567141175,-0.0324077419936656,-0.005585447885096
1769251357804,-0.0403900146484375,-0.05767822265625,-0.975189208984375,0.0073460633866488,-0.0364051461219787,-0.0070746871642768
1769251357814,-0.0285797119140625,-0.0504608154296875,-0.9846038818359376,0.0021441110875457,-0.0239569973200559,0.006833937484771
1769251357824,-0.02532958984375,-0.0455780029296875,-0.9964447021484376,0.0027784758713096,-0.0013020194601267,0.0220499075949192
1769251357834,-0.036285400390625,-0.0408477783203125,-1.006744384765625,0.0003917510039173,0.0224800091236829,0.0352213717997074
1769251357844,-0.0435943603515625,-0.04241943359375,-1.0078582763671875,-0.0079564601182937,0.0348983295261859,0.045176800340414
1769251357854,-0.0467529296875,-0.04962158203125,-0.9983367919921876,-0.0185553077608346,0.0274095200002193,0.0521151311695575
1769251357865,-0.0498046875,-0.0575408935546875,-0.990936279296875,-0.0306961275637149,0.0200733095407485,0.0544832162559032
1769251357875,-0.0465850830078125,-0.0620269775390625,-0.98870849609375,-0.035938560962677,0.0173326507210731,0.05268345028162
1769251357885,-0.0404815673828125,-0.0587921142578125,-0.9905242919921876,-0.0377196818590164,0.0202440191060304,0.0528397783637046
1769251357895,-0.0413360595703125,-0.0538482666015625,-0.9953765869140624,-0.0390523262321949,0.0200163181871175,0.0490977726876735
1769251357905,-0.046844482421875,-0.049285888671875,-0.99560546875,-0.0420126989483833,0.0176455732434988,0.0454114228487014
1769251357915,-0.0459747314453125,-0.04278564453125,-1.001861572265625,-0.040587905794382,0.016660202294588,0.0437232442200183
1769251357925,-0.0463714599609375,-0.04412841796875,-1.0044708251953125,-0.0438896939158439,0.022650983184576,0.0479914955794811
1769251357935,-0.0398101806640625,-0.0435638427734375,-1.009429931640625,-0.0380198210477829,0.0261256098747253,0.0579866021871566
1769251357945,-0.041229248046875,-0.0455474853515625,-1.009857177734375,-0.0323616676032543,0.0193430706858634,0.059216983616352
1769251357955,-0.05419921875,-0.053436279296875,-1.0008392333984375,-0.0351894125342369,0.0039803604595363,0.0508088506758213
1769251357966,-0.0641632080078125,-0.0561981201171875,-0.9977264404296876,-0.0355710424482822,0.0010149306617677,0.0379292741417884
1769251357975,-0.064056396484375,-0.0681304931640625,-0.9952239990234376,-0.0286241881549358,-0.0018128136871382,0.0253074876964092
1769251357985,-0.0530548095703125,-0.0848846435546875,-0.99700927734375,-0.0163406245410442,0.0021750037558376,0.0197385512292385
1769251357995,-0.0445404052734375,-0.06982421875,-1.0217437744140625,-0.0093679353594779,0.0378794707357883,0.0149754872545599
1769251358005,-0.0573883056640625,-0.0525970458984375,-1.023529052734375,0.003345729317516,0.051644816994667,0.0001209075126098
1769251358015,-0.0718536376953125,-0.016998291015625,-1.012969970703125,0.013333648443222,-0.0025371934752911,-0.0298889223486185
1769251358025,-0.0853118896484375,-0.0090789794921875,-1.0155029296875,0.0234778951853513,-0.0371148772537708,-0.037191841751337
1769251358035,-0.0647430419921875,-0.0697784423828125,-0.973602294921875,0.0326735228300094,-0.0611038357019424,-0.0173422377556562
1769251358045,-0.0263519287109375,-0.093994140625,-0.9649658203125,0.0408568866550922,-0.0481275804340839,-0.0074208984151482
1769251358055,-0.0185394287109375,-0.0980987548828125,-0.9842376708984376,0.0240448825061321,0.0242001451551914,-0.0090773841366171
1769251358067,-0.033294677734375,-0.06561279296875,-0.9988250732421876,0.0171464961022138,0.0523753240704536,-0.0217170137912035
1769251358075,-0.0662841796875,-0.022918701171875,-1.0019989013671875,0.0208576116710901,0.0007850998663343,-0.0476689860224723
1769251358086,-0.0961151123046875,-0.015594482421875,-0.99737548828125,0.0233681723475456,-0.0408169366419315,-0.0694901272654533
1769251358096,-0.0814208984375,-0.0254669189453125,-0.996002197265625,0.0198189783841371,-0.0376618914306163,-0.0572558306157588
1769251358106,-0.04571533203125,-0.043731689453125,-0.9885101318359376,0.0164247788488864,-0.0226416625082492,-0.0270305518060922
1769251358116,-0.0344390869140625,-0.0589447021484375,-0.98175048828125,0.0140638872981071,-0.0103383911773562,-0.0154151748865842
1769251358126,-0.018463134765625,-0.0618896484375,-0.9814300537109376,0.0157057251781225,-0.0042131207883358,-0.00322908279486
1769251358136,-0.008209228515625,-0.0577545166015625,-0.985137939453125,0.0094568850472569,-0.0214392449706792,0.006597182713449
1769251358146,-0.0135650634765625,-0.0586395263671875,-0.9818267822265624,-0.009385778568685,-0.0297709442675113,0.0130742564797401
1769251358156,-0.033538818359375,-0.0622406005859375,-0.9772186279296876,-0.040335439145565,-0.0268361419439315,0.0108419954776763
1769251358167,-0.069305419921875,-0.06103515625,-0.9691162109375,-0.076806366443634,-0.0336527675390243,-0.0131221935153007
1769251358176,-0.0863800048828125,-0.050537109375,-0.9785919189453124,-0.0965784713625907,-0.0258475765585899,-0.0303954556584358
1769251358186,-0.061614990234375,-0.0429534912109375,-0.9981231689453124,-0.0926010385155677,-0.0184639617800712,-0.0217311289161443
1769251358196,-0.0447845458984375,-0.04083251953125,-1.007080078125,-0.07912278175354,-0.030246052891016,-0.0014149374328553
1769251358206,-0.0414581298828125,-0.04010009765625,-1.0049285888671875,-0.0766255334019661,-0.0080952104181051,-0.0013646037550643
1769251358217,-0.0437774658203125,-0.0369720458984375,-1.0046234130859375,-0.0753586664795875,0.0341920591890811,-0.0043433494865894
1769251358226,-0.0424041748046875,-0.0450592041015625,-0.9957427978515624,-0.0870685875415802,0.0655276104807853,-0.0048394962213933
1769251358236,-0.0438385009765625,-0.0507354736328125,-0.9917449951171876,-0.093487337231636,0.0728339925408363,-0.0048594698309898
1769251358246,-0.049713134765625,-0.053802490234375,-0.9888153076171876,-0.0977715700864791,0.0701966658234596,-0.0145019777119159
1769251358257,-0.0506134033203125,-0.055877685546875,-0.9895477294921876,-0.0875407680869102,0.045170672237873,-0.0244001485407352
1769251358267,-0.051422119140625,-0.048126220703125,-0.9923858642578124,-0.0746494680643081,0.014642059803009,-0.0403143987059593
1769251358277,-0.0606536865234375,-0.0457000732421875,-0.9904327392578124,-0.0681452304124832,-0.0089761847630143,-0.0600454919040203
1769251358287,-0.0597381591796875,-0.039215087890625,-0.989105224609375,-0.0648983046412468,-0.0207915641367435,-0.0674860998988151
1769251358297,-0.0561676025390625,-0.0305328369140625,-0.9928131103515624,-0.0577724874019622,-0.0329933688044548,-0.0671633258461952
1769251358307,-0.047454833984375,-0.0306396484375,-1.000213623046875,-0.0487840510904789,-0.0297626890242099,-0.0533385872840881
1769251358317,-0.03070068359375,-0.0346527099609375,-1.0047454833984375,-0.0407354459166526,-0.018341988325119,-0.0303070396184921
1769251358327,-0.02545166015625,-0.035888671875,-1.00494384765625,-0.0351553224027156,-0.0074304859153926,-0.0123868947848677
1769251358337,-0.0256195068359375,-0.0392913818359375,-0.9989166259765624,-0.0386493913829326,0.0193044561892747,-0.0041641187854111
1769251358347,-0.037261962890625,-0.0485992431640625,-0.9897918701171876,-0.0511912815272808,0.0291336514055728,-0.004300738684833
1769251358357,-0.0387420654296875,-0.0492706298828125,-0.987457275390625,-0.0599927641451358,0.0291384439915418,-0.0015528892399743
1769251358367,-0.0354766845703125,-0.048004150390625,-0.994293212890625,-0.0645765960216522,0.0217098221182823,0.0102337291464209
1769251358377,-0.035980224609375,-0.0497283935546875,-0.998992919921875,-0.0712403580546379,0.0123346969485282,0.0223252791911363
1769251358387,-0.0438690185546875,-0.0499725341796875,-1.0016632080078125,-0.0809459835290908,0.0152695002034306,0.0282156597822904
1769251358400,-0.042724609375,-0.0491180419921875,-1.00946044921875,-0.1011857390403747,0.0314929448068141,0.0414792671799659
1769251358407,-0.0397491455078125,-0.0507965087890625,-1.011688232421875,-0.1011857390403747,0.0314929448068141,0.0414792671799659
1769251358417,-0.058929443359375,-0.05926513671875,-1.0044403076171875,-0.118505872786045,0.0407032221555709,0.0299978461116552
1769251358427,-0.0520172119140625,-0.0583343505859375,-1.0037078857421875,-0.1236614882946014,0.04743542522192,0.0252936389297246
1769251358437,-0.0477142333984375,-0.0561370849609375,-1.0050811767578125,-0.1181122586131095,0.0579586401581764,0.0203454848378896
1769251358448,-0.045745849609375,-0.051727294921875,-1.0033111572265625,-0.110128104686737,0.0798325166106224,0.0116108497604727
1769251358457,-0.05316162109375,-0.047088623046875,-0.999664306640625,-0.1018416732549667,0.0811827331781387,-0.0036157737486064
1769251358467,-0.0530548095703125,-0.0478057861328125,-0.994476318359375,-0.0823926106095314,0.0634985491633415,-0.0108036454766988
1769251358477,-0.0403289794921875,-0.054443359375,-0.9940948486328124,-0.0680951625108718,0.0501643680036067,-0.0132383070886135
1769251358488,-0.0380401611328125,-0.036041259765625,-1.0119476318359375,-0.0498437210917472,0.0603131428360939,-0.019327625632286
1769251358498,-0.049560546875,-0.0173797607421875,-1.0188140869140625,-0.0326660685241222,0.0630391538143158,-0.034425351768732
1769251358507,-0.050933837890625,0.0124969482421875,-1.0251312255859375,-0.0243516787886619,0.0547972023487091,-0.0404387675225734
1769251358518,-0.0619659423828125,0.02484130859375,-1.028778076171875,-0.0075391428545117,0.0504469275474548,-0.0341491810977458
1769251358528,-0.049957275390625,-0.0272979736328125,-0.988983154296875,0.0023113575298339,0.0127352364361286,-0.0127810426056385
1769251358538,-0.01824951171875,-0.0663299560546875,-0.9766082763671876,0.004439755808562,0.0020884508267045,-0.0022037657909095
1769251358548,-0.030670166015625,-0.0712127685546875,-0.9812469482421876,-0.0176479686051607,0.0328128077089786,-0.0326215922832489
1769251358558,-0.0541534423828125,-0.0358123779296875,-0.9947662353515624,-0.0299310013651847,0.0671950131654739,-0.0733242779970169
1769251358568,-0.066497802734375,-0.01361083984375,-0.99688720703125,-0.0356653183698654,0.0506788901984691,-0.1018073186278343
1769251358578,-0.066131591796875,-0.012420654296875,-0.9900665283203124,-0.0390970669686794,-0.0019353191601112,-0.1081578955054283
1769251358588,-0.06011962890625,-0.0083770751953125,-0.992401123046875,-0.0470665767788887,-0.0525550879538059,-0.1023836284875869
1769251358598,-0.053192138671875,-0.0126495361328125,-1.001312255859375,-0.0498517118394374,-0.0637488886713981,-0.0928990468382835
1769251358608,-0.0470428466796875,-0.022125244140625,-1.00341796875,-0.0545873455703258,-0.0300809368491172,-0.0921150147914886
1769251358618,-0.036102294921875,-0.031524658203125,-1.00262451171875,-0.0636761784553527,0.0015459649730473,-0.0893482565879821
1769251358628,-0.0255889892578125,-0.0340728759765625,-0.9980926513671876,-0.0737431943416595,-0.0022964437957853,-0.0848794728517532
1769251358638,-0.022003173828125,-0.034332275390625,-0.9967193603515624,-0.0776356756687164,-0.0030594393610954,-0.0727016329765319
1769251358648,-0.0194244384765625,-0.031951904296875,-0.9977569580078124,-0.0837308466434478,0.0161107927560806,-0.0662786215543747
1769251358658,-0.0271148681640625,-0.030548095703125,-0.9935302734375,-0.0864209085702896,0.0272156409919261,-0.0646322593092918
1769251358668,-0.0328369140625,-0.0340423583984375,-0.9852294921875,-0.0956282541155815,0.0321568697690963,-0.0647345185279846
1769251358678,-0.0479888916015625,-0.032958984375,-0.9779510498046876,-0.1061948761343956,0.0360823720693588,-0.0751354992389679
1769251358688,-0.0468292236328125,-0.02252197265625,-0.980255126953125,-0.1054071187973022,0.0337630249559879,-0.0751488134264946
1769251358699,-0.048126220703125,-0.0190582275390625,-0.982696533203125,-0.0955502241849899,0.0218557640910148,-0.0761605501174926
1769251358708,-0.0391082763671875,-0.01922607421875,-0.9895477294921876,-0.0854192897677421,0.0130617395043373,-0.0659864768385887
1769251358718,-0.0291748046875,-0.0145721435546875,-1.0042572021484375,-0.0634926930069923,0.0134276580065488,-0.0567250661551952
1769251358729,-0.025421142578125,-0.01025390625,-1.01580810546875,-0.0419836677610874,0.0194072537124156,-0.0467720329761505
1769251358739,-0.0312652587890625,-0.0145263671875,-1.011322021484375,-0.0196570586413145,0.0077820229344069,-0.0456276722252368
1769251358749,-0.0424957275390625,-0.0111236572265625,-0.9975738525390624,-0.0054669370874762,-0.0084483455866575,-0.0555948205292224
1769251358759,-0.0550537109375,-0.014923095703125,-0.9904937744140624,0.0094190677627921,0.0029028456192463,-0.0724385157227516
1769251358769,-0.046844482421875,-0.0143890380859375,-0.987823486328125,0.0197100546211004,-0.006302903406322,-0.0743152424693107
1769251358779,-0.039093017578125,-0.015869140625,-0.9901275634765624,0.0333544947206974,-0.0323195904493331,-0.0771147608757019
1769251358789,-0.0307769775390625,-0.0110321044921875,-0.9973907470703124,0.0414949804544448,-0.0443046130239963,-0.0709306299686431
1769251358799,-0.029510498046875,-0.0134735107421875,-0.9947662353515624,0.0396768376231193,-0.0317121222615242,-0.0650543645024299
1769251358809,-0.0261688232421875,-0.01336669921875,-0.98681640625,0.0275384169071912,-0.0128207234665751,-0.0558720529079437
1769251358819,-0.0222625732421875,-0.0123748779296875,-0.98211669921875,0.0100044310092926,0.0139307295903563,-0.0435011386871337
1769251358829,-0.035736083984375,-0.01910400390625,-0.9765472412109376,-0.0171611439436674,0.0332500971853733,-0.0459195561707019
1769251358839,-0.0424652099609375,-0.0174713134765625,-0.9723663330078124,-0.04214558750391,0.0352381467819213,-0.0466053187847137
1769251358849,-0.038726806640625,-0.015472412109375,-0.9766082763671876,-0.0650538355112075,0.0279828980565071,-0.0412497036159038
1769251358859,-0.0366973876953125,-0.016265869140625,-0.98382568359375,-0.0816541165113449,0.0196341555565595,-0.0345723591744899
1769251358869,-0.0335845947265625,-0.010467529296875,-0.9926910400390624,-0.0888909921050071,0.014069746248424,-0.0297163501381874
1769251358879,-0.03387451171875,-0.0097198486328125,-1.000244140625,-0.0973662361502647,0.017272463068366,-0.0283072721213102
1769251358889,-0.041534423828125,-0.0074920654296875,-1.0053558349609375,-0.1008810773491859,0.0137200728058815,-0.0326863080263137
1769251358899,-0.0464324951171875,-0.0103607177734375,-1.0039825439453125,-0.1092878729104995,0.0117517309263348,-0.0375905185937881
1769251358909,-0.0487060546875,-0.01214599609375,-0.999847412109375,-0.1097470000386238,0.0061793327331542,-0.0411346517503261
1769251358920,-0.0493011474609375,-0.0101776123046875,-1.0048065185546875,-0.1049573048949241,0.0081964107230305,-0.0448412410914897
1769251358930,-0.04046630859375,-0.0103759765625,-1.00738525390625,-0.0968985855579376,0.0113807525485754,-0.042108304798603
1769251358940,-0.0391998291015625,-0.00921630859375,-1.00103759765625,-0.0977353453636169,0.0095636779442429,-0.0451432429254055
1769251358950,-0.0392913818359375,-0.0081329345703125,-0.9962615966796876,-0.0986818373203277,0.0061463094316422,-0.0462836101651191
1769251358960,-0.0323638916015625,-0.0074462890625,-0.9990997314453124,-0.0874217227101326,0.01243616361171,-0.0415796674787998
1769251358970,-0.0295867919921875,-0.0212860107421875,-0.99224853515625,-0.0776915997266769,-0.0009275790071114,-0.0363526828587055
1769251358980,-0.0246124267578125,-0.03033447265625,-0.9890899658203124,-0.0768476426601409,-0.0152897406369447,-0.033389113843441
1769251358990,-0.0328216552734375,-0.0153350830078125,-1.005157470703125,-0.074526697397232,0.0197473391890525,-0.0398371629416942
1769251359000,-0.057708740234375,0.0229034423828125,-1.01495361328125,-0.0559615343809127,0.0518679916858673,-0.0591117888689041
1769251359010,-0.0546417236328125,0.051513671875,-1.023590087890625,-0.0238877553492784,0.0186216216534376,-0.058866512030363
1769251359020,-0.0485076904296875,0.0120391845703125,-1.01336669921875,-0.009935189038515,-0.0325651317834854,-0.0346852764487266
1769251359030,-0.02752685546875,-0.033966064453125,-0.990447998046875,0.0056381784379482,-0.0397066660225391,-0.0247040148824453
1769251359040,-0.015106201171875,-0.05084228515625,-0.9852447509765624,0.0113059179857373,-0.0210269875824451,-0.039072036743164
1769251359050,-0.0182037353515625,-0.0337066650390625,-0.9971923828125,0.0147792119532823,0.0109626362100243,-0.0570196099579334
1769251359060,-0.04290771484375,0.010162353515625,-1.0183258056640625,0.0319494120776653,0.0526813194155693,-0.0716227889060974
1769251359070,-0.053558349609375,0.026123046875,-1.00823974609375,0.0440098010003566,0.0158282313495874,-0.0563170686364173
1769251359080,-0.039337158203125,0.0243072509765625,-0.9980621337890624,0.0520573407411575,-0.0287038162350654,-0.0221409890800714
1769251359090,-0.029327392578125,0.021026611328125,-1.0010986328125,0.0597347021102905,-0.0407168045639991,0.0076741650700569
1769251359100,-0.026123046875,0.00958251953125,-0.9968719482421876,0.0531433783471584,-0.0246060099452734,0.0181369259953498
1769251359111,-0.0244140625,-0.0005950927734375,-0.9974212646484376,0.0512543991208076,0.0016929714474827,0.0203066039830446
1769251359120,-0.0171356201171875,-0.004241943359375,-0.9984588623046876,0.0426372103393077,0.0094403736293315,0.025220401585102
1769251359131,-0.0229949951171875,-0.012603759765625,-0.995635986328125,0.0333718061447143,0.0036314863245934,0.027549335733056
1769251359141,-0.02093505859375,-0.011993408203125,-0.9933929443359376,0.0202488116919994,0.0068216868676245,0.0374267324805259
1769251359151,-0.0346221923828125,-0.013763427734375,-0.988922119140625,0.0055721318349242,0.0287253875285387,0.0348836816847324
1769251359161,-0.0432281494140625,-0.0115814208984375,-0.9824066162109376,-0.0125703867524862,0.0533913187682628,0.028188494965434
1769251359171,-0.0522918701171875,-0.0105438232421875,-0.9755859375,-0.0287613403052091,0.0692323371767997,0.0099612874910235
1769251359181,-0.054534912109375,-0.0117645263671875,-0.9744110107421876,-0.0430912785232067,0.0679676011204719,0.001374990097247
1769251359191,-0.05731201171875,-0.008331298828125,-0.9817352294921876,-0.0474988110363483,0.0569668784737587,-0.0133525570854544
1769251359201,-0.05682373046875,-0.0019073486328125,-0.9857940673828124,-0.0417082980275154,0.0323025472462177,-0.0254046916961669
1769251359211,-0.050750732421875,-0.0035247802734375,-0.993438720703125,-0.0310074500739574,0.0026932547334581,-0.0314407460391521
1769251359221,-0.040374755859375,-0.0068511962890625,-0.998626708984375,-0.0211271233856678,-0.0085572693496942,-0.0281850323081016
1769251359231,-0.0471649169921875,-0.0083770751953125,-1.002227783203125,-0.0019283948931843,-0.0073444657027721,-0.0401956215500831
1769251359241,-0.046478271484375,-0.002044677734375,-1.002593994140625,0.0217095557600259,-0.0177579578012228,-0.0480639338493347
1769251359251,-0.04217529296875,-0.0029449462890625,-0.99530029296875,0.0378371253609657,-0.026773290708661,-0.0548355504870414
1769251359261,-0.0319061279296875,-0.0066070556640625,-0.9901885986328124,0.048340369015932,-0.0249700639396905,-0.0547311566770076
1769251359271,-0.02783203125,-0.008331298828125,-0.9885101318359376,0.0534051693975925,-0.0329142734408378,-0.0545378103852272
1769251359281,-0.0225372314453125,-0.0025177001953125,-0.989776611328125,0.0604660063982009,-0.033836793154478,-0.0483323782682418
1769251359291,-0.02001953125,0.0024261474609375,-0.9987945556640624,0.0633736476302146,-0.0224496480077505,-0.0371103510260582
1769251359301,-0.016143798828125,0.0029754638671875,-0.999725341796875,0.0646365135908126,-0.0186237525194883,-0.0183643605560064
1769251359311,-0.0211639404296875,0.002349853515625,-0.9965057373046876,0.0579032450914382,-0.016684703528881,-0.0029798108153045
1769251359321,-0.031158447265625,-0.0051116943359375,-0.9860382080078124,0.0367771908640861,-0.0122691830620169,0.0036985981278121
1769251359331,-0.0372161865234375,-0.008819580078125,-0.9775238037109376,0.0105860652402043,-0.0077689732424914,0.0064243436791002
1769251359341,-0.0358123779296875,-0.012054443359375,-0.974151611328125,-0.0134324515238404,-0.0099873868748545,0.0090920319780707
1769251359352,-0.031890869140625,-0.0132598876953125,-0.9779052734375,-0.0327323786914348,-0.0053348443470895,0.0137160783633589
1769251359362,-0.033416748046875,-0.0130767822265625,-0.983489990234375,-0.0486884415149688,-0.0030455910600721,0.0116691729053854
1769251359372,-0.0343475341796875,-0.0072174072265625,-0.9926300048828124,-0.0584617108106613,0.0021473066881299,0.0145104993134737
1769251359382,-0.032806396484375,-0.00543212890625,-0.9991455078125,-0.0621318146586418,0.0064770742319524,0.0141302002593874
1769251359392,-0.0415496826171875,-0.0096435546875,-0.9960174560546876,-0.0735261514782905,0.0092286523431539,0.0073955981060862
1769251359402,-0.047698974609375,-0.0069122314453125,-0.9945831298828124,-0.0813289433717727,0.0187063105404377,-0.0037862160243093
1769251359412,-0.0375518798828125,-0.003814697265625,-1.0007476806640625,-0.0740342810750007,0.0110672982409596,0.0008010788587853
1769251359422,-0.02557373046875,-0.0029296875,-1.0121612548828125,-0.0539029128849506,0.0101152183488011,0.0167645998299121
1769251359433,-0.0207977294921875,-0.0023956298828125,-1.0173187255859375,-0.0334964394569397,0.0200192481279373,0.0254904460161924
1769251359442,-0.0317840576171875,-0.00677490234375,-1.0125579833984375,-0.021601166576147,0.0184999145567417,0.0221875943243503
1769251359452,-0.0394744873046875,-0.008331298828125,-1.00701904296875,-0.0108702247962355,0.0166721865534782,0.0221939850598573
1769251359462,-0.045440673828125,-0.013946533203125,-1.0037384033203125,0.000186953911907,0.0159874893724918,0.0183848664164543
1769251359472,-0.03924560546875,-0.0276641845703125,-0.9988250732421876,0.0186186917126178,0.0083322320133447,0.0209180656820535
1769251359482,-0.0249786376953125,-0.0313568115234375,-1.003631591796875,0.0308556500822305,0.0024703482631593,0.0263778120279312
1769251359492,-0.04583740234375,-0.0175933837890625,-1.0160675048828125,0.0338453166186809,0.0173030905425548,0.0115216337144374
1769251359502,-0.0636138916015625,0.0132904052734375,-1.0222930908203125,0.055738627910614,0.0157262329012155,-0.0079292962327599
1769251359512,-0.060516357421875,0.0449981689453125,-1.0230255126953125,0.0792476832866668,-0.0274822246283292,-0.0081945462152361
1769251359522,-0.04290771484375,-0.0163726806640625,-1.001190185546875,0.0794636681675911,-0.0442569442093372,0.0252784583717584
1769251359533,-0.0222625732421875,-0.0634307861328125,-0.9577178955078124,0.0791832357645034,-0.052949234843254,0.0187550447881221
1769251359542,-0.0272064208984375,-0.058868408203125,-0.9644622802734376,0.0644900426268577,-0.0242376960813999,-0.0126460203900933
1769251359553,-0.0324249267578125,-0.0395355224609375,-0.99029541015625,0.0450361855328083,0.0475198477506637,-0.0277088601142168
1769251359563,-0.044281005859375,0.00848388671875,-1.0234832763671875,0.0526040904223918,0.0756910294294357,-0.0281938202679157
1769251359573,-0.0619354248046875,0.0365447998046875,-1.0269622802734375,0.0675825029611587,0.0421549119055271,-0.0156846866011619
1769251359583,-0.0537567138671875,0.0327301025390625,-1.015716552734375,0.0779999941587448,-0.0051585431210696,0.0109338741749525
1769251359593,-0.0416412353515625,0.013214111328125,-0.9956512451171876,0.07788547873497,-0.0266009848564863,0.0288731940090656
1769251359603,-0.03094482421875,-0.005645751953125,-0.9765167236328124,0.0671500116586685,-0.0241559352725744,0.0341052412986755
1769251359613,-0.02703857421875,-0.0193634033203125,-0.966033935546875,0.0479667261242866,-0.0275048613548278,0.0281570702791214
1769251359623,-0.0218658447265625,-0.025115966796875,-0.9689483642578124,0.0258174818009138,-0.0296593587845563,0.0231657736003398
1769251359633,-0.0126953125,-0.024078369140625,-0.984130859375,0.0109594408422708,-0.0136883817613124,0.0350272245705127
1769251359643,-0.020111083984375,-0.0250396728515625,-0.993499755859375,-0.0099969739094376,0.0028128307312726,0.0361042097210884
1769251359653,-0.044830322265625,-0.028839111328125,-0.9864349365234376,-0.039057120680809,0.012361061759293,0.0211018230766057
1769251359663,-0.0549163818359375,-0.0286712646484375,-0.9852752685546876,-0.0589927472174167,0.0139978406950831,0.0053268549963831
1769251359673,-0.05340576171875,-0.0245361328125,-0.9915008544921876,-0.0632125213742256,0.0059476378373801,-0.005960420705378
1769251359683,-0.0381927490234375,-0.0159912109375,-0.9913482666015624,-0.0735336020588874,0.0030453247018158,-0.0007632619817741
1769251359693,-0.0418853759765625,-0.023681640625,-0.9874114990234376,-0.0796500891447067,0.0067564398050308,-0.0071543157100677
1769251359703,-0.0430755615234375,-0.005096435546875,-0.992889404296875,-0.074658527970314,-0.0015558187151327,-0.0122183170169591
1769251359713,-0.0363616943359375,0.0074462890625,-0.996917724609375,-0.067066915333271,-0.0107522467151284,-0.0078635159879922
1769251359723,-0.034423828125,0.0074462890625,-1.0014190673828125,-0.0564441010355949,-0.0125597342848777,-0.0039497343823313
1769251359733,-0.0370635986328125,0.0147705078125,-1.00946044921875,-0.0336122885346412,-0.0023166837636381,0.0060789315029978
1769251359743,-0.03790283203125,0.0207366943359375,-1.00823974609375,-0.0080922814086079,0.0089463572949171,0.0122635904699563
1769251359753,-0.0445404052734375,0.007598876953125,-0.99078369140625,0.0132851786911487,-0.0098856538534164,0.0086976177990436
1769251359764,-0.0400238037109375,-6.103515625e-05,-0.9841766357421876,0.0357803665101528,-0.0289560183882713,0.0133786555379629
1769251359774,-0.027008056640625,-0.0113983154296875,-0.9850006103515624,0.0511920824646949,-0.0316902846097946,0.0221521742641925
1769251359784,-0.021636962890625,-0.02001953125,-0.983795166015625,0.0541130378842353,-0.0192144401371479,0.0287054143846035
1769251359794,-0.0260772705078125,-0.0218505859375,-0.9862518310546876,0.0512538664042949,-0.0024975123815238,0.029257221147418
1769251359804,-0.0274200439453125,-0.0132598876953125,-0.9931182861328124,0.0400544740259647,-0.0052472264505922,0.0347824804484844
1769251359814,-0.0370941162109375,-0.0085601806640625,-0.99908447265625,0.0275695752352476,0.0048448224551975,0.0440963543951511
1769251359824,-0.03729248046875,-0.00762939453125,-1.0042572021484375,0.0122936842963099,0.0130268521606922,0.0568859204649925
1769251359834,-0.0365142822265625,-0.0069427490234375,-1.0050048828125,0.0027475832030177,0.032714270055294,0.0722779259085655
1769251359844,-0.036102294921875,-0.0062713623046875,-1.007904052734375,0.0016215987270697,0.0650133565068245,0.0823105871677398
1769251359854,-0.0323333740234375,-0.002349853515625,-1.00836181640625,0.0062978430651128,0.0781960040330886,0.0934101045131683
1769251359865,-0.02166748046875,-0.001953125,-1.004974365234375,0.0090877711772918,0.0743325501680374,0.1085933223366737
1769251359874,-0.01605224609375,-0.0075836181640625,-0.9971466064453124,0.011083809658885,0.0674197897315025,0.1181599274277687
1769251359884,-0.01995849609375,-0.014007568359375,-0.989837646484375,0.0004724447790067,0.070673368871212,0.1253336817026138
1769251359894,-0.027923583984375,-0.0219879150390625,-0.98052978515625,-0.0168663319200277,0.07320336997509,0.1238985061645507
1769251359904,-0.04180908203125,-0.0188751220703125,-0.9801177978515624,-0.033767282962799,0.0770346000790596,0.1131396070122718
1769251359914,-0.0502471923828125,-0.0142364501953125,-0.982574462890625,-0.0453690811991691,0.0726318582892417,0.1009508520364761
1769251359924,-0.0607757568359375,-0.016693115234375,-0.9772186279296876,-0.0590382851660251,0.0579415969550609,0.0857255533337593
1769251359934,-0.066497802734375,-0.024261474609375,-0.9725189208984376,-0.0633102655410766,0.0328823179006576,0.0660975277423858
1769251359944,-0.0554351806640625,-0.02276611328125,-0.9828643798828124,-0.0581807494163513,0.018450379371643,0.0610907860100269
1769251359955,-0.0372467041015625,-0.0215911865234375,-0.9964752197265624,-0.0463957265019416,0.0134902419522404,0.0604729317128658
1769251359964,-0.0289764404296875,-0.01617431640625,-1.0068206787109375,-0.0387380756437778,0.0162804368883371,0.0623768232762813
1769251359975,-0.0253143310546875,-0.018463134765625,-1.0090179443359375,-0.0339995138347148,0.024221982806921,0.0594915561378002
1769251359985,-0.0207061767578125,-0.0324554443359375,-1.005828857421875,-0.0297986418008804,0.0305009167641401,0.0606785267591476
1769251359995,-0.012664794921875,-0.0246429443359375,-1.0140380859375,-0.031274564564228,0.0409881807863712,0.0616553761065006
1769251360005,-0.026397705078125,-0.0091705322265625,-1.0229644775390625,-0.027040671557188,0.0663198977708816,0.0541535168886184
1769251360015,-0.0482635498046875,0.0145721435546875,-1.013092041015625,-0.01500238571316,0.0386669673025608,0.0372216701507568
1769251360025,-0.0684051513671875,0.0321502685546875,-1.0155181884765625,0.0003336940717417,0.0075721656903624,0.0318644568324089
1769251360035,-0.054412841796875,-0.0216064453125,-0.995269775390625,0.0134127447381615,-0.0009366337326355,0.0613624267280101
1769251360045,-0.0217437744140625,-0.058197021484375,-0.9759674072265624,0.0284659955650568,-0.0185425244271755,0.0699652358889579
1769251360055,-0.009002685546875,-0.05267333984375,-0.9968414306640624,0.0316687151789665,0.0096145439893007,0.0653305351734161
1769251360065,-0.0123138427734375,-0.034332275390625,-1.0165863037109375,0.0305270161479711,0.0656738206744194,0.0585597157478332
1769251360075,-0.0258026123046875,-0.0013275146484375,-1.019744873046875,0.0396488755941391,0.0610835924744606,0.0460881330072879
1769251360085,-0.043914794921875,0.0153961181640625,-1.0048065185546875,0.0533473789691925,-0.0026410568971186,0.0355151183903217
1769251360095,-0.0420379638671875,0.0089263916015625,-0.994171142578125,0.0637832432985305,-0.063786968588829,0.0431032627820968
1769251360105,-0.0274200439453125,-0.0086517333984375,-0.9915313720703124,0.0641795173287391,-0.0901573225855827,0.06178879737854
1769251360115,-0.022247314453125,-0.0261993408203125,-0.9927978515625,0.0572198815643787,-0.049379002302885,0.0747301653027534
1769251360125,-0.0205078125,-0.03118896484375,-0.9964141845703124,0.0467603132128715,0.0065670888870954,0.0745360180735588
1769251360135,-0.0161285400390625,-0.025543212890625,-0.9943084716796876,0.033203225582838,0.0270305518060922,0.0684136748313903
1769251360146,-0.0295257568359375,-0.0233306884765625,-0.9869537353515624,0.0123589318245649,0.0117320232093334,0.0544845461845397
1769251360155,-0.0354156494140625,-0.02215576171875,-0.9843597412109376,-0.0070768180303275,-0.0052472264505922,0.0508357509970665
1769251360166,-0.0316162109375,-0.01708984375,-0.991302490234375,-0.0190692991018295,-0.0102334627881646,0.0530408471822738
1769251360176,-0.03076171875,-0.0225830078125,-0.9897613525390624,-0.0339323990046978,0.0046762446872889,0.0524951666593551
1769251360185,-0.0372467041015625,-0.0290679931640625,-0.9824981689453124,-0.051421646028757,0.013832458294928,0.0424641035497188
1769251360196,-0.036834716796875,-0.02288818359375,-0.9864501953125,-0.0638482198119163,0.0160977430641651,0.028293689712882
1769251360206,-0.0321807861328125,-0.0203857421875,-0.98681640625,-0.0698206275701522,-0.000221042369958,0.0180639550089836
1769251360216,-0.0349884033203125,-0.016571044921875,-0.9857635498046876,-0.0771709531545639,-0.0186083056032657,0.0036211002152413
1769251360226,-0.0380706787109375,-0.020233154296875,-0.9850921630859376,-0.0870374292135238,-0.024712536484003,-0.0049966229125857
1769251360236,-0.0305328369140625,-0.0186920166015625,-0.9931182861328124,-0.0890028402209281,-0.0265096370130777,-0.0089330412447452
1769251360246,-0.0285491943359375,-0.0116424560546875,-1.0018157958984375,-0.0791286379098892,-0.0188413318246603,-0.0051958272233605
1769251360256,-0.0316314697265625,-0.0096588134765625,-1.007659912109375,-0.0579479895532131,-0.0159118548035621,-0.012141884304583
1769251360266,-0.03155517578125,-0.00555419921875,-1.00701904296875,-0.0254036262631416,-0.0404230579733848,-0.0153331495821475
1769251360276,-0.0264129638671875,-0.0082550048828125,-1.00872802734375,-0.0011819108622148,-0.0574379935860633,-0.0229774881154298
1769251360286,-0.0267486572265625,-0.0104522705078125,-1.0071563720703125,0.0166434254497289,-0.0622700303792953,-0.0288108754903078
1769251360296,-0.023529052734375,-0.0076751708984375,-1.00909423828125,0.0314223729074001,-0.0480263829231262,-0.0306356735527515
1769251360306,-0.02374267578125,-0.0128021240234375,-1.004608154296875,0.0371857173740863,-0.0306828115135431,-0.029289711266756
1769251360316,-0.023223876953125,-0.0159454345703125,-0.9981536865234376,0.0360251106321811,-0.0261264089494943,-0.0256361216306686
1769251360326,-0.0265655517578125,-0.0141754150390625,-0.9916839599609376,0.0317454114556312,-0.0264340043067932,-0.017209880053997
1769251360336,-0.02587890625,-0.01190185546875,-0.9866790771484376,0.0222437866032123,-0.0230374094098806,-0.0058560250326991
1769251360346,-0.0223846435546875,-0.010040283203125,-0.9840545654296876,0.0104134920984506,-0.0101687479764223,0.009065399877727
1769251360356,-0.0229949951171875,-0.006927490234375,-0.98284912109375,-0.0038613171782344,-0.0010524812387302,0.0244286432862281
1769251360366,-0.0209503173828125,-0.0048980712890625,-0.980865478515625,-0.0177041627466678,-0.0029561088886111,0.038969237357378
1769251360376,-0.0232391357421875,-0.0016937255859375,-0.9799652099609376,-0.034637339413166,-0.0067825387232005,0.0473075956106185
1769251360387,-0.0172576904296875,-0.003082275390625,-0.97955322265625,-0.0511281639337539,-0.0104515757411718,0.061238057911396
1769251360397,-0.0204315185546875,0.00115966796875,-0.987548828125,-0.0622034519910812,-0.0188096407800912,0.071595087647438
1769251360407,-0.023040771484375,0.0007171630859375,-0.99945068359375,-0.0725274607539177,-0.0072299498133361,0.0792420879006385
1769251360417,-0.029266357421875,-0.007049560546875,-1.0030364990234375,-0.0891346707940101,0.0091783180832862,0.080869548022747
1769251360427,-0.03424072265625,-0.0080718994140625,-0.999664306640625,-0.1045772731304168,0.0060685449279844,0.0801251977682113
1769251360437,-0.051483154296875,0.0001373291015625,-0.998138427734375,-0.1065205857157707,-0.0122912870720028,0.0638226568698883
1769251360447,-0.0697174072265625,-0.001129150390625,-0.99713134765625,-0.1020840257406234,-0.0065993131138384,0.0442087389528751
1769251360457,-0.0593719482421875,-0.0089263916015625,-1.006072998046875,-0.0886457115411758,0.003721501212567,0.0434643849730491
1769251360467,-0.04718017578125,-0.0121307373046875,-1.01116943359375,-0.0676504150032997,0.0034413367975503,0.0446870438754558
1769251360477,-0.04608154296875,-0.012939453125,-1.01641845703125,-0.0460021123290061,0.0087239826098084,0.0394339598715305
1769251360487,-0.0405426025390625,-0.0171356201171875,-1.0199127197265625,-0.0293725356459617,0.0158519335091114,0.0335883200168609
1769251360498,-0.03607177734375,-0.0164794921875,-1.0211181640625,-0.0103772729635238,0.015539544634521,0.0339350625872612
1769251360507,-0.040618896484375,-0.02490234375,-1.0133514404296875,0.0104182865470647,0.0138745363801717,0.0321443527936935
1769251360517,-0.0390777587890625,-0.034149169921875,-1.0025482177734375,0.0183459836989641,0.0163978822529315,0.0349782221019268
1769251360527,-0.0389404296875,-0.0216522216796875,-1.0141448974609375,0.0368834510445594,0.0286558791995048,0.0364088751375675
1769251360538,-0.038299560546875,-0.0020599365234375,-1.0226593017578125,0.0628380849957466,0.02330825291574,0.0397125259041786
1769251360547,-0.0400543212890625,0.007659912109375,-1.0307464599609375,0.0679782480001449,0.025857962667942,0.0446465648710727
1769251360557,-0.05804443359375,0.0003204345703125,-1.0207977294921875,0.0778314173221588,0.0374413803219795,0.0396997407078743
1769251360567,-0.0465850830078125,-0.0438995361328125,-0.98052978515625,0.0797920376062393,0.0094885770231485,0.0345340073108673
1769251360577,-0.0264892578125,-0.065582275390625,-0.9694061279296876,0.0707418173551559,0.001774197909981,0.0234470032155513
1769251360588,-0.033538818359375,-0.0554656982421875,-0.9913177490234376,0.0436494760215282,0.0630564615130424,-0.0029068402945995
1769251360598,-0.0542755126953125,-0.00762939453125,-1.0074310302734375,0.0325912311673164,0.1031391695141792,-0.0414750054478645
1769251360608,-0.0596771240234375,0.02325439453125,-1.0028228759765625,0.0287123378366231,0.0714211836457252,-0.0551657825708389
1769251360618,-0.0418243408203125,0.0223388671875,-0.9888763427734376,0.0229383390396833,0.0070312777534127,-0.0419514440000057
1769251360628,-0.019805908203125,0.0124664306640625,-0.9769134521484376,0.0099394498392939,-0.0378877259790897,-0.0155126471072435
1769251360638,-0.015167236328125,-0.00054931640625,-0.962310791015625,-0.0256230719387531,-0.0428814217448234,-0.0030008498579263
1769251360648,-0.01922607421875,-0.0090179443359375,-0.951507568359375,-0.062089204788208,-0.02406139485538,-0.0003648530691862
1769251360658,-0.0138702392578125,-0.0084686279296875,-0.9521942138671876,-0.0959965735673904,-0.0316447466611862,0.0011238539591431
1769251360668,-0.015228271484375,-0.0075225830078125,-0.954437255859375,-0.1272437125444412,-0.0496823340654373,0.0016016251174733
1769251360678,-0.0221099853515625,-0.0085296630859375,-0.9632415771484376,-0.1653700470924377,-0.0521183274686336,0.0036530580837279
1769251360688,-0.0276031494140625,-0.0111083984375,-0.9744110107421876,-0.2044743150472641,-0.0406973622739315,0.009133843705058
1769251360699,-0.0320587158203125,-0.010406494140625,-0.9830169677734376,-0.2282856404781341,-0.0297070294618606,0.0152756255120038
1769251360708,-0.03509521484375,-0.0064239501953125,-0.99188232421875,-0.2367683351039886,-0.0148519165813922,0.0192653071135282
1769251360718,-0.033660888671875,-0.001800537109375,-0.99639892578125,-0.2377915233373642,-0.0136210033670067,0.0237439442425966
1769251360728,-0.030975341796875,-0.00030517578125,-0.9910125732421876,-0.23336161673069,-0.026044650003314,0.0282377637922763
1769251360738,-0.0307464599609375,0.0063323974609375,-0.99383544921875,-0.2251383066177368,-0.0320266410708427,0.0313717722892761
1769251360748,-0.033050537109375,0.0088043212890625,-0.99322509765625,-0.2272653728723526,-0.0312495324760675,0.0337377227842807
1769251360758,-0.0382843017578125,0.0064697265625,-1.000518798828125,-0.2302822023630142,-0.0199726428836584,0.0358006097376346
1769251360768,-0.0452423095703125,0.013153076171875,-1.009521484375,-0.2168880999088287,-0.0202091317623853,0.0329542197287082
1769251360778,-0.0511322021484375,0.0162353515625,-1.0093994140625,-0.187185600399971,-0.0354386828839778,0.0208104737102985
1769251360788,-0.0554351806640625,0.0219573974609375,-1.022216796875,-0.1408154368400573,-0.0522709265351295,0.006196909584105
1769251360798,-0.048065185546875,0.0235748291015625,-1.027435302734375,-0.1033199951052665,-0.0594247095286846,-0.002012550830841
1769251360809,-0.045562744140625,0.018310546875,-1.0261077880859375,-0.0737301483750343,-0.0558110661804676,-0.0085996137931942
1769251360819,-0.04339599609375,0.0117950439453125,-1.018280029296875,-0.0512876883149147,-0.0404904335737228,-0.0235463380813598
1769251360829,-0.043060302734375,0.0133819580078125,-1.0095672607421875,-0.0370419062674045,-0.0296111553907394,-0.0358016714453697
1769251360839,-0.0449676513671875,0.0113372802734375,-1.00421142578125,-0.0221753437072038,-0.0281365625560283,-0.0416398532688617
1769251360849,-0.0390472412109375,0.018951416015625,-1.007843017578125,-0.0083410209044814,-0.0297626890242099,-0.0301973167806863
1769251360859,-0.0296478271484375,0.0264892578125,-1.0131072998046875,0.0051540154963731,-0.0311334189027547,-0.0143983801826834
1769251360869,-0.0323944091796875,0.026092529296875,-1.0111541748046875,0.0007142598042264,-0.0268396027386188,-0.0022756711114197
1769251360879,-0.0382232666015625,0.0266876220703125,-1.00128173828125,-0.0102869924157857,-0.0044077979400753,0.0053420346230268
1769251360889,-0.045989990234375,0.0236358642578125,-0.9942474365234376,-0.0263288095593452,0.0140473758801817,0.0086321039125323
1769251360900,-0.0529022216796875,0.01934814453125,-0.98590087890625,-0.0452737398445606,0.0032615733798593,0.0075388764962553
1769251360909,-0.04150390625,0.0232696533203125,-0.9900360107421876,-0.0548613853752613,-0.0086131952702999,0.0120204435661435
1769251360919,-0.0416717529296875,0.0245513916015625,-0.998016357421875,-0.0643249303102493,-0.0019715381786227,0.0144798727706074
1769251360929,-0.042266845703125,0.0246734619140625,-1.0007476806640625,-0.0724635496735572,0.0087591363117098,0.0151134394109249
1769251360939,-0.041961669921875,0.0250244140625,-0.999725341796875,-0.078335553407669,0.0124374944716691,0.0186264142394065
1769251360950,-0.0435333251953125,0.0274505615234375,-0.997772216796875,-0.0838139429688453,0.0281035397201776,0.0226320754736661
1769251360959,-0.04718017578125,0.0230712890625,-0.994384765625,-0.0923696085810661,0.0467408746480941,0.0286359060555696
1769251360969,-0.0496673583984375,0.025177001953125,-0.9909820556640624,-0.0975609123706817,0.0446343123912811,0.0302614998072385
1769251360979,-0.0553436279296875,0.0272369384765625,-0.9953460693359376,-0.0999095514416694,0.0472529977560043,0.0243964195251464
1769251360989,-0.06011962890625,0.0276641845703125,-0.99853515625,-0.0986701175570488,0.0502589084208011,0.0185172259807586
1769251361000,-0.0537567138671875,0.0313720703125,-1.001007080078125,-0.0867870897054672,0.0422465242445468,0.0175331868231296
1769251361009,-0.05633544921875,0.03228759765625,-1.001922607421875,-0.0718259885907173,0.0298375245183706,0.0115764951333403
1769251361020,-0.051361083984375,0.0352630615234375,-1.0137481689453125,-0.0491459742188453,0.0442998185753822,0.0120095247402787
1769251361030,-0.0443267822265625,0.0325164794921875,-1.0197906494140625,-0.0243743155151605,0.0599464252591133,0.0226224884390831
1769251361040,-0.0446624755859375,0.028045654296875,-1.0157470703125,-0.0026152241043746,0.0621800161898136,0.0233143772929906
1769251361050,-0.05450439453125,0.0192108154296875,-1.0059814453125,0.0184626299887895,0.0529122166335582,0.0106904609128832
1769251361060,-0.044281005859375,0.0080413818359375,-0.999420166015625,0.0282329693436622,0.0462958589196205,0.0055167381651699
1769251361070,-0.040618896484375,0.017547607421875,-1.0120086669921875,0.0429112464189529,0.0508120469748973,-0.0036384107079356
1769251361080,-0.0475311279296875,0.04290771484375,-1.0203704833984375,0.0772625654935836,0.0568305253982543,-0.0195193719118833
1769251361090,-0.0599365234375,0.072235107421875,-1.016937255859375,0.1095483303070068,0.0394709780812263,-0.0297083612531423
1769251361100,-0.05792236328125,0.0579376220703125,-1.0071258544921875,0.122606873512268,0.0071742897853255,-0.024305872619152
1769251361111,-0.0462493896484375,0.0041961669921875,-0.9696502685546876,0.121430292725563,-0.0171164032071828,-0.0301813390105962
1769251361120,-0.0301513671875,-0.0192108154296875,-0.96136474609375,0.1086796075105667,-0.0241772420704364,-0.0494756735861301
1769251361130,-0.0182952880859375,-0.01611328125,-0.978668212890625,0.0961646139621734,0.0130494888871908,-0.0731783434748649
1769251361140,-0.030364990234375,0.0222930908203125,-1.000457763671875,0.0966106951236724,0.0444745235145092,-0.0984381586313247
1769251361150,-0.045257568359375,0.0528106689453125,-1.0063934326171875,0.1020414158701896,0.023855797946453,-0.105955459177494
1769251361160,-0.0483551025390625,0.05255126953125,-0.9967041015625,0.092366948723793,-0.0135762626305222,-0.0917922407388687
1769251361170,-0.0473480224609375,0.045135498046875,-0.986572265625,0.0779107734560966,-0.0258683487772941,-0.0730009749531745
1769251361180,-0.042816162109375,0.0374603271484375,-0.98211669921875,0.0542544499039649,-0.0271208342164754,-0.0592984780669212
1769251361190,-0.0363616943359375,0.0228118896484375,-0.983673095703125,0.0302106328308582,0.0069138323888182,-0.0540464557707309
1769251361200,-0.0236968994140625,0.012908935546875,-0.9824371337890624,0.008453938178718,0.0261399913579225,-0.047547809779644
1769251361210,-0.0184783935546875,0.002655029296875,-0.97607421875,-0.0205116663128137,0.0156743004918098,-0.043008454144001
1769251361220,-0.02728271484375,-0.0003662109375,-0.9704437255859376,-0.061075072735548,0.0076014604419469,-0.0481688603758811
1769251361231,-0.0422210693359375,0.005767822265625,-0.9722442626953124,-0.0947627276182174,0.0238880217075347,-0.0627688392996788
1769251361241,-0.0433349609375,0.0135040283203125,-0.9821929931640624,-0.1121081635355949,0.0318596623837947,-0.0698653683066368
1769251361251,-0.03765869140625,0.0200347900390625,-0.9927978515625,-0.1101478114724159,0.0347036533057689,-0.0756633356213569
1769251361261,-0.0349578857421875,0.023101806640625,-0.9969940185546876,-0.113002985715866,0.0262736827135086,-0.078572042286396
1769251361271,-0.032623291015625,0.02056884765625,-0.998291015625,-0.1056665107607841,0.0366442985832691,-0.0810772776603698
1769251361281,-0.036407470703125,0.019866943359375,-0.99261474609375,-0.0906822308897972,0.0300630945712327,-0.0882624834775924
1769251361291,-0.035919189453125,0.02288818359375,-0.990692138671875,-0.0800381079316139,0.0132612101733684,-0.0930713564157486
1769251361301,-0.025726318359375,0.0269012451171875,-0.9984283447265624,-0.064795508980751,0.0093210637569427,-0.0895589143037796
1769251361311,-0.02325439453125,0.0299530029296875,-1.00091552734375,-0.0504325479269027,-0.0020370518323034,-0.0857455283403396
1769251361321,-0.0316009521484375,0.0360565185546875,-0.9993438720703124,-0.0321305058896541,-0.0064850635826587,-0.0917128771543502
1769251361331,-0.042449951171875,0.039398193359375,-0.9915313720703124,-0.024851020425558,-0.000479368987726,-0.1010158285498619
1769251361341,-0.044677734375,0.0328216552734375,-0.9830169677734376,-0.0187662299722433,-0.0046592000871896,-0.1064558699727058
1769251361351,-0.0291595458984375,0.0333709716796875,-0.9817352294921876,-0.0143328662961721,-0.013791712000966,-0.100707434117794
1769251361361,-0.0264434814453125,0.035491943359375,-0.9832916259765624,-0.0168154649436473,-0.0094752609729766,-0.0987502783536911
1769251361371,-0.020782470703125,0.0373077392578125,-0.9871063232421876,-0.0151264881715178,-0.0035028557758778,-0.0843694731593132
1769251361381,-0.01629638671875,0.037872314453125,-0.992095947265625,-0.0170660689473152,-0.0023768711835145,-0.0684890449047088
1769251361391,-0.01593017578125,0.0366668701171875,-0.9915008544921876,-0.0224355347454547,0.0109040467068552,-0.0464902706444263
1769251361401,-0.0225982666015625,0.0351715087890625,-0.9903717041015624,-0.0281011424958705,0.0195156447589397,-0.0291642770171165
1769251361411,-0.0236358642578125,0.0387115478515625,-0.9933013916015624,-0.0326037481427192,0.0186788793653249,-0.0070451265200972
1769251361421,-0.028289794921875,0.037841796875,-0.99462890625,-0.0381788089871406,0.0194687731564044,0.0078877508640289
1769251361432,-0.0377197265625,0.03765869140625,-0.9920654296875,-0.047300137579441,0.0194767620414495,0.0179536994546651
1769251361442,-0.0401458740234375,0.0375213623046875,-0.987762451171875,-0.0511345565319061,0.0136987678706645,0.0210424344986677
1769251361452,-0.04046630859375,0.03717041015625,-0.9850616455078124,-0.0552989430725574,0.004710332956165,0.0222547054290771
1769251361462,-0.037384033203125,0.0387420654296875,-0.9842071533203124,-0.0575863309204578,0.0029976540245115,0.0173172056674957
1769251361472,-0.04046630859375,0.0365142822265625,-0.9869384765625,-0.0631802976131439,0.0051899682730436,0.0098241344094276
1769251361482,-0.0374603271484375,0.0306854248046875,-0.9891357421875,-0.0678243190050125,0.0082728434354066,0.0082448804751038
1769251361492,-0.037750244140625,0.0293426513671875,-0.9965972900390624,-0.0669111236929893,0.0095556881278753,0.0050887679681181
1769251361502,-0.032440185546875,0.0327606201171875,-1.0062103271484375,-0.0574406571686267,0.0152540542185306,0.0080579267814755
1769251361512,-0.0354461669921875,0.0328521728515625,-1.0116729736328125,-0.0488399788737297,0.0259093604981899,0.0065375277772545
1769251361522,-0.046722412109375,0.0307769775390625,-1.0111236572265625,-0.0354834236204624,0.0386925339698791,-0.0022122878581285
1769251361532,-0.047149658203125,0.03179931640625,-1.01116943359375,-0.0132247256115078,0.037066675722599,-0.0082906866446137
1769251361542,-0.0433349609375,0.0319061279296875,-1.011627197265625,0.0105194859206676,0.0178016331046819,-0.0137680098414421
1769251361552,-0.0482635498046875,0.031707763671875,-1.01104736328125,0.0294814594089984,0.0056632119230926,-0.0235098525881767
1769251361562,-0.0480499267578125,0.0319366455078125,-1.0057373046875,0.0452183447778224,-0.0114103136584162,-0.0300966501235961
1769251361572,-0.0396270751953125,0.031036376953125,-1.000701904296875,0.0602023527026176,-0.0292348507791757,-0.0291312541812658
1769251361582,-0.02825927734375,0.0265960693359375,-0.9973907470703124,0.0771232768893241,-0.0331574194133281,-0.0251402407884597
1769251361592,-0.025115966796875,0.0142059326171875,-0.9890899658203124,0.0752888917922973,-0.0140985082834959,-0.0315046645700931
1769251361602,-0.0228118896484375,0.018463134765625,-0.994384765625,0.0667832940816879,0.0172197334468364,-0.0288726612925529
1769251361612,-0.029510498046875,0.0433807373046875,-1.0012359619140625,0.0635776445269584,0.0228017196059227,-0.0305677633732557
1769251361622,-0.05230712890625,0.0880126953125,-1.0030517578125,0.068690650165081,-0.0164703205227851,-0.0396217107772827
1769251361632,-0.0561981201171875,0.074371337890625,-0.99871826171875,0.069803848862648,-0.0620785504579544,-0.0237189121544361
1769251361642,-0.035400390625,0.0130157470703125,-0.9727935791015624,0.0733639597892761,-0.0902318954467773,-0.0084651233628392
1769251361653,-0.01629638671875,-0.003662109375,-0.97064208984375,0.0767722725868225,-0.0675105974078178,-0.017026387155056
1769251361663,-0.02008056640625,-0.0069427490234375,-0.9867095947265624,0.0533588305115699,0.0110635701566934,-0.0404883027076721
1769251361673,-0.041473388671875,0.0262298583984375,-1.0027618408203125,0.043917391449213,0.0519087389111518,-0.0668613240122795
1769251361683,-0.0608673095703125,0.062042236328125,-1.007781982421875,0.0541308782994747,0.0150444628670811,-0.075902484357357
1769251361693,-0.0542449951171875,0.0702362060546875,-1.0022735595703125,0.0671247094869613,-0.0502597093582153,-0.0610223412513732
1769251361703,-0.03875732421875,0.058135986328125,-0.9928741455078124,0.0746891498565673,-0.0890100300312042,-0.0314292944967746
1769251361713,-0.027618408203125,0.040008544921875,-0.983551025390625,0.0655928552150726,-0.0818730294704437,-0.0141669511795043
1769251361723,-0.021697998046875,0.0242919921875,-0.9763946533203124,0.0502205602824687,-0.0400520786643028,-0.0075703016482293
1769251361733,-0.0125885009765625,0.0177459716796875,-0.9768524169921876,0.0409937724471092,-0.0100635532289743,-0.003597131697461
1769251361743,-0.001190185546875,0.015167236328125,-0.9817962646484376,0.0340003110468387,-0.0179635547101497,0.0048725195229053
1769251361753,-0.0086517333984375,0.009552001953125,-0.983489990234375,0.0116369482129812,-0.0413916483521461,0.0036756948102265
1769251361763,-0.0258331298828125,0.012054443359375,-0.9864959716796876,-0.0099136168137192,-0.0584529228508472,-0.005339637864381
1769251361773,-0.031158447265625,0.012451171875,-0.9942626953125,-0.0261575672775506,-0.0527433715760707,-0.012490757741034
1769251361784,-0.0360107421875,0.0101165771484375,-0.9974212646484376,-0.0379931889474391,-0.0290063507854938,-0.0134369796141982
1769251361793,-0.03271484375,0.0157470703125,-1.0001220703125,-0.0404883027076721,-0.0120691796764731,-0.0078161116689443
1769251361803,-0.035614013671875,0.0192108154296875,-0.996429443359375,-0.0493366569280624,-0.0009214537567459,-0.0018487664638087
1769251361813,-0.0308990478515625,0.0194854736328125,-0.9922027587890624,-0.0541689619421958,-0.0011739213950932,0.0123807694762945
1769251361823,-0.0291900634765625,0.0232696533203125,-0.9886474609375,-0.0539018474519252,-0.004031759686768,0.0199574623256921
1769251361833,-0.0297393798828125,0.0267181396484375,-0.99383544921875,-0.055356465280056,-0.0045758434571325,0.025214809924364
1769251361843,-0.028900146484375,0.02490234375,-1.000885009765625,-0.0527130104601383,0.0079229045659303,0.0304063744843006
1769251361853,-0.0339508056640625,0.02197265625,-1.0023651123046875,-0.0455054342746734,0.0085452850908041,0.0294106192886829
1769251361863,-0.043701171875,0.0264892578125,-1.0012359619140625,-0.0357832983136177,-0.0019345202017575,0.0150418002158403
1769251361873,-0.047271728515625,0.025848388671875,-1.0015411376953125,-0.0254853870719671,-0.0101141529157757,0.0036341496743261
1769251361884,-0.039703369140625,0.019744873046875,-1.0019073486328125,-0.0144476490095257,-0.025376996025443,0.0010050770360976
1769251361894,-0.034820556640625,0.01531982421875,-1.0019073486328125,-0.0038205708842724,-0.0322237163782119,-0.0013675332302227
1769251361904,-0.0292205810546875,0.0174713134765625,-1.0037841796875,0.0049699912779033,-0.0299512408673763,6.01874417043291e-05
1769251361914,-0.025238037109375,0.0198822021484375,-1.002288818359375,0.0075750951655209,-0.0170106757432222,0.0044757085852324
1769251361924,-0.021728515625,0.0224761962890625,-0.998504638671875,0.0048775793984532,-0.0029718214645981,0.0147981205955147
1769251361934,-0.01849365234375,0.026275634765625,-0.9933929443359376,-0.0045806369744241,0.0091381045058369,0.0266435947269201
1769251361944,-0.0231475830078125,0.0281829833984375,-0.9876556396484376,-0.0178889855742454,0.015794675797224,0.0389801561832428
1769251361954,-0.0289154052734375,0.03448486328125,-0.9878692626953124,-0.0339872613549232,0.0158479381352663,0.0522671975195407
1769251361964,-0.0308685302734375,0.035858154296875,-0.9929962158203124,-0.0471954755485057,0.0123690515756607,0.067576915025711
1769251361974,-0.0312957763671875,0.030303955078125,-0.9925079345703124,-0.0572137534618377,0.0163462162017822,0.0775941237807273
1769251361984,-0.0357513427734375,0.028289794921875,-0.994537353515625,-0.0617118328809738,0.0184865985065698,0.0815012529492378
1769251361994,-0.0401153564453125,0.02557373046875,-0.9942779541015624,-0.0648599565029144,0.0126801086589694,0.082406461238861
1769251362004,-0.0493011474609375,0.0233917236328125,-0.9929962158203124,-0.0677335038781166,-0.0009683253592811,0.0686243325471878
1769251362014,-0.0496978759765625,0.0283050537109375,-0.993743896484375,-0.0644967034459114,-0.0111698303371667,0.0597320385277271
1769251362024,-0.0465240478515625,0.0327301025390625,-0.9982147216796876,-0.0606604181230068,-0.0099538303911685,0.0572539679706096
1769251362034,-0.0409393310546875,0.037567138671875,-1.004119873046875,-0.0525875762104988,-0.0207979567348957,0.06226097792387
1769251362044,-0.0438079833984375,0.0335693359375,-1.0010223388671875,-0.055144477635622,-0.0243383627384901,0.057217750698328
1769251362055,-0.0433807373046875,0.0316619873046875,-0.9984283447265624,-0.0580752864480018,-0.0243159923702478,0.0580332092940807
1769251362065,-0.038818359375,0.030120849609375,-0.99359130859375,-0.0593562684953212,-0.0252619478851556,0.0570763349533081
1769251362075,-0.044952392578125,0.0270538330078125,-0.9903564453125,-0.0616417936980724,-0.0137333888560533,0.0538832060992717
1769251362085,-0.045562744140625,0.0267181396484375,-0.9879913330078124,-0.0633885562419891,-0.0005067995516583,0.0525457672774791
1769251362095,-0.0431671142578125,0.025634765625,-0.9852294921875,-0.0652330666780471,-0.0060392501763999,0.0556502118706703
1769251362105,-0.041229248046875,0.0194549560546875,-0.9830169677734376,-0.0628692433238029,-0.0127725200727581,0.0606654770672321
1769251362115,-0.034942626953125,0.015045166015625,-0.9902191162109376,-0.0652469098567962,-0.0115003287792205,0.0633065328001976
1769251362125,-0.042510986328125,0.0255584716796875,-1.002044677734375,-0.0633643269538879,-0.0065638930536806,0.048912413418293
1769251362135,-0.063568115234375,0.0428009033203125,-1.0035247802734375,-0.0634985491633415,-0.0270931366831064,0.0193449351936578
1769251362145,-0.0666046142578125,0.064453125,-1.024627685546875,-0.056803360581398,-0.0358874276280403,0.0060270000249147
1769251362155,-0.0516204833984375,0.046478271484375,-1.024932861328125,-0.0339451842010021,-0.0437751784920692,0.0318753756582737
1769251362165,-0.0277099609375,0.000518798828125,-0.9897918701171876,-0.022897059097886,-0.0636005476117134,0.0558376982808113
1769251362175,-0.01385498046875,-0.0212249755859375,-0.9865570068359376,-0.0368666723370552,-0.0431794300675392,0.0567516945302486
1769251362185,-0.024169921875,-0.0173492431640625,-0.99432373046875,-0.06184658780694,0.0211827829480171,0.0377473793923854
1769251362195,-0.0395355224609375,0.0139923095703125,-1.0082855224609375,-0.065544918179512,0.0607927776873111,0.0180634222924709
1769251362205,-0.05096435546875,0.0404052734375,-1.0130462646484375,-0.0542946644127368,0.0371670760214328,0.0148756187409162
1769251362216,-0.0597381591796875,0.0390777587890625,-1.00665283203125,-0.0437107272446155,-0.0078304922208189,0.0202288385480642
1769251362225,-0.0639801025390625,0.03314208984375,-1.0027313232421875,-0.0420201532542705,-0.0346125699579715,0.0242693871259689
1769251362235,-0.0637054443359375,0.0223846435546875,-1.0020294189453125,-0.0494301319122314,-0.0163305029273033,0.0179140195250511
1769251362245,-0.057708740234375,0.017120361328125,-1.0011138916015625,-0.0542472600936889,0.0182916559278965,0.0059191416949033
1769251362255,-0.0565032958984375,0.0269317626953125,-1.00225830078125,-0.0511846244335174,0.025192704051733,-0.0152734946459531
1769251362265,-0.0546417236328125,0.03936767578125,-1.001556396484375,-0.0439954213798046,0.0018200043123215,-0.031299065798521
1769251362275,-0.0522918701171875,0.0407867431640625,-0.998382568359375,-0.039023034274578,-0.0207084733992815,-0.039044339209795
1769251362286,-0.052703857421875,0.0377960205078125,-0.998687744140625,-0.0418198853731155,-0.0147121008485555,-0.0397210456430912
1769251362296,-0.0471954345703125,0.0335540771484375,-0.99798583984375,-0.0543545857071876,0.0028828717768192,-0.0390243642032146
1769251362306,-0.0488739013671875,0.0331878662109375,-0.9968414306640624,-0.0618796125054359,0.0163789726793766,-0.0467110462486743
1769251362316,-0.04315185546875,0.03912353515625,-0.999847412109375,-0.0586625151336193,0.017454357817769,-0.0447797216475009
1769251362326,-0.0378570556640625,0.0439453125,-1.001739501953125,-0.05246427282691,0.0084558026865124,-0.043886762112379
1769251362336,-0.04437255859375,0.0408172607421875,-0.9972686767578124,-0.0509257651865482,-0.0087428912520408,-0.0469451397657394
1769251362346,-0.048126220703125,0.0420379638671875,-0.99700927734375,-0.0463331453502178,-0.0085748462006449,-0.0537990480661392
1769251362356,-0.0412445068359375,0.038177490234375,-1.001007080078125,-0.0446042194962501,-0.0115384114906191,-0.0524581484496593
1769251362366,-0.03753662109375,0.043670654296875,-1.0097198486328125,-0.0355225726962089,-0.0052861082367599,-0.053048837929964
1769251362376,-0.0338134765625,0.0503082275390625,-1.020050048828125,-0.0140303317457437,-0.0025486452504992,-0.0435426831245422
1769251362386,-0.034088134765625,0.0498504638671875,-1.0163421630859375,0.0029278793372213,0.0087671261280775,-0.0454172827303409
1769251362396,-0.0427093505859375,0.0450592041015625,-1.005035400390625,0.0133450999855995,0.0120609235018491,-0.0485845804214477
1769251362406,-0.0417327880859375,0.038818359375,-0.9869842529296876,0.0088893650099635,0.0015954998089,-0.0493710115551948
1769251362416,-0.043701171875,0.032501220703125,-0.9805755615234376,0.00054035539506,0.0034261567052453,-0.0504445321857929
1769251362426,-0.0396575927734375,0.034698486328125,-0.9805450439453124,-0.0112923355773091,0.0304148979485034,-0.0517015419900417
1769251362436,-0.059600830078125,0.0452728271484375,-0.9797821044921876,-0.0240840315818786,0.047031957656145,-0.0677516162395477
1769251362446,-0.059967041015625,0.0582427978515625,-0.9840087890625,-0.0364637337625026,0.0320335663855075,-0.0736784785985946
1769251362456,-0.0477752685546875,0.0633392333984375,-0.9922943115234376,-0.0416651554405689,0.0173520930111408,-0.0601717270910739
1769251362466,-0.0411376953125,0.0630645751953125,-0.9981842041015624,-0.0473406165838241,0.014224742539227,-0.04856513813138
1769251362476,-0.041351318359375,0.0597991943359375,-0.9956512451171876,-0.0571865886449813,0.0107077714055776,-0.0385513864457607
1769251362487,-0.041656494140625,0.053314208984375,-0.991302490234375,-0.0640732571482658,0.0196626503020524,-0.0372347198426723
1769251362497,-0.042083740234375,0.044219970703125,-0.98809814453125,-0.0700725615024566,0.0329030901193618,-0.0367396399378776
1769251362507,-0.038482666015625,0.043670654296875,-0.9885711669921876,-0.0718560814857482,0.0261410567909479,-0.0376033000648021
1769251362517,-0.0413665771484375,0.045440673828125,-0.993927001953125,-0.0703236982226371,0.0161472782492637,-0.0418534390628337
1769251362527,-0.04107666015625,0.050384521484375,-1.0003662109375,-0.0685761347413063,0.0146234175190329,-0.046226616948843
1769251362537,-0.0395355224609375,0.056671142578125,-1.009307861328125,-0.0560251846909523,0.0273884814232587,-0.0432361550629138
1769251362547,-0.032257080078125,0.060089111328125,-1.0128631591796875,-0.0476889573037624,0.02725425735116,-0.038201980292797
1769251362557,-0.03887939453125,0.06024169921875,-1.007049560546875,-0.045688658952713,-0.0012881710426881,-0.0374469757080078
1769251362567,-0.0419464111328125,0.0585174560546875,-1.0035400390625,-0.0432603880763053,-0.0049713226035237,-0.0312748327851295
1769251362577,-0.0341033935546875,0.0482177734375,-0.9974822998046876,-0.0430105850100517,-0.0003874899412039,-0.0197159145027399
1769251362587,-0.03924560546875,0.049102783203125,-0.9893035888671876,-0.0436947494745254,0.0040296288207173,-0.0230251587927341
1769251362597,-0.0410614013671875,0.0523834228515625,-0.9962005615234376,-0.0375258028507232,0.0176519639790058,-0.0233639124780893
1769251362607,-0.033294677734375,0.0531158447265625,-0.99945068359375,-0.0306505877524614,0.0321874991059303,-0.0170000232756137
1769251362618,-0.0376434326171875,0.0576629638671875,-1.0019073486328125,-0.0249961633235216,0.0432382859289646,-0.0088843051344156
1769251362627,-0.0382080078125,0.0547943115234375,-0.999267578125,-0.0096299899742007,0.0421951226890087,-0.0079993372783064
1769251362637,-0.0319976806640625,0.040191650390625,-0.9866485595703124,-0.0123634589836001,0.036251213401556,0.0043095271103084
1769251362647,-0.0397796630859375,0.041290283203125,-0.9885406494140624,-0.0226880013942718,0.0547444708645343,-0.0029473204631358
1769251362657,-0.0562591552734375,0.063873291015625,-0.992156982421875,-0.0217979736626148,0.0671446844935417,-0.0216104872524738
1769251362667,-0.060211181640625,0.095306396484375,-0.9995269775390624,-0.0143858632072806,0.0332120135426521,-0.030148047953844
1769251362677,-0.0597076416015625,0.09344482421875,-1.0088043212890625,-0.0075023910030722,0.0067489827051758,-0.0168519504368305
1769251362687,-0.0513458251953125,0.043701171875,-0.990814208984375,0.0015094797126948,0.009507218375802,-0.0072600431740283
1769251362700,-0.03045654296875,0.025665283203125,-0.9837799072265624,0.0204307064414024,0.0067929248325526,-0.0272657088935375
1769251362707,-0.0240936279296875,0.0196685791015625,-0.993316650390625,0.0204307064414024,0.0067929248325526,-0.0272657088935375
1769251362718,-0.0326995849609375,0.0501708984375,-1.01593017578125,0.0323779135942459,0.0592542700469493,-0.0512450784444808
1769251362728,-0.0495758056640625,0.077392578125,-1.0194091796875,0.0502815470099449,0.0596617311239242,-0.0571208111941814
1769251362738,-0.0478363037109375,0.0816802978515625,-1.0113677978515625,0.0609243363142013,0.015286810696125,-0.0277575943619012
1769251362748,-0.0448455810546875,0.0765533447265625,-1.00238037109375,0.0629986748099327,-0.0330064184963703,-0.0028226843569427
1769251362758,-0.0479583740234375,0.071380615234375,-0.997344970703125,0.0685151442885398,-0.0169448945671319,0.0044450820423662
1769251362768,-0.0482635498046875,0.060211181640625,-0.994659423828125,0.0701822862029075,0.0062882560305297,0.0031009847298264
1769251362778,-0.0351409912109375,0.0516357421875,-0.993438720703125,0.0709679126739502,0.0022865901701152,0.0084390249103307
1769251362788,-0.0314178466796875,0.0397796630859375,-0.9871673583984376,0.0617906637489795,-0.0026557042729109,0.0038277613930404
1769251362798,-0.03802490234375,0.0325469970703125,-0.9825897216796876,0.0493893884122371,-0.0111053818836808,-0.0046019423753023
1769251362808,-0.032501220703125,0.0370941162109375,-0.9837799072265624,0.0409956350922584,-0.0072829467244446,-0.0104238791391253
1769251362818,-0.040283203125,0.0449371337890625,-0.983154296875,0.0264811422675848,-0.0076904101297259,-0.0275330916047096
1769251362828,-0.052947998046875,0.0512847900390625,-0.9789276123046876,0.0191558506339788,0.0005472796037793,-0.0370307229459285
1769251362838,-0.0601654052734375,0.05078125,-0.9726715087890624,0.0126846358180046,0.0010207896120846,-0.0484476946294307
1769251362848,-0.063629150390625,0.0492401123046875,-0.970001220703125,0.0085460841655731,-0.0116476016119122,-0.0548219680786132
1769251362858,-0.0560760498046875,0.0552520751953125,-0.9766082763671876,0.015166969038546,-0.0214541591703891,-0.0589125864207744
1769251362868,-0.052886962890625,0.0628662109375,-0.9879913330078124,0.0305211581289768,-0.0258363913744688,-0.066961720585823
1769251362878,-0.05084228515625,0.06402587890625,-0.9899444580078124,0.0453139506280422,-0.0453592240810394,-0.0774431228637695
1769251362888,-0.0461578369140625,0.060577392578125,-0.99462890625,0.0609024986624717,-0.0480894967913627,-0.0779235586524009
1769251362899,-0.0416259765625,0.059661865234375,-0.9960174560546876,0.0801771283149719,-0.0440193898975849,-0.0787925496697425
1769251362909,-0.0434112548828125,0.0538482666015625,-0.9866485595703124,0.0951566100120544,-0.0524874441325664,-0.0807185471057891
1769251362919,-0.042449951171875,0.04833984375,-0.9813079833984376,0.1045461148023605,-0.0568869858980178,-0.088284857571125
1769251362929,-0.0482940673828125,0.0419464111328125,-0.97918701171875,0.1019724383950233,-0.0612100958824157,-0.1022304967045784
1769251362939,-0.0412139892578125,0.042816162109375,-0.979339599609375,0.0967553034424781,-0.0693604350090026,-0.1063165888190269
1769251362949,-0.0380401611328125,0.04937744140625,-0.9859466552734376,0.0965497121214866,-0.0600060783326625,-0.1070212572813034
1769251362959,-0.03900146484375,0.0538787841796875,-0.98968505859375,0.0903400182723999,-0.0445858426392078,-0.0988490805029869
1769251362969,-0.03387451171875,0.06048583984375,-0.990447998046875,0.0873820409178733,-0.0392874851822853,-0.0793824419379234
1769251362979,-0.0331878662109375,0.0672149658203125,-0.988250732421875,0.082365445792675,-0.0449064895510673,-0.0592566654086113
1769251362989,-0.0304107666015625,0.0649871826171875,-0.9852752685546876,0.0692893266677856,-0.0541929304599761,-0.0338924527168273
1769251363000,-0.0307464599609375,0.0578765869140625,-0.981292724609375,0.0477166548371315,-0.0525614768266677,-0.0157400816679
1769251363009,-0.0345611572265625,0.0511016845703125,-0.98260498046875,0.0217588245868682,-0.0408552885055542,-0.0060682790353894
1769251363019,-0.0394439697265625,0.0453033447265625,-0.9826202392578124,-0.003221892286092,-0.0324293114244937,0.001291633117944
1769251363029,-0.03704833984375,0.037384033203125,-0.9834136962890624,-0.0151472613215446,-0.0029308088123798,0.0063372580334544
1769251363039,-0.037322998046875,0.033782958984375,-0.9844818115234376,-0.0260148234665393,0.0083527388051152,0.0131573472172021
1769251363049,-0.0432891845703125,0.0344696044921875,-0.979339599609375,-0.0378112941980361,0.002895388752222,0.0151336789131164
1769251363059,-0.0506439208984375,0.0345458984375,-0.9770355224609376,-0.0490556918084621,-0.0102036353200674,0.0129544148221611
1769251363069,-0.054412841796875,0.0333709716796875,-0.977264404296875,-0.0573314651846885,-0.0142274051904678,0.0122073972597718
1769251363079,-0.056243896484375,0.0333404541015625,-0.9822540283203124,-0.0635949522256851,-0.0192314852029085,0.0124614629894495
1769251363089,-0.051727294921875,0.0364532470703125,-0.9907684326171876,-0.0612037032842636,-0.0203265771269798,0.0147938597947359
1769251363099,-0.0527801513671875,0.03857421875,-0.9966888427734376,-0.0550326257944107,-0.0199326947331428,0.0146604357287287
1769251363110,-0.05267333984375,0.0391082763671875,-1.00604248046875,-0.0407112091779708,-0.0217279326170682,0.0140977092087268
1769251363120,-0.0452117919921875,0.043060302734375,-1.016082763671875,-0.0212453678250312,-0.0274278949946165,0.0168934967368841
1769251363130,-0.043121337890625,0.041839599609375,-1.0193023681640625,-0.0059215384535491,-0.0366789177060127,0.0195539947599172
1769251363140,-0.044281005859375,0.036834716796875,-1.0173187255859375,0.007169762160629,-0.036683976650238,0.0203151255846023
1769251363150,-0.0469818115234375,0.030487060546875,-1.0063323974609375,0.0207691937685012,-0.0385908000171184,0.0163850989192724
1769251363160,-0.0403289794921875,0.01531982421875,-0.998260498046875,0.0250688679516315,-0.0356227084994316,0.0157323572784662
1769251363170,-0.0351715087890625,0.0228729248046875,-1.0094757080078125,0.0262174885720014,-0.0099213402718305,0.0159081257879734
1769251363180,-0.0433197021484375,0.05224609375,-1.023101806640625,0.0413226708769798,0.0009499495499767,0.0109011167660355
1769251363190,-0.0585784912109375,0.08770751953125,-1.02801513671875,0.0581530518829822,-0.0201918203383684,0.0068376660346984
1769251363200,-0.0576019287109375,0.0733184814453125,-1.0282440185546875,0.0693021118640899,-0.0327222608029842,0.0342314727604389
1769251363210,-0.044281005859375,0.016693115234375,-0.9909210205078124,0.0817832797765731,-0.0485097467899322,0.0513310991227626
1769251363220,-0.0333251953125,-0.0059661865234375,-0.973907470703125,0.082897812128067,-0.0405114740133285,0.0464793518185615
1769251363230,-0.029815673828125,-0.00482177734375,-0.9881591796875,0.0643204003572464,0.0146388635039329,0.0314189083874225
1769251363240,-0.0408935546875,0.0300750732421875,-1.0120849609375,0.0582159012556076,0.0576457194983959,0.018795259296894
1769251363250,-0.06072998046875,0.0684661865234375,-1.0249786376953125,0.074632428586483,0.0550065264105796,0.0138191431760787
1769251363260,-0.0643463134765625,0.0753021240234375,-1.020263671875,0.096662625670433,0.0076738987118005,0.0241458155214786
1769251363270,-0.0587310791015625,0.05712890625,-1.00048828125,0.1004120931029319,-0.0443227216601371,0.037666417658329
1769251363280,-0.0519561767578125,0.0416259765625,-0.9840240478515624,0.091834045946598,-0.0564707331359386,0.0442151315510273
1769251363290,-0.0545806884765625,0.022430419921875,-0.9716033935546876,0.0674397572875022,-0.0442886352539062,0.0381449870765209
1769251363300,-0.046722412109375,0.015533447265625,-0.96783447265625,0.0438327006995677,-0.0267131030559539,0.0398004092276096
1769251363310,-0.0406036376953125,0.0115203857421875,-0.9677581787109376,0.0185627657920122,-0.0142058338969945,0.0402382314205169
1769251363320,-0.039520263671875,0.0111846923828125,-0.9662933349609376,-0.0094717983156442,-0.0103197488933801,0.0425700955092906
1769251363331,-0.0364990234375,0.02020263671875,-0.9752655029296876,-0.031244471669197,0.0006514092092402,0.0495811365544796
1769251363341,-0.042236328125,0.0228424072265625,-0.981201171875,-0.0497270748019218,0.0144220823422074,0.0566326528787612
1769251363351,-0.0515594482421875,0.021697998046875,-0.984588623046875,-0.0602020882070064,0.0216546952724456,0.0610441789031028
1769251363361,-0.053009033203125,0.0287933349609375,-0.994354248046875,-0.0570979081094265,0.0252001620829105,0.0664272233843803
1769251363371,-0.055694580078125,0.027191162109375,-0.9996795654296876,-0.0588955394923687,0.0281943529844284,0.0704773589968681
1769251363381,-0.0648193359375,0.0201873779296875,-0.9957733154296876,-0.061882808804512,0.0225111674517393,0.0651190802454948
1769251363391,-0.0619049072265625,0.0299224853515625,-0.9980010986328124,-0.0544472634792327,0.0092065474018454,0.065533734858036
1769251363401,-0.0472564697265625,0.0349273681640625,-1.011016845703125,-0.0389833524823188,-0.0017204020405188,0.0694616287946701
1769251363411,-0.0400238037109375,0.0313262939453125,-1.01776123046875,-0.0226864032447338,-0.0016106797847896,0.0819752961397171
1769251363421,-0.042083740234375,0.031524658203125,-1.018798828125,-0.0088619347661733,-0.006130862981081,0.0865311622619628
1769251363431,-0.051055908203125,0.03173828125,-1.0094757080078125,0.0075473985634744,-0.0134292561560869,0.0781318172812461
1769251363441,-0.0558929443359375,0.028564453125,-1.006072998046875,0.0261860638856887,-0.0103234779089689,0.0729072317481041
1769251363451,-0.0539093017578125,0.0244140625,-1.0,0.0400057397782802,-0.0062339273281395,0.0656224191188812
1769251363461,-0.0561370849609375,0.0258026123046875,-0.99786376953125,0.0506461337208747,-0.0084896245971322,0.0602396391332149
1769251363471,-0.0527496337890625,0.0302581787109375,-1.0012054443359375,0.064802162349224,-0.0085514103993773,0.0583693012595176
1769251363481,-0.0518341064453125,0.033843994140625,-1.0027923583984375,0.0738907381892204,-0.0053452304564416,0.0573857948184013
1769251363491,-0.04840087890625,0.0332489013671875,-1.001708984375,0.079340361058712,-0.0120785003527998,0.062060173600912
1769251363501,-0.049468994140625,0.029449462890625,-0.996826171875,0.072731465101242,-0.0220102276653051,0.0614979825913906
1769251363511,-0.0336456298828125,0.036285400390625,-0.9947662353515624,0.0752444192767143,-0.0383654981851577,0.0953691303730011
1769251363521,-0.0401763916015625,0.02130126953125,-0.990020751953125,0.0621493905782699,-0.0487779267132282,0.0689718797802925
1769251363532,-0.0958251953125,0.0064239501953125,-0.965118408203125,0.0225497838109731,-0.0150681650266051,0.0391119830310344
1769251363542,-0.052978515625,0.0336761474609375,-0.9806976318359376,0.0043161851353943,0.0107336044311523,0.0421061739325523
1769251363552,-0.0517425537109375,0.024017333984375,-0.981414794921875,-0.006859237793833,0.0029491845052689,0.0575873963534832
1769251363562,-0.0438232421875,0.0226898193359375,-0.9841766357421876,-0.0214973017573356,0.0038229676429182,0.0681976974010467
1769251363572,-0.0412139892578125,0.0177459716796875,-0.990753173828125,-0.0309874769300222,-0.0039385487325489,0.0756785124540329
1769251363582,-0.0452117919921875,0.0174713134765625,-0.9889984130859376,-0.0428611822426319,-0.0044054011814296,0.0744305551052093
1769251363592,-0.0489044189453125,0.01904296875,-0.992706298828125,-0.0539207570254802,0.0054062171839177,0.0745107159018516
1769251363602,-0.049346923828125,0.023345947265625,-0.9957275390625,-0.0656242817640304,0.0193081833422184,0.0732329338788986
1769251363612,-0.0584716796875,0.01751708984375,-0.9910430908203124,-0.0840983688831329,0.0301469825208187,0.0695654973387718
1769251363622,-0.06707763671875,0.0084381103515625,-0.9880218505859376,-0.105798065662384,0.0277786348015069,0.0599160641431808
1769251363632,-0.07061767578125,-0.0020294189453125,-0.9826507568359376,-0.1273275911808014,0.0259607601910829,0.0414622202515602
1769251363642,-0.0649261474609375,-0.004913330078125,-0.9886627197265624,-0.1436037719249725,0.0327414348721504,0.0300865303725004
1769251363652,-0.054534912109375,-0.0008392333984375,-0.9972991943359376,-0.1503964215517044,0.0437445528805255,0.022564698010683
1769251363662,-0.0498504638671875,0.0070037841796875,-1.005340576171875,-0.1486243605613708,0.0550989396870136,0.0210301838815212
1769251363672,-0.049530029296875,0.0146331787109375,-1.004974365234375,-0.1337466090917587,0.0497055053710937,0.0188706275075674
1769251363682,-0.0528106689453125,0.013702392578125,-0.99725341796875,-0.1259360909461975,0.0432958081364631,0.0209271200001239
1769251363692,-0.06060791015625,0.0247344970703125,-0.999114990234375,-0.1264072060585022,0.0429123118519783,0.009368734434247
1769251363702,-0.0776824951171875,0.046173095703125,-1.0088958740234375,-0.1198688820004463,0.0452803969383239,-0.0135933067649602
1769251363712,-0.0749664306640625,0.06536865234375,-1.015838623046875,-0.1120892539620399,0.034732412546873,-0.0223015770316123
1769251363722,-0.0777435302734375,0.085235595703125,-1.03070068359375,-0.090781569480896,0.0371401794254779,-0.0291895773261785
1769251363733,-0.061981201171875,0.0559844970703125,-1.010009765625,-0.0694802775979042,0.0136276613920927,-0.0129387015476822
1769251363743,-0.028045654296875,0.012420654296875,-0.9849395751953124,-0.0588529296219348,-0.0254169423133134,0.0041350903920829
1769251363753,-0.0112762451171875,0.00286865234375,-0.991058349609375,-0.0624665729701519,-0.0070765516720712,-4.6339002437889576e-05
1769251363763,-0.0230865478515625,0.023406982421875,-1.0045166015625,-0.0673641264438629,0.0635542050004005,-0.026978887617588
1769251363773,-0.048004150390625,0.0514373779296875,-1.0083160400390625,-0.0670125856995582,0.0869998782873153,-0.0534485764801502
1769251363783,-0.0485382080078125,0.0637359619140625,-1.005157470703125,-0.0575338676571846,0.0516096651554107,-0.0469382144510746
1769251363793,-0.03875732421875,0.0620574951171875,-1.00311279296875,-0.0573583655059337,-0.0059388494119048,-0.0215255320072174
1769251363803,-0.0394287109375,0.0626983642578125,-1.00299072265625,-0.0687127485871315,-0.0141136888414621,0.0016354472609236
1769251363813,-0.0413665771484375,0.055023193359375,-1.0019989013671875,-0.088768221437931,0.021761754527688,0.0152290202677249
1769251363823,-0.0395355224609375,0.0499420166015625,-1.005767822265625,-0.1078202053904533,0.0571106895804405,0.0328879095613956
1769251363833,-0.0373077392578125,0.039703369140625,-0.9942474365234376,-0.1259653866291046,0.0747269690036773,0.0397756434977054
1769251363843,-0.03741455078125,0.0323638916015625,-0.9873046875,-0.1472123563289642,0.0829851627349853,0.0506477318704128
1769251363853,-0.0370025634765625,0.0311279296875,-0.9835662841796876,-0.1664478331804275,0.0917123407125473,0.0556960180401802
1769251363863,-0.0452728271484375,0.032745361328125,-0.9833984375,-0.1839440017938614,0.0956943035125732,0.0555623285472393
1769251363873,-0.0460205078125,0.0417022705078125,-0.9911041259765624,-0.1889142543077469,0.0927096977829933,0.0568030960857868
1769251363883,-0.035980224609375,0.0568389892578125,-1.005767822265625,-0.1687562614679336,0.063442088663578,0.0661699622869491
1769251363893,-0.0341339111328125,0.0720367431640625,-1.0108642578125,-0.1403091698884964,0.0433642528951168,0.0775877386331558
1769251363903,-0.0413970947265625,0.0669097900390625,-1.0062713623046875,-0.1171782910823822,0.0581045821309089,0.0855673626065254
1769251363913,-0.0511016845703125,0.0634613037109375,-0.9914398193359376,-0.1087645664811134,0.0678493529558181,0.0800229310989379
1769251363923,-0.053436279296875,0.0567626953125,-0.9903411865234376,-0.1099680438637733,0.085672028362751,0.071613997220993
1769251363933,-0.056640625,0.0520782470703125,-0.99493408203125,-0.1053400039672851,0.0886869952082634,0.063285231590271
1769251363944,-0.0481414794921875,0.04901123046875,-0.9989166259765624,-0.0907277688384056,0.0723008289933204,0.060995977371931
1769251363954,-0.0487823486328125,0.0522613525390625,-1.00469970703125,-0.0689620226621627,0.054662711918354,0.042647860944271
1769251363964,-0.0467071533203125,0.05126953125,-1.0061187744140625,-0.0462023839354515,0.0445096790790557,0.0236121192574501
1769251363974,-0.0442047119140625,0.0512542724609375,-1.0052490234375,-0.0233098492026329,0.0428667739033699,0.0107570402324199
1769251363984,-0.0488433837890625,0.054290771484375,-1.0032958984375,0.0008705873624421,0.0389335490763187,-0.0054578823037445
1769251363994,-0.0416412353515625,0.0643157958984375,-1.00787353515625,0.030355243012309,0.0221569668501615,-0.0036594495177268
1769251364004,-0.0307159423828125,0.0716094970703125,-1.0167388916015625,0.0633241087198257,0.0230821501463651,0.0093801859766244
1769251364014,-0.03338623046875,0.07666015625,-1.0235748291015625,0.0906710475683212,0.0490154810249805,0.0152905397117137
1769251364024,-0.0362091064453125,0.0764617919921875,-1.019287109375,0.1080484390258789,0.0641307830810546,0.0176793951541185
1769251364034,-0.0444488525390625,0.07122802734375,-1.0072174072265625,0.1153042241930961,0.0598454885184764,0.0117141800001263
1769251364044,-0.0477752685546875,0.0655670166015625,-0.997161865234375,0.1177069246768951,0.0569319911301136,0.0016964336391538
1769251364054,-0.0400390625,0.064727783203125,-0.9935150146484376,0.1241863965988159,0.0624545887112617,0.0056967679411172
1769251364064,-0.040252685546875,0.065765380859375,-0.9854278564453124,0.1286647617816925,0.0453507043421268,0.0005792375304736
1769251364074,-0.0466156005859375,0.0672607421875,-0.9806060791015624,0.1240590959787368,0.0303778797388076,-0.00978525262326
1769251364084,-0.0438232421875,0.0667572021484375,-0.9784393310546876,0.1149510890245437,0.0274798274040222,-0.0091274520382285
1769251364094,-0.0324859619140625,0.0661773681640625,-0.979736328125,0.1095672398805618,0.0257399845868349,-0.0005408879951573
1769251364104,-0.034271240234375,0.0686798095703125,-0.9821014404296876,0.099751092493534,0.0248190630227327,-0.0006372944335453
1769251364114,-0.0428314208984375,0.069854736328125,-0.9821319580078124,0.0873942971229553,0.0253668762743473,-0.0051052798517048
1769251364124,-0.0496978759765625,0.0694122314453125,-0.9777069091796876,0.0702589824795723,0.0181406550109386,-0.0151912029832601
1769251364134,-0.05352783203125,0.0650177001953125,-0.9721832275390624,0.0527969002723693,0.009425725787878,-0.0286875702440738
1769251364144,-0.05645751953125,0.05755615234375,-0.96417236328125,0.0386994592845439,0.0007398261222988,-0.0399652607738971
1769251364154,-0.0536346435546875,0.0552825927734375,-0.9634552001953124,0.0320167876780033,-0.0131325796246528,-0.0519859679043293
1769251364165,-0.0475616455078125,0.06060791015625,-0.97027587890625,0.038100779056549,-0.0277871564030647,-0.0620218254625797
1769251364175,-0.0355224609375,0.0625457763671875,-0.9827423095703124,0.0408345162868499,-0.0506330840289592,-0.0596942231059074
1769251364185,-0.029266357421875,0.059722900390625,-0.987396240234375,0.0353952758014202,-0.0558483526110649,-0.057757306843996
1769251364195,-0.0369110107421875,0.049224853515625,-0.981353759765625,0.0117655796930193,-0.0534853301942348,-0.0648050978779792
1769251364205,-0.0400848388671875,0.033172607421875,-0.97186279296875,-0.0090736560523509,-0.0656399950385093,-0.0681255236268043
1769251364215,-0.027618408203125,0.0161590576171875,-0.9694976806640624,-0.0267128366976976,-0.0629392862319946,-0.0662903413176536
1769251364225,-0.0237274169921875,0.01861572265625,-0.985260009765625,-0.0378605648875236,-0.0348184332251548,-0.0664474666118621
1769251364235,-0.04266357421875,0.0518035888671875,-1.0055084228515625,-0.029683593660593,0.0018026937032118,-0.0725767314434051
1769251364245,-0.05712890625,0.0882720947265625,-1.0083465576171875,-0.0128335068002343,-0.0091263866052031,-0.0757317766547203
1769251364255,-0.0527801513671875,0.081268310546875,-0.998626708984375,-0.0139054292812943,-0.0495752766728401,-0.0541300810873508
1769251364265,-0.03936767578125,0.023834228515625,-0.975341796875,-0.0256201419979333,-0.0630034655332565,-0.0368853136897087
1769251364275,-0.0325927734375,0.0067138671875,-0.974822998046875,-0.0324319750070571,-0.0509358830749988,-0.0549729689955711
1769251364285,-0.03338623046875,0.0102996826171875,-0.995849609375,-0.0407138727605342,-2.450108149787411e-05,-0.0882683396339416
1769251364295,-0.043914794921875,0.056549072265625,-1.029937744140625,-0.0121008716523647,0.0742398723959922,-0.10970039665699
1769251364305,-0.062347412109375,0.0974273681640625,-1.03106689453125,0.0377628244459629,0.0565330497920513,-0.10886150598526
1769251364315,-0.0579071044921875,0.1021270751953125,-1.0097808837890625,0.0751887634396553,-0.0222416557371616,-0.0781280919909477
1769251364325,-0.0443267822265625,0.086212158203125,-0.997406005859375,0.0932284817099571,-0.064690314233303,-0.0439581349492073
1769251364335,-0.0277862548828125,0.0664520263671875,-0.992523193359375,0.0937419384717941,-0.063862070441246,-0.0175760649144649
1769251364345,-0.016937255859375,0.0447540283203125,-0.982818603515625,0.0838882401585578,-0.0463744215667247,-0.013383449986577
1769251364355,-0.0068817138671875,0.0371856689453125,-0.987823486328125,0.0737408027052879,-0.0194820892065763,-0.0140638872981071
1769251364365,-0.0099029541015625,0.03729248046875,-0.9934844970703124,0.0614447183907032,-0.0109131010249257,-0.0245354361832141
1769251364375,-0.0224609375,0.04144287109375,-0.98797607421875,0.0360663905739784,-0.0240435507148504,-0.0476788394153118
1769251364386,-0.04193115234375,0.0509796142578125,-0.9863128662109376,0.0087287770584225,-0.0320788398385047,-0.0729045644402504
1769251364396,-0.0499725341796875,0.054168701171875,-0.979461669921875,-0.023690415546298,-0.0418316014111042,-0.0853401944041252
1769251364406,-0.043975830078125,0.046905517578125,-0.9737396240234376,-0.0530323237180709,-0.0640213266015052,-0.0778740271925926
1769251364416,-0.0348358154296875,0.03948974609375,-0.97265625,-0.07868043333292,-0.0767661482095718,-0.0627520605921745
1769251364426,-0.030120849609375,0.0359954833984375,-0.978363037109375,-0.1002621576189994,-0.0623107776045799,-0.0518940910696983
1769251364436,-0.024993896484375,0.0380706787109375,-0.9873199462890624,-0.1102234423160553,-0.0392507314682006,-0.0427778251469135
1769251364447,-0.0237274169921875,0.0431060791015625,-0.99822998046875,-0.1136661097407341,-0.0017076188232749,-0.0448023602366447
1769251364456,-0.0242156982421875,0.0452880859375,-1.00299072265625,-0.1163444519042968,0.0150370066985487,-0.055159393697977
1769251364466,-0.0275421142578125,0.0449371337890625,-1.01116943359375,-0.1111366376280784,0.0184218846261501,-0.0560693927109241
1769251364476,-0.0286407470703125,0.0510101318359375,-1.0148162841796875,-0.093176282942295,0.0262869969010353,-0.0466186329722404
1769251364486,-0.0423126220703125,0.0561981201171875,-1.0108795166015625,-0.0640274509787559,0.0336112231016159,-0.0453493706882
1769251364496,-0.05621337890625,0.054931640625,-0.9976043701171876,-0.0326245203614234,0.0359683856368064,-0.047146737575531
1769251364506,-0.05743408203125,0.0487823486328125,-0.987762451171875,0.0065383268520236,0.0184410586953163,-0.052571065723896
1769251364516,-0.0534515380859375,0.0518798828125,-0.9892730712890624,0.0520104691386222,-0.0052413675002753,-0.0674914270639419
1769251364526,-0.04730224609375,0.061614990234375,-0.9991607666015624,0.0956764593720436,-0.0297861248254776,-0.078729435801506
1769251364536,-0.037628173828125,0.06396484375,-1.005645751953125,0.1301747858524322,-0.0386778861284256,-0.0720960348844528
1769251364546,-0.025543212890625,0.059478759765625,-1.0018463134765625,0.1412335634231567,-0.0404590107500553,-0.0439647957682609
1769251364556,-0.0115509033203125,0.055633544921875,-0.9900970458984376,0.1313348561525344,-0.0223713517189025,-0.0090528838336467
1769251364566,-0.0062103271484375,0.0527496337890625,-0.9782257080078124,0.1118959113955497,0.0141051663085818,0.0289626754820346
1769251364576,-0.0155792236328125,0.048431396484375,-0.970001220703125,0.0861458033323288,0.0503470599651336,0.0544829480350017
1769251364587,-0.029327392578125,0.045867919921875,-0.9659881591796876,0.0556872300803661,0.0519449561834335,0.064719870686531
1769251364597,-0.052734375,0.0425567626953125,-0.970458984375,0.0192328169941902,0.0316561982035636,0.0541244894266128
1769251364607,-0.0556182861328125,0.04022216796875,-0.98712158203125,-0.0104550374671816,0.020559336990118,0.0428364127874374
1769251364617,-0.0459136962890625,0.0343475341796875,-0.9993743896484376,-0.0314037278294563,0.0202781073749065,0.0384352728724479
1769251364627,-0.041046142578125,0.03192138671875,-0.9964141845703124,-0.0544427372515201,0.0286151338368654,0.025931466370821
1769251364637,-0.044158935546875,0.034393310546875,-0.986785888671875,-0.072393774986267,0.0286106057465076,-0.0003241066879127
1769251364647,-0.0447998046875,0.04217529296875,-0.974151611328125,-0.0900894105434417,0.0106438556686043,-0.0329235941171646
1769251364657,-0.050933837890625,0.0369415283203125,-0.957763671875,-0.1121595576405525,-0.0253570210188627,-0.0711652562022209
1769251364667,-0.0491180419921875,0.0193328857421875,-0.957244873046875,-0.1320155560970306,-0.0824602544307708,-0.0960032269358635
1769251364677,-0.0423583984375,0.0117034912109375,-0.97467041015625,-0.1468107551336288,-0.118622250854969,-0.1064755767583847
1769251364687,-0.0475006103515625,0.012603759765625,-0.9930419921875,-0.1575523465871811,-0.114011526107788,-0.1154240667819976
1769251364697,-0.053070068359375,0.0204925537109375,-1.00439453125,-0.1594351977109909,-0.0851404592394828,-0.1123095005750656
1769251364707,-0.054107666015625,0.033905029296875,-1.002227783203125,-0.1620714664459228,-0.0698549821972847,-0.0980474725365638
1769251364717,-0.051300048828125,0.046234130859375,-0.9998016357421876,-0.1669471710920334,-0.0667103230953216,-0.0781864151358604
1769251364727,-0.0459136962890625,0.054351806640625,-1.0018768310546875,-0.1686470657587051,-0.0470785610377788,-0.0573495775461196
1769251364737,-0.0466461181640625,0.0601043701171875,-1.007415771484375,-0.1714354008436203,-0.0145171573385596,-0.0463882721960544
1769251364747,-0.0556640625,0.0772552490234375,-1.0244903564453125,-0.1539184600114822,0.0164671242237091,-0.0496812686324119
1769251364757,-0.0636138916015625,0.0902557373046875,-1.0416107177734375,-0.1176446080207824,0.0247229225933551,-0.0474106594920158
1769251364767,-0.0483245849609375,0.0972137451171875,-1.0566864013671875,-0.0584105774760246,0.0093298517167568,-0.0238656513392925
1769251364778,-0.040496826171875,0.1073760986328125,-1.0747222900390625,0.0003648530691862,0.0150937316939234,-0.0013925669481977
1769251364787,-0.0419769287109375,0.068267822265625,-1.059112548828125,0.0453520342707634,0.0271250940859317,0.0285227205604314
1769251364798,-0.0244293212890625,0.0255126953125,-1.029937744140625,0.0780263617634773,0.0373226031661033,0.0404020175337791
1769251364808,-0.02667236328125,0.0303497314453125,-1.025115966796875,0.1105001419782638,0.0644325166940689,0.0193752963095903
1769251364818,-0.0493621826171875,0.0565032958984375,-1.0274658203125,0.1487689763307571,0.0853362008929252,-0.0158916153013706
1769251364828,-0.0626678466796875,0.0852203369140625,-1.0273284912109375,0.1859698742628097,0.0645832568407058,-0.0353241674602031
1769251364838,-0.0629119873046875,0.0842437744140625,-1.0139923095703125,0.2103287428617477,-0.000826911535114,-0.0353553257882595
1769251364848,-0.05462646484375,0.0719757080078125,-0.9995574951171876,0.2151003181934356,-0.0409237295389175,-0.0246305111795663
1769251364858,-0.0535125732421875,0.059814453125,-0.9852142333984376,0.2003773003816604,-0.0408209338784217,-0.0196285620331764
1769251364868,-0.0513458251953125,0.0470733642578125,-0.9648590087890624,0.1738418340682983,-0.0211960989981889,-0.0203675888478755
1769251364878,-0.05157470703125,0.04443359375,-0.95465087890625,0.1461377739906311,0.0069207567721605,-0.0277682486921548
1769251364888,-0.0472412109375,0.05242919921875,-0.9512939453125,0.1188118681311607,0.0143304700031876,-0.0276590585708618
1769251364898,-0.0481109619140625,0.0518646240234375,-0.94635009765625,0.0866653844714164,0.0085913576185703,-0.0270792879164218
1769251364908,-0.04736328125,0.0422821044921875,-0.9429931640625,0.0491760671138763,-0.0106582371518015,-0.0257434472441673
1769251364918,-0.0445556640625,0.0336761474609375,-0.9463348388671876,0.0116862170398235,-0.0254909787327051,-0.0209249891340732
1769251364928,-0.04962158203125,0.0322723388671875,-0.9501495361328124,-0.0289240591228008,-0.0290076825767755,-0.0280127264559268
1769251364938,-0.0590972900390625,0.033294677734375,-0.9572906494140624,-0.0572308003902435,-0.0267866067588329,-0.0398811027407646
1769251364948,-0.0501251220703125,0.0517730712890625,-0.977294921875,-0.0704608485102653,-0.0143041042611002,-0.0353542603552341
1769251364958,-0.046875,0.0589141845703125,-0.9861297607421876,-0.0792562067508697,-0.0107858022674918,-0.0265418626368045
1769251364968,-0.048583984375,0.0614471435546875,-0.98046875,-0.0866097286343574,-0.023722106590867,-0.022268820554018
1769251364978,-0.0450592041015625,0.05596923828125,-0.9749908447265624,-0.0945312976837158,-0.0414294637739658,-0.019483420997858
1769251364988,-0.044464111328125,0.0535125732421875,-0.9771270751953124,-0.1018946766853332,-0.0478668585419654,-0.020636036992073
1769251364999,-0.04180908203125,0.0507965087890625,-0.98150634765625,-0.1012669652700424,-0.0463302135467529,-0.0217361878603696
1769251365008,-0.035003662109375,0.0480194091796875,-0.9887542724609376,-0.0947896242141723,-0.0573341287672519,-0.0207753200083971
1769251365019,-0.0354461669921875,0.0505828857421875,-0.9981689453125,-0.0819089785218238,-0.0667372196912765,-0.0163992140442132
1769251365029,-0.038177490234375,0.055084228515625,-1.009307861328125,-0.0724555552005767,-0.0595019422471523,-0.0132180675864219
1769251365039,-0.0381622314453125,0.056243896484375,-1.015838623046875,-0.070448599755764,-0.032375518232584,-0.0050126016139984
1769251365049,-0.0362701416015625,0.0617828369140625,-1.0233154296875,-0.0656511783599853,-0.0120542664080858,0.00842144805938
