timestamp_ms,acc_x,acc_y,acc_z,gyro_x,gyro_y,gyro_z
1770449468446,-0.00872802734375,-0.1702423095703125,-0.9832916259765624,-0.0088392980396747,0.0296007692813873,-0.0138031635433435
1770449468459,-0.0137176513671875,-0.16021728515625,-0.991302490234375,-0.0007909588166512,0.035952940583229,-0.0309645738452672
1770449468466,-0.0184783935546875,-0.1546173095703125,-0.9960174560546876,0.0076493974775075,-0.0007749798824079,-0.0402909629046916
1770449468476,-0.0131378173828125,-0.1749267578125,-0.994110107421875,0.0139363221824169,-0.0221511088311672,-0.0295288637280464
1770449468486,-0.0015106201171875,-0.1813201904296875,-0.990081787109375,0.0131400367245078,-0.0166391637176275,-0.0194927416741848
1770449468496,0.005706787109375,-0.1846466064453125,-0.980621337890625,0.0114217652007937,-0.0043681166134774,-0.0045835664495825
1770449468506,0.0108184814453125,-0.1760406494140625,-0.9718780517578124,0.0093045523390173,0.0201824996620416,-0.0008700547041371
1770449468516,-0.001495361328125,-0.1575469970703125,-0.96923828125,0.0079474048689007,0.0446548201143741,-0.0162791050970554
1770449468526,-0.0181121826171875,-0.1575164794921875,-0.9750823974609376,0.0088691255077719,0.0408680699765682,-0.0274878162890672
1770449468536,-0.01763916015625,-0.16253662109375,-0.9865875244140624,0.0060674799606204,0.0138609539717435,-0.0342727527022361
1770449468546,-0.01361083984375,-0.1637115478515625,-0.99090576171875,-0.0010996191995218,-0.0104513093829154,-0.0395918823778629
1770449468556,-0.0140838623046875,-0.1620025634765625,-0.9876556396484376,-0.0067545752972364,-0.0105604985728859,-0.0381665602326393
1770449468566,-0.0135345458984375,-0.1627197265625,-0.9804534912109376,-0.0109479892998933,0.0029784792568534,-0.0323944240808486
1770449468576,-0.0068359375,-0.1710052490234375,-0.9795684814453124,-0.0129299135878682,0.0137765323743224,-0.0207188613712787
1770449468587,0.002532958984375,-0.18072509765625,-0.9843597412109376,-0.0146037098020315,0.0092411693185567,-0.0090741887688636
1770449468597,0.008544921875,-0.186126708984375,-0.98675537109375,-0.0096318544819951,-0.0020359866321086,0.0006141249323263
1770449468607,0.0124359130859375,-0.182708740234375,-0.9831390380859376,-0.0103114936500787,-0.0055825184099376,0.0028463865164667
1770449468617,0.009918212890625,-0.1793365478515625,-0.9728851318359376,-0.0180391874164342,0.007106112781912,0.0008913599886
1770449468627,0.003753662109375,-0.17193603515625,-0.9673309326171876,-0.0258116237819194,0.0319230444729328,-0.0026250779628753
1770449468637,-0.0039520263671875,-0.16546630859375,-0.9690093994140624,-0.0298814661800861,0.0513316318392753,-0.0073399380780756
1770449468647,-0.0152740478515625,-0.1651153564453125,-0.98211669921875,-0.0233007948845624,0.0484767220914363,-0.0158340912312269
1770449468657,-0.0191650390625,-0.1646575927734375,-0.993499755859375,-0.0061654839664697,0.0311326198279857,-0.0181515738368034
1770449468667,-0.018524169921875,-0.1638641357421875,-1.0048065185546875,0.0145011786371469,0.0069468556903302,-0.0236030630767345
1770449468677,-0.01568603515625,-0.165008544921875,-1.0067596435546875,0.0316617898643016,-0.0155757637694478,-0.0279115252196788
1770449468687,-0.01220703125,-0.1668243408203125,-1.0001220703125,0.0417692847549915,-0.0269242916256189,-0.0267714262008667
1770449468697,-0.01025390625,-0.1711883544921875,-0.987213134765625,0.0421373322606086,-0.0280875600874423,-0.0221814680844545
1770449468707,-0.002532958984375,-0.179107666015625,-0.97491455078125,0.0274779628962278,-0.0115349497646093,-0.0105615640059113
1770449468717,0.0057525634765625,-0.1789093017578125,-0.9690093994140624,0.0170447640120983,0.0073481942526996,-0.0031792817171663
1770449468727,0.0061492919921875,-0.178375244140625,-0.966766357421875,0.0088313082233071,0.0186983197927474,-0.0002013349730987
1770449468737,0.004119873046875,-0.1736297607421875,-0.9701385498046876,0.0060813282616436,0.0239330288022756,0.001358478446491
1770449468747,0.000640869140625,-0.16973876953125,-0.978668212890625,0.0032882050145417,0.0173116121441125,-0.0027792749460786
1770449468757,-0.000732421875,-0.171844482421875,-0.98419189453125,-0.0002386192354606,0.0084997452795505,-0.0075431372970342
1770449468767,-0.0025177001953125,-0.1678619384765625,-0.987518310546875,-0.0014133396325632,0.0054895738139748,-0.0056126117706298
1770449468777,-0.005401611328125,-0.1660003662109375,-0.987030029296875,-0.0024245418608188,0.008665925823152,-0.0075836172327399
1770449468788,-0.006805419921875,-0.166778564453125,-0.985687255859375,-0.0003605920064728,0.014991732314229,-0.004079429898411
1770449468797,-0.0072021484375,-0.1660614013671875,-0.9897918701171876,0.0079258335754275,0.015957660973072,-0.0032115059439092
1770449468808,-0.0035552978515625,-0.1702728271484375,-0.994964599609375,0.0189396031200885,0.0070054451934993,-0.0035862126387655
1770449468818,-0.000885009765625,-0.174407958984375,-0.99517822265625,0.0264073722064495,-0.0042466768063604,-8.202536264434457e-05
1770449468828,0.0025634765625,-0.1746826171875,-0.9897003173828124,0.0263338685035705,-0.0039044604636728,-8.681904728291556e-05
1770449468838,0.0039520263671875,-0.1755828857421875,-0.9806671142578124,0.0231846813112497,0.0052626724354922,0.0020463729742914
1770449468848,0.0042572021484375,-0.17633056640625,-0.975372314453125,0.0152276884764432,0.0102302664890885,0.0036293559242039
1770449468858,0.004119873046875,-0.17791748046875,-0.9712371826171876,0.010072873905301,0.0196634493768215,0.0060373861342668
1770449468868,0.0027618408203125,-0.1772918701171875,-0.97174072265625,0.006213154643774,0.0321685895323753,0.0041316282004117
1770449468878,0.0,-0.1755828857421875,-0.977691650390625,0.0074187680147588,0.030016753822565,0.0018991001415997
1770449468888,-0.0023193359375,-0.1746826171875,-0.9826812744140624,0.0096465023234486,0.0221180859953165,0.0035744947381317
1770449468898,-0.00213623046875,-0.174041748046875,-0.9860687255859376,0.0141789354383945,0.0182506423443555,0.0077287596650421
1770449468908,-0.0042266845703125,-0.1730499267578125,-0.988433837890625,0.0192828848958015,0.0222602989524602,0.0093468967825174
1770449468918,-0.0065460205078125,-0.1737518310546875,-0.989471435546875,0.0219447128474712,0.0184879302978515,0.0086550069972872
1770449468928,-0.0060577392578125,-0.174163818359375,-0.98529052734375,0.0226637665182352,0.0089034801349043,0.008658736012876
1770449468938,-0.003875732421875,-0.17474365234375,-0.983612060546875,0.0210581477731466,0.0066352658905088,0.013529391027987
1770449468948,-0.0015716552734375,-0.1745452880859375,-0.980712890625,0.0187467895448207,0.0105501124635338,0.0132489595562219
1770449468958,-0.0045928955078125,-0.175537109375,-0.9805755615234376,0.0182855296880006,0.0153227634727954,0.006957774516195
1770449468968,-0.006805419921875,-0.1759033203125,-0.9822540283203124,0.018624285236001,0.0075348815880715,0.0088864360004663
1770449468978,-0.0018310546875,-0.1745147705078125,-0.9815216064453124,0.0168732553720474,0.0070240874774754,0.0030538467690348
1770449468988,-0.0044097900390625,-0.1757659912109375,-0.9778900146484376,0.013317403383553,0.0030352047178894,-0.0025992451701313
1770449468998,-0.0047760009765625,-0.1728363037109375,-0.975433349609375,0.0103567671030759,0.0038764972705394,-0.0014442323008552
1770449469008,-0.0035400390625,-0.1735992431640625,-0.974822998046875,0.0078611187636852,0.0068371333181858,-0.0038099181838333
1770449469018,-0.0052490234375,-0.1741790771484375,-0.9773101806640624,0.00706536648795,0.0089636677876114,-0.0043649207800626
1770449469029,-0.0043487548828125,-0.17364501953125,-0.9800872802734376,0.0085916239768266,0.002698581200093,-0.0055489623919129
1770449469039,-0.0044708251953125,-0.1751708984375,-0.9798736572265624,0.0111482581123709,-0.0061026336625218,-0.0054815844632685
1770449469049,-0.0044708251953125,-0.1749725341796875,-0.98101806640625,0.0085860313847661,-0.0027856663800776,-0.0060120862908661
1770449469059,-0.0019989013671875,-0.17572021484375,-0.977081298828125,0.0064797373488545,0.0030775489285588,-0.0030874025542289
1770449469069,-0.0009765625,-0.18017578125,-0.9768218994140624,0.0046512107364833,0.0050048786215484,-0.0011685950448736
1770449469079,0.0034637451171875,-0.1883087158203125,-0.9766082763671876,0.0004569984448608,0.0068134311586618,0.0102358600124716
1770449469089,0.0070343017578125,-0.185394287109375,-0.976959228515625,0.0011342403013259,0.0071540493518114,0.0119658494368195
1770449469100,0.001007080078125,-0.1762847900390625,-0.976318359375,-0.0033545177429914,0.0009582053753547,0.0076632457785308
1770449469109,-0.0067291259765625,-0.1752777099609375,-0.9748077392578124,-0.0043939496390521,0.0005291700945235,0.0017081515397876
1770449469119,-0.0103607177734375,-0.1729736328125,-0.97967529296875,0.0014349111588671,0.0048690573312342,-0.0078816255554556
1770449469129,-0.012481689453125,-0.1625213623046875,-0.9844512939453124,0.0063324645161628,-0.0007635282818228,-0.025856364518404
1770449469139,-0.0106658935546875,-0.17364501953125,-0.983612060546875,0.0062845274806022,-0.0176048260182142,-0.0238986741751432
1770449469149,-0.000152587890625,-0.1855621337890625,-0.984588623046875,0.0068126325495541,-0.0090816458687186,-0.0104449177160859
1770449469159,0.0025634765625,-0.177337646484375,-0.9864654541015624,0.0074994615279138,-0.0063761402852833,-0.00734180258587
1770449469169,0.004241943359375,-0.1849365234375,-0.98126220703125,0.0105687547475099,-0.0023108248133212,-0.0031843415927141
1770449469179,0.0067901611328125,-0.169952392578125,-0.9859619140625,0.0194788929075002,-0.0181150883436203,-0.0127160614356398
1770449469189,-0.0050811767578125,-0.16650390625,-0.979583740234375,0.0197425447404384,-0.0196663793176412,-0.0240861605852842
1770449469199,-0.0134124755859375,-0.16864013671875,-0.97442626953125,0.0079929456114768,-0.0073287528939545,-0.0260925870388746
1770449469209,-0.0074462890625,-0.1755828857421875,-0.976226806640625,-0.0031944618094712,-0.0032549153547734,-0.024573253467679
1770449469219,-0.0031280517578125,-0.1779327392578125,-0.9802703857421876,-0.0049699912779033,-0.007202785462141,-0.0190093778073787
1770449469229,-0.0020904541015625,-0.1755218505859375,-0.983154296875,-0.004399808589369,-0.0070970579981803,-0.017822939902544
1770449469240,-0.0036468505859375,-0.1773681640625,-0.985321044921875,-0.0059228702448308,-0.0052642705850303,-0.0136505644768476
1770449469250,0.000762939453125,-0.1837921142578125,-0.9848785400390624,-0.0095397094264626,-0.0079591227695345,-0.0085950857028365
1770449469260,0.009735107421875,-0.1888885498046875,-0.985565185546875,-0.00976980663836,-0.0099029643461108,0.0026791400741785
1770449469270,0.01446533203125,-0.18902587890625,-0.981048583984375,-0.0067543089389801,0.0002934803487733,0.0073204971849918
1770449469280,0.0080108642578125,-0.187164306640625,-0.97735595703125,-0.0034365430474281,0.0239226426929235,0.0072153024375438
1770449469290,0.002899169921875,-0.1782989501953125,-0.976470947265625,-0.0061364555731415,0.0181020386517047,0.0098571581766009
1770449469300,-0.003021240234375,-0.17205810546875,-0.97637939453125,-0.0067668259143829,0.0271922051906585,0.0023835292086005
1770449469310,-0.013885498046875,-0.1725311279296875,-0.984344482421875,-0.0040306942537426,0.024580443277955,-0.0038266961928457
1770449469320,-0.01495361328125,-0.1729736328125,-0.9898529052734376,0.0043484093621373,0.0079500684514641,-0.0055372444912791
1770449469330,-0.0142974853515625,-0.1764373779296875,-0.9923858642578124,0.0127426935359835,-0.0090600736439228,-0.0118739698082208
1770449469340,-0.0119476318359375,-0.17877197265625,-0.9886474609375,0.012664396315813,-0.0155920088291168,-0.011388742364943
1770449469350,-0.008087158203125,-0.176483154296875,-0.9790802001953124,0.00688480399549,-0.0147041110321879,-0.0099117532372474
1770449469360,-0.0069580078125,-0.1777496337890625,-0.9709320068359376,0.0029704899061471,-0.0061063622124493,-0.0068986522965133
1770449469370,-0.0037078857421875,-0.18646240234375,-0.970703125,-0.0056709353812038,0.0051375040784478,0.0004609931784216
1770449469380,0.0066375732421875,-0.18975830078125,-0.973358154296875,-0.0092946980148553,0.0128998197615146,0.0075231636874377
1770449469390,0.0079803466796875,-0.184967041015625,-0.9789581298828124,-0.0046152579598128,0.0145603008568286,0.0137016978114843
1770449469400,0.0003662109375,-0.1797027587890625,-0.9816436767578124,0.0006165218073874,0.0122790364548563,0.0117376158013939
1770449469410,-0.004058837890625,-0.1749725341796875,-0.9837188720703124,0.0037420075386762,0.0043209786526858,0.0052437642589211
1770449469420,-0.0044708251953125,-0.175750732421875,-0.9859771728515624,0.0014333132421597,-0.0065343319438397,0.0050983554683625
1770449469430,-0.005401611328125,-0.174102783203125,-0.983062744140625,-0.0048139300197362,-0.0045255096629261,-0.0004034689045511
1770449469441,-0.0077667236328125,-0.17169189453125,-0.9771728515625,-0.0078773638233542,0.0061537660658359,-0.0006886934279464
1770449469451,-0.0082244873046875,-0.175384521484375,-0.977508544921875,-0.0087583381682634,0.0160870905965566,0.0041457428596913
1770449469461,-0.007843017578125,-0.1772613525390625,-0.984283447265625,-0.0030695593450218,0.014331535436213,0.0074059846810996
1770449469471,-0.00494384765625,-0.180023193359375,-0.991455078125,0.0103565007448196,-0.0038586540613323,0.0024397219531238
1770449469481,-0.003753662109375,-0.18206787109375,-0.9919586181640624,0.0186522472649812,-0.0248467605561018,0.0042219092138111
1770449469491,0.0005645751953125,-0.184814453125,-0.9838409423828124,0.0113362781703472,-0.0325922966003418,0.0042477417737245
1770449469501,0.0023193359375,-0.185821533203125,-0.9713897705078124,-0.0050070090219378,-0.0161328967660665,0.0073455306701362
1770449469511,0.006195068359375,-0.1849517822265625,-0.9599151611328124,-0.0219668168574571,0.0253884475678205,-0.0005701828049495
1770449469521,-0.003082275390625,-0.18951416015625,-0.968292236328125,-0.0316953435540199,0.0200512055307626,0.0147744184359908
1770449469531,0.01129150390625,-0.1790008544921875,-0.9655914306640624,-0.0390299558639526,0.0211204644292593,0.0287426989525556
1770449469541,0.00286865234375,-0.186187744140625,-0.97918701171875,-0.0409546233713626,0.0362826399505138,0.028508074581623
1770449469551,-0.0048828125,-0.181915283203125,-0.99102783203125,-0.0278161838650703,0.0332564897835254,0.0273224338889122
1770449469561,-0.0055389404296875,-0.1792144775390625,-0.9980926513671876,-0.0112936673685908,0.0159555301070213,0.0235998686403036
1770449469571,-0.0057220458984375,-0.178955078125,-1.002197265625,0.0038807583041489,0.005257346201688,0.0167872365564107
1770449469581,-0.0075225830078125,-0.175506591796875,-0.9994659423828124,0.0151019878685474,0.0102992430329322,0.0103626260533928
1770449469591,-0.0027008056640625,-0.17535400390625,-0.9953765869140624,0.0235245004296302,0.0055404403246939,0.0049396310932934
1770449469601,-0.0039215087890625,-0.1798553466796875,-0.9919891357421876,0.0346328131854534,0.0024644893128424,0.0033848776947706
1770449469611,-0.00909423828125,-0.179962158203125,-0.9931640625,0.0403050780296325,0.0077037261798977,-0.0025031049735844
1770449469621,-0.018829345703125,-0.183013916015625,-0.9910736083984376,0.0540155656635761,0.0140785351395607,-0.0047558732330799
1770449469631,-0.008026123046875,-0.1761932373046875,-0.9908905029296876,0.0621667020022869,-0.0259836632758378,-0.0036336169578135
1770449469641,-0.0083465576171875,-0.178131103515625,-0.984649658203125,0.0543852113187313,-0.0463682971894741,-0.0044629252515733
1770449469651,-0.00860595703125,-0.1762237548828125,-0.9706878662109376,0.0337505079805851,-0.0216765329241752,-0.0053873085416853
1770449469661,-0.00335693359375,-0.174652099609375,-0.961639404296875,0.0116870161145925,0.0050855726003646,-0.0041766352951526
1770449469672,-0.0003509521484375,-0.178314208984375,-0.960601806640625,0.0037326866295188,0.0179795324802398,-0.0069098374806344
1770449469681,-0.0037384033203125,-0.1819305419921875,-0.9650726318359376,-0.0009187905816361,0.016741694882512,-0.0027382622938603
1770449469692,-0.0032196044921875,-0.182403564453125,-0.9700775146484376,-0.0004950816510245,0.0128300450742244,-0.0027204190846532
1770449469702,-0.003570556640625,-0.17962646484375,-0.973724365234375,-0.0029891319572925,0.0118212392553687,-0.0058067562058568
1770449469712,-0.0049591064453125,-0.178466796875,-0.977752685546875,-0.0024655545130372,0.0064616277813911,-0.007694671396166
1770449469722,-0.0048828125,-0.178924560546875,-0.9801025390625,-0.0016666061710566,-0.0024711471050977,-0.0032661007717251
1770449469732,3.0517578125e-05,-0.188232421875,-0.9778900146484376,-0.0042416164651513,-0.0009185242815874,0.0082805668935179
1770449469742,0.003997802734375,-0.1931610107421875,-0.9798583984375,-0.0037643781397491,0.0046860980801284,0.0153930708765983
1770449469752,0.00323486328125,-0.18231201171875,-0.9801177978515624,-0.0023281353060156,0.0027630296535789,0.0145658934488892
1770449469762,-0.004058837890625,-0.1748809814453125,-0.9761505126953124,-0.0046141929924488,-0.002961168764159,0.0091639375314116
1770449469772,-0.013031005859375,-0.17510986328125,-0.977996826171875,-0.0009073389810509,0.0029494508635252,-0.0006687197601422
1770449469782,-0.0161895751953125,-0.169647216796875,-0.9800872802734376,0.0082981437444686,0.0006101301987655,-0.0174498297274112
1770449469792,-0.014923095703125,-0.162628173828125,-0.97906494140625,0.0075338161550462,-0.0145973181352019,-0.0278172492980957
1770449469802,-0.00872802734375,-0.1933746337890625,-0.9779510498046876,0.0049739857204258,-0.0136289931833744,-0.0171840470284223
1770449469812,0.0021514892578125,-0.180419921875,-0.979522705078125,0.007228351663798,-0.0173760615289211,-0.0144721502438187
1770449469822,0.0018768310546875,-0.1878204345703125,-0.97601318359375,0.0050703925080597,-0.0131805166602134,-0.0028815402183681
1770449469832,0.003753662109375,-0.1804046630859375,-0.97491455078125,0.0084387585520744,-0.0042562638409435,-0.0030423952266573
1770449469842,-0.006011962890625,-0.166259765625,-0.9720458984375,0.0020173445809632,0.0072517874650657,-0.0185270793735981
1770449469852,-0.0128936767578125,-0.166717529296875,-0.9734039306640624,-0.0085098650306463,0.000205596035812,-0.0232637766748666
1770449469862,-0.00738525390625,-0.17340087890625,-0.9769744873046876,-0.0227745547890663,-0.0107605019584298,-0.0206054095178842
1770449469872,-0.0037078857421875,-0.1778564453125,-0.983551025390625,-0.0256968419998884,-0.0093900393694639,-0.0206237863749265
1770449469883,-0.0054473876953125,-0.180511474609375,-0.984588623046875,-0.0247317124158144,-0.0109346732497215,-0.0209308490157127
1770449469893,-0.0032196044921875,-0.1822509765625,-0.9827423095703124,-0.0254664774984121,-0.0161307659000158,-0.0135861160233616
1770449469903,0.007598876953125,-0.1875,-0.978271484375,-0.0338032357394695,-0.0111511880531907,-0.0010183927370235
1770449469913,0.0150299072265625,-0.1958160400390625,-0.977020263671875,-0.0403700582683086,0.0023598270490765,0.0111362747848033
1770449469923,0.0191802978515625,-0.196929931640625,-0.97918701171875,-0.0331688709557056,0.0246358383446931,0.0214467030018568
1770449469933,0.0175018310546875,-0.190643310546875,-0.9850616455078124,-0.0168373025953769,0.0425296165049076,0.0244273114949464
1770449469943,0.00836181640625,-0.1847076416015625,-0.99176025390625,0.0005811017472296,0.0393404811620712,0.0234725698828697
1770449469953,-0.002349853515625,-0.1806182861328125,-0.9978485107421876,0.0180050991475582,0.0253756642341613,0.0153914727270603
1770449469963,-0.012237548828125,-0.1755218505859375,-0.9992523193359376,0.0297552328556776,0.0061718756332993,0.0065335328690707
1770449469973,-0.0130157470703125,-0.1758575439453125,-0.994049072265625,0.034104973077774,-0.0094409063458442,-8.069378236541525e-05
1770449469983,-0.0163116455078125,-0.1761932373046875,-0.9852142333984376,0.0335062928497791,-0.0157949421554803,-0.0084555363282561
1770449469993,-0.0160980224609375,-0.1807403564453125,-0.9745025634765624,0.0296897180378437,-0.0206717234104871,-0.0096949711441993
1770449470003,-0.012237548828125,-0.1793365478515625,-0.9650115966796876,0.0184788759797811,-0.0173374451696872,-0.0099817942827939
1770449470013,-0.0068359375,-0.177764892578125,-0.9573211669921876,-0.0011363708181306,-0.0092337122187018,-0.0052757221274077
1770449470023,-0.005615234375,-0.1814727783203125,-0.9552459716796876,-0.0171281211078166,0.0061971759423613,-0.0038376150187104
1770449470033,-0.0010833740234375,-0.191925048828125,-0.9652557373046876,-0.030729416757822,0.0131150027737021,0.0056996974162757
1770449470043,0.0079498291015625,-0.189422607421875,-0.9754638671875,-0.0325566120445728,0.0089343730360269,0.0139909163117408
1770449470053,0.0076446533203125,-0.1863861083984375,-0.980072021484375,-0.0296369884163141,0.0068360683508217,0.0202125944197177
1770449470063,0.001068115234375,-0.181610107421875,-0.9847564697265624,-0.0210581477731466,0.011101652868092,0.0188389346003532
1770449470073,-0.0043792724609375,-0.17987060546875,-0.9899139404296876,-0.0095223989337682,0.0126753151416778,0.0097812581807374
1770449470083,-0.004974365234375,-0.18212890625,-0.9940338134765624,0.0006934871198609,0.0038831550627946,0.0069172945804893
1770449470094,-0.006805419921875,-0.17730712890625,-0.9941558837890624,0.0092803174629807,3.328951424919069e-05,0.0017699368763715
1770449470104,-0.013580322265625,-0.176605224609375,-0.991546630859375,0.0115378787741065,0.0014514228096231,-0.0017667410429567
1770449470114,-0.0156707763671875,-0.1783294677734375,-0.988922119140625,0.0135538922622799,-0.0035473306197673,-0.0057297912426292
1770449470124,-0.0125274658203125,-0.1786346435546875,-0.9868316650390624,0.0135035580024123,-0.0156841538846492,-0.0080035980790853
1770449470134,-0.00897216796875,-0.1828460693359375,-0.9803619384765624,0.0097471699118614,-0.0224680248647928,-0.0065857311710715
1770449470144,-0.0057220458984375,-0.186126708984375,-0.974365234375,0.0036450685001909,-0.0197673123329877,-0.0074704331345856
1770449470155,-0.0022125244140625,-0.188262939453125,-0.96893310546875,-0.0068786786869168,-0.0100856572389602,-0.0036546560004353
1770449470164,0.0001373291015625,-0.18670654296875,-0.963226318359375,-0.0147709567099809,0.0053662694990634,-0.0018442390719428
1770449470174,-0.0003662109375,-0.1864776611328125,-0.966156005859375,-0.0202109962701797,0.0195835549384355,-0.0003214435419067
1770449470184,-0.0040283203125,-0.184478759765625,-0.975311279296875,-0.0169933643192052,0.022543391212821,-0.0025316008832305
1770449470194,-0.0063323974609375,-0.18115234375,-0.987030029296875,-0.0120745059102773,0.0178410485386848,-0.0065037058666348
1770449470204,-0.0064239501953125,-0.18109130859375,-0.9940185546875,0.0010929612908512,0.0045585329644382,-0.0080549968406558
1770449470214,-0.0079803466796875,-0.18072509765625,-0.9969024658203124,0.0123850302770733,-0.0106225507333874,-0.0117956725880503
1770449470224,-0.007476806640625,-0.17901611328125,-0.9925384521484376,0.0178282652050256,-0.0224184896796941,-0.0128990206867456
1770449470234,-0.003631591796875,-0.1810150146484375,-0.9831085205078124,0.0153142418712377,-0.0144867971539497,-0.0099604884162545
1770449470244,-0.00189208984375,-0.1834869384765625,-0.974365234375,0.0094869788736104,-0.0039452067576348,-0.0049497513100504
1770449470255,-0.000152587890625,-0.1857757568359375,-0.9716339111328124,0.0034112429711967,0.0041838260367512,0.0007853662245906
1770449470264,0.002197265625,-0.1877288818359375,-0.9704742431640624,-0.0023819312918931,0.0063228770159184,0.0023904533591121
1770449470274,0.0008087158203125,-0.18817138671875,-0.972259521484375,-0.0079825585708022,0.0021078919526189,0.008838765323162
1770449470284,0.0005035400390625,-0.1849822998046875,-0.972442626953125,-0.0169880390167236,0.0027691549621522,0.0107743507251143
1770449470294,-0.0011138916015625,-0.1827392578125,-0.9715576171875,-0.0237479396164417,0.0059809270314872,0.0068949242122471
1770449470305,-0.0055389404296875,-0.1806488037109375,-0.9729156494140624,-0.0249833799898624,0.0034985947422683,0.0093093458563089
1770449470315,-0.0039520263671875,-0.177764892578125,-0.9771575927734376,-0.025218004360795,0.0121195130050182,0.0078350203111767
1770449470325,-0.00616455078125,-0.177642822265625,-0.9830169677734376,-0.0193763617426157,0.0169382374733686,0.0056389770470559
1770449470335,-0.0092315673828125,-0.1793212890625,-0.98785400390625,-0.0066693541593849,0.0093391733244061,0.0011840413790196
1770449470345,-0.007843017578125,-0.1792755126953125,-0.994293212890625,0.0060701430775225,-0.0065388595685362,-0.001383512164466
1770449470355,-0.007537841796875,-0.17706298828125,-0.9930572509765624,0.0139938462525606,-0.0184943228960037,-0.0062017031013965
1770449470365,-0.00823974609375,-0.1795196533203125,-0.9853973388671876,0.0137669444084167,-0.0259101595729589,-0.008845423348248
1770449470375,-0.0056915283203125,-0.1796875,-0.975616455078125,0.0073870760388672,-0.0214743986725807,-0.0082890884950757
1770449470385,-0.004058837890625,-0.1905059814453125,-0.969146728515625,-0.0049039446748793,-0.0096382461488246,0.0023070964962244
1770449470395,0.004669189453125,-0.198699951171875,-0.96734619140625,-0.0195081867277622,-0.0001515338663011,0.0153206326067447
1770449470405,0.0087890625,-0.19012451171875,-0.9658203125,-0.0289842467755079,0.0106142945587635,0.0219838619232177
1770449470415,1.52587890625e-05,-0.1811981201171875,-0.9655914306640624,-0.0354101881384849,0.0174301229417324,0.0209018196910619
1770449470425,-0.009002685546875,-0.1809844970703125,-0.9726409912109376,-0.0368565507233142,0.0248853750526905,0.0122279040515422
1770449470435,-0.01727294921875,-0.1707763671875,-0.9816741943359376,-0.025296302512288,0.0202765092253685,-0.0054925032891333
1770449470445,-0.0167236328125,-0.1667633056640625,-0.9831390380859376,-0.0247642025351524,-0.0082749743014574,-0.0108510497957468
1770449470455,-0.0088043212890625,-0.191009521484375,-0.9884490966796876,-0.0224120989441871,-0.0094326501712203,-0.0025220136158168
1770449470465,-0.0023040771484375,-0.1883544921875,-0.99383544921875,-0.005126851145178,-0.0106387957930564,-0.0006831008358858
1770449470475,0.0012054443359375,-0.1882781982421875,-0.9893646240234376,0.0091681983321905,-0.0083841634914278,0.0025606292765587
1770449470485,-0.00048828125,-0.1762542724609375,-0.9830474853515624,0.0171313155442476,0.0012420982820913,-0.0077713704667985
1770449470495,-0.012237548828125,-0.1658477783203125,-0.977447509765625,0.0138742700219154,0.0090856403112411,-0.0239652544260025
1770449470505,-0.0205230712890625,-0.1674652099609375,-0.976165771484375,0.0036855486687272,-0.0014242585748434,-0.0345683619379997
1770449470515,-0.013946533203125,-0.1749114990234375,-0.977508544921875,-0.0091386372223496,-0.0160884223878383,-0.0328050851821899
1770449470526,-0.0097198486328125,-0.1769561767578125,-0.978118896484375,-0.023390544578433,-0.0182168204337358,-0.0325598083436489
1770449470536,-0.00799560546875,-0.176513671875,-0.9757537841796876,-0.031072698533535,-0.0158993378281593,-0.0256888512521982
1770449470546,-0.0054473876953125,-0.1800384521484375,-0.97247314453125,-0.0381638966500759,-0.0087812412530183,-0.0152087798342108
1770449470556,0.00164794921875,-0.1892242431640625,-0.975555419921875,-0.0424340106546878,0.0010016148444265,-0.0049926280044019
1770449470566,0.0102691650390625,-0.1954193115234375,-0.9807281494140624,-0.0457174219191074,0.004923119675368,0.0070379357784986
1770449470576,0.01513671875,-0.197174072265625,-0.982391357421875,-0.0412632822990417,0.0064709489233791,0.0160583294928073
1770449470586,0.0124053955078125,-0.19140625,-0.98272705078125,-0.0368818528950214,0.0205739848315715,0.0170021522790193
1770449470596,0.003326416015625,-0.1837615966796875,-0.9850006103515624,-0.0292910430580377,0.0281099323183298,0.0105676893144845
1770449470606,-0.0079193115234375,-0.1769866943359375,-0.98858642578125,-0.0212866459041833,0.0269794203341007,0.0021238708868622
1770449470616,-0.013153076171875,-0.1744384765625,-0.994049072265625,-0.0109045794233679,0.0128582743927836,-0.0038301581516861
1770449470626,-0.0139617919921875,-0.173736572265625,-0.998321533203125,0.0027747475542128,0.0018706043483689,-0.0096755307167768
1770449470636,-0.0149078369140625,-0.1773223876953125,-1.00030517578125,0.0200011394917964,-0.0051662661135196,-0.0138108870014548
1770449470646,-0.0139923095703125,-0.1792144775390625,-0.997955322265625,0.0331435725092887,-0.0179486405104398,-0.0143525740131735
1770449470656,-0.0098724365234375,-0.180389404296875,-0.990386962890625,0.0371164754033088,-0.0270254928618669,-0.0123807694762945
1770449470666,-0.0083770751953125,-0.177764892578125,-0.9795684814453124,0.033936396241188,-0.0221537724137306,-0.0129895685240626
1770449470676,-0.01080322265625,-0.17755126953125,-0.9696197509765624,0.0208924990147352,-0.0163358300924301,-0.0160894878208637
1770449470686,-0.0052490234375,-0.1871490478515625,-0.964996337890625,0.0057257963344454,-0.0130023509263992,-0.0106513127684593
1770449470696,0.0032958984375,-0.1919403076171875,-0.96356201171875,-0.0104651581496,-0.0047481497749686,-0.0021307952702045
1770449470707,0.0037994384765625,-0.186553955078125,-0.9621734619140624,-0.0219540353864431,0.005133509170264,0.0086070699617266
1770449470716,0.0009002685546875,-0.1836395263671875,-0.9644622802734376,-0.0359233804047107,0.0165510140359401,0.0115192364901304
1770449470726,-0.004486083984375,-0.1800537109375,-0.9716949462890624,-0.0423988550901412,0.0184346679598093,0.0100257359445095
1770449470736,-0.0084991455078125,-0.1782684326171875,-0.9781951904296876,-0.0425983257591724,0.0128292459994554,0.0058895805850625
1770449470746,-0.008575439453125,-0.175445556640625,-0.986328125,-0.0375138185918331,0.0112364087253808,0.004187021870166
1770449470757,-0.0109710693359375,-0.1718902587890625,-0.993133544921875,-0.0273844860494136,0.0153278233483433,0.001144893001765
1770449470767,-0.0143280029296875,-0.171295166015625,-1.0015106201171875,-0.0094646085053682,0.0110334763303399,-0.0001057274930644
1770449470777,-0.0123138427734375,-0.171875,-1.008087158203125,0.0147123672068119,-0.0018823222490027,-0.001430916483514
1770449470787,-0.0108489990234375,-0.173980712890625,-1.0096893310546875,0.0348147042095661,-0.0216048937290906,-0.0012777847005054
1770449470797,-0.0051422119140625,-0.1797943115234375,-1.0052642822265625,0.0451413802802562,-0.0403136014938354,-0.0053172674961388
1770449470807,-0.00189208984375,-0.1841278076171875,-0.9901885986328124,0.0437224470078945,-0.0703170374035835,-0.0061875884421169
1770449470817,-0.010162353515625,-0.1811370849609375,-0.9764556884765624,0.0226752180606126,-0.0702720358967781,-0.0025427863001823
1770449470827,0.009918212890625,-0.1816864013671875,-0.9534912109375,-0.0083647230640053,-0.0103469137102365,-0.0049782469868659
1770449470837,0.0070343017578125,-0.193115234375,-0.9431915283203124,-0.0314370170235633,0.0315486043691635,0.0035249600186944
1770449470847,0.001312255859375,-0.1894073486328125,-0.9467315673828124,-0.0389359481632709,0.0610258020460605,0.0132729280740022
1770449470857,-0.0077056884765625,-0.1804656982421875,-0.9676361083984376,-0.0337824635207653,0.0580007173120975,0.0177845899015665
1770449470867,-0.009246826171875,-0.1790924072265625,-0.9875335693359376,-0.0210994258522987,0.036054141819477,0.0122838299721479
1770449470877,-0.0119781494140625,-0.173248291015625,-1.003326416015625,-0.0059961071237921,0.0115709025412797,0.0023861923255026
1770449470887,-0.013916015625,-0.171661376953125,-1.007415771484375,0.0066504459828138,-0.0129458922892808,-0.0037574539892375
1770449470897,-0.01519775390625,-0.1728057861328125,-1.0003662109375,0.0187153648585081,-0.0201004743576049,-0.0070184948854148
1770449470907,-0.0138702392578125,-0.1757659912109375,-0.99163818359375,0.0270020570605993,-0.0154058542102575,-0.0085972165688872
1770449470917,-0.0100250244140625,-0.1784210205078125,-0.984222412109375,0.0296042319387197,-0.0101098921149969,-0.0064555024728178
1770449470927,-0.003173828125,-0.1810455322265625,-0.978790283203125,0.0289845131337642,-0.0050102048553526,-0.004424575716257
1770449470937,-0.0008392333984375,-0.184783935546875,-0.97332763671875,0.0203510783612728,-0.0007177218794822,-0.0008791094878688
1770449470947,-0.001220703125,-0.182037353515625,-0.970123291015625,0.0115083176642656,0.0047625307925045,0.0004237089306116
1770449470958,-0.00189208984375,-0.180694580078125,-0.9670867919921876,-0.0013321131700649,0.0037835529074072,0.0004676510870922
1770449470968,-0.0042877197265625,-0.1787109375,-0.9650421142578124,-0.0123996781185269,0.0052344431169331,-1.0652644277797665e-06
1770449470978,-0.00555419921875,-0.178009033203125,-0.9667816162109376,-0.0227860063314437,0.0104872621595859,0.001848233747296
1770449470988,-0.0046234130859375,-0.1776885986328125,-0.9705810546875,-0.0271218977868556,0.0120960772037506,0.0037726340815424
1770449470998,-0.007354736328125,-0.176300048828125,-0.9756317138671876,-0.0265748854726552,0.0154231647029519,0.0045574675314128
1770449471008,-0.0078582763671875,-0.17681884765625,-0.981414794921875,-0.0195787604898214,0.0172530226409435,0.0067646955139935
1770449471018,-0.0074462890625,-0.1753997802734375,-0.9905242919921876,-0.0087436903268098,0.0094177369028329,0.0082784360274672
1770449471028,-0.0083160400390625,-0.173614501953125,-0.9926300048828124,-1.0120012120751198e-05,0.0041300300508737,0.003768905531615
1770449471038,-0.00836181640625,-0.1761016845703125,-0.9907379150390624,0.0052829124033451,-0.0021193434949964,0.0017289242241531
1770449471048,-0.005706787109375,-0.1803741455078125,-0.9873046875,0.0091934986412525,-0.004325239919126,0.0059716058894991
1770449471058,-0.0030975341796875,-0.1903076171875,-0.983184814453125,0.0102790025994181,0.0029872676823288,0.0134923728182911
1770449471068,0.001556396484375,-0.1938018798828125,-0.98223876953125,0.0091117396950721,0.0092717949301004,0.0197792965918779
1770449471078,0.00274658203125,-0.1825103759765625,-0.9792327880859376,0.0064757424406707,0.0090584764257073,0.0187238864600658
1770449471088,-0.0069427490234375,-0.182708740234375,-0.9762115478515624,0.0034370757639408,0.0187489204108715,0.012214321643114
1770449471098,-0.01177978515625,-0.1757659912109375,-0.9804840087890624,0.0038759645540267,0.0264787450432777,-0.0005384911783039
1770449471108,-0.0176544189453125,-0.1593780517578125,-0.9806671142578124,0.0059614861384034,0.0092954970896244,-0.016482038423419
1770449471118,-0.0196075439453125,-0.18487548828125,-0.9817657470703124,0.0037297571543604,-0.0085074678063392,-0.011566374450922
1770449471128,-0.0053253173828125,-0.189300537109375,-0.9876861572265624,0.0040530646219849,-0.0118737034499645,-0.00408022897318
1770449471138,0.001434326171875,-0.1943206787109375,-0.983367919921875,0.0081559307873249,-0.0114388093352317,0.0057204701006412
1770449471148,0.0068206787109375,-0.190673828125,-0.978790283203125,0.0093945665284991,-0.0041444110684096,0.0121064642444252
1770449471159,0.0008392333984375,-0.169921875,-0.9700775146484376,0.0047982172109186,0.0136950397863984,1.2250540748937055e-05
1770449471168,-0.012451171875,-0.1657867431640625,-0.9662322998046876,-0.0062264706939458,0.0264582391828298,-0.0127815753221511
1770449471179,-0.0150299072265625,-0.1696014404296875,-0.9722442626953124,-0.0174327865242958,0.0210336465388536,-0.0176634155213832
1770449471189,-0.010833740234375,-0.171630859375,-0.981231689453125,-0.0180272031575441,0.006484530866146,-0.0217242036014795
1770449471199,-0.01263427734375,-0.1751861572265625,-0.9877166748046876,-0.013628726825118,-0.0040647825226187,-0.0231748279184103
1770449471209,-0.013153076171875,-0.1776885986328125,-0.9873809814453124,-0.0089029474183917,-0.0108534470200538,-0.0197057947516441
1770449471219,-0.0070953369140625,-0.18280029296875,-0.9859619140625,-0.0121472105383872,-0.0163613967597484,-0.0088254492729902
1770449471229,0.004364013671875,-0.192535400390625,-0.9784088134765624,-0.0198717098683118,-0.0165853686630725,0.0075585837475955
1770449471239,0.0113067626953125,-0.1979522705078125,-0.9749298095703124,-0.0296665485948324,-0.0054389736615121,0.0189598426222801
1770449471249,0.0124969482421875,-0.1964263916015625,-0.9720458984375,-0.0316974744200706,0.0149014517664909,0.0257698111236095
1770449471259,0.00640869140625,-0.1875762939453125,-0.9722900390625,-0.0339606292545795,0.0342671610414981,0.0255559608340263
1770449471269,-0.0018463134765625,-0.18023681640625,-0.978729248046875,-0.030969101935625,0.0392925441265106,0.015501195564866
1770449471279,-0.01171875,-0.17510986328125,-0.987640380859375,-0.0267812795937061,0.0287650693207979,0.0038139128591865
1770449471289,-0.017303466796875,-0.174560546875,-0.9975433349609376,-0.0148244863376021,0.0091040162369608,-0.0068168933503329
1770449471299,-0.0192413330078125,-0.1764678955078125,-1.0008392333984375,-5.725796290789731e-05,-0.0111700966954231,-0.0132337799295783
1770449471309,-0.0150604248046875,-0.17938232421875,-0.9977874755859376,0.0135395107790827,-0.0196067243814468,-0.0111234914511442
1770449471319,-0.0108642578125,-0.1798248291015625,-0.9915313720703124,0.0233633797615766,-0.0139339249581098,-0.0094046872109174
1770449471329,-0.0089874267578125,-0.1827239990234375,-0.9849395751953124,0.0285786483436822,-0.0104574346914887,-0.0094952341169118
1770449471339,-0.0070648193359375,-0.1818695068359375,-0.9779052734375,0.0268300157040357,-0.0085226483643054,-0.0084265079349279
1770449471349,-0.00469970703125,-0.178985595703125,-0.9720611572265624,0.0198205765336751,-0.0083777718245983,-0.009171393699944
1770449471359,-0.005859375,-0.184539794921875,-0.9681854248046876,0.008018777705729,-0.0076331524178385,-0.011331483721733
1770449471369,-0.0037078857421875,-0.1852874755859375,-0.96484375,-0.0056632119230926,-0.0074904067441821,-0.0114744957536458
1770449471379,0.00054931640625,-0.181243896484375,-0.9613800048828124,-0.0174857825040817,-0.0008005462004803,-0.0042496062815189
1770449471390,-0.0012664794921875,-0.17962646484375,-0.9615325927734376,-0.0284926276654005,0.0178578272461891,0.0031505194492638
1770449471399,-0.005218505859375,-0.17657470703125,-0.970489501953125,-0.0263317395001649,0.029038043692708,0.0034256239887326
1770449471410,-0.008544921875,-0.1733245849609375,-0.982513427734375,-0.0196525305509567,0.0161230433732271,-4.101268132217229e-05
1770449471420,-0.0099029541015625,-0.17510986328125,-0.992340087890625,-0.0122124580666422,-0.0008559399866499,-0.0030282805673778
1770449471430,-0.00994873046875,-0.1753692626953125,-0.9960479736328124,-0.0065883942879736,-0.0159789659082889,-0.0062949135899543
1770449471440,-0.0085601806640625,-0.1743011474609375,-0.993988037109375,-0.0023875238839536,-0.0210205968469381,-0.0036938043776899
1770449471450,-0.004150390625,-0.1747589111328125,-0.98956298828125,0.000688160827849,-0.0151762897148728,-0.0046938215382397
1770449471460,-0.0036163330078125,-0.1774444580078125,-0.984832763671875,0.0013864416396245,-0.0035571842454373,-0.0016114787431433
1770449471470,-0.002410888671875,-0.1849365234375,-0.9822235107421876,0.0017528926255181,-0.0073529877699911,0.0018769958987832
1770449471480,0.002197265625,-0.190399169921875,-0.98004150390625,0.0006695187184959,-0.0165443550795316,0.0057955710217356
1770449471490,0.0077056884765625,-0.19091796875,-0.975555419921875,-0.0063420515507459,-0.0071492558345198,0.0132433669641613
1770449471500,0.00494384765625,-0.18914794921875,-0.9720611572265624,-0.0124979484826326,0.0118302945047616,0.0146772135049104
1770449471510,0.0013885498046875,-0.18621826171875,-0.9726104736328124,-0.0160045325756073,0.0247434303164482,0.0190349444746971
1770449471520,-0.0016021728515625,-0.1826629638671875,-0.9782257080078124,-0.0104204164817929,0.0339254774153232,0.0205068737268447
1770449471530,-0.0065155029296875,-0.1800994873046875,-0.99151611328125,-0.0002058623504126,0.0306425970047712,0.0184138938784599
1770449471540,-0.011932373046875,-0.177093505859375,-0.9984893798828124,0.0141768055036664,0.0156439412385225,0.0116033926606178
1770449471550,-0.0146942138671875,-0.173675537109375,-1.000946044921875,0.0263873990625143,-0.0041457428596913,0.0061535001732409
1770449471560,-0.014984130859375,-0.1731109619140625,-0.99603271484375,0.0337771363556385,-0.0175832547247409,-0.0002948119363281
1770449471570,-0.0126953125,-0.177032470703125,-0.9858245849609376,0.0319475457072258,-0.0197313595563173,-0.0037502634804695
1770449471580,-0.011566162109375,-0.1793670654296875,-0.9758758544921876,0.0250222627073526,-0.0172546207904815,-0.0008966863388195
1770449471590,-0.005828857421875,-0.18145751953125,-0.9669189453125,0.0144649595022201,-0.0052922335453331,0.000695351336617
1770449471601,-0.001251220703125,-0.1854400634765625,-0.9613037109375,0.0019076223252341,0.0112406704574823,0.0075354143045842
1770449471611,0.0003814697265625,-0.18389892578125,-0.963470458984375,-0.0077588534913957,0.0273173749446868,0.0124763771891593
1770449471620,-0.0003509521484375,-0.184112548828125,-0.9691314697265624,-0.01159487105906,0.0288979616016149,0.0154633782804012
1770449471631,-0.0016326904296875,-0.1845245361328125,-0.9774627685546876,-0.0112459966912865,0.0175102837383747,0.0182780735194683
1770449471641,-0.004791259765625,-0.18389892578125,-0.9809722900390624,-0.0082270372658967,0.0108680939301848,0.0159555301070213
1770449471651,-0.0076751708984375,-0.1799468994140625,-0.983123779296875,-0.0074557857587933,0.0043340283446013,0.013807957060635
1770449471661,-0.00848388671875,-0.1804962158203125,-0.980865478515625,-0.0078110513277351,-0.0014069479657337,0.0116678411141037
1770449471671,-0.00885009765625,-0.181671142578125,-0.979248046875,-0.010064085945487,-0.0016266588354483,0.0101058976724743
1770449471681,-0.0082550048828125,-0.181121826171875,-0.978729248046875,-0.0100651513785123,0.004267715383321,0.0077282269485294
1770449471691,-0.0093231201171875,-0.181182861328125,-0.978973388671875,-0.0110933976247906,0.0038863508962094,0.0055526909418404
1770449471701,-0.0085906982421875,-0.1807403564453125,-0.98016357421875,-0.0125038074329495,0.0044565335847437,0.0027446537278592
1770449471711,-0.0070343017578125,-0.181060791015625,-0.9804534912109376,-0.0114428037777543,0.0029244171455502,0.00247807148844
1770449471721,-0.008331298828125,-0.1794281005859375,-0.9826812744140624,-0.0114345485344529,0.0023896545171737,-0.0006884271278977
1770449471731,-0.009368896484375,-0.1810150146484375,-0.9821624755859376,-0.0106348013505339,-0.001767273643054,-0.0019627497531473
1770449471741,-0.0103912353515625,-0.1788482666015625,-0.9789276123046876,-0.0121903531253337,0.0017467673169448,-0.0020905814599245
1770449471751,-0.009552001953125,-0.181304931640625,-0.9793243408203124,-0.0105538405478,0.002797916997224,-0.0028192223981022
1770449471761,-0.006744384765625,-0.1907501220703125,-0.9811553955078124,-0.0094222640618681,-0.0001406149094691,0.0050072753801941
1770449471771,0.0013885498046875,-0.196563720703125,-0.982269287109375,-0.0114830182865262,0.0057497648522257,0.0183249451220035
1770449471781,0.0037841796875,-0.1837005615234375,-0.98333740234375,-0.0079242354258894,0.0064541706815361,0.0149113051593303
1770449471792,-0.0066680908203125,-0.1847686767578125,-0.9829559326171876,-0.0060515007935464,0.002208026824519,0.0088206557556986
1770449471801,-0.00738525390625,-0.1790313720703125,-0.9837493896484376,0.0004849616379942,0.0113844806328415,-0.0026501116808503
1770449471812,-0.0137786865234375,-0.1604766845703125,-0.9799346923828124,0.0013600763631984,0.0078235678374767,-0.0179062969982624
1770449471822,-0.02081298828125,-0.1857452392578125,-0.9799652099609376,-0.0020825918763875,-0.0031190942972898,-0.0126276444643735
1770449471832,-0.007781982421875,-0.1845245361328125,-0.983489990234375,-0.0035491946619004,-0.0042911516502499,-0.0069047776050865
1770449471842,-0.00628662109375,-0.187744140625,-0.9799652099609376,-0.0038852856960147,-0.0047745150513947,-0.0052498895674943
1770449471852,-0.0002593994140625,-0.1891937255859375,-0.9749908447265624,-0.0072083780542016,0.0036064526066184,0.0015853798249736
1770449471862,-0.00152587890625,-0.1702117919921875,-0.970306396484375,-0.0097847199067473,0.0234169084578752,-0.0126649290323257
1770449471872,-0.015838623046875,-0.162872314453125,-0.970245361328125,-0.0127908959984779,0.0272414740175008,-0.0298918522894382
1770449471882,-0.0207977294921875,-0.1676177978515625,-0.9747161865234376,-0.0177014991641044,0.0203540083020925,-0.0385479256510734
1770449471892,-0.016845703125,-0.1702423095703125,-0.983489990234375,-0.0159992072731256,0.0093381078913807,-0.0440910272300243
1770449471902,-0.0173492431640625,-0.1695098876953125,-0.9892120361328124,-0.008298410102725,-0.0085202511399984,-0.045170672237873
1770449471912,-0.0136260986328125,-0.17291259765625,-0.9909210205078124,-0.0026109630707651,-0.0182032380253076,-0.0410001650452613
1770449471922,-0.00726318359375,-0.18389892578125,-0.98651123046875,-0.002788595855236,-0.021713551133871,-0.030972296372056
1770449471932,0.005096435546875,-0.19281005859375,-0.9815673828125,-0.0151328798383474,-0.0236936118453741,-0.0129666645079851
1770449471942,0.01873779296875,-0.19915771484375,-0.972076416015625,-0.0310966670513153,-0.0063638896681368,0.0035910063888877
1770449471952,0.0193939208984375,-0.2020721435546875,-0.96630859375,-0.0436846315860748,0.0126723852008581,0.0124556040391325
1770449471962,0.0138702392578125,-0.1941070556640625,-0.963775634765625,-0.0484010875225067,0.0300905238837003,0.0164862982928752
1770449471972,0.00238037109375,-0.1844635009765625,-0.9700775146484376,-0.0502842105925083,0.0447035543620586,0.0128209898248314
1770449471982,-0.009765625,-0.176849365234375,-0.9825897216796876,-0.0466535203158855,0.0454724095761776,-6.73779723001644e-05
1770449471992,-0.017822265625,-0.174072265625,-0.99658203125,-0.0324373021721839,0.0286337751895189,-0.0067503144964575
1770449472002,-0.0210723876953125,-0.173248291015625,-1.0088958740234375,-0.0119722401723265,0.0091141359880566,-0.0142236771062016
1770449472012,-0.0231781005859375,-0.1738128662109375,-1.0152130126953125,0.0134905083104968,-0.0049699912779033,-0.0233183726668357
1770449472022,-0.0203704833984375,-0.1762542724609375,-1.0127716064453125,0.0377308689057827,-0.0283927582204341,-0.026290725916624
1770449472032,-0.0112762451171875,-0.1790618896484375,-1.002105712890625,0.0531710758805274,-0.0402408950030803,-0.0289032869040966
1770449472043,-0.0065765380859375,-0.1804046630859375,-0.9864959716796876,0.0496413223445415,-0.0377961136400699,-0.0278976783156394
1770449472053,-0.001953125,-0.1823577880859375,-0.9698638916015624,0.0368855781853199,-0.0248627383261919,-0.0260630249977111
1770449472063,0.0001220703125,-0.1847076416015625,-0.9570159912109376,0.0188663657754659,-0.0081053311005234,-0.0246805790811777
1770449472073,0.00360107421875,-0.1861572265625,-0.9521942138671876,-0.0090765859931707,0.0063479105010628,-0.0187119022011756
1770449472083,0.0061492919921875,-0.1806488037109375,-0.9503936767578124,-0.0290201995521783,0.0170104093849658,-0.009932791814208
1770449472093,-0.0003662109375,-0.1795806884765625,-0.9569854736328124,-0.0425658375024795,0.0295267328619956,-0.0059074237942695
1770449472103,-0.0053253173828125,-0.173126220703125,-0.9674835205078124,-0.0440273806452751,0.0291392430663108,-0.0058954395353794
1770449472113,-0.0083160400390625,-0.1708984375,-0.9799346923828124,-0.0420361347496509,0.0220589637756347,-0.0062658851966261
1770449472123,-0.00799560546875,-0.169708251953125,-0.9896392822265624,-0.0345372036099433,0.0137443076819181,-0.0100960433483123
1770449472133,-0.010101318359375,-0.1738433837890625,-0.9981536865234376,-0.0248853750526905,-0.0032882050145417,-0.0086416909471154
1770449472143,-0.00775146484375,-0.1732330322265625,-0.9974822998046876,-0.011674765497446,-0.0164649933576583,-0.0088576739653944
1770449472153,-0.005615234375,-0.1727752685546875,-0.9937744140625,-0.0029878003988415,-0.0170495565980672,-0.0078041274100542
1770449472163,-0.0012054443359375,-0.1755218505859375,-0.9874114990234376,-0.0020226708147674,-0.0159057285636663,-0.0081436801701784
1770449472173,0.0032806396484375,-0.1818084716796875,-0.98236083984375,-0.0065021077170968,-0.0116886142641305,-0.000614391232375
1770449472183,0.0082244873046875,-0.18505859375,-0.977508544921875,-0.0112718287855386,-0.0015076154377311,0.0091519532725214
1770449472193,0.010162353515625,-0.18939208984375,-0.9774627685546876,-0.0117011312395334,0.0100923152640461,0.0154623128473758
1770449472203,0.0059356689453125,-0.1887664794921875,-0.9781341552734376,-0.0115352161228656,0.0107554420828819,0.0184354670345783
1770449472213,0.003021240234375,-0.1840057373046875,-0.9781341552734376,-0.0129765188321471,0.014763499610126,0.0201641246676445
1770449472224,-0.001739501953125,-0.181488037109375,-0.98101806640625,-0.0118454741314053,0.0174482315778732,0.0210578814148902
1770449472233,-0.00787353515625,-0.180267333984375,-0.9850311279296876,-0.0127030117437243,0.0187486540526151,0.0180146861821413
1770449472243,-0.011474609375,-0.1750335693359375,-0.9871978759765624,-0.0099493032321333,0.0182799380272626,0.0100678140297532
1770449472253,-0.0111846923828125,-0.1716461181640625,-0.9906158447265624,-0.0049066077917814,0.0126404277980327,0.0075718993321061
1770449472264,-0.0130462646484375,-0.1707000732421875,-0.9918365478515624,0.0030618363525718,0.0067300745286047,0.0021821942646056
1770449472274,-0.015899658203125,-0.172454833984375,-0.99151611328125,0.0090518184006214,0.0034245587885379,-0.0026541063562035
1770449472284,-0.0146484375,-0.17486572265625,-0.9907073974609376,0.0171321146190166,-0.001888713799417,-0.006467486731708
1770449472294,-0.0121612548828125,-0.1775665283203125,-0.9842529296875,0.0166088044643402,-0.0084478128701448,-0.0065836003050208
1770449472304,-0.00579833984375,-0.1787872314453125,-0.978424072265625,0.0133094135671854,-0.0092070801183581,-0.0070126359350979
1770449472314,-0.001190185546875,-0.180267333984375,-0.9716949462890624,0.0033667681273072,-0.0035044536925852,-0.0044903559610247
1770449472324,0.0003509521484375,-0.180267333984375,-0.968017578125,-0.0082446141168475,0.0074320835992693,-0.0011395666515454
1770449472334,0.000244140625,-0.1811981201171875,-0.966766357421875,-0.017315873876214,0.0140066295862197,0.0017915084026753
1770449472344,-0.0001373291015625,-0.17919921875,-0.96868896484375,-0.0259346608072519,0.0177853889763355,0.0043470780365169
1770449472354,-0.002105712890625,-0.180084228515625,-0.9734649658203124,-0.0276880860328674,0.0200376231223344,0.0068784123286604
1770449472364,-0.0033721923828125,-0.1787872314453125,-0.9795379638671876,-0.0258920509368181,0.0173345152288675,0.0080786990001797
1770449472374,-0.006622314453125,-0.17657470703125,-0.983489990234375,-0.0186325404793024,0.0110774189233779,0.0073809507302939
1770449472384,-0.009002685546875,-0.1746826171875,-0.987213134765625,-0.0147121008485555,0.0032463932875543,0.0028724854346364
1770449472394,-0.0098876953125,-0.174224853515625,-0.9866790771484376,-0.0103722130879759,-0.0065130265429615,-0.0008801747462712
1770449472404,-0.0092010498046875,-0.17425537109375,-0.9838409423828124,-0.0083884242922067,-0.0068200891837477,-0.0041057956404984
1770449472414,-0.007354736328125,-0.1745147705078125,-0.9809417724609376,-0.011421232484281,-0.0021052288357168,-0.0055401739664375
1770449472424,-0.0075225830078125,-0.1763458251953125,-0.9786834716796876,-0.0129842413589358,0.0043010050430893,-0.0028461201582103
1770449472434,-0.00341796875,-0.178741455078125,-0.9801483154296876,-0.0107027115300297,0.007220628671348,-0.0013515542959794
1770449472444,-0.0035858154296875,-0.1777496337890625,-0.983367919921875,-0.0089767174795269,0.0107940584421157,-0.0020335898734629
1770449472454,-0.0045623779296875,-0.178131103515625,-0.98443603515625,-0.0061710770241916,-0.0006543386843986,-0.0042405514977872
1770449472464,-0.0033416748046875,-0.178131103515625,-0.9835357666015624,-0.0053987600840628,-0.0113903395831584,-0.0042567965574562
1770449472475,-0.00091552734375,-0.1775970458984375,-0.9792022705078124,-0.0109530491754412,-0.0055470983497798,-0.00140614900738
1770449472485,-0.00091552734375,-0.1866302490234375,-0.97564697265625,-0.0191800855100154,0.003713778220117,0.0086744483560323
1770449472495,0.0060577392578125,-0.1907501220703125,-0.9748687744140624,-0.0244345031678676,0.0121919512748718,0.0195071212947368
1770449472505,0.0055999755859375,-0.1767730712890625,-0.9773406982421876,-0.0208759866654872,0.0161803010851144,0.0221002418547868
1770449472515,-0.006805419921875,-0.180023193359375,-0.9833221435546876,-0.0134761277586221,0.0226477887481451,0.0150079783052206
1770449472525,-0.010162353515625,-0.168701171875,-0.99237060546875,-0.0010580739472061,0.0214456375688314,-0.0004522047529462
1770449472535,-0.019805908203125,-0.155364990234375,-0.991790771484375,0.0032240226864814,-0.004693288821727,-0.018319085240364
1770449472545,-0.01873779296875,-0.176910400390625,-0.9911651611328124,0.0015978966839611,-0.0206280462443828,-0.0112433331087231
1770449472555,-0.0068359375,-0.1804351806640625,-0.98858642578125,0.0041832933202385,-0.0162801705300807,-0.0096616819500923
1770449472565,-0.0030364990234375,-0.1869964599609375,-0.982574462890625,0.0034261567052453,-0.0110052470117807,-0.0026823359075933
1770449472575,0.0078582763671875,-0.1868896484375,-0.9752960205078124,0.0037750308401882,0.0033774208277463,0.006255499087274
1770449472585,0.0059661865234375,-0.1723785400390625,-0.9693450927734376,0.0013100089272484,0.0197598561644554,-0.0016330503858625
1770449472595,-0.0058135986328125,-0.1630401611328125,-0.9701080322265624,-0.0057990332134068,0.0311925411224365,-0.012270781211555
1770449472605,-0.0140838623046875,-0.1668701171875,-0.978607177734375,-0.009688314050436,0.0203691869974136,-0.0234201047569513
1770449472615,-0.0139007568359375,-0.1698150634765625,-0.985504150390625,-0.0139954444020986,-0.0012072109384462,-0.028107801452279
1770449472625,-0.0118865966796875,-0.167816162109375,-0.984771728515625,-0.0151062486693263,-0.005715143866837,-0.0288468282669782
1770449472635,-0.0116119384765625,-0.1715545654296875,-0.983795166015625,-0.0145781440660357,0.0003603257064241,-0.0240110605955123
1770449472645,-0.0059356689453125,-0.1784210205078125,-0.982025146484375,-0.0120702451094985,0.0058853197842836,-0.0131411021575331
1770449472656,0.005096435546875,-0.185302734375,-0.9839935302734376,-0.0073689664714038,-0.000949150591623,-0.0027028422337025
1770449472666,0.0114288330078125,-0.19293212890625,-0.98455810546875,-0.0057726679369807,-0.0099700763821601,0.0081143854185938
1770449472675,0.013092041015625,-0.19158935546875,-0.977264404296875,-0.0119746373966336,-0.0076214345172047,0.0120289660990238
1770449472686,0.007293701171875,-0.1840057373046875,-0.9677886962890624,-0.0237348899245262,0.006738063879311,0.0100715421140193
1770449472696,-0.0013885498046875,-0.176055908203125,-0.9631195068359376,-0.0378669537603855,0.0204506795853376,0.0032666332554072
1770449472706,-0.0107421875,-0.1690216064453125,-0.9662933349609376,-0.0475158542394638,0.0325720570981502,-0.004661863669753
1770449472716,-0.0179595947265625,-0.16827392578125,-0.9796600341796876,-0.0439043417572975,0.0316399522125721,-0.0131839793175458
1770449472726,-0.0195770263671875,-0.172637939453125,-0.994903564453125,-0.0299594961106777,0.0100877881050109,-0.0185475852340459
1770449472736,-0.018402099609375,-0.1732940673828125,-1.002838134765625,-0.0125434882938861,-0.014813301153481,-0.0200559999793767
1770449472746,-0.014556884765625,-0.17449951171875,-1.0047149658203125,0.0026189526543021,-0.030678017064929,-0.0222310032695531
1770449472756,-0.0106353759765625,-0.1749420166015625,-0.9967803955078124,0.0057774614542722,-0.0311603154987096,-0.0246060099452734
1770449472766,-0.0050201416015625,-0.1735382080078125,-0.984283447265625,0.0061652180738747,-0.0186248160898685,-0.0257594250142574
1770449472776,-0.0028533935546875,-0.1764373779296875,-0.977081298828125,0.0024847292806953,-0.0024759408552199,-0.0229268874973058
1770449472786,-0.000396728515625,-0.1832733154296875,-0.97320556640625,-0.0008024104172363,0.010382866486907,-0.0192400068044662
1770449472796,0.004638671875,-0.1814422607421875,-0.9755706787109376,-0.0050871702842414,0.0073766899295151,-0.0159723088145256
1770449472806,0.0052642822265625,-0.1794586181640625,-0.97637939453125,-0.0083061326295137,0.0057042245753109,-0.009452624246478
1770449472816,0.001922607421875,-0.1775054931640625,-0.977630615234375,-0.0130897033959627,0.0160364899784326,-0.0096441050991415
1770449472826,-0.0059051513671875,-0.1716461181640625,-0.9782257080078124,-0.0148654989898204,0.0148785486817359,-0.0148468567058444
1770449472836,-0.0087890625,-0.16900634765625,-0.9803619384765624,-0.0190740916877985,0.0069556441158056,-0.0177526324987411
1770449472846,-0.007843017578125,-0.1721649169921875,-0.981201171875,-0.0246877688914537,0.0040424121543765,-0.0167757850140333
1770449472856,-0.00567626953125,-0.176116943359375,-0.983245849609375,-0.0262233484536409,0.0054783886298537,-0.0115445367991924
1770449472866,-0.0012664794921875,-0.1732025146484375,-0.985595703125,-0.0216530971229076,0.0138878524303436,-0.0078145135194063
1770449472876,-0.001220703125,-0.171630859375,-0.9884490966796876,-0.0137773314490914,0.0211699996143579,-0.0042546661570668
1770449472886,-0.001953125,-0.1728057861328125,-0.994598388671875,-0.0017840516520664,0.0124241793528199,-0.0049651972949504
1770449472896,0.000457763671875,-0.1757965087890625,-0.9972991943359376,0.009000951424241,-0.0069444589316844,-0.0045473473146557
1770449472907,0.0036468505859375,-0.1780242919921875,-0.9911651611328124,0.0123083312064409,-0.0146809415891766,-0.004269313532859
1770449472916,0.0034942626953125,-0.17889404296875,-0.9839630126953124,0.0077474019490182,-0.0078874845057725,-0.0049489522352814
1770449472927,0.00103759765625,-0.1800994873046875,-0.9756622314453124,0.0010924286907538,0.0057854512706398,-0.0054581486620008
1770449472937,0.00030517578125,-0.177215576171875,-0.9701385498046876,-0.0043524042703211,0.0188394673168659,0.0001986718125408
1770449472947,-0.0041656494140625,-0.1707916259765625,-0.9710540771484376,-0.0103024384006857,0.0328628756105899,-0.0003597930481191
1770449472957,-0.0092620849609375,-0.1667938232421875,-0.977752685546875,-0.0091780517250299,0.0383306108415126,-0.0056861150078475
1770449472967,-0.013763427734375,-0.1634521484375,-0.9873199462890624,0.0022615564521402,0.0260094963014125,-0.0125860990956425
1770449472977,-0.012725830078125,-0.1617431640625,-0.9955596923828124,0.0147970551624894,0.0047201868146657,-0.0219260714948177
1770449472987,-0.0121307373046875,-0.16363525390625,-0.9957427978515624,0.0215495005249977,-0.0183731485158205,-0.025637986138463
1770449472997,-0.009368896484375,-0.1653289794921875,-0.9854278564453124,0.0181510411202907,-0.0233330186456441,-0.0254683420062065
1770449473007,-0.0045318603515625,-0.16876220703125,-0.9729156494140624,0.007496265694499,-0.01767273619771,-0.0203185882419347
1770449473017,0.0007781982421875,-0.175689697265625,-0.9616546630859376,-0.0093005569651722,-0.0067359334789216,-0.0117376158013939
1770449473027,0.008087158203125,-0.1816558837890625,-0.9578399658203124,-0.0228927992284297,0.0090361051261425,-0.0018120148451998
1770449473037,0.01055908203125,-0.1855316162109375,-0.95989990234375,-0.0329907052218914,0.0174937732517719,0.009574064053595
1770449473047,0.01220703125,-0.18560791015625,-0.9666290283203124,-0.0403887033462524,0.0222163554280996,0.0182266738265752
1770449473057,0.009368896484375,-0.1832733154296875,-0.971527099609375,-0.048451155424118,0.0200048666447401,0.0232730973511934
1770449473067,0.0064239501953125,-0.1787567138671875,-0.97650146484375,-0.0548744350671768,0.021092502400279,0.0222829356789588
1770449473077,0.003387451171875,-0.173980712890625,-0.984466552734375,-0.0540443249046802,0.0286185946315526,0.0234752316027879
1770449473087,-0.001434326171875,-0.1716461181640625,-0.9910888671875,-0.0465893410146236,0.0349760949611663,0.0188194941729307
1770449473099,-0.007568359375,-0.170013427734375,-1.00177001953125,-0.0296188779175281,0.030946996062994,0.0111240241676568
1770449473107,-0.0113525390625,-0.1680450439453125,-1.0119171142578125,-0.0054746600799262,0.0155640458688139,0.0055505600757896
1770449473117,-0.014007568359375,-0.1655426025390625,-1.014923095703125,0.0178455766290426,-0.0070853400975465,-0.0043899547308683
1770449473128,-0.013397216796875,-0.1640472412109375,-1.0093536376953125,0.0333092212677001,-0.0212115459144115,-0.0144460508599877
1770449473138,-0.012176513671875,-0.1636962890625,-0.99896240234375,0.0403154641389846,-0.0210948996245861,-0.0229447297751903
1770449473148,-0.01031494140625,-0.164459228515625,-0.9853057861328124,0.0370509624481201,-0.0134676052257418,-0.0279173851013183
1770449473158,-0.008636474609375,-0.1673126220703125,-0.9738311767578124,0.0272819548845291,-0.0129759861156344,-0.0302844028919935
1770449473168,-0.00469970703125,-0.1711883544921875,-0.965606689453125,0.0158636514097452,-0.0094409063458442,-0.0274412110447883
1770449473178,-0.001007080078125,-0.173675537109375,-0.958465576171875,0.0009020126308314,2.450108149787411e-05,-0.0246078744530677
1770449473188,0.0024871826171875,-0.17626953125,-0.9545745849609376,-0.0184453204274177,0.0067330040037631,-0.0181076303124427
1770449473198,0.0068817138671875,-0.17657470703125,-0.9536590576171876,-0.0340192206203937,0.0186695586889982,-0.0068552428856492
1770449473208,0.0099334716796875,-0.18511962890625,-0.95819091796875,-0.0452481731772422,0.0349742285907268,0.0067729512229561
1770449473218,0.0150299072265625,-0.192047119140625,-0.970123291015625,-0.0473667159676551,0.0430113822221756,0.0239788368344306
1770449473228,0.0156402587890625,-0.1799163818359375,-0.9832000732421876,-0.0379199497401714,0.0363327078521251,0.0262696873396635
1770449473238,0.003448486328125,-0.1752777099609375,-0.99163818359375,-0.0264142975211143,0.023552730679512,0.0209707953035831
1770449473248,-0.00494384765625,-0.17181396484375,-0.9985504150390624,-0.0120545318350195,0.0202837008982896,0.009343434125185
1770449473258,-0.0126190185546875,-0.151153564453125,-0.9963836669921876,0.0008902947301976,0.0017467673169448,-0.0127469543367624
1770449473268,-0.01690673828125,-0.1629791259765625,-0.9904937744140624,-0.0013582120882347,-0.023853400722146,-0.0119791645556688
1770449473278,-0.007659912109375,-0.1800384521484375,-0.988525390625,-0.0064136907458305,-0.0214962363243103,-0.0037827540654689
1770449473288,-0.0024566650390625,-0.1827392578125,-0.984222412109375,-0.0052299154922366,-0.0180317312479019,0.0033337450586259
1770449473298,0.0065460205078125,-0.1859588623046875,-0.9763031005859376,-0.0089556779712438,-0.0109170963987708,0.0122484108433127
1770449473308,0.006622314453125,-0.16754150390625,-0.972991943359375,-0.0145576372742652,0.007391070947051,0.0061255367472767
1770449473319,-0.011077880859375,-0.15509033203125,-0.9702911376953124,-0.0211055520921945,0.0195262972265481,-0.0132638737559318
1770449473329,-0.01934814453125,-0.1578216552734375,-0.975341796875,-0.0264316070824861,0.0171206630766391,-0.0258859246969223
1770449473339,-0.01727294921875,-0.1656646728515625,-0.9880218505859376,-0.0272870138287544,-0.0028668928425759,-0.0355071276426315
1770449473349,-0.01239013671875,-0.1682586669921875,-0.99359130859375,-0.0222991798073053,-0.0230019893497228,-0.0326740555465221
1770449473359,-0.0067138671875,-0.16937255859375,-0.9908599853515624,-0.0206895656883716,-0.0211958326399326,-0.0285277813673019
1770449473369,-0.003997802734375,-0.1716156005859375,-0.98504638671875,-0.0229852106422185,-0.0082198465242981,-0.0227750875055789
1770449473379,0.004241943359375,-0.179351806640625,-0.9825897216796876,-0.0280750431120395,-0.0039286953397095,-0.0119493370875716
1770449473389,0.0148162841796875,-0.191162109375,-0.983428955078125,-0.0302985180169343,-0.003892742563039,-0.0008809737046249
1770449473399,0.02044677734375,-0.1938934326171875,-0.9806365966796876,-0.0318538025021553,0.0034027209039777,0.009302687831223
1770449473409,0.01800537109375,-0.189300537109375,-0.9781036376953124,-0.0312511287629604,0.0215452387928962,0.0104712834581732
1770449473419,0.0085296630859375,-0.181671142578125,-0.9755859375,-0.0320825688540935,0.0309728290885686,0.0075687039643526
1770449473429,-0.0027008056640625,-0.1730804443359375,-0.9793243408203124,-0.0287392362952232,0.0395306311547756,0.0046767769381403
1770449473439,-0.0108642578125,-0.16796875,-0.989593505859375,-0.0179241392761468,0.0363356359302997,-0.0043124565854668
1770449473449,-0.01519775390625,-0.167510986328125,-0.9983978271484376,-0.0040791640058159,0.0205215197056531,-0.0098813930526375
1770449473459,-0.0179901123046875,-0.167266845703125,-1.0045928955078125,0.0115474667400121,-0.0004977448261342,-0.0174610149115324
1770449473469,-0.0169525146484375,-0.16705322265625,-1.0050811767578125,0.0272276252508163,-0.0184367969632148,-0.0223551057279109
1770449473479,-0.01434326171875,-0.1672210693359375,-1.000396728515625,0.0370570868253707,-0.0267224237322807,-0.0267429314553737
1770449473489,-0.010467529296875,-0.1676788330078125,-0.9893951416015624,0.0400009453296661,-0.0269370749592781,-0.0278057977557182
1770449473499,-0.0052032470703125,-0.173614501953125,-0.9826507568359376,0.0333033613860607,-0.0223569702357053,-0.0227628368884325
1770449473509,0.0027618408203125,-0.1805877685546875,-0.9743499755859376,0.0264787450432777,-0.0184844676405191,-0.0176016297191381
1770449473519,0.00750732421875,-0.1823883056640625,-0.970977783203125,0.0141637558117508,-0.0162974800914526,-0.0129669308662414
1770449473529,0.0103912353515625,-0.178955078125,-0.9649200439453124,-0.0004676510870922,-0.0066073024645447,-0.0062925168313086
1770449473540,0.0081024169921875,-0.174530029296875,-0.958770751953125,-0.0169153343886137,0.012656140141189,-0.0051185954362154
1770449473549,0.00347900390625,-0.169036865234375,-0.9611358642578124,-0.0307805500924587,0.032489500939846,-0.0036487970501184
1770449473560,-0.00030517578125,-0.1655731201171875,-0.970794677734375,-0.034794732928276,0.0377915874123573,-0.0057090185582637
1770449473570,-0.0028839111328125,-0.1680145263671875,-0.9841766357421876,-0.0295978393405675,0.023479226976633,-0.0067830714397132
1770449473580,-0.0012054443359375,-0.169281005859375,-0.9940185546875,-0.0176463723182678,0.0112278871238231,-0.0028149613644927
1770449473590,-0.0016937255859375,-0.167236328125,-1.0019378662109375,-0.0037342845462262,0.0046592000871896,-0.0044301683083176
1770449473600,-0.00433349609375,-0.16876220703125,-1.003997802734375,0.0115306880325078,-0.0070033147931098,-0.0038759645540267
1770449473610,-0.0013580322265625,-0.1723785400390625,-1.000213623046875,0.0185217522084712,-0.0190956629812717,-0.0049697249196469
1770449473620,0.0021209716796875,-0.1762542724609375,-0.9898529052734376,0.014675348997116,-0.0223721507936716,-0.0033276197500526
1770449473630,0.0086669921875,-0.178375244140625,-0.976226806640625,0.0011635350529104,-0.0105892606079578,0.000654871284496
1770449473640,0.0098724365234375,-0.179840087890625,-0.9662017822265624,-0.0133472308516502,0.0124603975564241,0.0032016523182392
1770449473650,0.0094146728515625,-0.1780242919921875,-0.9630889892578124,-0.0251029562205076,0.0382395312190055,0.0115653099492192
1770449473660,0.0069732666015625,-0.1780853271484375,-0.97247314453125,-0.0235279630869627,0.050085537135601,0.0156149119138717
1770449473670,0.002838134765625,-0.17694091796875,-0.985015869140625,-0.0124966166913509,0.0441490858793258,0.0151589792221784
1770449473680,-0.0030364990234375,-0.1732025146484375,-0.9976348876953124,0.0014618091518059,0.0258539672940969,0.0098566254600882
1770449473690,-0.007080078125,-0.169219970703125,-1.00213623046875,0.0154500622302293,0.0060182115994393,0.0047849016264081
1770449473700,-0.0095977783203125,-0.1671905517578125,-0.9976654052734376,0.0199289675801992,-0.0001344896299997,-0.0009800433181226
1770449473710,-0.0095367431640625,-0.166046142578125,-0.9880523681640624,0.0215234011411666,0.0017571536591276,-0.0054589477367699
1770449473720,-0.009368896484375,-0.16668701171875,-0.9820098876953124,0.019733490422368,0.0076691047288477,-0.0074171698652207
1770449473730,-0.0097503662109375,-0.1699371337890625,-0.978759765625,0.0177742037922143,0.0046868971548974,-0.0123450830578804
1770449473740,-0.00811767578125,-0.172882080078125,-0.9764556884765624,0.0123844975605607,-0.0043928842060267,-0.0133514916524291
1770449473750,-0.00457763671875,-0.1729278564453125,-0.9720611572265624,0.000517185893841,-0.0072344769723713,-0.0109005849808454
1770449473760,-0.00250244140625,-0.1739501953125,-0.9656524658203124,-0.0163030736148357,0.0013970943400636,-0.0128465564921498
1770449473771,-0.0018310546875,-0.17425537109375,-0.964263916015625,-0.0294577572494745,0.0084773739799857,-0.0132705317810177
1770449473781,-0.0008544921875,-0.171783447265625,-0.967010498046875,-0.0369894430041313,0.0146066397428512,-0.009467271156609
1770449473791,0.0011138916015625,-0.172149658203125,-0.9735107421875,-0.0347957983613014,0.021494373679161,-0.0042855585925281
1770449473801,-0.0004730224609375,-0.1719970703125,-0.98516845703125,-0.0234675090759992,0.0202211160212755,-0.0022274679504334
1770449473811,-0.0001373291015625,-0.171478271484375,-0.9954376220703124,-0.0092443646863102,0.0053665358573198,-0.0002490055630914
1770449473821,0.000457763671875,-0.169281005859375,-0.999481201171875,0.001880191732198,-0.0036962011363357,-0.0015510249650105
1770449473831,-0.0005645751953125,-0.1677703857421875,-0.99749755859375,0.0084941526874899,-0.0118103204295039,-0.0052381716668605
1770449473841,0.000640869140625,-0.1678466796875,-0.9923858642578124,0.0109075084328651,-0.0134995635598897,-0.0070877368561923
1770449473851,0.0020599365234375,-0.1685791015625,-0.9854736328125,0.0096504967659711,-0.006876281928271,-0.0107386643067002
1770449473861,0.0006866455078125,-0.1702423095703125,-0.981231689453125,0.0085604647174477,-0.0036565200425684,-0.0135765289887785
1770449473871,0.0019073486328125,-0.172515869140625,-0.9759979248046876,0.0005757753970101,-0.002838130807504,-0.0098875183612108
1770449473881,0.003021240234375,-0.1721038818359375,-0.9730682373046876,-0.006425941362977,0.0054118097759783,-0.0126414932310581
1770449473891,0.0007781982421875,-0.1717529296875,-0.9728240966796876,-0.0137709397822618,0.0161811001598835,-0.0103098955005407
1770449473901,-0.002288818359375,-0.168304443359375,-0.9751434326171876,-0.0185726191848516,0.0204592030495405,-0.0121232420206069
1770449473911,-0.0036163330078125,-0.1697540283203125,-0.9810333251953124,-0.0170338451862335,0.0211697332561016,-0.0095295896753668
1770449473921,-0.002166748046875,-0.178955078125,-0.9893646240234376,-0.0134817203506827,0.0174514278769493,-0.0010263823205605
1770449473931,0.006195068359375,-0.1797027587890625,-0.9952239990234376,-0.0069817430339753,0.0073322150856256,0.0056477654725313
1770449473941,0.0070037841796875,-0.168548583984375,-0.9949188232421876,-0.0001392833219142,-0.0015763250412419,0.0036924728192389
1770449473951,0.0010833740234375,-0.16705322265625,-0.98870849609375,-0.0007480819476768,-0.0010929612908512,-0.0017323862994089
1770449473961,-0.0001373291015625,-0.169921875,-0.9860382080078124,0.0074025224894285,0.0148987881839275,-0.0089873699471354
1770449473971,-0.002349853515625,-0.1578369140625,-0.98443603515625,0.0105895269662141,0.0170620735734701,-0.0208368394523859
1770449473981,-0.0025482177734375,-0.169158935546875,-0.9828948974609376,0.0123251089826226,0.0033782199025154,-0.0171552840620279
1770449473992,0.004302978515625,-0.188934326171875,-0.986175537109375,0.0152756255120038,0.0026021746452897,-0.0041886195540428
1770449474002,0.0097503662109375,-0.1831512451171875,-0.9836273193359376,0.0215955730527639,0.0002492718631401,0.000966461142525
1770449474012,0.0130157470703125,-0.1807098388671875,-0.975616455078125,0.0191340129822492,-0.0015001586871221,0.0015182681381702
1770449474022,0.0063934326171875,-0.1664276123046875,-0.9641876220703124,0.0091871069744229,0.0126468194648623,-0.0111368065699934
1770449474032,-0.0074462890625,-0.154937744140625,-0.9569091796875,-0.0073527214117348,0.0276318937540054,-0.0252662077546119
1770449474042,-0.0142059326171875,-0.1534271240234375,-0.961639404296875,-0.0237676464021205,0.0290279239416122,-0.0365915670990943
1770449474052,-0.014678955078125,-0.1634521484375,-0.973419189453125,-0.0367846451699733,0.0153480637818574,-0.0328743271529674
1770449474062,-0.010345458984375,-0.1674652099609375,-0.983612060546875,-0.0386246256530284,-0.0012325108982622,-0.02610963024199
1770449474072,-0.0066680908203125,-0.1656951904296875,-0.9884185791015624,-0.0331313200294971,-0.0114981979131698,-0.0224874652922153
1770449474082,-0.006011962890625,-0.1683502197265625,-0.990570068359375,-0.0293291267007589,-0.0153166381642222,-0.0208874382078647
1770449474092,0.0042572021484375,-0.1764373779296875,-0.9907073974609376,-0.0272523928433656,-0.0171965640038251,-0.0097743337973952
1770449474102,0.0153350830078125,-0.182769775390625,-0.9889068603515624,-0.0252262614667415,-0.0134545564651489,-0.0018567559309303
1770449474112,0.0204010009765625,-0.185302734375,-0.9857330322265624,-0.0249306503683328,0.0024698155466467,0.0052339104004204
1770449474122,0.019683837890625,-0.181427001953125,-0.9841766357421876,-0.0202962160110473,0.0189627725630998,0.0070232884027063
1770449474132,0.0119781494140625,-0.1747589111328125,-0.9828033447265624,-0.0148527156561613,0.023691214621067,0.0030413300264626
1770449474142,0.0030364990234375,-0.168243408203125,-0.985382080078125,-0.0069447252899408,0.0198482722043991,-0.0019555592443794
1770449474152,-0.0019989013671875,-0.1640777587890625,-0.990478515625,0.0009036105475388,0.0143520412966609,-0.0095365131273865
1770449474162,-0.0084686279296875,-0.1651763916015625,-0.9946746826171876,0.0086712520569562,0.0089546125382184,-0.0122867599129676
1770449474172,-0.010528564453125,-0.1663665771484375,-0.9938201904296876,0.0193111132830381,-0.0028778119012713,-0.0165598019957542
1770449474182,-0.0081024169921875,-0.167633056640625,-0.9925994873046876,0.0277855582535266,-0.0138340564444661,-0.0167339723557233
1770449474193,-0.0048980712890625,-0.168487548828125,-0.985198974609375,0.0306101068854331,-0.0266819447278976,-0.0149387354031205
1770449474202,3.0517578125e-05,-0.1674957275390625,-0.9764404296875,0.025800971314311,-0.0253921747207641,-0.0119131179526448
1770449474213,0.0035858154296875,-0.17218017578125,-0.9673614501953124,0.0117189735174179,-0.0110297482460737,-0.0056054214946925
1770449474223,0.00726318359375,-0.1782073974609375,-0.9651336669921876,-0.0048610679805278,0.0055313855409622,0.0028418591246008
1770449474233,0.013458251953125,-0.1748046875,-0.967926025390625,-0.0148806786164641,0.0102001735940575,0.0109618371352553
1770449474243,0.0124053955078125,-0.1729736328125,-0.96978759765625,-0.0215367171913385,0.0151169011369347,0.0145704206079244
1770449474253,0.0085296630859375,-0.168853759765625,-0.97320556640625,-0.0256369207054376,0.018770758062601,0.0155145106837153
1770449474263,0.0064544677734375,-0.1689605712890625,-0.981201171875,-0.0220831986516714,0.0207502860575914,0.0143371280282735
1770449474273,0.00244140625,-0.169403076171875,-0.987701416015625,-0.0148761514574289,0.0153563190251588,0.0150479255244135
1770449474283,-0.0004425048828125,-0.165252685546875,-0.993011474609375,-0.0067513794638216,0.0089575424790382,0.0110068451613187
1770449474293,-0.0025634765625,-0.1654815673828125,-0.995452880859375,0.0033894050866365,0.0033649040851742,0.0101295998319983
1770449474303,-0.0027923583984375,-0.16595458984375,-0.9952392578125,0.00725365197286,-0.0016716661630198,0.0113927368074655
1770449474313,-0.00067138671875,-0.1692047119140625,-0.993560791015625,0.0113522568717598,-0.0103839309886097,0.010024138726294
1770449474323,0.0052642822265625,-0.1715240478515625,-0.9893951416015624,0.0113482614979147,-0.016139555722475,0.0120036657899618
1770449474333,0.0069580078125,-0.1753997802734375,-0.981842041015625,0.0086475498974323,-0.0100054964423179,0.0184210855513811
1770449474343,0.0084075927734375,-0.17620849609375,-0.9769439697265624,0.0039771646261215,-0.0003134540456812,0.0195952728390693
1770449474353,0.00750732421875,-0.1774139404296875,-0.971466064453125,0.0006040049483999,0.0057942396961152,0.0182650238275527
1770449474363,0.006439208984375,-0.17413330078125,-0.9700469970703124,-0.0042461440898478,0.0157009325921535,0.0188999213278293
1770449474373,0.0018310546875,-0.17181396484375,-0.9734649658203124,-0.007414773106575,0.0221433844417333,0.0159286335110664
1770449474383,-0.0012359619140625,-0.1694793701171875,-0.9788970947265624,-0.0056461677886545,0.0242161229252815,0.0147501835599541
1770449474394,-0.003265380859375,-0.168609619140625,-0.9863433837890624,0.0010884338989853,0.0156921446323394,0.012051336467266
1770449474403,-0.0065765380859375,-0.1671600341796875,-0.991729736328125,0.003531884169206,0.0052208611741662,0.0090917656198143
1770449474413,-0.00341796875,-0.1675872802734375,-0.9889984130859376,0.0055241947993636,-0.0054568168707191,0.0062078284099698
1770449474424,-0.0046234130859375,-0.16790771484375,-0.98468017578125,0.007235009688884,-0.0060855895280838,0.0013909690314903
1770449474434,-0.0039215087890625,-0.16925048828125,-0.98150634765625,0.0070880032144486,-0.0061937137506902,0.0001954760227818
1770449474444,-0.0005035400390625,-0.1712646484375,-0.9762725830078124,0.0008098672842606,-0.0087218526750803,0.0003539340978022
1770449474454,0.001312255859375,-0.173431396484375,-0.9715576171875,-0.0082273036241531,-0.0047566718421876,0.0048421593382954
1770449474464,0.00543212890625,-0.173828125,-0.970916748046875,-0.0165848359465599,0.0053508230485022,0.0081817638128995
1770449474474,0.004547119140625,-0.17437744140625,-0.97406005859375,-0.0204914268106222,0.0059987702406942,0.0130063463002443
1770449474484,0.0062103271484375,-0.17333984375,-0.9777374267578124,-0.020234165713191,0.0037140443455427,0.0166490171104669
1770449474494,0.006011962890625,-0.1728973388671875,-0.9807586669921876,-0.0159336924552917,0.0069074407219886,0.0176895149052143
1770449474504,0.0038909912109375,-0.17376708984375,-0.9867095947265624,-0.0089239859953522,0.0070656328462064,0.0184197537600994
1770449474514,0.0012969970703125,-0.1737823486328125,-0.9914398193359376,0.0013438310706987,-0.0002977414114866,0.0144508443772792
1770449474524,0.0008697509765625,-0.1727142333984375,-0.993743896484375,0.0074941352941095,-0.0108316084370017,0.0160671174526214
1770449474534,-6.103515625e-05,-0.1690521240234375,-0.9891204833984376,0.009507218375802,-0.0105993812903761,0.0089881690219044
1770449474545,-0.002044677734375,-0.168487548828125,-0.9857635498046876,0.0072589782066643,-0.0081897526979446,0.003949468024075
1770449474554,-0.0049591064453125,-0.1681060791015625,-0.9794769287109376,0.0025411883834749,-0.0082685826346278,-0.001284708851017
1770449474564,-0.0037384033203125,-0.1685333251953125,-0.975433349609375,-0.0034538535401225,0.0001033306471072,-0.0007177218794822
1770449474574,-0.0020904541015625,-0.1706085205078125,-0.974700927734375,-0.0055867792107164,0.0064128916710615,-0.0038701056037098
1770449474584,-7.62939453125e-05,-0.1722564697265625,-0.9765167236328124,-0.0053604105487465,0.0087412940338253,-0.0035883432719856
1770449474594,0.000213623046875,-0.172515869140625,-0.9803924560546876,-0.0054395063780248,0.0080480724573135,-0.0044368263334035
1770449474604,-0.00079345703125,-0.1720428466796875,-0.9842681884765624,-0.0063311327248811,-0.0037436054553836,-0.005233644042164
1770449474614,0.0004730224609375,-0.1760711669921875,-0.9819488525390624,-0.0086976177990436,-0.0085146585479378,-0.0013952300650998
1770449474625,0.0048065185546875,-0.1864471435546875,-0.9819183349609376,-0.01194454357028,-0.0042011365294456,0.0126574719324707
1770449474634,0.0106353759765625,-0.1826629638671875,-0.981597900390625,-0.0125083345919847,-0.0013707289472222,0.0158428791910409
1770449474645,0.0056610107421875,-0.1737213134765625,-0.9776763916015624,-0.0161422174423933,0.0010426276130601,0.0147943925112485
1770449474655,-0.00091552734375,-0.1706695556640625,-0.97784423828125,-0.0175145454704761,0.0139120873063802,0.0080012008547782
1770449474665,-0.0054473876953125,-0.1656341552734375,-0.9849700927734376,-0.0089753856882452,0.0208562798798084,-0.0036258937325328
1770449474675,-0.0064239501953125,-0.1562652587890625,-0.9874114990234376,0.0009440905996598,0.0055646752007305,-0.014831144362688
1770449474685,-0.006317138671875,-0.176177978515625,-0.9913330078125,0.0029047098942101,-0.01168302167207,-0.0047630635090172
1770449474695,0.006103515625,-0.1849517822265625,-0.99188232421875,0.0057955710217356,-0.0145078366622328,0.0049593383446335
1770449474705,0.012237548828125,-0.1799774169921875,-0.9832763671875,0.0077993334271013,-0.0090211918577551,0.0112100439146161
1770449474715,0.0122833251953125,-0.1742401123046875,-0.9737396240234376,0.0088137313723564,0.0071042482741177,0.0112475948408246
1770449474725,4.57763671875e-05,-0.158721923828125,-0.9657135009765624,0.004693288821727,0.0276614557951688,-0.0047428235411643
1770449474735,-0.014068603515625,-0.1518096923828125,-0.9659271240234376,-0.0014684670604765,0.0308865439146757,-0.0237814951688051
1770449474745,-0.01983642578125,-0.1524505615234375,-0.97607421875,-0.0125711858272552,0.0079631181433796,-0.0336152166128158
1770449474755,-0.016387939453125,-0.1617584228515625,-0.983551025390625,-0.0237601902335882,-0.0148380678147077,-0.0335374549031257
1770449474765,-0.00933837890625,-0.168426513671875,-0.986328125,-0.029519809409976,-0.0306244883686304,-0.0260603632777929
1770449474775,-0.00177001953125,-0.170867919921875,-0.981536865234375,-0.0358642563223838,-0.0266630351543426,-0.0202506761997938
1770449474785,0.00335693359375,-0.1768341064453125,-0.9764251708984376,-0.042132806032896,-0.0108633004128932,-0.0127062080428004
1770449474795,0.01385498046875,-0.1868133544921875,-0.97607421875,-0.0465288870036602,-0.0055654738098382,0.0009198558400385
1770449474805,0.0247802734375,-0.191619873046875,-0.9764556884765624,-0.04926048964262,0.0067543089389801,0.0166330393403768
1770449474815,0.0238189697265625,-0.1889190673828125,-0.9789581298828124,-0.0473978742957115,0.0230611115694046,0.0255530308932065
1770449474826,0.017059326171875,-0.180145263671875,-0.984466552734375,-0.0442891679704189,0.0393463410437107,0.0267410669475793
1770449474835,0.00732421875,-0.1705474853515625,-0.992462158203125,-0.0303970538079738,0.0454636216163635,0.0202844981104135
1770449474846,-0.0053253173828125,-0.166412353515625,-1.004852294921875,-0.0087857684120535,0.0310287550091743,0.0115650435909628
1770449474856,-0.0120849609375,-0.1641387939453125,-1.0135040283203125,0.0168263837695121,0.002372077666223,0.004391552414745
1770449474866,-0.017333984375,-0.1633758544921875,-1.014190673828125,0.037278663367033,-0.0212078168988227,-0.0078952070325613
1770449474876,-0.018035888671875,-0.1656494140625,-1.0056915283203125,0.0469432733952999,-0.0371811911463737,-0.0150734912604093
1770449474886,-0.0128326416015625,-0.1657562255859375,-0.9888763427734376,0.0453254021704196,-0.0384722910821437,-0.0206120684742927
1770449474896,-0.00872802734375,-0.1640167236328125,-0.9722747802734376,0.0328402370214462,-0.0269104428589344,-0.0218973085284233
1770449474906,-0.0035552978515625,-0.165740966796875,-0.9608154296875,0.0169001538306474,-0.006280000321567,-0.0183774083852767
1770449474916,0.000396728515625,-0.1783447265625,-0.9614410400390624,-0.000171507577761,0.0075713670812547,-0.0079548619687557
1770449474926,0.0089569091796875,-0.181182861328125,-0.9673614501953124,-0.0089207906275987,0.0065814699046313,0.0046136602759361
1770449474936,0.0136871337890625,-0.175384521484375,-0.9711456298828124,-0.013750166632235,0.0050693270750343,0.008992962539196
1770449474946,0.0118408203125,-0.1721038818359375,-0.9716339111328124,-0.0209982264786958,0.0111517207697033,0.012074239552021
1770449474956,0.0071868896484375,-0.1685943603515625,-0.9741973876953124,-0.0273067224770784,0.0173270590603351,0.0120135191828012
1770449474966,0.0049285888671875,-0.1705474853515625,-0.9806365966796876,-0.0253863167017698,0.0219894554466009,0.0127797108143568
1770449474976,0.000335693359375,-0.1706390380859375,-0.9906768798828124,-0.0162197165191173,0.020943097770214,0.0117559917271137
1770449474986,-0.0037994384765625,-0.16778564453125,-0.998291015625,-0.0039135152474045,0.010818026959896,0.0086600668728351
1770449474996,-0.0065155029296875,-0.16741943359375,-1.001800537109375,0.0094390418380498,-0.003458114573732,0.0086470181122422
1770449475007,-0.003662109375,-0.1666107177734375,-1.002410888671875,0.0178359877318143,-0.0037571876309812,0.0091034835204482
1770449475016,-0.0010986328125,-0.1699676513671875,-1.0012054443359375,0.0291062202304601,-0.013545636087656,0.0096984338015317
1770449475026,0.0015106201171875,-0.173614501953125,-0.994476318359375,0.03051583096385,-0.0232781581580638,0.0110449278727173
1770449475036,0.0031890869140625,-0.174713134765625,-0.983306884765625,0.0269011221826076,-0.0196858197450637,0.0120372213423252
1770449475046,0.0058441162109375,-0.1758270263671875,-0.9700469970703124,0.0134367132559418,-0.011715511791408,0.0116452043876051
1770449475057,0.004241943359375,-0.1766510009765625,-0.9616851806640624,-0.0045683863572776,0.0032434638123959,0.0154681717976927
1770449475067,0.0078277587890625,-0.17547607421875,-0.96002197265625,-0.0187569092959165,0.0229963958263397,0.0218112897127866
1770449475077,0.00323486328125,-0.1746978759765625,-0.96728515625,-0.0237061288207769,0.0333579555153846,0.024149278178811
1770449475087,-3.0517578125e-05,-0.1742706298828125,-0.9800262451171876,-0.021172396838665,0.0307424664497375,0.0249942988157272
1770449475097,-0.002471923828125,-0.1727447509765625,-0.9938812255859376,-0.009809753857553,0.0165558066219091,0.0243812389671802
1770449475107,-0.0037689208984375,-0.171630859375,-0.998931884765625,0.002568086143583,-0.0016327840276062,0.017396567389369
1770449475117,-0.0037384033203125,-0.16912841796875,-0.9978790283203124,0.0078611187636852,-0.0107133639976382,0.0133229959756135
1770449475127,-0.00408935546875,-0.168853759765625,-0.9901580810546876,0.0096755307167768,-0.0112385395914316,0.0091471597552299
1770449475137,-0.0029754638671875,-0.170379638671875,-0.9812469482421876,0.0092811165377497,-0.0010998855577781,0.0105948541313409
1770449475147,-0.0020751953125,-0.1685791015625,-0.9778900146484376,0.007325024344027,0.0103895235806703,0.0083612604066729
1770449475157,-0.0047607421875,-0.169586181640625,-0.980560302734375,0.0104499775916337,0.0101719433441758,0.0078733693808317
1770449475167,-0.00323486328125,-0.1690216064453125,-0.9810943603515624,0.0101005714386701,0.0005635248962789,0.0060003683902323
1770449475177,-0.0017242431640625,-0.1676177978515625,-0.98272705078125,0.0040293629281222,0.0001384843781124,0.0064088972285389
1770449475187,-0.00128173828125,-0.171051025390625,-0.982421875,0.0028274781070649,4.900216299574822e-05,0.0065130265429615
1770449475197,0.000885009765625,-0.1752166748046875,-0.98175048828125,0.0033899378031492,-0.0043297670781612,0.0112526547163724
1770449475207,0.0040283203125,-0.1759490966796875,-0.98150634765625,0.0049023469910025,0.0014996259706094,0.0155126471072435
1770449475217,0.0023345947265625,-0.1763763427734375,-0.981414794921875,0.0107929930090904,0.0033467945177108,0.0187262836843729
1770449475227,0.0,-0.1737213134765625,-0.98162841796875,0.0137395141646265,-0.0025244103744626,0.019651198759675
1770449475237,-0.0028839111328125,-0.172454833984375,-0.9818572998046876,0.0149043807759881,-0.0027182884514331,0.0130108734592795
1770449475247,-0.006744384765625,-0.17022705078125,-0.97991943359375,0.0110449278727173,-0.0097514307126402,0.0079146483913064
1770449475257,-0.00494384765625,-0.168060302734375,-0.976104736328125,0.0031361384317278,-0.0099314600229263,0.0017819210188463
1770449475267,-0.006805419921875,-0.1677703857421875,-0.9715118408203124,-0.0056469668634235,-0.0009046758059412,-0.0011142665753141
1770449475278,-0.007049560546875,-0.1674957275390625,-0.971405029296875,-0.0134705351665616,0.0080816289409995,-0.0045481463894248
1770449475288,-0.006744384765625,-0.16900634765625,-0.9750518798828124,-0.0153467319905757,0.0094797881320118,-0.0033899378031492
1770449475298,-0.005340576171875,-0.170684814453125,-0.9799041748046876,-0.0132361771538853,0.0085226483643054,-0.0037113812286406
1770449475308,-0.0055389404296875,-0.169769287109375,-0.985809326171875,-0.004644020460546,0.0051902346312999,-0.0048317732289433
1770449475318,-0.0037994384765625,-0.1697235107421875,-0.98919677734375,-0.0001989381271414,-0.0053990264423191,-0.0073364758864045
1770449475328,-0.00372314453125,-0.1697235107421875,-0.98834228515625,0.0030674289446324,-0.0100646186619997,-0.0083322320133447
1770449475338,-0.003082275390625,-0.1767120361328125,-0.9860992431640624,0.0008956210804171,-0.0115578528493642,-0.0021656826138496
1770449475348,0.0075836181640625,-0.1873779296875,-0.9846038818359376,0.000208791825571,-0.001831455854699,0.0108153633773326
1770449475358,0.012908935546875,-0.178924560546875,-0.9842529296875,0.005004612263292,0.0082970783114433,0.0137328561395406
1770449475368,0.0056915283203125,-0.1701507568359375,-0.98065185546875,0.0016748619964346,0.0104608964174985,0.0087359668686985
1770449475378,-0.0025787353515625,-0.1744384765625,-0.9824066162109376,0.0025736789684742,0.0155544588342309,0.0034788872580975
1770449475388,-0.0059356689453125,-0.16314697265625,-0.9866485595703124,0.0130132706835865,0.0126068722456693,-0.015743276104331
1770449475398,-0.013153076171875,-0.157623291015625,-0.98297119140625,0.0150487245991826,-0.0101176155731081,-0.0228549819439649
1770449475408,-0.008056640625,-0.184051513671875,-0.9805908203125,0.0045574675314128,-0.0209902357310056,-0.0088273137807846
1770449475418,0.0053253173828125,-0.186767578125,-0.9768524169921876,-0.0014668691437691,-0.008911469951272,0.0075383437797427
1770449475428,0.01190185546875,-0.1905517578125,-0.97119140625,-0.0018852517241612,0.0036328181158751,0.0181401222944259
1770449475438,0.0131378173828125,-0.177490234375,-0.9686737060546876,-0.0012551478575915,0.0214981008321046,0.0179627556353807
1770449475448,0.0023345947265625,-0.15740966796875,-0.9682769775390624,-0.0046461508609354,0.0343289449810981,-0.0021238708868622
1770449475458,-0.012115478515625,-0.154327392578125,-0.97509765625,-0.0136513635516166,0.0261740796267986,-0.0207561440765857
1770449475468,-0.0137939453125,-0.1580963134765625,-0.9869384765625,-0.0213154088705778,0.0035281558521091,-0.0278779696673154
1770449475478,-0.0111541748046875,-0.1630096435546875,-0.991912841796875,-0.0224863998591899,-0.0117085874080657,-0.0295059606432914
1770449475488,-0.00872802734375,-0.1670074462890625,-0.9919281005859376,-0.01526390761137,-0.0166045427322387,-0.0248486250638961
1770449475499,-0.0039520263671875,-0.171295166015625,-0.989410400390625,-0.0093245254829525,-0.0143645582720637,-0.0176647473126649
1770449475509,0.003326416015625,-0.179168701171875,-0.9842071533203124,-0.0078928107395768,-0.0191936679184436,-0.0050586746074259
1770449475519,0.0169525146484375,-0.1873779296875,-0.9776763916015624,-0.015059377066791,-0.0129983564838767,0.0102142877876758
1770449475529,0.02325439453125,-0.191741943359375,-0.9718017578125,-0.0301136933267116,0.0010950918076559,0.0234930757433176
1770449475539,0.0239715576171875,-0.189544677734375,-0.9664459228515624,-0.0388573855161666,0.0292819887399673,0.0311462022364139
1770449475549,0.01422119140625,-0.1818389892578125,-0.9705963134765624,-0.0399516783654689,0.0492847263813018,0.0298076961189508
1770449475559,0.0006561279296875,-0.174713134765625,-0.9833831787109376,-0.0276276320219039,0.048653021454811,0.0242784414440393
1770449475569,-0.0093841552734375,-0.1693115234375,-0.998931884765625,-0.0091349091380834,0.0256305281072855,0.0115378787741065
1770449475579,-0.01849365234375,-0.1652984619140625,-1.0094451904296875,0.0090949609875679,-0.0017877799691632,-0.0019020296167582
1770449475589,-0.0198516845703125,-0.1641387939453125,-1.00897216796875,0.0238238405436277,-0.0186152290552854,-0.0125613315030932
1770449475599,-0.0180206298828125,-0.1682891845703125,-1.001983642578125,0.0323257148265838,-0.0277807638049125,-0.0182788725942373
1770449475609,-0.0113525390625,-0.1699981689453125,-0.989044189453125,0.0334770008921623,-0.024198280647397,-0.0171800516545772
1770449475619,-0.0020599365234375,-0.1710357666015625,-0.9794769287109376,0.0278915520757436,-0.0113711655139923,-0.0122923525050282
1770449475629,0.0007781982421875,-0.1734619140625,-0.9741668701171876,0.0287794508039951,0.0049494849517941,-0.0090456930920481
1770449475639,0.0020294189453125,-0.1798858642578125,-0.976654052734375,0.0299690850079059,0.0019656792283058,-0.0052914349362254
1770449475650,0.007843017578125,-0.18218994140625,-0.9773406982421876,0.0242249127477407,-0.0097213368862867,0.0002045307774096
1770449475659,0.0113983154296875,-0.1741943359375,-0.972564697265625,0.0129775842651724,-0.0111250886693596,0.0027973842807114
1770449475669,0.0065460205078125,-0.1755828857421875,-0.965576171875,-0.0014743260107934,0.0052323127165436,0.0042088595218956
1770449475679,0.0023345947265625,-0.17236328125,-0.9623870849609376,-0.0139845246449112,0.0124305710196495,0.0061372546479105
1770449475689,0.00164794921875,-0.16973876953125,-0.965118408203125,-0.0226653646677732,0.0179547648876905,0.0058357850648462
1770449475700,-0.0016937255859375,-0.1693572998046875,-0.9716796875,-0.0274550598114728,0.0193020589649677,0.0080014672130346
1770449475710,-0.0037841796875,-0.1702117919921875,-0.9809417724609376,-0.0303619001060724,0.0197484046220779,0.007857390679419
1770449475720,-0.0016021728515625,-0.1682891845703125,-0.9894866943359376,-0.0244997497648,0.0159976091235876,0.0112949991598725
1770449475730,-0.0017242431640625,-0.1669158935546875,-0.998199462890625,-0.0110787497833371,0.0094409063458442,0.0120039321482181
1770449475740,-0.001068115234375,-0.169403076171875,-1.0024566650390625,0.0063668191432952,0.0016333166277036,0.0089780483394861
1770449475750,0.00054931640625,-0.1751861572265625,-1.0029296875,0.0226123686879873,-0.0134510938078165,0.0110784834250807
1770449475760,0.0067138671875,-0.180389404296875,-0.9989471435546876,0.0313083864748477,-0.025145299732685,0.0146463206037878
1770449475770,0.009521484375,-0.1819000244140625,-0.9869384765625,0.0268859434872865,-0.0226712245494127,0.01533661223948
1770449475780,0.0081787109375,-0.18231201171875,-0.973785400390625,0.015460449270904,-0.0078584561124444,0.0209673326462507
1770449475790,0.0072479248046875,-0.178253173828125,-0.965423583984375,-0.0003097256412729,0.0139951780438423,0.0198615882545709
1770449475800,0.0015716552734375,-0.1747894287109375,-0.9650421142578124,-0.0126359006389975,0.0315411463379859,0.0190040506422519
1770449475810,-0.002227783203125,-0.172454833984375,-0.972564697265625,-0.0134327178820967,0.0340735465288162,0.0180911198258399
1770449475820,-0.005035400390625,-0.170745849609375,-0.9846038818359376,-0.0026871294248849,0.0236259680241346,0.0164753794670104
1770449475830,-0.0073699951171875,-0.169921875,-0.99456787109375,0.0108158960938453,0.0086123961955308,0.0108766164630651
1770449475840,-0.0080413818359375,-0.1699676513671875,-0.995574951171875,0.0190522540360689,-0.0051891691982746,0.0088587393984198
1770449475850,-0.0090484619140625,-0.1706390380859375,-0.991973876953125,0.0250307843089103,-0.0129754533991217,0.0067963870242238
1770449475860,-0.0064697265625,-0.1712188720703125,-0.9842529296875,0.0237450096756219,-0.0165235828608274,0.0057210028171539
1770449475870,-0.0001068115234375,-0.1754608154296875,-0.9755401611328124,0.0151472613215446,-0.0159539319574832,0.0080539314076304
1770449475881,0.0037841796875,-0.178619384765625,-0.9680023193359376,0.0059862532652914,-0.0007387608638964,0.0121762389317154
1770449475890,0.005584716796875,-0.1788177490234375,-0.9658050537109376,-0.0037715686485171,0.0150655023753643,0.016602411866188
1770449475900,0.004180908203125,-0.177459716796875,-0.96942138671875,-0.0064866612665355,0.0259564984589815,0.0203121956437826
1770449475911,0.0042572021484375,-0.1763916015625,-0.9765472412109376,-0.010416954755783,0.0249977614730596,0.0192096475511789
1770449475920,0.000518798828125,-0.17724609375,-0.9834747314453124,-0.0052224588580429,0.0128952926024794,0.0171973630785942
1770449475931,-0.0009307861328125,-0.1766510009765625,-0.9871978759765624,0.0003965446958318,0.0020852552261203,0.0165867004543542
1770449475941,-0.004302978515625,-0.177459716796875,-0.98760986328125,0.0037659760564565,-0.0057167415507137,0.0167635343968868
1770449475951,-0.0049285888671875,-0.1758880615234375,-0.9847564697265624,0.0067074373364448,-0.007274956908077,0.0151214282959699
1770449475961,-0.0034637451171875,-0.176666259765625,-0.980133056640625,0.0023912524338811,-0.0039864857681095,0.0171997603029012
1770449475971,-0.003509521484375,-0.1769866943359375,-0.978240966796875,-0.0053042178042232,0.0040408144704997,0.0149978576228022
1770449475981,-0.00506591796875,-0.175567626953125,-0.9763031005859376,-0.0087543427944183,0.0039832899346947,0.0119149824604392
1770449475991,-0.00408935546875,-0.174285888671875,-0.978179931640625,-0.00980069860816,0.0003475425182841,0.0083016054704785
1770449476001,-0.0048675537109375,-0.1754302978515625,-0.9793548583984376,-0.008942361921072,-0.0003523362101987,0.0075617795810103
1770449476011,-0.00592041015625,-0.17578125,-0.9808197021484376,-0.0096933739259839,-0.0014218616997823,0.0040274984203279
1770449476021,-0.0033416748046875,-0.1753997802734375,-0.9817657470703124,-0.0097458381205797,-0.0002090581401716,0.0027963190805166
1770449476031,-0.000946044921875,-0.1774444580078125,-0.98345947265625,-0.0040996703319251,0.0024652881547808,-0.0003496730350889
1770449476041,-0.0014801025390625,-0.1782379150390625,-0.98577880859375,0.0029153623618185,-0.0004604605492204,-0.0008788431296125
1770449476051,-0.00067138671875,-0.178741455078125,-0.984710693359375,0.0082637891173362,-0.0126484176144003,0.0017339842161163
1770449476061,0.00213623046875,-0.1848602294921875,-0.9828033447265624,0.0063082296401262,-0.0176247991621494,0.0111178988590836
1770449476071,0.00836181640625,-0.185699462890625,-0.977447509765625,0.0009318400407209,-0.006516755092889,0.020609937608242
1770449476081,0.0054779052734375,-0.1754913330078125,-0.9745330810546876,-0.0058517637662589,-0.002789394930005,0.019702598452568
1770449476091,-0.002471923828125,-0.174652099609375,-0.9733734130859376,-0.0063657537102699,-0.0004207794554531,0.0171478278934955
1770449476101,-0.0068206787109375,-0.173370361328125,-0.9797210693359376,-0.0053513557650148,0.0135091505944728,0.0071963937953114
1770449476111,-0.0135498046875,-0.15185546875,-0.98394775390625,-0.0022453111596405,0.0025513083674013,-0.0141416518017649
1770449476121,-0.014801025390625,-0.1722564697265625,-0.982879638671875,-0.0118177775293588,-0.0165512803941965,-0.0083913542330265
1770449476131,-0.0027618408203125,-0.1858978271484375,-0.9883270263671876,-0.0157856214791536,-0.0160000044852495,0.0010836402652785
1770449476142,0.00518798828125,-0.1939544677734375,-0.9860687255859376,-0.0091519532725214,-0.0154812214896082,0.0194767620414495
1770449476152,0.016510009765625,-0.1993408203125,-0.9833984375,-0.0011576761025935,-0.0026770094409585,0.0353183113038539
1770449476162,0.014862060546875,-0.17877197265625,-0.97991943359375,0.0030983216129243,0.0174024254083633,0.0224105007946491
1770449476172,-0.0039520263671875,-0.1627044677734375,-0.9766082763671876,0.0006287723081186,0.0258457120507955,0.0001683117734501
1770449476182,-0.01544189453125,-0.160919189453125,-0.9823455810546876,-0.0021893847733736,0.0184554401785135,-0.0180234760046005
1770449476192,-0.01837158203125,-0.1656341552734375,-0.9905548095703124,-0.0018234663875773,0.0008005462004803,-0.0304314084351062
1770449476202,-0.01556396484375,-0.1691741943359375,-0.9943389892578124,0.0065788067877292,-0.0148106375709176,-0.0315195769071579
1770449476212,-0.0111846923828125,-0.1705474853515625,-0.9940185546875,0.0168761853128671,-0.0157078560441732,-0.0280694514513015
1770449476222,-0.00811767578125,-0.1746368408203125,-0.990570068359375,0.0233527272939682,-0.015517440624535,-0.0199926160275936
1770449476232,0.0003204345703125,-0.185577392578125,-0.9857330322265624,0.0184626299887895,-0.0242829695343971,-0.0077873491682112
1770449476242,0.0120391845703125,-0.1910400390625,-0.9751129150390624,0.009884588420391,-0.0224768128246068,0.0058472366072237
1770449476252,0.0165557861328125,-0.192535400390625,-0.966888427734375,-0.0045960834249854,-0.0044693169184029,0.0125530762597918
1770449476262,0.0113983154296875,-0.187957763671875,-0.96197509765625,-0.0156207708641886,0.0155094508081674,0.012092082761228
1770449476272,0.001068115234375,-0.1811981201171875,-0.9610748291015624,-0.0255639497190713,0.0261828675866127,0.0063010388985276
1770449476282,-0.0080718994140625,-0.17340087890625,-0.9678497314453124,-0.0363305769860744,0.0276971422135829,-0.0001824265345931
1770449476292,-0.013214111328125,-0.1701507568359375,-0.9775238037109376,-0.0342788770794868,0.0233495309948921,-0.0105048390105366
1770449476302,-0.015716552734375,-0.1703033447265625,-0.989837646484375,-0.0249849781394004,0.0156098520383238,-0.0145509792491793
1770449476312,-0.0152130126953125,-0.173583984375,-0.998809814453125,-0.0069657638669013,0.0043012714013457,-0.0176761988550424
1770449476322,-0.0133056640625,-0.175048828125,-1.0031585693359375,0.0114571852609515,-0.007333280518651,-0.0143693517893552
1770449476332,-0.0082550048828125,-0.1756134033203125,-1.0019683837890625,0.0283789113163948,-0.016865799203515,-0.0126425586640834
1770449476342,-0.0051116943359375,-0.1733551025390625,-0.997589111328125,0.0423945933580398,-0.0223268773406744,-0.0177888497710227
1770449476352,-0.00396728515625,-0.1751251220703125,-0.988922119140625,0.0480743199586868,-0.0284590721130371,-0.016570720821619
1770449476363,-0.000396728515625,-0.1825103759765625,-0.979248046875,0.0396382212638855,-0.0322721861302852,-0.0170636717230081
1770449476373,0.005157470703125,-0.1807708740234375,-0.964019775390625,0.0213897116482257,-0.0237751044332981,-0.0135762626305222
1770449476383,0.006256103515625,-0.1787567138671875,-0.953521728515625,0.0017078851815313,-0.0026343988720327,-0.0074635087512433
1770449476393,0.002685546875,-0.178070068359375,-0.9514007568359376,-0.0172117445617914,0.0207862388342618,-0.00515987444669
1770449476403,-0.0009613037109375,-0.173736572265625,-0.9591827392578124,-0.0288106091320514,0.0278619918972253,-0.0051140682771801
1770449476413,-0.0034332275390625,-0.1709136962890625,-0.9702911376953124,-0.0317222438752651,0.0212653409689664,-0.0079090557992458
1770449476423,-0.00732421875,-0.173736572265625,-0.981719970703125,-0.0309619102627038,0.0041470741853117,-0.0097261304035782
1770449476433,-0.0088348388671875,-0.1746978759765625,-0.9879913330078124,-0.0284854378551244,-0.0114175044000148,-0.0074858795851469
1770449476443,-0.003265380859375,-0.173919677734375,-0.9889068603515624,-0.0245564747601747,-0.014338725246489,-0.0001502022787462
1770449476453,0.0007476806640625,-0.170989990234375,-0.984161376953125,-0.0207753200083971,-0.0003145193331874,0.0050323093309998
1770449476463,0.0039215087890625,-0.17193603515625,-0.9862823486328124,-0.0147094372659921,0.0116382800042629,0.0113240275532007
1770449476473,0.0040435791015625,-0.1759033203125,-0.98895263671875,-0.004661863669753,0.0048043425194919,0.0117330886423587
1770449476483,0.006072998046875,-0.17962646484375,-0.99102783203125,0.0043763727881014,-0.0094286557286977,0.014216486364603
1770449476493,0.00640869140625,-0.1807403564453125,-0.98626708984375,0.0023417174816131,-0.0156516637653112,0.0132894404232501
1770449476503,0.005096435546875,-0.1822357177734375,-0.9760589599609376,-0.0064706825651228,-0.0087218526750803,0.0148700261488556
1770449476513,0.0043487548828125,-0.18011474609375,-0.9659423828125,-0.0212022233754396,0.011904596351087,0.0169036164879798
1770449476523,0.0013580322265625,-0.178863525390625,-0.965118408203125,-0.032901756465435,0.0335156172513961,0.0215697400271892
1770449476533,-0.0005645751953125,-0.1780548095703125,-0.9756317138671876,-0.0306963939219713,0.0442707911133766,0.0256094895303249
1770449476543,-0.003692626953125,-0.17486572265625,-0.9903564453125,-0.0176961719989776,0.0368589498102664,0.0232941377907991
1770449476553,-0.0094757080078125,-0.172607421875,-1.006256103515625,0.0026106967125087,0.0200504064559936,0.0169222578406333
1770449476563,-0.013519287109375,-0.1709136962890625,-1.012359619140625,0.020339360460639,-0.0060307281091809,0.0095508946105837
1770449476574,-0.0095062255859375,-0.172393798828125,-1.0078125,0.0334668792784214,-0.0245847050100564,0.0008428904693573
1770449476583,-0.006805419921875,-0.1749267578125,-0.99383544921875,0.0336522348225116,-0.0283647961914539,0.0002354234457015
1770449476594,-0.00140380859375,-0.1763763427734375,-0.9772491455078124,0.0239135883748531,-0.0169395692646503,0.0023771375417709
1770449476604,0.0030670166015625,-0.1809234619140625,-0.96307373046875,0.0101170828565955,0.0051889028400182,0.0059335227124392
1770449476614,0.000579833984375,-0.18218994140625,-0.95928955078125,-0.0022493058349937,0.0196237694472074,0.0102707473561167
1770449476624,0.003173828125,-0.1808013916015625,-0.9628753662109376,-0.0104835331439971,0.0196903478354215,0.0121711790561676
1770449476634,0.000701904296875,-0.18121337890625,-0.9693756103515624,-0.0166426263749599,0.0174777936190366,0.0161267723888158
1770449476644,-0.003936767578125,-0.1785430908203125,-0.974151611328125,-0.021826734766364,0.0134553546085953,0.0155206359922885
1770449476654,-0.00689697265625,-0.17694091796875,-0.97869873046875,-0.0257679484784603,0.007562312297523,0.0103136235848069
1770449476664,-0.0097198486328125,-0.1746673583984375,-0.9804534912109376,-0.0284782461822032,0.0046623959206044,0.008732771500945
1770449476674,-0.0092315673828125,-0.173614501953125,-0.983184814453125,-0.0286465585231781,0.0054088803008198,0.0066951867192983
1770449476684,-0.00946044921875,-0.1726531982421875,-0.9835968017578124,-0.0279022045433521,0.010938667692244,1.5712650565546937e-05
1770449476694,-0.00860595703125,-0.171875,-0.9860382080078124,-0.0227955933660268,0.0139328595250844,-0.0035880769137293
1770449476704,-0.00897216796875,-0.170806884765625,-0.990570068359375,-0.0098781967535614,0.0107136303558945,-0.0119826272130012
1770449476714,-0.010009765625,-0.1697540283203125,-0.9931640625,0.0030631679110229,0.0029558425303548,-0.0174349173903465
1770449476724,-0.006134033203125,-0.1704559326171875,-0.9930572509765624,0.012329370714724,-0.0051311124116182,-0.0203838348388671
1770449476734,-0.0035400390625,-0.172607421875,-0.9900665283203124,0.0150114400312304,-0.0088685927912592,-0.0234163757413625
1770449476744,-0.002655029296875,-0.1736602783203125,-0.9838714599609376,0.0153216980397701,-0.0108262822031974,-0.0213210005313158
1770449476754,0.0004425048828125,-0.173065185546875,-0.975738525390625,0.010495251044631,-0.0067614996805787,-0.0220578983426094
1770449476764,0.0004119873046875,-0.179473876953125,-0.9710540771484376,-0.0003414172388147,-0.0014761901693418,-0.0115794241428375
1770449476775,0.005645751953125,-0.188934326171875,-0.969879150390625,-0.008846222423017,0.0130018182098865,0.0011265170760452
1770449476785,0.009307861328125,-0.1817474365234375,-0.9738311767578124,-0.0149648347869515,0.0180090945214033,0.0057577542029321
1770449476795,0.00421142578125,-0.1765899658203125,-0.9765777587890624,-0.0152857452630996,0.0112790195271372,0.0078177088871598
1770449476805,-0.0012664794921875,-0.176727294921875,-0.9813995361328124,-0.0100792655721306,0.0159403514117002,0.0012322446564212
1770449476815,-0.004302978515625,-0.158538818359375,-0.9879608154296876,-0.0031204258557409,0.0151856103911995,-0.0116963367909193
1770449476825,-0.010223388671875,-0.1605682373046875,-0.98736572265625,-0.0030637003947049,-0.0032248217612504,-0.0143152894452214
1770449476835,-0.008575439453125,-0.178924560546875,-0.9909515380859376,0.0040253680199384,-0.0073194317519664,-0.0082126557826995
1770449476845,0.0001373291015625,-0.1831817626953125,-0.9954376220703124,0.0163973495364189,-0.0161901544779539,0.004179298877716
1770449476855,0.0100555419921875,-0.1954803466796875,-0.9913787841796876,0.0264571737498044,-0.0229676328599452,0.0197204407304525
1770449476865,0.017242431640625,-0.1849212646484375,-0.9838104248046876,0.0263296086341142,-0.0042128544300794,0.0213183388113975
1770449476875,0.0024871826171875,-0.16546630859375,-0.9726409912109376,0.0197494700551033,0.0125607987865805,0.0030676953028887
1770449476885,-0.010711669921875,-0.1584320068359375,-0.966522216796875,0.0036549223586916,0.0129916984587907,-0.0081258369609713
1770449476895,-0.0121612548828125,-0.1629180908203125,-0.970306396484375,-0.0114254932850599,0.0114670386537909,-0.0131347104907035
1770449476905,-0.0115509033203125,-0.1689910888671875,-0.97894287109375,-0.0186226870864629,0.0005331648280844,-0.0163821689784526
1770449476915,-0.010406494140625,-0.1717681884765625,-0.983428955078125,-0.0182738117873668,-0.0093173356726765,-0.0130042154341936
1770449476925,-0.0059814453125,-0.1730499267578125,-0.982208251953125,-0.0199595931917428,-0.0050168628804385,-0.0032285500783473
1770449476935,0.0015716552734375,-0.178436279296875,-0.9797515869140624,-0.022781478241086,-0.0015957661671563,0.0080869551748037
1770449476945,0.0096893310546875,-0.186798095703125,-0.9804534912109376,-0.0254275947809219,-0.0017691379180178,0.019757991656661
1770449476955,0.0166778564453125,-0.1920166015625,-0.98077392578125,-0.0244502145797014,0.0009121326729655,0.0305864047259092
1770449476965,0.0173492431640625,-0.192230224609375,-0.9783477783203124,-0.0249855108559131,0.0070765516720712,0.0369087494909763
1770449476975,0.0092010498046875,-0.1875762939453125,-0.9758148193359376,-0.0271440036594867,0.0203287079930305,0.0395306311547756
1770449476985,0.001922607421875,-0.1766815185546875,-0.97662353515625,-0.0299773402512073,0.032515600323677,0.0302282106131315
1770449476996,-0.010406494140625,-0.1708221435546875,-0.982879638671875,-0.028211398050189,0.0368219316005706,0.0201614610850811
1770449477006,-0.0163116455078125,-0.1698150634765625,-0.9954376220703124,-0.0130537506192922,0.0219231415539979,0.0099133504554629
1770449477016,-0.018524169921875,-0.169708251953125,-1.003997802734375,0.0071050473488867,0.0021877868566662,0.002757170703262
1770449477026,-0.0156402587890625,-0.1717681884765625,-1.0053558349609375,0.0239016041159629,-0.0071023842319846,-0.0034445326309651
1770449477036,-0.0145416259765625,-0.1742401123046875,-1.002899169921875,0.0360437557101249,-0.0093820504844188,-0.0085996137931942
1770449477046,-0.0130157470703125,-0.1752777099609375,-0.9959564208984376,0.0470434091985225,-0.0168538149446249,-0.0138140823692083
1770449477056,-0.0080108642578125,-0.1745147705078125,-0.986419677734375,0.0514554679393768,-0.0162745770066976,-0.0154865477234125
1770449477066,-0.00506591796875,-0.1813201904296875,-0.9778900146484376,0.0480860359966754,-0.0167973563075065,-0.0143616283312439
1770449477076,0.0017547607421875,-0.1834869384765625,-0.9710540771484376,0.0363590717315673,-0.0155770955607295,-0.0080435452982783
1770449477086,0.005859375,-0.1806182861328125,-0.9625244140625,0.018739067018032,-0.0110784834250807,-0.0039627836085855
1770449477096,0.003326416015625,-0.1793670654296875,-0.954620361328125,0.0007028082036413,0.0054869106970727,0.004097273107618
1770449477106,0.0012359619140625,-0.174652099609375,-0.9542999267578124,-0.0176708735525608,0.0195875503122806,0.0018865832826122
1770449477116,-0.002288818359375,-0.1728057861328125,-0.9611358642578124,-0.0309107787907123,0.0248278509825468,-0.0016303871525451
1770449477126,-0.00689697265625,-0.1718292236328125,-0.97125244140625,-0.0337377227842807,0.0183824691921472,-0.0023281353060156
1770449477136,-0.0068359375,-0.1721954345703125,-0.9815826416015624,-0.0321962870657444,0.0101405186578631,-0.0007467503892257
1770449477146,-0.00653076171875,-0.1702728271484375,-0.9894256591796876,-0.0266606397926807,0.0072789518162608,-0.0014929680619388
1770449477156,-0.005523681640625,-0.17132568359375,-0.9954681396484376,-0.0132460305467247,0.004422711674124,-0.0020487697329372
1770449477166,-0.0045928955078125,-0.1741180419921875,-0.9984893798828124,-0.0001941444352269,-0.0059353872202336,-0.0034192325547337
1770449477176,0.001678466796875,-0.1801910400390625,-0.99652099609375,0.0089516835287213,-0.0153648415580391,0.0033707630354911
1770449477186,0.008392333984375,-0.1827850341796875,-0.9929656982421876,0.0149989230558276,-0.0196573249995708,0.0041891522705554
1770449477197,0.0090179443359375,-0.1853485107421875,-0.9835968017578124,0.0122979450970888,-0.0142188835889101,0.0077801588922739
1770449477206,0.0083465576171875,-0.1850738525390625,-0.972137451171875,0.0038631814531981,-0.0022759374696761,0.0111408019438385
1770449477217,0.004730224609375,-0.183319091796875,-0.96490478515625,-0.0091428980231285,0.0138199413195252,0.0144740138202905
1770449477227,0.0008392333984375,-0.1822509765625,-0.966156005859375,-0.019489811733365,0.0307453963905572,0.0180570315569639
1770449477237,-0.0071868896484375,-0.177764892578125,-0.972808837890625,-0.0204600021243095,0.0371894463896751,0.0118294954299926
1770449477247,-0.013916015625,-0.1764984130859375,-0.98370361328125,-0.0163115952163934,0.0241639260202646,0.0048954226076602
1770449477257,-0.0143890380859375,-0.1737518310546875,-0.9924468994140624,-0.0062091602012515,0.0071513862349092,0.0006980145117267
1770449477267,-0.013885498046875,-0.17169189453125,-0.99609375,0.0019981698133051,0.0028509139083325,-0.0023656859993934
1770449477277,-0.0154266357421875,-0.1727752685546875,-0.9970550537109376,0.0112707642838358,-0.0076728332787752,-0.0069854715839028
1770449477287,-0.0103302001953125,-0.1752777099609375,-0.995452880859375,0.0183486472815275,-0.0172421038150787,-0.0089860381558537
1770449477297,-0.0057525634765625,-0.1776275634765625,-0.9889068603515624,0.0178290642797946,-0.0174626130610704,-0.0112681007012724
1770449477307,-0.0003662109375,-0.1783294677734375,-0.98052978515625,0.0129030151292681,-0.0101282680407166,-0.0094201331958174
1770449477317,0.002655029296875,-0.1821441650390625,-0.9735107421875,0.0097636813297867,0.0041683795861899,-0.0065609635785222
1770449477327,0.004547119140625,-0.184967041015625,-0.973480224609375,0.008820123039186,0.0109961917623877,-0.0038972699549049
1770449477337,0.0034332275390625,-0.185455322265625,-0.9743804931640624,0.0060344566591084,0.0107322726398706,-0.0009768474847078
1770449477347,0.001129150390625,-0.183563232421875,-0.9742431640625,-1.651159800530877e-05,0.0089495526626706,-0.0009326389990746
1770449477357,-0.001373291015625,-0.1800079345703125,-0.9760894775390624,-0.0072797508910298,0.0117730358615517,0.0033385388087481
1770449477367,-0.0019073486328125,-0.1750946044921875,-0.9769287109375,-0.0129064777866005,0.0170285180211067,0.0014908375451341
1770449477377,-0.007415771484375,-0.1762847900390625,-0.97930908203125,-0.0091639375314116,0.0164761785417795,-0.0015052186790853
1770449477387,-0.009521484375,-0.176055908203125,-0.983734130859375,-0.0056493636220693,0.0093964310362935,-0.0027854002546519
1770449477397,-0.0096588134765625,-0.1747894287109375,-0.9861297607421876,-0.0025094966404139,0.0004396878939587,-0.0074925371445715
1770449477407,-0.00860595703125,-0.175018310546875,-0.9846649169921876,-0.0013150689192116,-0.0012711267918348,-0.0103293368592858
1770449477418,-0.008575439453125,-0.1763763427734375,-0.9818115234375,-0.0026067020371556,0.0005587312043644,-0.0126167256385087
1770449477428,-0.0062408447265625,-0.177490234375,-0.978057861328125,-0.0046205846592783,0.0008511462947353,-0.010816428810358
1770449477438,-0.0039825439453125,-0.1769561767578125,-0.9785003662109376,-0.0065668225288391,0.0036943370942026,-0.0126417595893144
1770449477448,-0.00433349609375,-0.1768951416015625,-0.9780120849609376,-0.0051971590146422,0.003149454249069,-0.0126734506338834
1770449477458,-0.0058135986328125,-0.183441162109375,-0.9799957275390624,-0.0017939052777364,-0.005150553304702,-0.0073170349933207
1770449477468,0.001800537109375,-0.1922149658203125,-0.9795379638671876,-0.0063905213028192,-0.0073953317478299,0.0025015072897076
1770449477478,0.0079345703125,-0.1853790283203125,-0.979278564453125,-0.0123967481777071,-0.0007922904333099,0.0052932989783585
1770449477488,-0.000213623046875,-0.1786041259765625,-0.97528076171875,-0.0130878388881683,0.0060400492511689,0.005134308245033
1770449477498,-0.0070343017578125,-0.176361083984375,-0.977874755859375,-0.0082776369526982,0.0187526494264602,-0.0017558221006765
1770449477508,-0.0129852294921875,-0.162261962890625,-0.986175537109375,-0.0023904533591121,0.0150407347828149,-0.0214677415788173
1770449477518,-0.0182037353515625,-0.16168212890625,-0.9853363037109376,-0.0035060516092926,-0.0162354279309511,-0.0330961681902408
1770449477528,-0.0138702392578125,-0.1759033203125,-0.987640380859375,-0.0080001354217529,-0.0326503552496433,-0.0303041096776723
1770449477538,-0.00616455078125,-0.18218994140625,-0.9806976318359376,-0.0156292933970689,-0.0265471879392862,-0.0235804263502359
1770449477548,0.0027313232421875,-0.1921234130859375,-0.972442626953125,-0.0253242645412683,-0.013457485474646,-0.0108648985624313
1770449477558,0.01025390625,-0.185211181640625,-0.9680328369140624,-0.0314711071550846,0.0104036387056112,-0.0054064830765128
1770449477568,0.0040435791015625,-0.168182373046875,-0.9650421142578124,-0.0368855781853199,0.0353476032614707,-0.0196762327104806
1770449477578,-0.01141357421875,-0.1643218994140625,-0.972320556640625,-0.0358224473893642,0.0359319001436233,-0.0337502397596836
1770449477588,-0.014801025390625,-0.1706695556640625,-0.9853057861328124,-0.0330168046057224,0.0146282110363245,-0.0426673032343387
1770449477599,-0.01202392578125,-0.1732330322265625,-0.994537353515625,-0.0278305653482675,-0.0146511141210794,-0.0425855442881584
1770449477608,-0.0084686279296875,-0.1735382080078125,-0.9918670654296876,-0.0301123615354299,-0.0215369835495948,-0.0375859923660755
1770449477618,-0.004608154296875,-0.1750640869140625,-0.9854583740234376,-0.0276452098041772,-0.0077716368250548,-0.0354850217700004
1770449477629,-0.0029449462890625,-0.1794891357421875,-0.9829559326171876,-0.0224616322666406,-0.0079418122768402,-0.0292894449084997
1770449477638,0.0083160400390625,-0.186248779296875,-0.9819488525390624,-0.0233721677213907,-0.0126332370564341,-0.0147307431325316
1770449477649,0.0161285400390625,-0.1934356689453125,-0.9799041748046876,-0.0254680756479501,-0.0068597705103456,-0.0016807209467515
1770449477659,0.016265869140625,-0.1936798095703125,-0.977783203125,-0.0313501991331577,0.0058139469474554,0.0046088667586445
1770449477669,0.0132598876953125,-0.1863861083984375,-0.9742279052734376,-0.0351286940276622,0.0191609114408493,0.0053875748999416
1770449477679,0.001800537109375,-0.178009033203125,-0.9733734130859376,-0.0382198244333267,0.0283416267484426,0.0003789678157772
1770449477689,-0.0086517333984375,-0.1676483154296875,-0.978790283203125,-0.0352948755025863,0.0310971997678279,-0.0078488681465387
1770449477699,-0.0142669677734375,-0.1646575927734375,-0.9882659912109376,-0.0281424224376678,0.0219721440225839,-0.0196746345609426
1770449477709,-0.017242431640625,-0.1691741943359375,-0.998504638671875,-0.013278255239129,0.0095186699181795,-0.0230611115694046
1770449477720,-0.0157012939453125,-0.173004150390625,-1.005340576171875,0.0023289343807846,-0.0095152081921696,-0.0244587380439043
1770449477729,-0.0087890625,-0.1767425537109375,-1.00384521484375,0.0088321072980761,-0.0277349576354026,-0.0203358978033065
1770449477739,-0.0013275146484375,-0.1763458251953125,-0.9922027587890624,0.0131440311670303,-0.0276516005396842,-0.0143448505550622
1770449477749,0.0021209716796875,-0.1786956787109375,-0.9786529541015624,0.0093530220910906,-0.0114888772368431,-0.0128739867359399
1770449477759,0.0070648193359375,-0.1853485107421875,-0.971527099609375,-0.0020722055342048,0.0037121803034096,-0.0031260184478014
1770449477769,0.0144500732421875,-0.1822662353515625,-0.967926025390625,-0.0079990709200501,0.0171089451760053,0.0033140375744551
