timestamp_ms,acc_x,acc_y,acc_z,gyro_x,gyro_y,gyro_z
1769246053739,-0.0733642578125,-0.058380126953125,-0.9874420166015624,-0.0138875860720872,-0.0077343522571027,0.0247407667338848
1769246053747,-0.0729827880859375,-0.0622406005859375,-0.9893646240234376,-0.0201939512044191,-0.0054115434177219,0.0198520012199878
1769246053756,-0.075775146484375,-0.06646728515625,-0.9925994873046876,-0.0186748839914798,-0.0066310046240687,0.0130838444456458
1769246053767,-0.076873779296875,-0.060455322265625,-0.9961090087890624,-0.0168239865452051,-0.0092126727104187,0.0077103837393224
1769246053777,-0.0749053955078125,-0.052978515625,-0.996002197265625,-0.0184924583882093,-0.0054626758210361,0.0006210491410456
1769246053787,-0.0727386474609375,-0.0540008544921875,-0.996490478515625,-0.0131259215995669,0.0019411781104281,-0.0052568134851753
1769246053797,-0.0718994140625,-0.0593719482421875,-0.9975738525390624,-0.0046093990094959,0.0013321131700649,-0.0050525492988526
1769246053807,-0.06939697265625,-0.058441162109375,-0.9994049072265624,0.0072643044404685,-0.0053313821554183,-0.0107815414667129
1769246053817,-0.0704193115234375,-0.0599212646484375,-0.9970855712890624,0.0144247459247708,-0.0090885693207383,-0.0149523178115487
1769246053827,-0.0695953369140625,-0.056365966796875,-0.991790771484375,0.0198626536875963,-0.0132939675822854,-0.0140649527311325
1769246053837,-0.065185546875,-0.0567169189453125,-0.989501953125,0.0246946942061185,-0.0087767131626605,-0.0173598155379295
1769246053847,-0.0626678466796875,-0.0542449951171875,-0.991668701171875,0.0308870766311883,-0.0075191687792539,-0.0197276324033737
1769246053857,-0.066925048828125,-0.0552215576171875,-0.9912109375,0.0357886254787445,-0.0079490030184388,-0.0250355787575244
1769246053867,-0.068328857421875,-0.0538787841796875,-0.989593505859375,0.0413743369281291,-0.0107514476403594,-0.0317334271967411
1769246053877,-0.071990966796875,-0.0493621826171875,-0.9884490966796876,0.0430555902421474,-0.015549398958683,-0.0382200889289379
1769246053887,-0.074005126953125,-0.0512237548828125,-0.9867401123046876,0.0387734957039356,-0.0186365339905023,-0.0422244183719158
1769246053897,-0.07049560546875,-0.053009033203125,-0.982940673828125,0.0300138257443904,-0.0201388243585824,-0.0401759147644043
1769246053907,-0.062591552734375,-0.0540618896484375,-0.9798736572265624,0.015125423669815,-0.0156985353678464,-0.0407668724656105
1769246053917,-0.0606536865234375,-0.0560302734375,-0.9803009033203124,0.0051313787698745,-0.0119567941874265,-0.0423826090991497
1769246053928,-0.061431884765625,-0.056396484375,-0.984039306640625,-0.0062770708464086,-0.0063905213028192,-0.0419501140713691
1769246053938,-0.058380126953125,-0.0627899169921875,-0.9881134033203124,-0.0194141771644353,-0.0118667790666222,-0.0411144122481346
1769246053948,-0.0577392578125,-0.079925537109375,-0.9910430908203124,-0.0322860330343246,-0.0035595810040831,-0.0335758030414581
1769246053958,-0.05517578125,-0.06121826171875,-0.99664306640625,-0.0383567102253437,0.0238017365336418,-0.0262470506131649
1769246053968,-0.0563201904296875,-0.0418548583984375,-0.9989166259765624,-0.0434920825064182,0.0424707606434822,-0.0328168012201786
1769246053978,-0.0668487548828125,-0.058013916015625,-0.9987640380859376,-0.0432105883955955,0.0533564314246177,-0.0307392701506614
1769246053988,-0.0567626953125,-0.053070068359375,-0.996978759765625,-0.0407101437449455,0.0392675101757049,-0.0290364455431699
1769246053998,-0.052398681640625,-0.0701904296875,-0.9997711181640624,-0.0305717568844556,0.0379226133227348,-0.0244912281632423
1769246054008,-0.05487060546875,-0.065643310546875,-1.004547119140625,-0.0185387972742319,0.0455973111093044,-0.0187696926295757
1769246054018,-0.0586090087890625,-0.052032470703125,-1.0066375732421875,-0.0136502981185913,0.0456561669707298,-0.0182527732104063
1769246054028,-0.060272216796875,-0.058074951171875,-1.003509521484375,-0.0083165196701884,0.0631640553474426,-0.0050679952837526
1769246054038,-0.052642822265625,-0.04119873046875,-1.00201416015625,-0.0012540825409814,0.0624668411910533,0.0033795514609664
1769246054048,-0.0558319091796875,-0.0420379638671875,-0.998931884765625,0.011217501014471,0.0480751171708107,0.0078962724655866
1769246054058,-0.0614166259765625,-0.04608154296875,-0.99359130859375,0.020053869113326,0.0296489726752042,0.0163283739238977
1769246054068,-0.064300537109375,-0.0526580810546875,-0.99365234375,0.0256851240992546,0.0121799670159816,0.0181438494473695
1769246054078,-0.071197509765625,-0.0594329833984375,-0.99462890625,0.0279828980565071,0.0087119983509182,0.0174032244831323
1769246054088,-0.0746917724609375,-0.0650634765625,-0.994049072265625,0.0248393025249242,0.0026506441645324,0.0189119055867195
1769246054098,-0.07354736328125,-0.0654144287109375,-0.9919281005859376,0.0209356416016817,0.0016905746888369,0.0155187724158167
1769246054108,-0.0724029541015625,-0.0647430419921875,-0.9915008544921876,0.0156537946313619,0.0068099689669907,0.0150774866342544
1769246054118,-0.0699615478515625,-0.063629150390625,-0.990509033203125,0.0074459319002926,0.0192179027944803,0.0128217888996005
1769246054128,-0.0653076171875,-0.0618896484375,-0.9909515380859376,0.0052291168831288,0.019439211115241,0.0127030117437243
1769246054138,-0.066619873046875,-0.0585784912109375,-0.9911041259765624,0.0047233826480805,0.0262161567807197,0.0127259148284792
1769246054149,-0.069854736328125,-0.05548095703125,-0.9942779541015624,0.0099543631076812,0.0330327861011028,0.0060059609822928
1769246054158,-0.073486328125,-0.059417724609375,-0.9975738525390624,0.012768791988492,0.0313842892646789,-0.0023361248895525
1769246054169,-0.0765380859375,-0.0570068359375,-0.9990692138671876,0.0215753335505723,0.0241340976208448,-0.009794307872653
1769246054179,-0.0765228271484375,-0.0596466064453125,-0.9953460693359376,0.0263644959777593,0.0078667113557457,-0.0187486540526151
1769246054189,-0.0755767822265625,-0.06488037109375,-0.992279052734375,0.0275780986994504,-0.0026208166964352,-0.0277243051677942
1769246054199,-0.0693817138671875,-0.0635223388671875,-0.98870849609375,0.0262776762247085,-0.0081191789358854,-0.0316849574446678
1769246054209,-0.063232421875,-0.06060791015625,-0.9834747314453124,0.0227218233048915,-0.0140803987160325,-0.0392944104969501
1769246054219,-0.0639801025390625,-0.060638427734375,-0.9818878173828124,0.0199816972017288,-0.0224677585065364,-0.0443126037716865
1769246054229,-0.06475830078125,-0.0614776611328125,-0.985565185546875,0.0245636664330959,-0.0363159291446208,-0.0476274415850639
1769246054239,-0.0670318603515625,-0.078399658203125,-0.990692138671875,0.0229402035474777,-0.0442774482071399,-0.047238353639841
1769246054249,-0.056549072265625,-0.06915283203125,-0.9925537109375,0.0179427806288003,-0.0336889885365963,-0.0420305393636226
1769246054259,-0.049774169921875,-0.0576171875,-0.99493408203125,0.0163137260824441,-0.0102220112457871,-0.042889941483736
1769246054269,-0.0548248291015625,-0.060516357421875,-0.9940948486328124,0.0159965436905622,-0.0013670006301254,-0.0425586439669132
1769246054279,-0.0543975830078125,-0.0595550537109375,-0.9924774169921876,0.0203303061425685,-0.0036128442734479,-0.0431501343846321
1769246054289,-0.05462646484375,-0.055511474609375,-0.99090576171875,0.0188906006515026,-0.0051297806203365,-0.0455477759242057
1769246054299,-0.0539398193359375,-0.06207275390625,-0.99169921875,0.0155448708683252,-0.0015696671325713,-0.0461035780608654
1769246054309,-0.0523834228515625,-0.061737060546875,-0.9915924072265624,0.0106462528929114,0.0056874467991292,-0.0455738753080368
1769246054319,-0.054901123046875,-0.0573577880859375,-0.99114990234375,0.0074568511918187,0.0083559341728687,-0.0445909053087234
1769246054330,-0.055694580078125,-0.0589599609375,-0.9913177490234376,0.0029084382113069,0.0129352398216724,-0.0397628583014011
1769246054339,-0.052581787109375,-0.061370849609375,-0.9920806884765624,-0.0022900521289557,0.0161842964589595,-0.0292814560234546
1769246054350,-0.04949951171875,-0.06219482421875,-0.991851806640625,-0.0036818201187998,0.0202296376228332,-0.0212283227592706
1769246054359,-0.0484619140625,-0.060760498046875,-0.994415283203125,-0.0017459683585911,0.0260425191372632,-0.0115642445161938
1769246054370,-0.051055908203125,-0.061859130859375,-0.9979248046875,0.0006290386663749,0.026715500280261,-0.0028727517928928
1769246054380,-0.0534820556640625,-0.066650390625,-0.9987030029296876,0.0061313956975936,0.0247255861759185,0.0007371630053967
1769246054390,-0.0556793212890625,-0.0664520263671875,-1.001556396484375,0.0123003423213958,0.0220320653170347,0.006351372692734
1769246054400,-0.0587310791015625,-0.0649871826171875,-1.0032501220703125,0.0157965403050184,0.0235676430165767,0.0102300010621547
1769246054410,-0.05950927734375,-0.0616302490234375,-1.0026702880859375,0.0228560473769903,0.0175704713910818,0.0161731112748384
1769246054420,-0.058837890625,-0.0619964599609375,-1.0029296875,0.0294998344033956,0.0270851477980613,0.0194317549467086
1769246054430,-0.0601348876953125,-0.0608673095703125,-1.0019378662109375,0.0356426835060119,0.0368163362145423,0.0245554111897945
1769246054440,-0.057464599609375,-0.060882568359375,-0.998382568359375,0.0421450547873973,0.0393362194299697,0.0284337718039751
1769246054450,-0.0627899169921875,-0.068603515625,-0.9959564208984376,0.0513265691697597,0.0327286534011364,0.0295658819377422
1769246054460,-0.0659637451171875,-0.0700836181640625,-0.99517822265625,0.0593402869999408,0.0189369395375251,0.031990423798561
1769246054470,-0.0650787353515625,-0.0695343017578125,-0.9929046630859376,0.0623920038342475,0.010440656915307,0.0301664248108863
1769246054480,-0.0656585693359375,-0.0676422119140625,-0.9892120361328124,0.062871903181076,0.0049508162774145,0.0215939749032259
1769246054490,-0.0689849853515625,-0.06707763671875,-0.984893798828125,0.0561170652508735,-0.0031294806394726,0.0146891977638006
1769246054500,-0.0656890869140625,-0.06500244140625,-0.982879638671875,0.0499377325177192,-0.0040290965698659,0.0128883682191371
1769246054511,-0.0672149658203125,-0.067657470703125,-0.9848785400390624,0.0493925847113132,-0.0018026937032118,0.0023718113079667
1769246054520,-0.0737762451171875,-0.072998046875,-0.9886322021484376,0.0513446815311908,-0.0020024308469146,-0.007800665218383
1769246054530,-0.0746307373046875,-0.0703125,-0.9904632568359376,0.046940878033638,-0.0028714202344417,-0.0151469949632883
1769246054540,-0.0731964111328125,-0.0645904541015625,-0.988494873046875,0.0402472876012325,-0.0037755635567009,-0.0260292030870914
1769246054550,-0.071746826171875,-0.0692138671875,-0.9835662841796876,0.0314484685659408,-0.0087133301421999,-0.0326916351914405
1769246054561,-0.0661163330078125,-0.0701904296875,-0.9814453125,0.0251905750483274,-0.0131797175854444,-0.0380589701235294
1769246054571,-0.0618438720703125,-0.0692138671875,-0.983551025390625,0.0183622296899557,-0.0195979364216327,-0.0419889949262142
1769246054581,-0.0597686767578125,-0.069427490234375,-0.983184814453125,0.012818593531847,-0.0277674496173858,-0.0449243299663066
1769246054591,-0.0575408935546875,-0.0780487060546875,-0.9852447509765624,0.0013701963471248,-0.036916472017765,-0.0456018410623073
1769246054601,-0.0541534423828125,-0.0897216796875,-0.9863128662109376,-0.0003443467139732,-0.0231702998280525,-0.0377974472939968
1769246054612,-0.045654296875,-0.0644073486328125,-0.9894866943359376,-0.0052637378685176,-0.0138479052111506,-0.0361380316317081
1769246054621,-0.05462646484375,-0.053619384765625,-0.9874725341796876,-0.0057795923203229,-0.0057593523524701,-0.0446574836969375
1769246054631,-0.0672454833984375,-0.0736541748046875,-0.990325927734375,0.0040272320620715,-0.0008415589109063,-0.043278232216835
1769246054641,-0.05487060546875,-0.0655975341796875,-0.9935302734375,0.0037830201908946,-0.0131181990727782,-0.0406981594860553
1769246054651,-0.04791259765625,-0.0756683349609375,-0.9907684326171876,0.0021513015963137,-0.0019497001776471,-0.0393548645079135
1769246054661,-0.0503082275390625,-0.068359375,-0.9929656982421876,0.0046296389773488,0.0061180801130831,-0.0315510034561157
1769246054671,-0.0537261962890625,-0.0619659423828125,-0.994293212890625,-0.0016772588714957,0.0103455819189548,-0.0261857975274324
1769246054681,-0.0511627197265625,-0.0703125,-0.9930877685546876,0.0008657936705276,0.0278108585625886,-0.0085639273747801
1769246054691,-0.0442047119140625,-0.0577850341796875,-0.99298095703125,0.0048035434447228,0.027875306084752,0.0012860405258834
1769246054701,-0.0519256591796875,-0.0605621337890625,-0.9855194091796876,0.0055476306006312,0.0129935629665851,0.0043958136811852
1769246054711,-0.0559234619140625,-0.0630340576171875,-0.979949951171875,0.0027427896857261,-0.0030764837283641,0.0109748868271708
1769246054721,-0.057830810546875,-0.06683349609375,-0.9827117919921876,-0.0044346959330141,-0.0096968356519937,0.0134670725092291
1769246054732,-0.065277099609375,-0.073028564453125,-0.9857940673828124,-0.0162838976830244,-0.0065710837952792,0.0111394701525568
1769246054741,-0.06793212890625,-0.074981689453125,-0.9853057861328124,-0.0359486788511276,-0.0073942667804658,0.0107016460970044
1769246054751,-0.06280517578125,-0.08062744140625,-0.9835357666015624,-0.050745204091072,-0.0063678845763206,0.013054815120995
1769246054761,-0.05926513671875,-0.0807952880859375,-0.9872283935546876,-0.0595296397805213,-0.0058206049725413,0.009197493083775
1769246054772,-0.0594940185546875,-0.0793914794921875,-0.9922637939453124,-0.0588116496801376,-0.0032173648942261,0.0111743574962019
1769246054782,-0.0577850341796875,-0.0734405517578125,-0.99981689453125,-0.0553431510925293,0.007602259516716,0.0108638331294059
1769246054792,-0.0612335205078125,-0.0708160400390625,-1.0032806396484375,-0.0465560518205165,0.0239500738680362,0.0087508810684084
1769246054802,-0.0671539306640625,-0.068603515625,-1.0042572021484375,-0.0354365520179271,0.0355611890554428,0.0042232410050928
1769246054812,-0.068756103515625,-0.067962646484375,-1.0042724609375,-0.0209076777100563,0.0392709746956825,0.0001134506601374
1769246054822,-0.069793701171875,-0.0718231201171875,-1.0037841796875,-0.0051196608692407,0.0365963615477085,-0.0005853627808392
1769246054832,-0.0665130615234375,-0.0697784423828125,-1.000518798828125,0.0058664111420512,0.0282172560691833,-0.0052642705850303
1769246054842,-0.0643463134765625,-0.071868896484375,-0.9944000244140624,0.0151520548388361,0.0142790703102946,-0.0077644460834562
1769246054852,-0.0618438720703125,-0.0739898681640625,-0.9916839599609376,0.0246821772307157,-0.0029838057234883,-0.0104009751230478
1769246054862,-0.0593414306640625,-0.0731048583984375,-0.991668701171875,0.030703317373991,-0.0144324684515595,-0.0101072285324335
1769246054872,-0.05963134765625,-0.0709991455078125,-0.9878082275390624,0.035882368683815,-0.0237034652382135,-0.0130361737683415
1769246054885,-0.059600830078125,-0.0710601806640625,-0.9866485595703124,0.0364528149366378,-0.0372435078024864,-0.0071242223493754
1769246054892,-0.059814453125,-0.0820159912109375,-0.9869384765625,0.0395532697439193,-0.0491619519889354,-0.0064696171320974
1769246054902,-0.06005859375,-0.084136962890625,-0.9875030517578124,0.0328301191329956,-0.0473592579364776,-0.0034115093294531
1769246054912,-0.0596771240234375,-0.0683746337890625,-0.9906768798828124,0.028724854812026,-0.0331968367099761,-0.0037369476631283
1769246054922,-0.0643768310546875,-0.06634521484375,-0.9914703369140624,0.0292766615748405,-0.0278864912688732,-0.0043417513370513
1769246054932,-0.067291259765625,-0.06024169921875,-0.9900970458984376,0.033591516315937,-0.0283149946480989,-0.0073460633866488
1769246054942,-0.072723388671875,-0.06463623046875,-0.9906768798828124,0.0338248088955879,-0.043868388980627,-0.0141810663044452
1769246054952,-0.0750732421875,-0.074127197265625,-0.9878997802734376,0.0230896063148975,-0.0512240380048751,-0.017349163070321
1769246054963,-0.0695953369140625,-0.0719451904296875,-0.985198974609375,0.0077721690759062,-0.0493054986000061,-0.0204490814357996
1769246054972,-0.068145751953125,-0.0682525634765625,-0.9805450439453124,-0.0103375921025872,-0.0442406982183456,-0.0293733347207307
1769246054983,-0.0734405517578125,-0.0702056884765625,-0.9768524169921876,-0.0283496156334877,-0.0473494045436382,-0.0323763154447078
1769246054992,-0.0694122314453125,-0.072845458984375,-0.9780120849609376,-0.0396323651075363,-0.0549090541899204,-0.0351864844560623
1769246055003,-0.063323974609375,-0.07708740234375,-0.9837799072265624,-0.055433165282011,-0.0544051863253116,-0.0371644124388694
1769246055013,-0.0621795654296875,-0.0735321044921875,-0.9863739013671876,-0.0695774778723716,-0.0454223416745662,-0.0392065234482288
1769246055023,-0.059814453125,-0.0709991455078125,-0.987274169921875,-0.0828464105725288,-0.036618199199438,-0.0419842004776001
1769246055033,-0.0561370849609375,-0.0762786865234375,-0.9870758056640624,-0.0874936282634735,-0.0217630863189697,-0.0426957979798316
1769246055043,-0.054473876953125,-0.0780029296875,-0.9932708740234376,-0.0840022265911102,-0.0010335728293284,-0.0360621288418769
1769246055053,-0.054901123046875,-0.075103759765625,-0.9969482421875,-0.0793491527438163,0.0066070361062884,-0.0321278423070907
1769246055063,-0.0571746826171875,-0.0696868896484375,-0.9965972900390624,-0.0730390548706054,0.0161153208464384,-0.0258499737828969
1769246055073,-0.05987548828125,-0.0670623779296875,-1.00140380859375,-0.0516461506485939,0.0181116256862878,-0.0234411433339118
1769246055083,-0.0594329833984375,-0.06744384765625,-1.01055908203125,-0.0254177413880825,0.0116449380293488,-0.017560351639986
1769246055093,-0.06170654296875,-0.0618743896484375,-1.013885498046875,0.0018133464036509,0.0062424493953585,-0.0177281312644481
1769246055103,-0.0637664794921875,-0.06292724609375,-1.01513671875,0.0281163230538368,-0.0013970943400636,-0.014085192233324
1769246055113,-0.063751220703125,-0.0663604736328125,-1.0098419189453125,0.0434097908437252,0.001375256339088,-0.0084576671943068
1769246055123,-0.06201171875,-0.0673065185546875,-1.0025634765625,0.0608697421848773,-0.0017089504981413,-0.0027190875262022
1769246055133,-0.0627288818359375,-0.069732666015625,-0.9984588623046876,0.0699023827910423,-0.0065793395042419,0.0016301209107041
1769246055143,-0.0650787353515625,-0.0733489990234375,-0.993804931640625,0.0741418749094009,-0.0137309925630688,0.0062219430692493
1769246055153,-0.0644073486328125,-0.0696563720703125,-0.986297607421875,0.0688770711421966,-0.0150460610166192,0.0113621102645993
1769246055163,-0.062896728515625,-0.0669097900390625,-0.9844207763671876,0.0607347190380096,-0.0079431440681219,0.0129948947578668
1769246055173,-0.06915283203125,-0.069793701171875,-0.9825286865234376,0.0456649549305439,-0.0043707797303795,0.0108071072027087
1769246055184,-0.0725555419921875,-0.0704193115234375,-0.9798736572265624,0.0336743406951427,-0.0044317664578557,0.0098606199026107
1769246055193,-0.0716094970703125,-0.069091796875,-0.9814605712890624,0.0203681215643882,-0.0062581622041761,0.0045750443823635
1769246055204,-0.074859619140625,-0.0718994140625,-0.979095458984375,0.0043984767980873,-0.0137834567576646,-3.1691615731688216e-05
1769246055213,-0.0772552490234375,-0.07330322265625,-0.9762420654296876,-0.0087492829188704,-0.0244169253855943,-0.0070094401016831
1769246055224,-0.077239990234375,-0.0741729736328125,-0.9773406982421876,-0.0204003471881151,-0.0373239368200302,-0.0088744517415761
1769246055234,-0.073333740234375,-0.0862274169921875,-0.9839324951171876,-0.0348759591579437,-0.0404440946877002,-0.0086286421865224
1769246055244,-0.0652313232421875,-0.0833282470703125,-0.988250732421875,-0.0468487329781055,-0.0198565293103456,-0.005550826434046
1769246055254,-0.0597686767578125,-0.05316162109375,-0.9895782470703124,-0.0616852007806301,0.0051289820112288,-0.0119645176455378
1769246055264,-0.07611083984375,-0.0663909912109375,-0.9888763427734376,-0.0617962554097175,0.0218166150152683,-0.0215524304658174
1769246055274,-0.0753326416015625,-0.0660400390625,-0.9914398193359376,-0.0531263351440429,0.0095953689888119,-0.0224704220890998
1769246055284,-0.06964111328125,-0.0645599365234375,-0.993072509765625,-0.0540390014648437,-0.0187313426285982,-0.0327411666512489
1769246055294,-0.0728759765625,-0.079132080078125,-0.9954833984375,-0.0434113889932632,-0.0064541706815361,-0.0340013764798641
1769246055304,-0.0685882568359375,-0.0682373046875,-1.0030975341796875,-0.0391103848814964,-0.0109384013339877,-0.0331267938017845
1769246055314,-0.0664520263671875,-0.071319580078125,-1.0018768310546875,-0.0329877771437168,-0.0020093549974262,-0.0282817054539918
1769246055324,-0.0644683837890625,-0.0635223388671875,-1.0063629150390625,-0.0159113220870494,0.0173896420747041,-0.0223700199276208
1769246055334,-0.061004638671875,-0.0556793212890625,-1.00213623046875,-0.0028333370573818,0.0187766179442405,-0.0192304197698831
1769246055344,-0.0625762939453125,-0.062530517578125,-0.99871826171875,0.0155978677794337,0.0099064270034432,-0.0107724862173199
1769246055354,-0.0624847412109375,-0.0643463134765625,-0.9954986572265624,0.0307954624295234,-0.0073881414718925,-0.0052139367908239
1769246055364,-0.064453125,-0.070098876953125,-0.9971160888671876,0.0383985228836536,-0.0111605087295174,-0.0005230448441579
1769246055374,-0.0666656494140625,-0.0760498046875,-0.996246337890625,0.0377710796892643,-0.0147041110321879,0.0063218115828931
1769246055384,-0.06463623046875,-0.077972412109375,-0.9954071044921876,0.0333997681736946,-0.0112702315673232,0.0119826272130012
1769246055394,-0.061767578125,-0.0777130126953125,-0.9930419921875,0.0280369613319635,-0.0111924670636653,0.0159861575812101
1769246055404,-0.0619964599609375,-0.081085205078125,-0.9922332763671876,0.0263578370213508,-0.0068035777658224,0.0206988863646984
1769246055414,-0.063690185546875,-0.0742034912109375,-0.9932403564453124,0.0226552449166774,-0.0037225666455924,0.0230246260762214
1769246055424,-0.0666961669921875,-0.0709228515625,-0.993377685546875,0.0194927416741848,0.0017214673571288,0.0212794560939073
1769246055435,-0.071380615234375,-0.068023681640625,-0.993988037109375,0.0170117411762475,0.0065239458344876,0.0181222781538963
1769246055445,-0.0757293701171875,-0.06549072265625,-0.9938812255859376,0.0107810087502002,0.0132870431989431,0.0144239468500018
1769246055455,-0.07562255859375,-0.0654449462890625,-0.9915924072265624,0.0035273567773401,0.0161944162100553,0.0109927300363779
1769246055465,-0.0767669677734375,-0.067230224609375,-0.9869842529296876,-0.0038144455756992,0.0133781237527728,0.0037020600866526
1769246055475,-0.0769805908203125,-0.0717315673828125,-0.984954833984375,-0.0120345586910843,0.0093338470906019,-6.924218723725062e-06
1769246055485,-0.0727081298828125,-0.074249267578125,-0.98187255859375,-0.0154769606888294,0.0042456113733351,-0.0006050702068023
1769246055495,-0.071990966796875,-0.073272705078125,-0.985870361328125,-0.0175504982471466,-0.0030282805673778,-0.0073338127695024
1769246055505,-0.074554443359375,-0.07330322265625,-0.987152099609375,-0.0204687900841236,-0.0079245017841458,-0.0115149756893515
1769246055515,-0.07086181640625,-0.0714569091796875,-0.98919677734375,-0.0258656851947307,-0.0108893988654017,-0.0104015078395605
1769246055525,-0.0652923583984375,-0.0720672607421875,-0.988128662109375,-0.0311757624149322,-0.0134987644851207,-0.0035888757556676
1769246055535,-0.0634613037109375,-0.0781097412109375,-0.9868927001953124,-0.0345963276922702,-0.0220618918538093,-0.0008684568456374
1769246055545,-0.0658721923828125,-0.07647705078125,-0.9851837158203124,-0.0428499951958656,-0.0264164265245199,-0.001488440670073
1769246055555,-0.0665435791015625,-0.0683746337890625,-0.9844512939453124,-0.0448439046740531,-0.0139363221824169,0.0033806166611611
1769246055565,-0.068511962890625,-0.0655975341796875,-0.9917449951171876,-0.037769217044115,-0.0034421356394886,0.0038149782922118
1769246055575,-0.07232666015625,-0.06512451171875,-0.9935302734375,-0.0315201096236705,-0.0090014841407537,0.0009472863748669
1769246055585,-0.0745086669921875,-0.0700836181640625,-0.9925689697265624,-0.0279330983757972,-0.0135099496692419,-0.0015747271245345
1769246055597,-0.07220458984375,-0.071380615234375,-0.99371337890625,-0.0245966892689466,-0.0157944094389677,0.0011803129455074
1769246055605,-0.0695953369140625,-0.068359375,-0.994140625,-0.0189830120652914,-0.0106798084452748,0.0006423544255085
1769246055615,-0.073883056640625,-0.0666961669921875,-0.9932098388671876,-0.0117762321606278,-0.0126327043399214,0.0003304982965346
1769246055625,-0.0747833251953125,-0.066314697265625,-0.9932861328125,-0.0065662898123264,-0.0174828525632619,0.000266049784841
1769246055636,-0.07574462890625,-0.0684814453125,-0.9912261962890624,-0.0034461303148418,-0.0222256761044263,-0.0022133530583232
1769246055646,-0.072967529296875,-0.070068359375,-0.9900665283203124,-0.0083623258396983,-0.0254614185541868,0.0017853832105174
1769246055656,-0.068817138671875,-0.067779541015625,-0.9876556396484376,-0.0146937249228358,-0.0205398965626955,0.0033702303189784
1769246055666,-0.069061279296875,-0.0710601806640625,-0.9862518310546876,-0.0256137512624263,-0.0111325457692146,0.0023353260476142
1769246055676,-0.0696868896484375,-0.0705413818359375,-0.9875030517578124,-0.0372562929987907,-0.0080920150503516,0.0027774106711149
1769246055686,-0.070098876953125,-0.0721435546875,-0.98583984375,-0.0432409457862377,-0.0088475532829761,-0.0031342741567641
1769246055697,-0.0751800537109375,-0.0704193115234375,-0.9893035888671876,-0.0482905656099319,-0.0117171099409461,0.0009486179915256
1769246055706,-0.0733184814453125,-0.0716705322265625,-0.9920806884765624,-0.048808816820383,-0.0039340215735137,0.0017608820926398
1769246055716,-0.072845458984375,-0.0732574462890625,-0.9961700439453124,-0.0441594719886779,0.0002892192860599,0.0056104813702404
1769246055726,-0.0737457275390625,-0.0675201416015625,-0.997955322265625,-0.0357012711465358,-0.0022953785955905,0.0049753175117075
1769246055736,-0.0758514404296875,-0.0630950927734375,-1.0002899169921875,-0.0291062202304601,-0.0066240807063877,0.0025361282750964
1769246055747,-0.0783233642578125,-0.0608978271484375,-1.0017242431640625,-0.0199641212821006,-0.0105748800560832,-0.0024482440203428
1769246055756,-0.076904296875,-0.0635223388671875,-1.0052490234375,-0.0167648643255233,-0.0037803570739924,-0.0057106162421405
1769246055766,-0.0755157470703125,-0.066192626953125,-1.0002288818359375,-0.0083780381828546,-0.0116774290800094,-0.0086222505196928
1769246055776,-0.077880859375,-0.0655364990234375,-0.9984130859375,-0.0040930123068392,-0.0098345214501023,-0.0054861116223037
1769246055786,-0.069854736328125,-0.0680999755859375,-0.996978759765625,0.0032346753869205,-0.0092499572783708,-0.0042139198631048
1769246055797,-0.067352294921875,-0.0720367431640625,-0.998321533203125,0.0103972470387816,-0.0082289017736911,-0.0015952334506437
1769246055806,-0.0686187744140625,-0.067474365234375,-0.9971771240234376,0.0205606687813997,-0.0081269023939967,0.0010210559703409
1769246055816,-0.0697174072265625,-0.0687103271484375,-0.997161865234375,0.0231710989028215,-0.005560147576034,0.0045348308049142
1769246055826,-0.0695343017578125,-0.067352294921875,-0.99249267578125,0.0223532430827617,-0.0014498248929157,0.0050096721388399
1769246055837,-0.0735931396484375,-0.065948486328125,-0.990478515625,0.0227327421307563,-0.0019877834711223,0.0019009644165635
1769246055847,-0.0777740478515625,-0.066650390625,-0.991546630859375,0.0225796103477478,-0.0031369375064969,0.002272475278005
1769246055857,-0.0739593505859375,-0.06951904296875,-0.991546630859375,0.0229804161936044,-0.0047409594990313,0.0023710122331976
1769246055867,-0.07440185546875,-0.0685882568359375,-0.9912261962890624,0.01836808770895,-0.0054328483529388,0.0013853764394298
1769246055877,-0.073944091796875,-0.06329345703125,-0.9875946044921876,0.0110672982409596,-0.0055396412499248,0.0014279870083555
1769246055887,-0.0755615234375,-0.0615692138671875,-0.9838104248046876,0.0068584387190639,-0.0074808192439377,-0.0003771035990212
1769246055898,-0.0735626220703125,-0.068145751953125,-0.98626708984375,0.0064240773208439,-0.0149091742932796,0.0030376014765352
1769246055907,-0.07025146484375,-0.0833587646484375,-0.98638916015625,0.0008769789128564,-0.0251831170171499,0.0071244887076318
1769246055917,-0.0662078857421875,-0.0896148681640625,-0.9882659912109376,-0.0055052866227924,-0.0145357996225357,0.012329370714724
1769246055927,-0.0688934326171875,-0.05963134765625,-0.9911346435546876,-0.0071117053739726,0.0033510555513203,0.0067330040037631
1769246055937,-0.08258056640625,-0.061614990234375,-0.991943359375,-0.0058155446313321,0.0271440036594867,-0.0015646071406081
1769246055947,-0.0809478759765625,-0.050048828125,-0.991729736328125,-0.0101303979754447,0.0159669816493988,-0.004652542527765
1769246055957,-0.079498291015625,-0.0545501708984375,-0.9876861572265624,-0.0132212629541754,0.0020660804584622,-0.0157712399959564
1769246055967,-0.082672119140625,-0.0814666748046875,-0.990936279296875,-0.0112891402095556,-0.0002005360292969,-0.0151363424956798
1769246055977,-0.074005126953125,-0.0750885009765625,-0.98785400390625,-0.0239657871425151,-0.009720005095005,-0.0169651340693235
1769246055987,-0.0726776123046875,-0.072296142578125,-0.984619140625,-0.0335816629230976,0.00890161562711,-0.019332418218255
1769246055997,-0.0734405517578125,-0.0540313720703125,-0.984893798828125,-0.0315523333847522,0.0170080121606588,-0.026332538574934
1769246056007,-0.0783538818359375,-0.0524444580078125,-0.9871063232421876,-0.0213577523827552,0.0083285039290785,-0.0253546256572008
1769246056017,-0.0761260986328125,-0.0549163818359375,-0.9928131103515624,-0.0092917690053582,-0.0103463809937238,-0.0262923240661621
1769246056027,-0.0756378173828125,-0.064544677734375,-0.9949951171875,-0.0006940197781659,-0.0244100019335746,-0.02136867120862
1769246056038,-0.078826904296875,-0.06719970703125,-0.9931182861328124,-0.0045223138295114,-0.0259189493954181,-0.0172628760337829
1769246056048,-0.0771484375,-0.073211669921875,-0.98675537109375,-0.0178700778633356,-0.023764718323946,-0.0123197827488183
1769246056058,-0.07257080078125,-0.0787811279296875,-0.9865875244140624,-0.0262033753097057,-0.0186410620808601,-0.0040336237289011
1769246056068,-0.0687713623046875,-0.0788726806640625,-0.9886932373046876,-0.0305789485573768,-0.0160218439996242,0.0002314286975888
1769246056078,-0.0680999755859375,-0.074859619140625,-0.9929046630859376,-0.0315842926502227,-0.019087141379714,0.0059961071237921
1769246056088,-0.0720062255859375,-0.0660552978515625,-0.994476318359375,-0.0350248292088508,-0.0167837738990783,0.0113424025475978
1769246056098,-0.070831298828125,-0.0663604736328125,-0.996429443359375,-0.036691702902317,-0.0098728705197572,0.01207503862679
1769246056108,-0.0731048583984375,-0.0633087158203125,-0.9990386962890624,-0.0376967787742614,0.0006269080913625,0.0114601142704486
1769246056118,-0.07861328125,-0.060821533203125,-0.9988250732421876,-0.0345925986766815,0.0070565780624747,0.0070368703454732
1769246056128,-0.0828094482421875,-0.0628814697265625,-0.9977874755859376,-0.0241849645972251,0.0059835901483893,0.007326622493565
1769246056138,-0.0812225341796875,-0.0666351318359375,-1.001251220703125,-0.0117780957370996,0.0054855793714523,0.0050578755326569
1769246056148,-0.0812225341796875,-0.0661163330078125,-1.0030364990234375,-0.0003936151915695,0.0107280118390917,0.0011864382540807
1769246056158,-0.079376220703125,-0.0682525634765625,-1.0009307861328125,0.0101008368656039,0.0125490808859467,-0.0027766118291765
1769246056168,-0.0800018310546875,-0.0708770751953125,-1.0005340576171875,0.0191497262567281,0.0084235789254307,-0.0047204531729221
1769246056180,-0.0764617919921875,-0.069732666015625,-0.9989166259765624,0.0266212243586778,0.0014849785948172,-0.005036836490035
1769246056188,-0.0736541748046875,-0.068206787109375,-0.9960784912109376,0.0254507642239332,-0.004595817066729,-0.0036346821580082
1769246056198,-0.0721435546875,-0.0711212158203125,-0.989532470703125,0.0213223323225975,-0.0072195632383227,-0.001824265345931
1769246056208,-0.073699951171875,-0.0688934326171875,-0.983642578125,0.0183398593217134,-0.0118095213547348,-4.5540054998127744e-05
1769246056218,-0.07708740234375,-0.0702056884765625,-0.98101806640625,0.0088076060637831,-0.020909009501338,-0.0036653084680438
1769246056228,-0.079803466796875,-0.06646728515625,-0.98345947265625,0.0034410704392939,-0.0131762558594346,-0.0078712385147809
1769246056239,-0.079681396484375,-0.056610107421875,-0.985626220703125,-0.0019851203542202,-0.0035358788445591,-0.013489443808794
1769246056248,-0.086151123046875,-0.064605712890625,-0.98687744140625,-0.0067846691235899,-0.0118494685739278,-0.0186684932559728
1769246056258,-0.0812530517578125,-0.0656890869140625,-0.985198974609375,-0.0121205784380435,-0.0167566090822219,-0.0179478414356708
1769246056269,-0.075531005859375,-0.0620269775390625,-0.986480712890625,-0.0154540576040744,-0.01587457023561,-0.0184604991227388
1769246056279,-0.076690673828125,-0.0674591064453125,-0.98675537109375,-0.0193167068064212,-0.0100750047713518,-0.0206259153783321
1769246056289,-0.0804595947265625,-0.0642242431640625,-0.9856414794921876,-0.0226645655930042,-0.01033466309309,-0.018174210563302
1769246056299,-0.0763092041015625,-0.06158447265625,-0.9861602783203124,-0.0249847117811441,-0.0078621841967105,-0.0175355840474367
1769246056309,-0.077117919921875,-0.06573486328125,-0.98699951171875,-0.0295107532292604,-0.0055148741230368,-0.0189904682338237
1769246056319,-0.075836181640625,-0.066558837890625,-0.9858551025390624,-0.0339094959199428,-0.0161842964589595,-0.0137075567618012
1769246056330,-0.073455810546875,-0.0678863525390625,-0.985626220703125,-0.042640671133995,-0.0122137889266014,-0.0100038982927799
1769246056339,-0.0734100341796875,-0.06671142578125,-0.988616943359375,-0.0475472770631313,-0.0091029508039355,-0.0112510565668344
1769246056349,-0.0766754150390625,-0.067413330078125,-0.9915313720703124,-0.0539135634899139,-0.0079026641324162,-0.012842827476561
1769246056359,-0.077972412109375,-0.067474365234375,-0.9920501708984376,-0.0545135773718357,-0.0110878050327301,-0.0063670855015516
1769246056369,-0.07354736328125,-0.0637054443359375,-0.9953765869140624,-0.0536033064126968,-0.0120159164071083,-0.0024160197935998
1769246056379,-0.07330322265625,-0.0686187744140625,-0.9978485107421876,-0.0530879870057106,-0.0101652862504124,0.0002846919232979
1769246056389,-0.0746917724609375,-0.0650787353515625,-1.000335693359375,-0.0458077006042003,-0.0062629557214677,0.0016530241118744
1769246056399,-0.0769500732421875,-0.064117431640625,-1.001861572265625,-0.0338431857526302,-0.002895388752222,0.0027579695452004
1769246056409,-0.0769195556640625,-0.0614166259765625,-1.00494384765625,-0.0216499008238315,-0.0012815131340175,0.0056184707209467
1769246056419,-0.0791015625,-0.0593719482421875,-1.0076446533203125,-0.00808722153306,0.0020559602417051,0.0012444951571524
1769246056429,-0.08270263671875,-0.0626220703125,-1.00787353515625,0.0084147900342941,0.0023086944129318,0.0014969628537073
1769246056439,-0.0775299072265625,-0.0605010986328125,-1.006134033203125,0.0182170867919921,0.0013736584223806,-0.0006543386843986
1769246056449,-0.077972412109375,-0.062530517578125,-0.999969482421875,0.018870361149311,0.002518018707633,0.0022394522093236
1769246056459,-0.0755615234375,-0.0616607666015625,-0.99212646484375,0.0192967317998409,0.0049303099513053,-0.00145621644333
1769246056470,-0.0748138427734375,-0.0645294189453125,-0.9889678955078124,0.018958244472742,0.0024322650860995,-0.0017009610310196
1769246056480,-0.0789794921875,-0.0694732666015625,-0.989837646484375,0.0196008663624525,-0.0024237427860498,-0.0008820389630272
1769246056490,-0.0785064697265625,-0.0639190673828125,-0.98992919921875,0.0197217725217342,-0.0055553540587425,-0.0001307612110394
1769246056500,-0.0796356201171875,-0.062652587890625,-0.990386962890625,0.0166780464351177,-0.0028178908396512,-0.0041705104522407
1769246056510,-0.0829925537109375,-0.0644378662109375,-0.9912872314453124,0.0126814404502511,-0.0051130028441548,-0.0050256513059139
1769246056520,-0.0818939208984375,-0.0646820068359375,-0.9918975830078124,0.0124888941645622,-0.0062770708464086,-0.0067138290032744
1769246056530,-0.0796051025390625,-0.0643310546875,-0.991241455078125,0.0111362747848033,-0.0024897893890738,-0.0090880375355482
1769246056540,-0.07958984375,-0.061767578125,-0.990478515625,0.0082153193652629,0.0019957728218287,-0.0098797949030995
1769246056550,-0.0814208984375,-0.063018798828125,-0.989044189453125,0.0085620628669857,0.0011278487509116,-0.0126769132912158
1769246056560,-0.08233642578125,-0.063446044921875,-0.9901885986328124,0.0091032171621918,-0.0019667444285005,-0.0124060697853565
1769246056570,-0.0789794921875,-0.06390380859375,-0.98895263671875,0.0071255536749958,-0.0010135991033166,-0.0131096765398979
1769246056580,-0.0769805908203125,-0.06317138671875,-0.988922119140625,0.0021505025215446,0.0004649879119824,-0.0107554420828819
1769246056590,-0.0770111083984375,-0.0651397705078125,-0.9861297607421876,0.0005446164286695,0.0017499631503596,-0.0127365682274103
1769246056600,-0.0791473388671875,-0.064666748046875,-0.9892730712890624,-5.166532355360687e-05,-0.0032274848781526,-0.0108182933181524
1769246056610,-0.078887939453125,-0.0604705810546875,-0.990631103515625,0.0035369442775845,-0.0101706124842166,-0.0054014232009649
1769246056620,-0.07708740234375,-0.0654754638671875,-0.99102783203125,0.0070299464277923,-0.0158146489411592,-0.0020128171890974
1769246056631,-0.076629638671875,-0.0806884765625,-0.9912567138671876,0.0035894084721803,-0.0222621615976095,0.0029270802624523
1769246056640,-0.07177734375,-0.083282470703125,-0.9886322021484376,-0.0074730962514877,-0.0130513533949851,0.015073224902153
1769246056650,-0.0677490234375,-0.05328369140625,-0.9844818115234376,-0.0153925381600856,0.0107916612178087,0.0132556175813078
1769246056660,-0.0843048095703125,-0.0546875,-0.98175048828125,-0.0191015228629112,0.0196408126503229,0.0019547601696103
1769246056670,-0.08587646484375,-0.0435028076171875,-0.98638916015625,-0.0267557147890329,0.0073098447173833,-0.005984921939671
1769246056681,-0.0855712890625,-0.0509490966796875,-0.9892730712890624,-0.0227524507790803,-0.0047990162856876,-0.0153930708765983
1769246056691,-0.0897674560546875,-0.076141357421875,-0.992431640625,-0.0172005575150251,-0.0136811910197138,-0.0159952118992805
1769246056701,-0.0803070068359375,-0.06988525390625,-0.9911956787109376,-0.0256419796496629,-0.0198666490614414,-0.0183361303061246
1769246056711,-0.076995849609375,-0.0711212158203125,-0.9911956787109376,-0.0290271248668432,0.0044967476278543,-0.0151035850867629
1769246056721,-0.07513427734375,-0.0545501708984375,-0.9943084716796876,-0.0252989642322063,0.016895892098546,-0.0170839112251997
1769246056731,-0.0803375244140625,-0.0492401123046875,-0.9932861328125,-0.0136148780584335,0.0163653902709484,-0.0189292170107364
1769246056741,-0.0834197998046875,-0.05389404296875,-0.992095947265625,-0.0050874366424977,-0.0044586644507944,-0.0190674345940351
1769246056751,-0.0797576904296875,-0.0558929443359375,-0.9919281005859376,-0.0024290692526847,-0.0144721502438187,-0.0136763975024223
1769246056761,-0.0774688720703125,-0.063385009765625,-0.988800048828125,-0.007252053823322,-0.0157856214791536,-0.0090379696339368
1769246056771,-0.07855224609375,-0.0733795166015625,-0.98687744140625,-0.0144633613526821,-0.012501411139965,-0.0050853062421083
1769246056781,-0.076568603515625,-0.0737152099609375,-0.9883270263671876,-0.0204008799046278,-0.0146750826388597,0.000645816558972
1769246056791,-0.07672119140625,-0.071441650390625,-0.9929656982421876,-0.0237194448709487,-0.011929896660149,0.0053849117830395
1769246056801,-0.0758819580078125,-0.068603515625,-0.9940338134765624,-0.0302332695573568,-0.0091402353718876,0.0120393522083759
1769246056811,-0.0731964111328125,-0.0618133544921875,-0.9948577880859376,-0.0278220437467098,-0.0097050918266177,0.0178120210766792
1769246056821,-0.0734405517578125,-0.062469482421875,-1.000244140625,-0.0249615423381328,-0.0045960834249854,0.017508951947093
1769246056831,-0.0814361572265625,-0.0648040771484375,-1.00396728515625,-0.0159169156104326,0.0038541266694664,0.0163749791681766
1769246056841,-0.085540771484375,-0.0610809326171875,-1.0044708251953125,-0.0087708542123436,0.0094528906047344,0.0144111635163426
1769246056851,-0.08551025390625,-0.05792236328125,-1.005401611328125,-0.0023912524338811,0.0182202830910682,0.0124390926212072
1769246056861,-0.085693359375,-0.0616912841796875,-1.0033721923828125,0.0059529640711843,0.0202884934842586,0.0076552564278244
1769246056871,-0.0882415771484375,-0.0628814697265625,-0.9990234375,0.0127203222364187,0.0189521200954914,0.0021984395571053
1769246056881,-0.086273193359375,-0.0639495849609375,-0.9962615966796876,0.0168064106255769,0.0148822767660021,0.000613592332229
1769246056892,-0.07757568359375,-0.065521240234375,-0.992279052734375,0.019400330260396,0.0087293097749352,0.0021345235873013
1769246056902,-0.0744171142578125,-0.06689453125,-0.9897613525390624,0.0166183914989233,-0.0040392163209617,0.0039593214169144
1769246056912,-0.0755615234375,-0.0678253173828125,-0.9872894287109376,0.0125727830454707,-0.0102475779131054,0.0067148944362998
1769246056922,-0.076385498046875,-0.0643463134765625,-0.9889068603515624,0.0114233633503317,-0.0060741379857063,0.0093405051156878
1769246056932,-0.0768280029296875,-0.0671844482421875,-0.9898529052734376,0.0137949083000421,0.0014892396284267,0.0138228712603449
1769246056942,-0.0816192626953125,-0.06878662109375,-0.9863433837890624,0.0063561666756868,-0.0055095474235713,0.0144806718453764
1769246056952,-0.080169677734375,-0.0613250732421875,-0.9859619140625,-0.000331563554937,0.0062608253210783,0.012762133963406
1769246056962,-0.085418701171875,-0.05718994140625,-0.990753173828125,-0.0055465656332671,0.0147461891174316,0.0088369008153676
1769246056972,-0.0855865478515625,-0.0616455078125,-0.990203857421875,-0.0049811764620244,0.0061436463147401,0.0055356468074023
1769246056982,-0.082000732421875,-0.0640869140625,-0.9903106689453124,-0.0039462721906602,0.0041183121502399,0.0039966059848666
1769246056992,-0.082916259765625,-0.0597686767578125,-0.989013671875,-0.0060991714708507,0.0047308392822742,0.0012612730497494
1769246057002,-0.0845184326171875,-0.065155029296875,-0.988494873046875,-0.0062664179131388,0.0014615427935495,0.0003717772779054
1769246057012,-0.08502197265625,-0.06304931640625,-0.9879608154296876,-0.0072664348408579,-0.0070704263634979,0.0005067995516583
1769246057022,-0.0807952880859375,-0.0599822998046875,-0.986419677734375,-0.0125397602096199,-0.0065018413588404,-0.0008303736103698
1769246057032,-0.0814666748046875,-0.0613250732421875,-0.985626220703125,-0.0180884562432765,-0.006410761270672,-0.0017257283907383
1769246057042,-0.08026123046875,-0.0621795654296875,-0.988372802734375,-0.0219622906297445,-0.003776895115152,-0.0003840278368443
1769246057052,-0.0801849365234375,-0.064544677734375,-0.9932708740234376,-0.0184857994318008,-0.0037420075386762,0.0011403656098991
1769246057062,-0.078094482421875,-0.0663909912109375,-0.9949493408203124,-0.0182722136378288,-0.0025747441686689,-0.0013472931459546
1769246057072,-0.0816192626953125,-0.0684356689453125,-0.9967193603515624,-0.0194740984588861,-0.0007944209501147,-0.0006870955694466
1769246057082,-0.082733154296875,-0.0668182373046875,-0.9943389892578124,-0.0260212142020463,0.0025262746494263,0.000818655709736
1769246057092,-0.077362060546875,-0.0637359619140625,-0.992645263671875,-0.0297086276113986,0.0032914008479565,0.0019694075454026
1769246057103,-0.0762481689453125,-0.0640106201171875,-0.9924468994140624,-0.0308910701423883,0.0058786617591977,0.001480983919464
1769246057114,-0.078887939453125,-0.065521240234375,-0.9956512451171876,-0.0286513529717922,0.0101319961249828,0.0044259075075387
1769246057123,-0.0780029296875,-0.062774658203125,-0.9987030029296876,-0.0202003438025712,0.0147845391184091,0.0068259481340646
1769246057133,-0.0763092041015625,-0.0625762939453125,-1.0015869140625,-0.011372230015695,0.0143238119781017,0.0098952408879995
1769246057143,-0.0780181884765625,-0.0649566650390625,-1.0013885498046875,-0.0035486621782183,0.0114284232258796,0.0119733056053519
1769246057153,-0.07891845703125,-0.064483642578125,-0.9976959228515624,0.0027739484794437,0.0136953061446547,0.0124319018796086
1769246057163,-0.0846405029296875,-0.0641937255859375,-0.9957275390625,0.0059899818152189,0.0121125895529985,0.0068123661912977
1769246057173,-0.0873870849609375,-0.062103271484375,-0.99365234375,0.0080185113474726,0.0065425876528024,0.0025387913919985
1769246057183,-0.08349609375,-0.059173583984375,-0.9920196533203124,0.0058669438585639,0.0082105258479714,0.0024176177103072
1769246057193,-0.0802154541015625,-0.0599517822265625,-0.992767333984375,0.0068784123286604,0.0147640323266386,-0.0020301276817917
1769246057203,-0.0811614990234375,-0.0619659423828125,-0.993194580078125,0.0076704365201294,0.014536865055561,-0.0023856596089899
1769246057213,-0.079193115234375,-0.0635986328125,-0.993927001953125,0.0130473589524626,0.0012801815755665,0.0015166702214628
1769246057223,-0.0771636962890625,-0.06280517578125,-0.994720458984375,0.0127978203818202,0.0004711131914518,0.0018216022290289
1769246057233,-0.0773773193359375,-0.062591552734375,-0.99017333984375,0.0079039959236979,0.0045907571911811,0.0031875374261289
1769246057243,-0.0796356201171875,-0.0659637451171875,-0.9875640869140624,0.0037771612405776,0.0065066353417932,0.0030280142091214
1769246057253,-0.0809326171875,-0.0640716552734375,-0.9869842529296876,0.0006905576447024,0.0085325017571449,0.0008743157959543
1769246057264,-0.08416748046875,-0.0634765625,-0.98944091796875,-5.699164830730297e-05,0.014085991308093,-0.0058621503412723
1769246057273,-0.08770751953125,-0.060699462890625,-0.9926605224609376,0.0002375539625063,0.0123056685552001,-0.0087221190333366
1769246057283,-0.0857391357421875,-0.061553955078125,-0.992950439453125,-0.0001818939053919,0.0102545013651251,-0.014503308571875
1769246057293,-0.0848236083984375,-0.062225341796875,-0.9923248291015624,-0.0014032195322215,0.0009768474847078,-0.0155291585251688
1769246057303,-0.0852203369140625,-0.06103515625,-0.989410400390625,-0.0006367618334479,-0.0066693541593849,-0.0157254338264465
1769246057314,-0.0798187255859375,-0.0609893798828125,-0.989532470703125,-0.0044520064257085,-0.0095735313370823,-0.0124332336708903
1769246057324,-0.07568359375,-0.0627288818359375,-0.9868927001953124,-0.0089969569817185,-0.0061532338149845,-0.0116004636511206
1769246057333,-0.0772552490234375,-0.0649261474609375,-0.9858551025390624,-0.0152042526751756,-0.00262614316307,-0.0083479443565011
1769246057344,-0.0776824951171875,-0.0599517822265625,-0.9865570068359376,-0.0182841978967189,0.0021755362395197,-0.0037305559962987
1769246057354,-0.075469970703125,-0.063079833984375,-0.98919677734375,-0.0223497804254293,0.0054781222715973,-0.0015105449128895
1769246057364,-0.0776824951171875,-0.06109619140625,-0.9911346435546876,-0.0275842230767011,0.0070989220403134,0.0001422127970727
1769246057374,-0.076995849609375,-0.0607452392578125,-0.99029541015625,-0.0299168862402439,0.0091745899990201,0.0030538467690348
1769246057384,-0.076568603515625,-0.0650177001953125,-0.9918975830078124,-0.0304023809731006,0.0095290569588541,0.0064091635867953
1769246057394,-0.0789642333984375,-0.0635833740234375,-0.991180419921875,-0.0259983111172914,0.004373709205538,0.0057582869194447
1769246057404,-0.0806121826171875,-0.06134033203125,-0.9953460693359376,-0.0258672833442688,0.0056858491152524,0.0044003408402204
1769246057414,-0.0798492431640625,-0.0588226318359375,-0.9960784912109376,-0.019089538604021,0.0074094468727707,0.0045470814220607
1769246057424,-0.0775604248046875,-0.0623931884765625,-0.9979095458984376,-0.0162631254643201,0.0127967549487948,0.0081274351105093
1769246057434,-0.0764007568359375,-0.063720703125,-0.996856689453125,-0.0158245023339986,0.0179470423609018,0.0065314024686813
1769246057444,-0.0770111083984375,-0.063568115234375,-0.994598388671875,-0.0137506993487477,0.0193923395127058,0.007504787761718
1769246057454,-0.0755615234375,-0.0601959228515625,-0.993560791015625,-0.010734936222434,0.018150508403778,0.0093005569651722
1769246057465,-0.0782012939453125,-0.05792236328125,-0.9939727783203124,-0.009548763744533,0.0171092115342617,0.0061897188425064
1769246057475,-0.0818023681640625,-0.0608367919921875,-0.996307373046875,-0.0041577271185815,0.0134995635598897,0.005470132920891
1769246057484,-0.0828094482421875,-0.06512451171875,-0.9965362548828124,0.0001563275582157,0.0096664754673838,0.0074358121491968
1769246057494,-0.07952880859375,-0.0803680419921875,-0.9964752197265624,0.0027097663842141,0.005085039883852,0.0098313251510262
1769246057505,-0.0725555419921875,-0.075103759765625,-0.9973602294921876,-0.0002689792599994,0.0196986030787229,0.0148764178156852
1769246057515,-0.0735931396484375,-0.0504913330078125,-0.9979248046875,0.010170079767704,0.0371657460927963,0.0096694054082036
1769246057524,-0.08331298828125,-0.0547943115234375,-0.9981536865234376,0.0218243394047021,0.0393657833337783,0.0046770432963967
1769246057535,-0.080322265625,-0.0406036376953125,-0.9982452392578124,0.0249141380190849,0.0254707392305135,-0.0067037092521786
1769246057545,-0.0860748291015625,-0.06243896484375,-0.99957275390625,0.0352488011121749,0.0175062883645296,-0.0177662130445241
1769246057555,-0.0870361328125,-0.0698699951171875,-0.998626708984375,0.0361878313124179,0.0043470780365169,-0.0211084801703691
1769246057565,-0.08050537109375,-0.0712890625,-0.991912841796875,0.0282247141003608,-0.0075948028825223,-0.0282079353928565
1769246057575,-0.0761871337890625,-0.062164306640625,-0.991424560546875,0.0284508168697357,0.0143272737041115,-0.0262976493686437
1769246057585,-0.0745697021484375,-0.0402069091796875,-0.99267578125,0.0330066867172718,0.0158471390604972,-0.0310407392680645
1769246057595,-0.08355712890625,-0.0476226806640625,-0.9898223876953124,0.039034217596054,0.0003265035338699,-0.0351345501840114
1769246057605,-0.0845947265625,-0.0574188232421875,-0.9884033203125,0.0399237126111984,-0.0149158323183655,-0.0334671474993228
1769246057615,-0.0806427001953125,-0.063568115234375,-0.9841156005859376,0.032328113913536,-0.0157206393778324,-0.027306456118822
1769246057625,-0.077728271484375,-0.0706787109375,-0.98114013671875,0.0169677976518869,-0.0106779439374804,-0.0212182030081748
1769246057635,-0.074859619140625,-0.0764923095703125,-0.9777374267578124,-0.0030413300264626,-0.0053699980489909,-0.0120830284431576
1769246057645,-0.06927490234375,-0.0718536376953125,-0.9767303466796876,-0.0187603719532489,-0.0037465349305421,-0.0049747847951948
1769246057655,-0.0671234130859375,-0.069671630859375,-0.980865478515625,-0.0303826723247766,-0.0003350256592966,0.002422145102173
1769246057667,-0.0703887939453125,-0.066680908203125,-0.986053466796875,-0.0343973897397518,-0.0010018812026828,0.0086600668728351
1769246057675,-0.0710296630859375,-0.0625457763671875,-0.9912567138671876,-0.0354344248771667,-0.001790709560737,0.0177582241594791
1769246057685,-0.070892333984375,-0.062255859375,-0.9948577880859376,-0.0354248359799385,0.007194263394922,0.0209566801786422
1769246057695,-0.0775146484375,-0.05743408203125,-0.995330810546875,-0.0388603135943412,0.0248062796890735,0.0210011564195156
1769246057705,-0.0833282470703125,-0.054718017578125,-0.9958953857421876,-0.0319691188633441,0.0364839732646942,0.0147951915860176
1769246057716,-0.08734130859375,-0.0573272705078125,-0.997589111328125,-0.0252630114555358,0.0347116403281688,0.0080589912831783
1769246057725,-0.0867767333984375,-0.0660400390625,-0.999176025390625,-0.0131421675905585,0.0219867918640375,0.0073348782025277
1769246057736,-0.080810546875,-0.06597900390625,-0.9999542236328124,-0.0028884646017104,0.010333064943552,0.0058994344435632
1769246057746,-0.078643798828125,-0.06524658203125,-0.996337890625,0.0025337315164506,0.0040341564454138,0.0048919604159891
1769246057756,-0.076568603515625,-0.067138671875,-0.9918365478515624,0.0042674494907259,-0.0019590212032198,0.0024098944850265
1769246057766,-0.075042724609375,-0.0665435791015625,-0.9881134033203124,0.0041079260408878,-0.0026053704787045,0.0042504048906266
1769246057776,-0.07293701171875,-0.06524658203125,-0.9883575439453124,0.0028650285676121,-0.0057090185582637,0.0031321437563747
1769246057786,-0.077667236328125,-0.06781005859375,-0.98907470703125,0.002371278591454,-0.0056815878488123,0.0036075180396437
1769246057796,-0.0773773193359375,-0.068267822265625,-0.9910430908203124,0.0028929917607456,-0.007275755982846,0.0082400869578123
1769246057806,-0.0723724365234375,-0.064849853515625,-0.9932861328125,-0.0009326389990746,-0.0053361756727099,0.0085058705881237
1769246057816,-0.0752410888671875,-0.0621490478515625,-0.9960174560546876,0.0027012443169951,0.0070014502853155,0.0072981268167495
1769246057826,-0.0819854736328125,-0.0590362548828125,-0.998077392578125,0.0075303544290363,0.0065377941355109,0.0006048039067536
1769246057836,-0.082489013671875,-0.058502197265625,-0.991912841796875,0.0073551181703805,-0.0063226106576621,-0.0022770026698708
1769246057846,-0.079925537109375,-0.06201171875,-0.9880218505859376,0.0052269860170781,-0.0095109473913908,-0.0048725195229053
1769246057856,-0.08111572265625,-0.0652618408203125,-0.988067626953125,-0.0018266622209921,-0.0048144627362489,-0.0024487765040248
1769246057866,-0.0751190185546875,-0.05889892578125,-0.9872589111328124,-0.0055265920236706,0.0043878243304789,-0.000222906586714
1769246057876,-0.076995849609375,-0.05499267578125,-0.99017333984375,-0.0059851882979273,0.0069689597003161,0.0006271744496189
1769246057886,-0.0775299072265625,-0.0579986572265625,-0.990875244140625,-0.0062666842713952,0.0063668191432952,0.0046067358925938
1769246057896,-0.0751190185546875,-0.0629119873046875,-0.99249267578125,-0.005658418405801,0.0052213934250175,0.0078613851219415
1769246057906,-0.0749969482421875,-0.0663909912109375,-0.9919891357421876,-0.0079250345006585,0.0033870083279907,0.0075434036552906
1769246057916,-0.0757293701171875,-0.066009521484375,-0.9908294677734376,-0.0121309645473957,0.0016809873050078,0.0073524550534784
1769246057926,-0.0743408203125,-0.0666046142578125,-0.98992919921875,-0.0153904082253575,0.0031193606555461,0.0077889473177492
1769246057936,-0.0747528076171875,-0.067291259765625,-0.9908905029296876,-0.0187595728784799,0.0038892803713679,0.0084544708952307
1769246057946,-0.0745849609375,-0.066436767578125,-0.9940643310546876,-0.0211324486881494,0.0070733558386564,0.0072592445649206
1769246057956,-0.0778961181640625,-0.063995361328125,-0.9943084716796876,-0.0238097254186868,0.0118111195042729,0.0109879365190863
1769246057967,-0.0740203857421875,-0.0634613037109375,-0.9957733154296876,-0.0206892993301153,0.0183326676487922,0.015223161317408
1769246057977,-0.0735931396484375,-0.0640869140625,-0.9979248046875,-0.0159637872129678,0.0227974578738212,0.0172783229500055
1769246057987,-0.0749969482421875,-0.0626220703125,-0.9987945556640624,-0.007169762160629,0.0217028986662626,0.0187792796641588
1769246057997,-0.076263427734375,-0.0648040771484375,-1.0003662109375,0.0050272489897906,0.0219835955649614,0.0187734216451644
1769246058007,-0.0784454345703125,-0.06158447265625,-0.9994049072265624,0.0135949049144983,0.0144686875864863,0.0173494294285774
1769246058017,-0.0804290771484375,-0.064971923828125,-0.9953155517578124,0.0193872805684804,0.0100262686610221,0.0153834838420152
1769246058027,-0.0818328857421875,-0.06396484375,-0.993499755859375,0.0238704457879066,0.0131112746894359,0.0137799941003322
1769246058037,-0.0814056396484375,-0.06268310546875,-0.99444580078125,0.0217761360108852,0.0163147915154695,0.0086669912561774
1769246058047,-0.08038330078125,-0.0661773681640625,-0.9902801513671876,0.0203478820621967,0.0154985319823026,0.0070051788352429
1769246058057,-0.0797576904296875,-0.0663604736328125,-0.9857025146484376,0.0191558506339788,0.0157555267214775,0.0033758229110389
1769246058067,-0.07940673828125,-0.065643310546875,-0.9882659912109376,0.0180085618048906,0.0096965692937374,0.0015675366157665
1769246058077,-0.0812225341796875,-0.0662994384765625,-0.9879150390625,0.0153043875470757,0.0042171156965196,-0.0048448224551975
1769246058087,-0.0818634033203125,-0.0616912841796875,-0.9855499267578124,0.0090683298185467,0.001341700553894,-0.0071111726574599
1769246058097,-0.0784912109375,-0.0640411376953125,-0.98358154296875,0.0034322820138186,0.0031188279390335,-0.0095210671424865
1769246058107,-0.079498291015625,-0.064971923828125,-0.9850311279296876,-0.0033593112602829,0.0071279504336416,-0.0116310892626643
1769246058117,-0.07733154296875,-0.064544677734375,-0.988250732421875,-0.0062496401369571,0.0046879625879228,-0.0133552197366952
1769246058127,-0.0789031982421875,-0.0656585693359375,-0.9879302978515624,-0.004635764285922,0.0007582019316032,-0.0145400604233145
1769246058137,-0.0785675048828125,-0.0663299560546875,-0.9883880615234376,-0.0049907639622688,-0.0020860540680587,-0.0125719849020242
1769246058149,-0.075408935546875,-0.064361572265625,-0.98980712890625,-0.0098885837942361,-0.0008082693675532,-0.0108712902292609
1769246058157,-0.076446533203125,-0.06378173828125,-0.9879302978515624,-0.0120577281340956,-0.0036309538409113,-0.0154641773551702
1769246058168,-0.0793914794921875,-0.065887451171875,-0.990570068359375,-0.0106630306690931,-0.0046818372793495,-0.0116531942039728
1769246058178,-0.0759124755859375,-0.05987548828125,-0.9927520751953124,-0.0100872553884983,-0.0022602248936891,-0.0155613832175731
1769246058188,-0.076873779296875,-0.06085205078125,-0.9907989501953124,-0.0125874308869242,-0.0024642229545861,-0.0150628387928009
1769246058198,-0.0763397216796875,-0.0645904541015625,-0.9912567138671876,-0.0110505204647779,-0.0028442561160773,-0.0165211856365203
1769246058208,-0.0771484375,-0.06658935546875,-0.9937591552734376,-0.0080304956063628,-0.0020429107826203,-0.0159038659185171
1769246058218,-0.0766754150390625,-0.066741943359375,-0.9944000244140624,-0.0056544234976172,-0.0038413435686379,-0.0171097442507743
1769246058228,-0.0747222900390625,-0.063201904296875,-0.995269775390625,-0.004898618441075,0.001610946143046,-0.014911038801074
1769246058239,-0.0700836181640625,-0.06085205078125,-0.9949493408203124,-0.0035659726709127,0.0069156968966126,-0.0095508946105837
1769246058248,-0.068084716796875,-0.0614166259765625,-0.9938201904296876,-0.0044868937693536,0.0108955241739749,-0.0031286815647035
1769246058258,-0.070281982421875,-0.0688629150390625,-0.9952239990234376,-0.0010588727891445,0.0031720912083983,0.0054826498962938
1769246058268,-0.0706939697265625,-0.0812530517578125,-0.994476318359375,-0.0039404132403433,-0.0014136058744043,0.0136092854663729
1769246058278,-0.0652313232421875,-0.0741729736328125,-0.99395751953125,-0.0025550366844981,0.00900175049901,0.0195766314864158
1769246058288,-0.070770263671875,-0.0514068603515625,-0.994140625,0.0010120011866092,0.0206376332789659,0.0156484674662351
1769246058298,-0.0839385986328125,-0.0647430419921875,-0.9966888427734376,0.0151422014459967,0.0284968893975019,0.009428123012185
1769246058308,-0.0794219970703125,-0.0513153076171875,-0.999298095703125,0.0216869190335273,0.014854047447443,-0.000697215553373
1769246058318,-0.0805511474609375,-0.0639495849609375,-0.9947662353515624,0.0193068534135818,0.0148646999150514,-0.0059569585137069
1769246058328,-0.0755615234375,-0.0697784423828125,-0.99310302734375,0.01973189227283,0.0180748738348484,-0.0015654060989618
1769246058339,-0.067474365234375,-0.058319091796875,-0.9881439208984376,0.011878496967256,0.0135256620123982,-0.003155313199386
1769246058349,-0.073638916015625,-0.069854736328125,-0.987030029296875,0.0120119219645857,0.028243089094758,-0.0023331954143941
1769246058358,-0.0726318359375,-0.0543975830078125,-0.9945220947265624,0.0174253284931182,0.035737756639719,-0.0033214944414794
1769246058369,-0.077239990234375,-0.0509033203125,-0.9882965087890624,0.0201601292937994,0.0179486405104398,-0.0060712085105478
1769246058379,-0.0774993896484375,-0.058349609375,-0.983062744140625,0.0203143265098333,-0.0061761368997395,-0.0021438447292894
1769246058389,-0.074432373046875,-0.058380126953125,-0.983306884765625,0.0135996984317898,-0.0089543461799621,-0.0024253407027572
1769246058399,-0.0775146484375,-0.065765380859375,-0.9849395751953124,0.0004149205051362,0.0030591732356697,-0.0030770162120461
1769246058409,-0.0794677734375,-0.0720672607421875,-0.9848480224609376,-0.0140500385314226,0.0052858418785035,-0.0038783615455031
1769246058419,-0.07720947265625,-0.073516845703125,-0.98553466796875,-0.0206224545836448,-0.0030037793330848,-0.0016029566759243
1769246058429,-0.07513427734375,-0.07220458984375,-0.99066162109375,-0.0230025202035903,-0.0081186462193727,-0.0035183019936084
1769246058439,-0.0749664306640625,-0.0703277587890625,-0.9955596923828124,-0.0240821670740842,-0.0079295616596937,-0.0016836504219099
1769246058449,-0.07293701171875,-0.068389892578125,-0.9970855712890624,-0.0238235741853714,0.0011033476330339,0.0009166600648313
1769246058459,-0.0686187744140625,-0.0652618408203125,-0.99896240234375,-0.0244667269289493,0.0214629471302032,0.0059819924645125
1769246058469,-0.0677642822265625,-0.0606689453125,-0.9990692138671876,-0.0216435100883245,0.0309672374278306,0.0066629624925553
1769246058479,-0.074920654296875,-0.0613250732421875,-0.9989166259765624,-0.015272163785994,0.0334596894681453,0.0070911990478634
1769246058489,-0.0760040283203125,-0.06317138671875,-1.000701904296875,-0.0054435012862086,0.0310234297066926,0.0105104316025972
1769246058500,-0.0750274658203125,-0.0661163330078125,-1.002044677734375,0.0047545414417982,0.0285078082233667,0.0071404674090445
1769246058509,-0.0802459716796875,-0.0682525634765625,-0.9995880126953124,0.0093679353594779,0.0189726259559392,0.0036655748263001
1769246058519,-0.0782928466796875,-0.0686187744140625,-0.9927825927734376,0.0134721333160996,0.0127629330381751,0.0043161851353943
1769246058529,-0.07208251953125,-0.068023681640625,-0.988250732421875,0.0140300653874874,0.0112910037860274,0.0050821104086935
1769246058539,-0.0700531005859375,-0.067108154296875,-0.988128662109375,0.0145765459164977,0.0052711945027112,0.0055689360015094
1769246058549,-0.069732666015625,-0.065582275390625,-0.9881439208984376,0.0126167256385087,-0.0018418421968817,0.0066994479857385
1769246058559,-0.073577880859375,-0.061553955078125,-0.9873504638671876,0.0069481870159506,-0.0060043628327548,0.0063180834986269
1769246058570,-0.075225830078125,-0.0698394775390625,-0.9859466552734376,0.0024431839119642,-0.0117551926523447,0.0076805567368865
1769246058579,-0.0743408203125,-0.080352783203125,-0.987640380859375,-0.0041824942454695,-0.0061505706980824,0.0087516801431775
1769246058590,-0.070526123046875,-0.068145751953125,-0.986419677734375,-0.0143160885199904,0.0056368466466665,0.0074786888435482
1769246058600,-0.0752105712890625,-0.06573486328125,-0.986602783203125,-0.0149560458958148,0.0086281094700098,0.0057859835214912
1769246058610,-0.07720947265625,-0.06207275390625,-0.9863739013671876,-0.0110696954652667,0.0095807220786809,0.0021771341562271
1769246058620,-0.0780487060546875,-0.0563201904296875,-0.99249267578125,-0.0060520335100591,0.0049036783166229,-0.0014349111588671
1769246058630,-0.079833984375,-0.061431884765625,-0.99237060546875,-0.0070485882461071,0.0017403757665306,-0.0070738885551691
1769246058640,-0.0767059326171875,-0.06427001953125,-0.99224853515625,-0.0074379425495862,0.0020394488237798,-0.0082600601017475
1769246058651,-0.0763397216796875,-0.0611724853515625,-0.9922943115234376,-0.0069393985904753,0.0042996737174689,-0.0130596095696091
1769246058660,-0.079498291015625,-0.0665435791015625,-0.9923248291015624,-0.0021345235873013,0.0008546083699911,-0.0114942034706473
1769246058670,-0.0765228271484375,-0.06976318359375,-0.9914398193359376,-0.0010591391474008,-0.0152005245909094,-0.0105844670906662
1769246058680,-0.0725250244140625,-0.06878662109375,-0.988800048828125,-0.0061873220838606,-0.0203766450285911,-0.0066989152692258
1769246058690,-0.0716400146484375,-0.0681304931640625,-0.98736572265625,-0.016766196116805,-0.0153645751997828,-0.0036522590089589
1769246058701,-0.070587158203125,-0.062713623046875,-0.985809326171875,-0.0284833069890737,-0.0005451490869745,-0.0021281319204717
1769246058710,-0.0668792724609375,-0.0606689453125,-0.9876708984375,-0.0371969044208526,0.007881092838943,-0.003713778220117
1769246058720,-0.069580078125,-0.0687713623046875,-0.9924163818359376,-0.0374624207615852,0.0104515757411718,-0.001382180606015
1769246058730,-0.0701141357421875,-0.0708465576171875,-0.99609375,-0.0284433588385581,0.0020341223571449,0.0005579322460107
1769246058740,-0.07196044921875,-0.069549560546875,-1.0038604736328125,-0.0182354636490345,-0.0032256206031888,0.0032525185961276
1769246058751,-0.073516845703125,-0.0693511962890625,-1.00335693359375,-0.0089253177866339,-0.0058376491069793,0.0066389944404363
1769246058760,-0.0734100341796875,-0.0643157958984375,-1.00213623046875,0.0001107874995796,0.004678108729422,0.0061918497085571
1769246058770,-0.072418212890625,-0.0625152587890625,-1.001678466796875,0.0088331727311015,0.0207620039582252,0.006557501386851
1769246058781,-0.0732574462890625,-0.06365966796875,-1.0018310546875,0.0160830952227115,0.0293024946004152,0.0074227624572813
1769246058790,-0.0717315673828125,-0.064910888671875,-1.0000152587890625,0.0236568599939346,0.0237484723329544,0.0089351721107959
1769246058801,-0.0751800537109375,-0.068572998046875,-0.99786376953125,0.0302087683230638,0.0149184959009289,0.0069471220485866
1769246058811,-0.07598876953125,-0.067596435546875,-0.9940032958984376,0.0377284698188304,0.0102608930319547,0.004463457968086
1769246058820,-0.076934814453125,-0.0687255859375,-0.991424560546875,0.0381234176456928,0.0059977052733302,0.0024184165522456
1769246058831,-0.074737548828125,-0.0680084228515625,-0.9884033203125,0.0354754365980625,0.002248773118481,0.001301220501773
1769246058841,-0.0724029541015625,-0.06536865234375,-0.9866943359375,0.0323723219335079,0.008395348675549,-0.0002945456071756
1769246058851,-0.0731048583984375,-0.0646209716796875,-0.985565185546875,0.0253514293581247,0.00984304305166,-0.0026200178544968
1769246058861,-0.07147216796875,-0.062744140625,-0.9837493896484376,0.0184514448046684,0.0152204977348446,-1.810949470382184e-05
1769246058871,-0.0699005126953125,-0.066131591796875,-0.9862823486328124,0.0141677502542734,0.013760020956397,0.0008157262345775
1769246058881,-0.0732879638671875,-0.070953369140625,-0.9882659912109376,0.0139301968738436,0.0083013391122221,0.0023742080666124
1769246058891,-0.0772705078125,-0.0695648193359375,-0.9860382080078124,0.0106795420870184,-0.0007566040731035,0.0016226640436798
1769246058901,-0.0766143798828125,-0.068023681640625,-0.9847869873046876,0.0064693507738411,-0.0027672906871885,2.210423735959921e-05
1769246058911,-0.07342529296875,-0.0662689208984375,-0.9867095947265624,-0.000893224205356,0.0022977753542363,-0.0019933760631829
1769246058921,-0.07635498046875,-0.0636444091796875,-0.9845123291015624,-0.0064789382740855,0.0052927662618458,-0.0063857277855277
1769246058932,-0.0771636962890625,-0.064666748046875,-0.9848480224609376,-0.0097306575626134,0.0015864450251683,-0.0085367625579237
1769246058941,-0.076690673828125,-0.0664520263671875,-0.9882965087890624,-0.0071263527497649,-0.0056216665543615,-0.0070517840795218
1769246058951,-0.073333740234375,-0.0697021484375,-0.9902191162109376,-0.0065833339467644,-0.0079069249331951,-0.0084797712042927
1769246058961,-0.0746612548828125,-0.0705718994140625,-0.9908447265625,-0.0077452715486288,-0.005461610853672,-0.0070600397884845
1769246058971,-0.0738525390625,-0.068267822265625,-0.9894561767578124,-0.0124137923121452,-0.0047012781724333,-0.0051553472876548
1769246058983,-0.07080078125,-0.065093994140625,-0.9879150390625,-0.0170977599918842,0.0002173139364458,-0.000169643361005
1769246058991,-0.0675811767578125,-0.0655517578125,-0.98870849609375,-0.0169656667858362,-0.0008330367854796,0.000319313025102
1769246059002,-0.071319580078125,-0.0684661865234375,-0.9900360107421876,-0.0175523627549409,-0.0038796931039541,0.002698581200093
1769246059011,-0.0733795166015625,-0.078643798828125,-0.99212646484375,-0.0192112457007169,-0.0130106071010231,0.0061471085064113
1769246059022,-0.0677032470703125,-0.083892822265625,-0.9938507080078124,-0.0193390771746635,-0.0037494644057005,0.0136937079951167
1769246059032,-0.0665740966796875,-0.0545501708984375,-0.996337890625,-0.0183326676487922,0.004847751930356,0.0102385226637125
1769246059042,-0.0789794921875,-0.0549468994140625,-0.9938812255859376,-0.0102726109325885,0.0175832547247409,0.0002511360798962
1769246059052,-0.0813446044921875,-0.0657196044921875,-0.9976806640625,0.0066427225247025,0.0139270005747675,-0.0064118267036974
1769246059062,-0.075958251953125,-0.0598297119140625,-0.9954833984375,0.0104579674080014,-0.0117453392595052,-0.0141483098268508
1769246059072,-0.07855224609375,-0.0818023681640625,-0.9937591552734376,0.0208829119801521,-0.0028628981672227,-0.0125605324283242
1769246059083,-0.07354736328125,-0.0658416748046875,-0.9960479736328124,0.0222251452505588,-0.0048054079525172,-0.0161771047860384
1769246059092,-0.075439453125,-0.0649261474609375,-0.99151611328125,0.0184570383280515,0.0018162758788093,-0.020616328343749
1769246059102,-0.073272705078125,-0.0650787353515625,-0.9937896728515624,0.0188035145401954,0.021092502400279,-0.0174996312707662
1769246059112,-0.071929931640625,-0.05230712890625,-0.9890594482421876,0.0213484317064285,0.0205505490303039,-0.0213545579463243
1769246059122,-0.0754547119140625,-0.05535888671875,-0.9819793701171876,0.0185632985085248,0.002453037770465,-0.0199928823858499
1769246059134,-0.07275390625,-0.05865478515625,-0.9774627685546876,0.0110310791060328,-0.018826950341463,-0.0154023924842476
1769246059142,-0.0713958740234375,-0.0638427734375,-0.976776123046875,-0.0038256309926509,-0.0174303892999887,-0.0128486873582005
1769246059152,-0.07562255859375,-0.0668182373046875,-0.9787445068359376,-0.0174186713993549,-0.0151091776788234,-0.0157467387616634
1769246059162,-0.078887939453125,-0.0745391845703125,-0.982879638671875,-0.0262180212885141,-0.0186541117727756,-0.01554034370929
1769246059172,-0.0774993896484375,-0.0777435302734375,-0.98779296875,-0.028718464076519,-0.0261114947497844,-0.0152282211929559
1769246059183,-0.0756072998046875,-0.0737762451171875,-0.993560791015625,-0.0327068120241165,-0.0263932570815086,-0.0200898218899965
1769246059192,-0.0772552490234375,-0.0686187744140625,-0.9944915771484376,-0.0350128449499607,-0.0215050261467695,-0.0186543781310319
1769246059203,-0.071014404296875,-0.0646514892578125,-0.996124267578125,-0.0361976847052574,-0.0009598032338544,-0.0159728415310382
1769246059212,-0.067108154296875,-0.062042236328125,-0.99920654296875,-0.0298313982784748,0.0160966776311397,-0.0138716073706746
1769246059223,-0.07049560546875,-0.0656585693359375,-0.999359130859375,-0.0161310322582721,0.0141853271052241,-0.0060309944674372
1769246059232,-0.0753936767578125,-0.0687103271484375,-0.9999237060546876,-0.0023763386998325,0.0026019082870334,-0.0021110877860337
1769246059243,-0.0787200927734375,-0.0673828125,-1.000091552734375,0.0081964107230305,-0.0066408584825694,-0.0038221688009798
1769246059253,-0.0771942138671875,-0.070709228515625,-0.998199462890625,0.0153930708765983,-0.0075439363718032,-7.696535612922162e-05
1769246059263,-0.0744171142578125,-0.07122802734375,-0.9938201904296876,0.0176660791039466,-0.008258462883532,0.0020495688077062
1769246059273,-0.0745697021484375,-0.07098388671875,-0.9911346435546876,0.0204703882336616,-0.0076888124458491,-0.0019691411871463
1769246059283,-0.07952880859375,-0.0701141357421875,-0.9892120361328124,0.0247157327830791,-0.0207031480967998,-0.0064475131221115
1769246059293,-0.0796966552734375,-0.069610595703125,-0.990631103515625,0.0140694798901677,-0.0224475190043449,-0.0009512811084277
1769246059303,-0.0637054443359375,-0.063720703125,-0.974884033203125,0.0115304226055741,-0.0355854257941246,-0.0035768917296081
1769246059313,-0.0788116455078125,-0.0653228759765625,-0.9924163818359376,0.0417176187038421,-0.0618662983179092,-0.0045066010206937
1769246059323,-0.083099365234375,-0.0708160400390625,-1.0178070068359375,0.0458607003092765,-0.0557269118726253,-0.0037649108562618
1769246059333,-0.0722503662109375,-0.075347900390625,-0.997344970703125,0.0229841452091932,-0.023635821416974,0.0082107922062277
1769246059343,-0.0626068115234375,-0.0687713623046875,-0.976409912109375,0.0200072638690471,-0.0147898653522133,0.0155435400083661
1769246059353,-0.0634765625,-0.0742950439453125,-0.9882659912109376,0.0369585491716861,-0.0186162944883108,0.0211023557931184
1769246059363,-0.0741729736328125,-0.070159912109375,-0.9996185302734376,0.0550981387495994,-0.019065037369728,0.0176785960793495
1769246059373,-0.0849456787109375,-0.0684356689453125,-0.9964752197265624,0.0574433207511901,-0.0332636795938015,0.0069886674173176
1769246059383,-0.0917510986328125,-0.0733795166015625,-0.988555908203125,0.0628572627902031,-0.040468331426382,0.0062171495519578
1769246059393,-0.0836029052734375,-0.07281494140625,-0.9999542236328124,0.056503489613533,-0.0333209373056888,0.0030927290208637
1769246059404,-0.08673095703125,-0.0714874267578125,-0.9906158447265624,0.047300137579441,-0.0303224865347147,-0.0007733819657005
1769246059414,-0.08892822265625,-0.0662078857421875,-0.979522705078125,0.0467320866882801,-0.0263437237590551,-0.0053146043792366
1769246059423,-0.083160400390625,-0.07196044921875,-0.9918212890625,0.0398811027407646,-0.0260198824107646,-0.0039366846904158
1769246059434,-0.0728912353515625,-0.06427001953125,-0.9898223876953124,0.0306492559611797,-0.025374598801136,0.0100995060056447
1769246059444,-0.0609588623046875,-0.0681610107421875,-0.987701416015625,0.014723552390933,-0.0128798456862568,0.0152663048356771
1769246059454,-0.0673828125,-0.081817626953125,-0.9806976318359376,0.0058040930889546,-0.0058661447837948,0.0186056420207023
1769246059464,-0.0714569091796875,-0.0858001708984375,-0.9826202392578124,0.0063993097282946,-0.0044594630599021,0.018499381840229
1769246059474,-0.08258056640625,-0.0822601318359375,-0.98980712890625,0.0029718214645981,-0.0004564658156596,0.0150143690407276
1769246059484,-0.083221435546875,-0.07666015625,-0.990478515625,-0.0035995284561067,0.01155252661556,0.0195787604898214
1769246059494,-0.0746002197265625,-0.072540283203125,-0.9921112060546876,-0.003198190126568,0.0189784839749336,0.0220512393862009
1769246059504,-0.07611083984375,-0.0750885009765625,-0.9977264404296876,0.0011012171162292,0.0185228176414966,0.0234826896339654
1769246059514,-0.0820465087890625,-0.0767974853515625,-0.9978485107421876,0.0117842210456728,0.014551511965692,0.0247508864849805
1769246059524,-0.0770263671875,-0.063018798828125,-0.9964141845703124,0.0162090640515089,0.0149139687418937,0.026880083605647
1769246059534,-0.079833984375,-0.06597900390625,-0.9976959228515624,0.0239868257194757,0.0173209328204393,0.0227915979921817
1769246059544,-0.0827178955078125,-0.0784149169921875,-1.0018157958984375,0.0354173779487609,0.0203878302127122,0.0205878335982561
1769246059554,-0.08331298828125,-0.0787506103515625,-1.0017242431640625,0.0492772683501243,0.0157808270305395,0.0223479159176349
1769246059564,-0.082611083984375,-0.080657958984375,-0.997772216796875,0.0584055185317993,0.0074858795851469,0.0199859589338302
1769246059574,-0.079620361328125,-0.0837249755859375,-0.990936279296875,0.0605424381792545,-0.0009512811084277,0.0126966200768947
1769246059584,-0.0817413330078125,-0.082244873046875,-0.9847259521484376,0.0568313263356685,-0.0081053311005234,0.0072262212634086
1769246059594,-0.08551025390625,-0.0760650634765625,-0.9782562255859376,0.0436217784881591,-0.0077793598175048,0.0034557178150862
1769246059604,-0.083770751953125,-0.0712432861328125,-0.97772216796875,0.0324458256363868,0.0011896340874955,0.0027132285758852
1769246059614,-0.0799713134765625,-0.0754852294921875,-0.981964111328125,0.0249879080802202,0.0077239661477506,-0.0007837683078832
1769246059624,-0.0865478515625,-0.082366943359375,-0.98779296875,0.026127740740776,0.0024178838357329,-0.0049593383446335
1769246059635,-0.09063720703125,-0.082977294921875,-0.9920806884765624,0.0249511562287807,-0.0020999026019126,-0.0093170693144202
1769246059645,-0.089385986328125,-0.079132080078125,-0.9859466552734376,0.0187209565192461,-0.0084193171933293,-0.0137709397822618
1769246059655,-0.0853271484375,-0.0777130126953125,-0.981689453125,0.0077974693849682,-0.0108758173882961,-0.0154782924801111
1769246059664,-0.0804901123046875,-0.0793609619140625,-0.9808197021484376,-0.0034059167373925,-0.0106260124593973,-0.0163190513849258
1769246059679,-0.0810699462890625,-0.078857421875,-0.9789276123046876,-0.0107413278892636,-0.0109993880614638,-0.0240384899079799
1769246059684,-0.0847930908203125,-0.0828399658203125,-0.981964111328125,-0.013309147208929,-0.0139432456344366,-0.0241119936108589
1769246059695,-0.08294677734375,-0.081756591796875,-0.98724365234375,-0.0174913760274648,-0.0163041390478611,-0.0241072010248899
1769246059705,-0.0794830322265625,-0.07745361328125,-0.987884521484375,-0.0220712143927812,-0.0116814235225319,-0.0199872907251119
1769246059715,-0.0773773193359375,-0.07830810546875,-0.9869232177734376,-0.0272145774215459,-0.0051116715185344,-0.0156173091381788
1769246059725,-0.076934814453125,-0.0816650390625,-0.984466552734375,-0.0284899640828371,0.0007062703371047,-0.0129554793238639
1769246059736,-0.077667236328125,-0.08258056640625,-0.987762451171875,-0.0288662686944007,-0.0040128510445356,-0.0051255198195576
1769246059745,-0.076995849609375,-0.087554931640625,-0.989044189453125,-0.0287067461758852,-0.0179347917437553,0.0025281386915594
1769246059755,-0.075103759765625,-0.0975189208984375,-0.991729736328125,-0.0266659650951623,-0.0166900306940078,0.0088049434125423
1769246059765,-0.0704345703125,-0.0766143798828125,-0.9938201904296876,-0.0265349373221397,-0.0064648236148059,0.0098166782408952
1769246059775,-0.0793914794921875,-0.0659027099609375,-0.9896697998046876,-0.0173840504139661,0.0031063109636306,-0.0011643340112641
1769246059785,-0.089691162109375,-0.0775299072265625,-0.994720458984375,-0.0057995659299194,0.0076651102863252,-0.0096560893580317
1769246059795,-0.08685302734375,-0.061187744140625,-0.9937286376953124,-0.0098124165087938,-0.0171954985707998,-0.0166045427322387
1769246059805,-0.0901947021484375,-0.0865478515625,-0.9875640869140624,-0.0014010890154168,-0.0193057879805564,-0.0277322959154844
1769246059815,-0.088623046875,-0.0913238525390625,-0.9944915771484376,-0.0060565611347556,-0.0144646931439638,-0.0242028068751096
1769246059825,-0.0780029296875,-0.071746826171875,-0.9868621826171876,-0.0252371802926063,-0.0135477669537067,-0.0265477206557989
1769246059836,-0.079833984375,-0.076751708984375,-0.98236083984375,-0.0263527780771255,0.0126233836635947,-0.0315813608467578
1769246059845,-0.0811767578125,-0.063629150390625,-0.9911956787109376,-0.016570720821619,0.0096494313329458,-0.0307896044105291
1769246059855,-0.0813446044921875,-0.059326171875,-0.9908905029296876,-0.0010599381057545,-0.0070283482782542,-0.0339225456118583
1769246059865,-0.0841064453125,-0.07330322265625,-0.9931488037109376,0.0095548890531063,-0.0292867831885814,-0.0317944139242172
1769246059876,-0.0879974365234375,-0.080474853515625,-0.9927978515625,0.0121671836823225,-0.037698108702898,-0.0331622138619422
1769246059886,-0.08795166015625,-0.079498291015625,-0.9902496337890624,0.0103210806846618,-0.0410393103957176,-0.0307941306382417
1769246059896,-0.0890045166015625,-0.084808349609375,-0.9897308349609376,0.0007627293234691,-0.0392230376601219,-0.0319267734885215
1769246059906,-0.08526611328125,-0.087982177734375,-0.98736572265625,-0.0101274689659476,-0.0492341257631778,-0.0257045645266771
1769246059916,-0.079193115234375,-0.08642578125,-0.98553466796875,-0.0225979872047901,-0.0504786185920238,-0.0181891229003667
1769246059926,-0.074859619140625,-0.0789031982421875,-0.9832611083984376,-0.0296811964362859,-0.0455017052590847,-0.0088390316814184
1769246059936,-0.0696258544921875,-0.0686187744140625,-0.9892425537109376,-0.041896317154169,-0.0258798003196716,-0.0009089368977583
1769246059946,-0.0705718994140625,-0.0688323974609375,-0.9928436279296876,-0.0508740991353988,0.0080161150544881,0.0018413095967844
1769246059956,-0.0785064697265625,-0.0714263916015625,-0.9929962158203124,-0.059504073113203,0.0320114605128765,0.0025662221014499
1769246059966,-0.0822296142578125,-0.0748138427734375,-0.994720458984375,-0.0542081110179424,0.0351859517395496,0.0088123995810747
1769246059976,-0.0836029052734375,-0.07977294921875,-1.002044677734375,-0.037795316427946,0.0195457376539707,0.006835535634309
1769246059986,-0.093536376953125,-0.082366943359375,-1.002593994140625,-0.0236046612262725,0.0126761142164468,0.0001241033023688
1769246059996,-0.094482421875,-0.0832061767578125,-0.99896240234375,-0.0082467449828982,-0.001465537585318,-0.0049281795509159
1769246060006,-0.0915069580078125,-0.082244873046875,-0.997894287109375,0.0047979508526623,-0.0190408024936914,-0.008379902690649
1769246060016,-0.0863494873046875,-0.0759429931640625,-0.9957275390625,0.0089018819853663,-0.0280710496008396,-0.007529288996011
1769246060026,-0.0836029052734375,-0.07342529296875,-0.99176025390625,0.0085772424936294,-0.027416443452239,-0.0061313956975936
1769246060036,-0.0796356201171875,-0.074920654296875,-0.9918060302734376,0.0096446378156542,-0.0245175939053297,-0.0039734365418553
1769246060046,-0.0782470703125,-0.0793914794921875,-0.99224853515625,0.0132955657318234,-0.0262308046221733,-0.0016575515037402
1769246060056,-0.0841827392578125,-0.0873565673828125,-0.9898834228515624,0.020504742860794,-0.0282939560711383,0.0025427863001823
1769246060066,-0.0855560302734375,-0.0850067138671875,-0.987762451171875,0.0117690414190292,-0.0226147640496492,0.0059793293476104
1769246060076,-0.0815277099609375,-0.0777587890625,-0.9867095947265624,0.0079514002427458,-0.015821574255824,0.0030125677585601
1769246060087,-0.0854034423828125,-0.07977294921875,-0.990936279296875,0.0104750115424394,-0.0006823018775321,0.0036517265252768
1769246060097,-0.0884552001953125,-0.0762939453125,-0.991607666015625,0.0156122492626309,-0.0020237360149621,0.004449876025319
1769246060107,-0.0900421142578125,-0.0752410888671875,-0.9891815185546876,0.0182937867939472,-0.0210032854229211,-0.0016253271605819
1769246060117,-0.0961761474609375,-0.081207275390625,-0.987762451171875,0.0196565259248018,-0.0358288362622261,-0.0137104857712984
1769246060127,-0.0986785888671875,-0.0803680419921875,-0.9879302978515624,0.017512148246169,-0.0311853494495153,-0.0212011598050594
1769246060137,-0.0952606201171875,-0.06591796875,-0.988433837890625,0.0025939189363271,-0.0157382171601057,-0.021474665030837
1769246060147,-0.088653564453125,-0.059539794921875,-0.9823455810546876,-0.015933958813548,-0.0055526909418404,-0.0221069008111953
1769246060157,-0.084503173828125,-0.0644378662109375,-0.9784698486328124,-0.0305533818900585,0.0001621865085326,-0.0151427341625094
1769246060167,-0.07818603515625,-0.072845458984375,-0.9821319580078124,-0.0411144122481346,0.0011467571603134,-0.0021414477378129
1769246060177,-0.072052001953125,-0.0806121826171875,-0.98529052734375,-0.0434137880802154,0.0007835020078346,0.0070011839270591
1769246060187,-0.0765838623046875,-0.0890045166015625,-0.987823486328125,-0.0380219519138336,0.0045233792625367,0.0106869991868734
1769246060197,-0.0823822021484375,-0.0878448486328125,-0.9961395263671876,-0.031586155295372,0.011624963954091,0.0164764449000358
1769246060207,-0.0834197998046875,-0.0811309814453125,-0.99676513671875,-0.0287584103643894,0.0098867192864418,0.0195675753057003
1769246060217,-0.0828704833984375,-0.07977294921875,-0.9966583251953124,-0.025938656181097,0.0099290637299418,0.0210235267877578
1769246060227,-0.0859527587890625,-0.082672119140625,-0.998626708984375,-0.016200540587306,0.0097993677482008,0.0223670899868011
1769246060237,-0.090667724609375,-0.0804901123046875,-1.0014801025390625,-0.0069955913349986,0.014778945595026,0.025425998494029
1769246060247,-0.0869903564453125,-0.07196044921875,-1.0012054443359375,-0.0008290420519188,0.0208405666053295,0.0265642330050468
1769246060257,-0.09002685546875,-0.07183837890625,-1.0031890869140625,0.0080091906711459,0.0250824503600597,0.0271501280367374
1769246060267,-0.08892822265625,-0.0748138427734375,-0.9985809326171876,0.0149909332394599,0.0194282922893762,0.0274577233940362
1769246060277,-0.0873565673828125,-0.0746917724609375,-0.996826171875,0.0254523623734712,0.0107285445556044,0.0212895758450031
1769246060288,-0.0921173095703125,-0.076202392578125,-0.9935150146484376,0.0318149216473102,0.0058291270397603,0.0123674534261226
1769246060298,-0.093505859375,-0.0778350830078125,-0.9911346435546876,0.0373566932976245,0.0066986489109694,0.0101889874786138
1769246060308,-0.0879364013671875,-0.0791015625,-0.994964599609375,0.0431104525923728,0.0068352692760527,0.0062768044881522
1769246060318,-0.090576171875,-0.0796661376953125,-0.9962005615234376,0.0495840646326541,0.0098374504595994,0.0033047166652977
1769246060328,-0.089569091796875,-0.078399658203125,-0.998077392578125,0.0554398223757743,0.0117117837071418,0.0005262406193651
1769246060338,-0.0874176025390625,-0.0776824951171875,-0.995025634765625,0.0536421909928321,0.0128691932186484,0.0017712684348225
1769246060348,-0.0858154296875,-0.0781097412109375,-0.9864501953125,0.0463224910199642,0.0114092482253909,0.0032144354190677
1769246060358,-0.08636474609375,-0.08367919921875,-0.9801025390625,0.0390675067901611,0.0029800771735608,0.0011797803454101
1769246060368,-0.089752197265625,-0.0823822021484375,-0.97943115234375,0.0317616574466228,0.0027795413043349,0.0008460862445645
1769246060378,-0.09271240234375,-0.078033447265625,-0.9817047119140624,0.0283884983509778,0.0059875850565731,-0.00327915023081
1769246060388,-0.095123291015625,-0.0802764892578125,-0.98846435546875,0.0223921239376068,0.0092494245618581,-0.00943558011204
1769246060398,-0.0898284912109375,-0.0741119384765625,-0.987060546875,0.0144204841926693,0.0114222979173064,-0.0113988621160388
1769246060408,-0.0855255126953125,-0.07623291015625,-0.9861907958984376,0.0106752812862396,0.0101104248315095,-0.0136345857754349
1769246060418,-0.0868988037109375,-0.0832672119140625,-0.9882049560546876,0.0092843119055032,0.006907707080245,-0.0132465632632374
1769246060428,-0.0827789306640625,-0.07952880859375,-0.9848785400390624,0.0090808467939496,-0.0003757720405701,-0.0113202985376119
1769246060438,-0.0850067138671875,-0.0829925537109375,-0.9843292236328124,0.0018032263033092,-0.0038828889373689,-0.0138843897730112
1769246060449,-0.087005615234375,-0.0841064453125,-0.9810943603515624,-0.0054632085375487,-0.0053114085458219,-0.0147848045453429
1769246060458,-0.087890625,-0.0813751220703125,-0.9837646484375,-0.0140516366809606,-0.0072006550617516,-0.0115421405062079
1769246060469,-0.0801544189453125,-0.0761871337890625,-0.9827728271484376,-0.0255903154611587,-0.0038253646343946,-0.0072741582989692
1769246060478,-0.0793304443359375,-0.0760345458984375,-0.9831695556640624,-0.0316372886300087,0.0050216563977301,-0.00593565357849
1769246060489,-0.0883636474609375,-0.077728271484375,-0.9874267578125,-0.0328253246843814,0.0125000793486833,-0.0076009281910955
1769246060499,-0.088714599609375,-0.0874786376953125,-0.99102783203125,-0.0318604595959186,0.0065162223763763,0.0018072210950776
1769246060509,-0.079376220703125,-0.1042633056640625,-0.9931488037109376,-0.0275141820311546,0.0014820491196587,0.0121445469558238
1769246060519,-0.0750579833984375,-0.0821380615234375,-0.9942626953125,-0.0210450980812311,0.0136668095365166,0.0169584769755601
1769246060529,-0.08624267578125,-0.068206787109375,-0.9945831298828124,-0.0087868338450789,0.0129778506234288,0.0100848581641912
1769246060539,-0.09466552734375,-0.070892333984375,-0.9928436279296876,-0.0033481260761618,0.0122044682502746,0.0083223786205053
1769246060549,-0.088134765625,-0.063232421875,-0.9934539794921876,-0.00192093802616,-0.002642654813826,0.0040778322145342
1769246060559,-0.0872802734375,-0.0828857421875,-0.9947357177734376,0.0063071642071008,0.000859135761857,0.0017480988753959
1769246060569,-0.0857086181640625,-0.0890045166015625,-0.9936065673828124,-0.0038850193377584,0.0049297772347927,-0.0025001754984259
1769246060579,-0.0859527587890625,-0.0893096923828125,-0.9860992431640624,-0.0161179825663566,0.0180370565503835,-0.0068014468997716
1769246060589,-0.0858001708984375,-0.077301025390625,-0.989227294921875,-0.0136428419500589,0.0292191375046968,-0.005665342323482
1769246060599,-0.0853118896484375,-0.068878173828125,-0.9909820556640624,-0.0018991001415997,0.024093884974718,-0.0121472105383872
1769246060609,-0.0914306640625,-0.0684661865234375,-0.9918670654296876,0.0095927063375711,0.0091016190126538,-0.0140234073624014
1769246060619,-0.09124755859375,-0.067718505859375,-0.98443603515625,0.0142974462360143,-0.0131821148097515,-0.0145986499264836
1769246060629,-0.089813232421875,-0.079620361328125,-0.9860992431640624,0.0083844298496842,-0.0126297753304243,-0.0109282815828919
1769246060639,-0.0862884521484375,-0.0853271484375,-0.9839324951171876,-0.002217347966507,-0.0098813930526375,-0.003115898463875
1769246060650,-0.081390380859375,-0.08673095703125,-0.9839630126953124,-0.0167773813009262,-0.0053596114739775,0.0029992519412189
1769246060659,-0.07635498046875,-0.090850830078125,-0.98260498046875,-0.0264630317687988,-0.0081447456032037,0.0074382089078426
1769246060669,-0.0819854736328125,-0.089996337890625,-0.9828338623046876,-0.0295701418071985,-0.0144801391288638,0.0134601490572094
1769246060679,-0.080657958984375,-0.081939697265625,-0.9889068603515624,-0.0330255925655365,-0.0202512089163064,0.0142399221658706
1769246060689,-0.083404541015625,-0.0776214599609375,-0.9925384521484376,-0.0382829420268535,-0.0121767716482281,0.0191521234810352
1769246060702,-0.084259033203125,-0.07293701171875,-0.994873046875,-0.0452950447797775,0.0082789687439799,0.0156721696257591
1769246060710,-0.0877838134765625,-0.070556640625,-0.995758056640625,-0.0462133027613163,0.021843247115612,0.0099977729842066
1769246060719,-0.0919647216796875,-0.07550048828125,-1.001220703125,-0.0393708422780036,0.0286414977163076,0.0080320937559008
1769246060730,-0.09210205078125,-0.0814361572265625,-1.001678466796875,-0.0224501807242631,0.0260904561728239,0.004996090196073
1769246060740,-0.0941619873046875,-0.0851287841796875,-1.0010223388671875,-0.010252371430397,0.0180003065615892,0.0001006674865493
1769246060750,-0.09326171875,-0.0832977294921875,-0.9980621337890624,0.0027260116767138,0.0131067475304007,-0.0012697952333837
1769246060760,-0.088409423828125,-0.0827484130859375,-0.99603271484375,0.0110963266342878,0.0072355424053967,-0.0043220440857112
1769246060770,-0.087127685546875,-0.0822906494140625,-0.99371337890625,0.0197321586310863,0.0042496062815189,-0.0078203724697232
1769246060780,-0.085968017578125,-0.077972412109375,-0.9949493408203124,0.023771908134222,0.0064757424406707,-0.0112119084224104
1769246060790,-0.0855255126953125,-0.07611083984375,-0.99224853515625,0.0223066378384828,0.0040069920942187,-0.0088078724220395
1769246060800,-0.0804595947265625,-0.080474853515625,-0.988250732421875,0.0186786130070686,0.0036421390250325,8.442220860160887e-05
1769246060810,-0.0770263671875,-0.083770751953125,-0.9846649169921876,0.0110036488622426,-0.0019361181184649,0.006498911883682
1769246060820,-0.082763671875,-0.0848541259765625,-0.9790802001953124,-0.0017060210229828,-0.0095152081921696,0.006328469607979
1769246060830,-0.08111572265625,-0.0787200927734375,-0.974395751953125,-0.0182871278375387,0.0009233179152943,0.0080435452982783
1769246060840,-0.0841827392578125,-0.07159423828125,-0.98016357421875,-0.0230547189712524,0.0093607446178793,0.0069726882502436
1769246060850,-0.08648681640625,-0.0767364501953125,-0.9872283935546876,-0.0184615645557642,-0.0016737966798245,0.0039177760481834
1769246060860,-0.0906982421875,-0.085906982421875,-0.995941162109375,-0.0069250175729393,-0.0117517309263348,0.0039209718815982
1769246060870,-0.0897216796875,-0.08111572265625,-0.996917724609375,0.002805906580761,-0.0104164220392704,0.0002167813072446
1769246060880,-0.093048095703125,-0.0781707763671875,-0.998291015625,0.0045329662971198,-0.0012005530297756,-0.0025907231029123
1769246060890,-0.0919342041015625,-0.0754547119140625,-0.99249267578125,0.0011262508342042,0.0058363173156976,-0.0070379357784986
1769246060900,-0.089263916015625,-0.072784423828125,-0.98651123046875,-0.0018572885310277,0.0054320497438311,-0.0091333109885454
1769246060911,-0.0894775390625,-0.075439453125,-0.9859161376953124,-0.0060072923079133,0.0021955100819468,-0.0072304825298488
1769246060921,-0.0836944580078125,-0.0792236328125,-0.988037109375,-0.009434781037271,0.0022591594606637,-0.0049204565584659
1769246060931,-0.081207275390625,-0.07720947265625,-0.989013671875,-0.0138385836035013,0.0025537051260471,-0.0026698189321905
1769246060941,-0.0818939208984375,-0.080291748046875,-0.986968994140625,-0.0163227804005146,-0.0056315204128623,-0.0036519928835332
1769246060951,-0.082763671875,-0.0835113525390625,-0.9881439208984376,-0.0219822637736797,-0.0108385328203439,0.0021217404864728
1769246060961,-0.082061767578125,-0.083038330078125,-0.985015869140625,-0.0285685285925865,-0.0077109164558351,0.0037007285282015
1769246060971,-0.0833892822265625,-0.0843048095703125,-0.986968994140625,-0.0290052853524684,-0.0047955540940165,0.0067441891878843
1769246060981,-0.08331298828125,-0.0845489501953125,-0.9941558837890624,-0.0267786178737878,-0.0038488004356622,0.0098209390416741
1769246060991,-0.085479736328125,-0.0801544189453125,-0.99853515625,-0.0184807404875755,0.0063508399762213,0.006190251559019
1769246061001,-0.089141845703125,-0.077392578125,-1.0003204345703125,-0.0134457675740122,0.0158487372100353,0.0042826291173696
1769246061011,-0.0880279541015625,-0.074798583984375,-0.99957275390625,-0.0036456012167036,0.0209529530256986,0.0034570493735373
1769246061021,-0.0871734619140625,-0.077362060546875,-1.0001373291015625,0.0066419239155948,0.0094699347391724,0.0045438855886459
1769246061031,-0.0868988037109375,-0.081268310546875,-0.994384765625,0.0133496271446347,0.0012277172645553,0.0049452236853539
1769246061041,-0.086883544921875,-0.0794219970703125,-0.98748779296875,0.0151272872462868,-0.0010298443958163,0.0084307687357068
1769246061051,-0.083740234375,-0.076507568359375,-0.9861297607421876,0.0109546463936567,-0.002625344088301,0.0068158279173076
1769246061061,-0.08624267578125,-0.080169677734375,-0.986175537109375,0.0092342449352145,-0.0027305390685796,0.0042227082885801
1769246061071,-0.0867767333984375,-0.082275390625,-0.988677978515625,0.0091367727145552,0.0060714744031429,0.0055103464983403
1769246061081,-0.086090087890625,-0.07769775390625,-0.9917449951171876,0.0085396924987435,0.0103232115507125,0.0018519621808081
1769246061091,-0.090545654296875,-0.0793914794921875,-0.9911651611328124,0.0092574143782258,0.0071386033669114,-0.0023835292086005
1769246061102,-0.09344482421875,-0.0806732177734375,-0.989532470703125,0.0098835229873657,0.0010357033461332,-0.0066259447485208
1769246061111,-0.0924072265625,-0.0772552490234375,-0.9868316650390624,0.0042533343657851,-0.0017081515397876,-0.0065638930536806
1769246061122,-0.0856170654296875,-0.07275390625,-0.9843292236328124,0.0019273296929895,-0.003223223844543,-0.0047244476154446
1769246061132,-0.08172607421875,-0.08087158203125,-0.9886474609375,0.003206712193787,-0.0076142437756061,-0.0033822145778685
1769246061142,-0.08404541015625,-0.0829010009765625,-0.9889678955078124,0.0030304109677672,-0.0102371908724308,-0.0029515814967453
1769246061152,-0.08526611328125,-0.08221435546875,-0.9868621826171876,0.0016551546286791,-0.0062200790271162,-0.0016343819443136
1769246061162,-0.086151123046875,-0.0770721435546875,-0.9903411865234376,-0.0008165251929312,0.0014913701452314,0.0006301039247773
1769246061172,-0.0828704833984375,-0.0741729736328125,-0.991455078125,-0.0019286612514406,0.0069788135588169,0.0019555592443794
1769246061185,-0.085693359375,-0.0794525146484375,-0.991302490234375,-0.0051143346354365,0.0139818619936704,-0.0011387676931917
1769246061192,-0.092041015625,-0.08343505859375,-0.98931884765625,-0.0052664009854197,0.0069559104740619,-0.0034892736002802
1769246061202,-0.090362548828125,-0.081207275390625,-0.988739013671875,-0.007496265694499,0.0028985845856368,-0.0052544167265295
1769246061212,-0.086517333984375,-0.0781707763671875,-0.9860382080078124,-0.0155837535858154,0.0033739588689059,-0.0095769930630922
1769246061222,-0.090423583984375,-0.0803375244140625,-0.983489990234375,-0.0197737049311399,0.0019648801535367,-0.0100473081693053
1769246061232,-0.0883941650390625,-0.0779266357421875,-0.981842041015625,-0.0210067480802536,-0.0051630702801048,-0.0063313990831375
1769246061242,-0.0831146240234375,-0.0762176513671875,-0.987640380859375,-0.0229567140340805,-0.0056150089949369,-0.0023912524338811
1769246061252,-0.081878662109375,-0.07940673828125,-0.99090576171875,-0.0191020555794239,-0.013987454585731,0.0040650488808751
1769246061262,-0.08148193359375,-0.0982666015625,-0.9912872314453124,-0.023904800415039,-0.0216989032924175,0.0125173898413777
1769246061272,-0.0745697021484375,-0.08465576171875,-0.98870849609375,-0.0247407667338848,-0.005347094964236,0.0199223086237907
1769246061282,-0.0796051025390625,-0.065216064453125,-0.9905853271484376,-0.0119794309139251,0.0070962589234113,0.0140170156955719
1769246061292,-0.092987060546875,-0.0726165771484375,-0.997161865234375,0.0004878911131527,0.0071119717322289,0.0064150225371122
1769246061303,-0.094268798828125,-0.0648651123046875,-0.9966583251953124,0.0025497104506939,-0.0024562333710491,-0.0045385588891804
1769246061312,-0.099273681640625,-0.08154296875,-0.993804931640625,0.0079735042527318,-0.0040368195623159,-0.0107554420828819
1769246061324,-0.094635009765625,-0.0906829833984375,-0.992156982421875,0.0071170316077768,-0.0151853440329432,-0.0090219909325242
1769246061333,-0.0888519287109375,-0.0865478515625,-0.9836273193359376,-0.0077474019490182,-0.0160316973924636,-0.0108095044270157
1769246061343,-0.0847930908203125,-0.0847015380859375,-0.980224609375,-0.0189928654581308,0.0203787740319967,-0.0110268183052539
1769246061353,-0.0819549560546875,-0.0681610107421875,-0.9868927001953124,-0.0223993156105279,0.0321598015725612,-0.0111645041033625
1769246061363,-0.08404541015625,-0.0633392333984375,-0.9864349365234376,-0.0176769979298114,0.0235476698726415,-0.0145666925236582
1769246061373,-0.09283447265625,-0.0665435791015625,-0.9883880615234376,-0.0100369211286306,0.0076166405342519,-0.0182309355586767
1769246061383,-0.0933380126953125,-0.0715484619140625,-0.9915924072265624,-0.0018655443564057,-0.0023430490400642,-0.0161107927560806
1769246061393,-0.088287353515625,-0.079315185546875,-0.994140625,-0.001489505986683,-0.0038586540613323,-0.0122255068272352
1769246061403,-0.086669921875,-0.0905303955078125,-0.9919586181640624,-0.0055779907852411,-0.004628041293472,-0.0055361790582537
1769246061413,-0.083770751953125,-0.0879669189453125,-0.989410400390625,-0.011429488658905,-0.0015880429418757,0.0018421085551381
1769246061423,-0.0809173583984375,-0.0836029052734375,-0.988189697265625,-0.0105565041303634,-0.0092246569693088,0.0074944016523659
1769246061433,-0.082183837890625,-0.0875244140625,-0.99530029296875,-0.0018927085911855,-0.0166639313101768,0.0101825967431068
1769246061443,-0.0827178955078125,-0.0849456787109375,-0.998809814453125,0.0017102820565924,-0.0178426466882228,0.0128731876611709
1769246061453,-0.085296630859375,-0.0776519775390625,-0.9961090087890624,-0.0020098877139389,-0.0111048491671681,0.0166945569217205
1769246061463,-0.0832061767578125,-0.0669097900390625,-0.9914703369140624,-0.0153384758159518,0.0063489759340882,0.0109357386827468
1769246061473,-0.089202880859375,-0.0738983154296875,-0.988555908203125,-0.0208663996309041,0.0159043986350297,0.0046962182968854
1769246061484,-0.0928802490234375,-0.079681396484375,-0.9925537109375,-0.0197004675865173,0.0125245805829763,0.002389121800661
1769246061493,-0.0918731689453125,-0.076019287109375,-0.9932098388671876,-0.0166407618671655,0.0123807694762945,-0.0017121462151408
1769246061503,-0.0955963134765625,-0.07708740234375,-0.9951171875,-0.0136407110840082,0.0175720695406198,-0.0069292788393795
1769246061513,-0.0943450927734375,-0.07421875,-0.9927978515625,-0.010227071121335,0.0170205291360616,-0.0079292962327599
1769246061523,-0.0860595703125,-0.0792083740234375,-0.9934844970703124,-0.0035774242132902,0.0127884997054934,-0.0088041443377733
1769246061534,-0.0853118896484375,-0.0838470458984375,-0.9922027587890624,-0.0013558153295889,0.0070376694202423,-0.0025209481827914
1769246061544,-0.0808868408203125,-0.0771331787109375,-0.9892578125,-0.0037262949626892,-0.0027763454709202,0.0029550434555858
1769246061554,-0.0808258056640625,-0.079925537109375,-0.9860382080078124,-0.0031686290167272,-0.0059961071237921,0.0069953249767422
1769246061564,-0.0828704833984375,-0.079254150390625,-0.9876556396484376,0.0014916365034878,-0.00651595601812,0.0124896932393312
1769246061574,-0.0854339599609375,-0.0811004638671875,-0.9870452880859376,-2.9294771593413316e-05,-0.0177683439105749,0.012330169789493
1769246061584,-0.0865020751953125,-0.080841064453125,-0.985931396484375,-0.0018290589796379,-0.0133765256032347,0.0103823337703943
1769246061594,-0.087188720703125,-0.0699005126953125,-0.989593505859375,-0.0019662117119878,0.0003432814555708,0.0097413109615445
1769246061604,-0.091033935546875,-0.0736236572265625,-0.9932861328125,-0.002837331732735,-0.0013182647526264,0.0044693169184029
1769246061614,-0.095001220703125,-0.0827484130859375,-0.992034912109375,-0.0027590349782258,-0.0042235073633491,0.0013715279055759
1769246061624,-0.0917816162109375,-0.072845458984375,-0.9892730712890624,-0.005248824134469,-0.0073037194088101,0.0002751045394688
1769246061634,-0.0895538330078125,-0.072601318359375,-0.986175537109375,-0.0089719230309128,2.956108801299706e-05,-0.0014093448407948
1769246061644,-0.087158203125,-0.0748443603515625,-0.988616943359375,-0.0118337562307715,0.0058648134581744,-0.0036517265252768
1769246061654,-0.0885009765625,-0.073394775390625,-0.9854888916015624,-0.0137011650949716,0.0078869517892599,-0.006302903406322
1769246061664,-0.0908050537109375,-0.0776214599609375,-0.985626220703125,-0.0118446750566363,0.0002522013674024,-0.005723665934056
1769246061674,-0.0896148681640625,-0.07879638671875,-0.989013671875,-0.0111802164465188,-0.0053127398714423,-0.0082030687481164
1769246061684,-0.0880279541015625,-0.077117919921875,-0.9932403564453124,-0.0135014280676841,-0.0018013621447607,-0.0033137712161988
1769246061694,-0.0855712890625,-0.0781707763671875,-0.993988037109375,-0.0168093405663967,0.0008700547041371,-0.0025385250337421
1769246061704,-0.0847625732421875,-0.074462890625,-0.99163818359375,-0.0211561508476734,0.0021153488196432,-0.0029435919132083
1769246061714,-0.08355712890625,-0.078033447265625,-0.9910430908203124,-0.025458488613367,-0.0008724515791982,-0.0017395768081769
1769246061724,-0.0834197998046875,-0.0826263427734375,-0.9908447265625,-0.0212126113474369,-0.0115051222965121,0.0052964948117733
1769246061735,-0.082794189453125,-0.0845489501953125,-0.9935455322265624,-0.013561881147325,-0.0191678348928689,0.0099911149591207
1769246061744,-0.0821533203125,-0.0783843994140625,-0.99493408203125,-0.0095543563365936,-0.023535419255495,0.0083804354071617
1769246061755,-0.086212158203125,-0.0777130126953125,-0.99432373046875,-0.0036655748263001,-0.0250478293746709,0.0083370255306363
1769246061765,-0.08453369140625,-0.0753173828125,-0.9958648681640624,-0.0006487460341304,-0.0205470863729715,0.0203036740422248
1769246061775,-0.07568359375,-0.0706634521484375,-0.9986724853515624,-0.0040429448708891,0.0013377057621255,0.0240403544157743
1769246061785,-0.0853118896484375,-0.0758056640625,-0.995635986328125,-0.0093282544985413,0.0208600088953971,0.0202368274331092
1769246061795,-0.0937652587890625,-0.079864501953125,-0.9954681396484376,0.0034250915050506,0.0229058489203453,0.0170298498123884
1769246061805,-0.0941009521484375,-0.0783843994140625,-1.0031890869140625,0.0171712636947631,0.0233359485864639,0.0199468098580837
1769246061815,-0.09039306640625,-0.0808563232421875,-1.0042572021484375,0.0309107787907123,0.0226429942995309,0.0150002548471093
1769246061825,-0.095489501953125,-0.0836334228515625,-1.0012664794921875,0.0352514646947383,0.0283525455743074,0.0125461518764495
1769246061835,-0.0961761474609375,-0.0761260986328125,-0.9940338134765624,0.0352751649916172,0.034198984503746,0.0090012177824974
1769246061845,-0.0931243896484375,-0.0758209228515625,-0.991729736328125,0.0332748666405677,0.0379990488290786,0.0092709958553314
1769246061855,-0.087738037109375,-0.077239990234375,-0.991241455078125,0.0325137339532375,0.0316223762929439,0.0079628517851233
1769246061865,-0.085174560546875,-0.0747222900390625,-0.9898529052734376,0.0345862060785293,0.0080118533223867,0.0129472240805625
1769246061875,-0.080108642578125,-0.076019287109375,-0.9859619140625,0.0330319851636886,-0.003858387703076,0.0057873153127729
1769246061885,-0.0891876220703125,-0.083831787109375,-0.982879638671875,0.0269658379256725,0.0001986718125408,0.0050107375718653
1769246061895,-0.0885009765625,-0.0831756591796875,-0.9828033447265624,0.0167978890240192,0.0042496062815189,0.0043289684690535
1769246061905,-0.0928955078125,-0.0825347900390625,-0.9807586669921876,0.0082600601017475,0.0080251693725585,-0.0008506136364303
1769246061915,-0.0931243896484375,-0.0820770263671875,-0.983184814453125,0.0005470133037306,0.0190349444746971,-0.0037105823867022
1769246061925,-0.091552734375,-0.0778656005859375,-0.98736572265625,-0.0071362066082656,0.0219937153160572,-0.0058190068230032
1769246061935,-0.09185791015625,-0.0758056640625,-0.985626220703125,-0.0065758773125708,0.0159166492521762,-0.0054834485054016
1769246061945,-0.0888671875,-0.076812744140625,-0.9903717041015624,-0.0027044401504099,0.005967877805233,-0.0057500312104821
1769246061955,-0.0868682861328125,-0.077117919921875,-0.991455078125,-0.0030815436039119,0.0027204190846532,-0.0065598981454968
1769246061966,-0.0861358642578125,-0.08245849609375,-0.9882354736328124,-0.0062195463106036,-0.0006245112745091,-0.0049196574836969
1769246061976,-0.0821990966796875,-0.08489990234375,-0.98828125,-0.0137235354632139,0.0084406230598688,-0.0004838963795918
1769246061986,-0.08270263671875,-0.07879638671875,-0.9844970703125,-0.0241660568863153,0.0188874043524265,0.0039904806762933
1769246061996,-0.0826263427734375,-0.0752105712890625,-0.9846343994140624,-0.0262736827135086,0.0143869286403059,0.0056967679411172
1769246062006,-0.0845947265625,-0.0793914794921875,-0.988525390625,-0.0196133814752101,0.0079969400539994,0.0068879998289048
1769246062016,-0.083160400390625,-0.0837554931640625,-0.991485595703125,-0.0173667389899492,0.0008362325606867,0.0132849123328924
1769246062026,-0.079742431640625,-0.0933685302734375,-0.9896087646484376,-0.0270824842154979,-0.0007494135061278,0.0219678822904825
1769246062036,-0.0724029541015625,-0.078460693359375,-0.9874114990234376,-0.0295373853296041,0.0145674906671047,0.0263128299266099
1769246062046,-0.08154296875,-0.06817626953125,-0.9869384765625,-0.0187497194856405,0.0182394571602344,0.021067202091217
1769246062056,-0.0947265625,-0.078582763671875,-0.9970245361328124,0.0019377160351723,0.0088382326066493,0.0058347196318209
1769246062066,-0.0999298095703125,-0.075042724609375,-1.00537109375,0.0143842659890651,0.0058530955575406,-0.0005816344055347
1769246062076,-0.1003875732421875,-0.08209228515625,-1.00616455078125,0.0181771386414766,0.0262824706733226,-0.007504787761718
1769246062086,-0.097900390625,-0.077178955078125,-0.999908447265625,0.0131679996848106,0.037049364298582,-0.0121200457215309
1769246062096,-0.0908966064453125,-0.0821380615234375,-0.991058349609375,0.0090387687087059,0.0283570736646652,-0.0156260970979928
1769246062106,-0.08514404296875,-0.0885162353515625,-0.990142822265625,0.014911038801074,0.0339651554822921,-0.0124614629894495
1769246062117,-0.07794189453125,-0.0684356689453125,-0.9932708740234376,0.0262214839458465,0.0298905204981565,-0.014355769380927
1769246062126,-0.0883941650390625,-0.06500244140625,-0.9944000244140624,0.0367215275764465,0.0094678038731217,-0.0182325337082147
1769246062136,-0.0928497314453125,-0.070098876953125,-0.9905548095703124,0.0382387302815914,-0.0095863146707415,-0.0193204339593648
1769246062146,-0.089141845703125,-0.0744781494140625,-0.9862213134765624,0.0300551038235425,-0.0167645998299121,-0.0164940226823091
1769246062156,-0.083953857421875,-0.0822296142578125,-0.9786834716796876,0.0067630973644554,-0.0103903226554393,-0.0160455461591482
1769246062166,-0.086090087890625,-0.0894012451171875,-0.9692535400390624,-0.0172285214066505,-0.0093109440058469,-0.0137296607717871
1769246062176,-0.0790557861328125,-0.09222412109375,-0.9727325439453124,-0.0321856327354908,-0.0086845681071281,-0.0056136772036552
1769246062187,-0.0696868896484375,-0.090057373046875,-0.98297119140625,-0.0360291078686714,-0.0099248019978404,0.0025723471771925
1769246062197,-0.0758514404296875,-0.08551025390625,-0.9898834228515624,-0.0387319475412368,-0.0110638365149497,0.0066624302417039
1769246062207,-0.082000732421875,-0.0740814208984375,-0.99334716796875,-0.0405772551894187,-0.0037433390971273,0.0087191890925168
1769246062217,-0.0860748291015625,-0.076995849609375,-0.9977264404296876,-0.039152730256319,0.0057324543595314,0.0090148001909255
1769246062227,-0.0874176025390625,-0.0825347900390625,-1.0032958984375,-0.0324468873441219,0.0155025273561477,0.0102521050721406
1769246062237,-0.08734130859375,-0.0721435546875,-1.0009765625,-0.0327358432114124,0.0273831542581319,0.0090619381517171
1769246062247,-0.09039306640625,-0.069183349609375,-0.9961395263671876,-0.0291421730071306,0.0358948856592178,0.0030133668333292
1769246062257,-0.0901947021484375,-0.076751708984375,-0.9946441650390624,-0.0196967385709285,0.0367774553596973,-0.0012801815755665
1769246062267,-0.087432861328125,-0.0829925537109375,-1.00006103515625,-0.0085415560752153,0.0293794609606266,-0.0027049726340919
1769246062277,-0.0865020751953125,-0.081787109375,-0.9986114501953124,0.002649046247825,0.0198504030704498,-0.0052112736739218
1769246062287,-0.0847625732421875,-0.076263427734375,-0.9955596923828124,0.0053454968146979,0.0089069418609142,-0.0061609568074345
1769246062297,-0.0821380615234375,-0.0828857421875,-0.99029541015625,0.0064230118878185,0.0006223807577043,0.0008053398923948
1769246062307,-0.0753021240234375,-0.081085205078125,-0.987640380859375,0.0028839372098445,-0.0019915117882192,0.0058943745680153
1769246062317,-0.0755157470703125,-0.079071044921875,-0.9837493896484376,0.0051199272274971,-0.003507649526,0.0088962893933057
1769246062327,-0.08087158203125,-0.0882110595703125,-0.9872894287109376,0.015181615948677,-0.0044224453158676,0.0131493574008345
1769246062337,-0.0814361572265625,-0.087982177734375,-0.9908599853515624,0.0097660776227712,-0.0072869411669671,0.0160061307251453
1769246062347,-0.08111572265625,-0.0788726806640625,-0.98883056640625,0.0060874535702168,0.0048464206047356,0.015636483207345
1769246062357,-0.0851898193359375,-0.070831298828125,-0.988739013671875,0.0072049158625304,0.0070160976611077,0.0108806109055876
1769246062367,-0.0894317626953125,-0.0782318115234375,-0.9885101318359376,0.0056682717986404,-0.0008796420879662,0.0087820403277874
1769246062378,-0.0896759033203125,-0.082305908203125,-0.9887847900390624,0.0034471957478672,-0.0053193978965282,0.0054059508256614
1769246062387,-0.0872802734375,-0.0751495361328125,-0.9850921630859376,-0.0033329459838569,-0.0059966398403048,0.0001933454914251
1769246062398,-0.0884552001953125,-0.076202392578125,-0.9849090576171876,-0.0091383708640933,-0.0043979440815746,-0.0051092742942273
1769246062408,-0.0883026123046875,-0.074798583984375,-0.98681640625,-0.0062011703848838,-0.0022114890161901,-0.0104102967306971
1769246062418,-0.089599609375,-0.0775604248046875,-0.990692138671875,-0.001963814953342,-0.0074975974857807,-0.0171976294368505
1769246062428,-0.0907745361328125,-0.076904296875,-0.9930419921875,-0.0033119071740657,-0.0055143414065241,-0.0193950030952692
1769246062438,-0.0887908935546875,-0.079132080078125,-0.9934844970703124,-0.0077300914563238,-0.0044951494783163,-0.0213412418961524
1769246062448,-0.086578369140625,-0.0814971923828125,-0.990875244140625,-0.0074677700176835,-0.0080771008506417,-0.0166423600167036
1769246062458,-0.0810089111328125,-0.0810546875,-0.9909820556640624,-0.008412392809987,-0.0095785912126302,-0.0116015281528234
1769246062468,-0.0782012939453125,-0.0823822021484375,-0.989593505859375,-0.010955711826682,-0.0005922870477661,-0.0108547778800129
1769246062478,-0.081939697265625,-0.083648681640625,-0.990631103515625,-0.0124737136065959,0.0026951190084218,-0.007407050114125
1769246062488,-0.0840301513671875,-0.0818328857421875,-0.9952392578125,-0.0091673992574214,0.0003693804319482,-0.0027249464765191
1769246062498,-0.082122802734375,-0.078857421875,-0.99847412109375,-0.0055779907852411,0.0026415893808007,0.0026264095213264
1769246062508,-0.08355712890625,-0.07818603515625,-0.9991912841796876,-0.0008868326549418,0.0079601882025599,0.0013515542959794
1769246062519,-0.0826873779296875,-0.0827484130859375,-0.99981689453125,0.0030237531755119,0.0160205122083425,0.0054722633212804
1769246062528,-0.0789794921875,-0.0791473388671875,-0.99566650390625,0.0057915765792131,0.0144591005519032,0.0089096054434776
1769246062538,-0.0807342529296875,-0.079193115234375,-0.990234375,0.0058016963303089,0.0156503319740295,0.010522948578
1769246062548,-0.0821685791015625,-0.07769775390625,-0.9882049560546876,0.0063891895115375,0.0160852260887622,0.0112177673727273
1769246062558,-0.0808563232421875,-0.075408935546875,-0.9872589111328124,0.0081713767722249,0.0124247120693326,0.0149227567017078
1769246062568,-0.08282470703125,-0.0809173583984375,-0.99090576171875,0.0148697597905993,0.0093362433835864,0.0088408961892127
1769246062578,-0.0898895263671875,-0.0836334228515625,-0.992156982421875,0.018418688327074,0.0090193273499608,0.0058506983332335
1769246062589,-0.08782958984375,-0.077239990234375,-0.9918670654296876,0.014430072158575,0.0176197402179241,0.0056522930972278
1769246062598,-0.0873870849609375,-0.07867431640625,-0.99017333984375,0.0104023069143295,0.0201217792928218,0.0018780612153932
1769246062609,-0.08837890625,-0.08056640625,-0.986907958984375,0.0097346529364585,0.014797587879002,0.0013171994360163
1769246062619,-0.0864410400390625,-0.081085205078125,-0.9864959716796876,0.0091383708640933,0.0062930495478212,0.0029443909879773
1769246062629,-0.0824432373046875,-0.08447265625,-0.9857177734375,0.009361277334392,0.004309260752052,0.0030652983114123
1769246062639,-0.0806732177734375,-0.0814056396484375,-0.9878387451171876,0.0039753005839884,0.00178378529381,0.0017632789677008
1769246062649,-0.0850982666015625,-0.0802459716796875,-0.9842071533203124,-0.0002245044743176,0.0005219795857556,-0.004310059826821
1769246062659,-0.0881805419921875,-0.0812225341796875,-0.98504638671875,-0.0058637480251491,0.0065116952173411,-0.005224322900176
1769246062669,-0.087921142578125,-0.072021484375,-0.98590087890625,-0.0141634894534945,0.0192203000187873,-0.0102382563054561
1769246062679,-0.084564208984375,-0.07208251953125,-0.984588623046875,-0.0127565413713455,0.0229077134281396,-0.0155978677794337
1769246062689,-0.0856781005859375,-0.0810546875,-0.9918365478515624,-0.0018879148410633,0.0138284638524055,-0.0147544452920556
1769246062699,-0.08740234375,-0.0830841064453125,-0.993011474609375,0.0060280649922788,-0.0009928264189511,-0.0149965267628431
1769246062709,-0.0830535888671875,-0.079010009765625,-0.9947509765625,0.0084739122539758,-0.0066930563189089,-0.0112334797158837
1769246062719,-0.0807037353515625,-0.076934814453125,-0.9908294677734376,0.0075726984068751,-0.0018271948210895,-0.0080858897417783
1769246062729,-0.083953857421875,-0.0840301513671875,-0.9905548095703124,0.0082552665844559,-0.0011768508702516,-0.0033388049341738
1769246062739,-0.081817626953125,-0.0823516845703125,-0.99102783203125,0.007661648094654,-0.0011803129455074,0.0021286646369844
1769246062749,-0.0801849365234375,-0.0885772705078125,-0.9878387451171876,-0.0050104712136089,-0.0032394691370427,0.0064009074121713
1769246062759,-0.07525634765625,-0.09576416015625,-0.9833831787109376,-0.0188032481819391,0.0004548678989522,0.0151499239727854
1769246062769,-0.0677642822265625,-0.0721282958984375,-0.9835052490234376,-0.0251556877046823,0.0110971257090568,0.0149291483685374
1769246062780,-0.0868988037109375,-0.0756988525390625,-0.98248291015625,-0.0192756932228803,0.0109338741749525,0.0016852483386173
1769246062789,-0.0952301025390625,-0.0776824951171875,-0.9886627197265624,-0.0118667790666222,0.0052211270667612,0.0009853695519268
1769246062799,-0.08636474609375,-0.0714874267578125,-0.9947662353515624,-0.01349663361907,-0.0013765880139544,-0.0061196777969598
1769246062810,-0.086669921875,-0.09332275390625,-0.99420166015625,-0.0106110991910099,0.009614810347557,-0.0057779941707849
1769246062820,-0.08526611328125,-0.0780792236328125,-0.991546630859375,-0.0124867632985115,0.0125389611348509,-0.0045734466984868
1769246062829,-0.0831298828125,-0.073150634765625,-0.9919891357421876,-0.0080584594979882,0.0239721778780221,-0.0072696306742727
1769246062840,-0.0824432373046875,-0.0798187255859375,-0.99786376953125,0.00266635697335,0.0372022278606891,-0.001750229508616
1769246062850,-0.078826904296875,-0.066925048828125,-0.9960784912109376,0.0154756288975477,0.0347073785960674,-0.0020780644845217
1769246062860,-0.08642578125,-0.069549560546875,-0.9865875244140624,0.0151501903310418,0.0152828162536025,-0.0050562773831188
1769246062870,-0.087432861328125,-0.0757293701171875,-0.9785003662109376,0.0125794410705566,-0.0053564156405627,-0.005101284943521
1769246062880,-0.0845184326171875,-0.0812530517578125,-0.9798126220703124,0.005609415937215,-0.0198565293103456,0.0004724447790067
1769246062890,-0.0841217041015625,-0.0858306884765625,-0.98150634765625,-0.0070046461187303,-0.0218810644000768,-0.0009062737226486
1769246062900,-0.0875091552734375,-0.084716796875,-0.9836578369140624,-0.0222616288810968,-0.014991732314229,-0.0015885755419731
1769246062910,-0.08782958984375,-0.085906982421875,-0.9867706298828124,-0.0300995782017707,-0.003075152169913,-0.0074531226418912
1769246062920,-0.081085205078125,-0.0840606689453125,-0.9911041259765624,-0.0340234823524951,0.003810450900346,-0.0036759611684828
1769246062930,-0.0771331787109375,-0.0825042724609375,-0.9971160888671876,-0.0314295627176761,0.0066421898081898,-0.0013813816476613
1769246062940,-0.0769805908203125,-0.0804443359375,-1.000274658203125,-0.0261916574090719,0.0099170794710516,0.0019206717843189
1769246062950,-0.0785369873046875,-0.0743865966796875,-0.999786376953125,-0.0202259086072444,0.0161904208362102,0.0006964165950194
1769246062960,-0.0826873779296875,-0.077484130859375,-1.0008087158203125,-0.0104166883975267,0.0146793434396386,0.002224538475275
1769246062970,-0.0850982666015625,-0.078826904296875,-1.000152587890625,-0.0002721750643104,0.0180921852588653,0.0031297469977289
1769246062980,-0.0879058837890625,-0.0798187255859375,-1.0006561279296875,0.0117844874039292,0.017586451023817,0.0007805725326761
1769246062990,-0.0858306884765625,-0.082489013671875,-1.0017547607421875,0.0236006677150726,0.0153802875429391,0.0006151901907287
1769246063000,-0.08575439453125,-0.0865631103515625,-1.0001220703125,0.0308162365108728,0.0109264170750975,-0.0014450311427935
1769246063010,-0.08392333984375,-0.0831451416015625,-0.99420166015625,0.031462050974369,0.006793990265578,-0.0065210163593292
1769246063021,-0.083221435546875,-0.0760345458984375,-0.987030029296875,0.0236448757350444,0.0023976438678801,-0.0078419437631964
1769246063031,-0.079559326171875,-0.075225830078125,-0.982818603515625,0.0217729397118091,-0.0032983249984681,-0.0072038508951663
1769246063041,-0.0732421875,-0.0784912109375,-0.9850616455078124,0.0180186815559864,-0.0091066788882017,-0.0041489386931061
