timestamp_ms,acc_x,acc_y,acc_z,gyro_x,gyro_y,gyro_z
1769249796114,-0.0521697998046875,-0.9846343994140624,-0.12091064453125,0.0055364454165101,-0.0050746533088386,-0.0689729452133178
1769249796125,-0.0516510009765625,-0.9821929931640624,-0.1259765625,0.0181150883436203,-0.009213738143444,-0.070692278444767
1769249796133,-0.049713134765625,-0.990814208984375,-0.1293792724609375,0.026390329003334,-0.0394813641905784,-0.0744100511074066
1769249796143,-0.0497894287109375,-1.01654052734375,-0.140289306640625,0.0429067201912403,-0.0506996624171733,-0.071906678378582
1769249796157,-0.0371551513671875,-1.0066680908203125,-0.1520843505859375,0.0885687470436096,-0.0026522420812398,-0.0616367310285568
1769249796165,-0.026580810546875,-0.9535369873046876,-0.148193359375,0.1101304963231086,-0.0045665223151445,-0.0610050298273563
1769249796173,-0.0391387939453125,-0.9715118408203124,-0.132110595703125,0.1025578007102012,-0.0523364394903183,-0.0737985894083976
1769249796183,-0.053466796875,-1.03790283203125,-0.1229705810546875,0.0829449519515037,-0.0451744012534618,-0.0742001980543136
1769249796193,-0.0453948974609375,-1.0429534912109375,-0.1181640625,0.0875277146697044,-0.0023710122331976,-0.0699138343334198
1769249796203,-0.03009033203125,-0.990142822265625,-0.113372802734375,0.113617904484272,0.0596534758806228,-0.0519787780940532
1769249796213,-0.0182037353515625,-0.9145965576171876,-0.0992889404296875,0.136803925037384,0.0954152047634124,-0.0337374582886695
1769249796223,-0.0317535400390625,-0.88775634765625,-0.08056640625,0.1237642839550972,0.0447466969490051,-0.0346205607056617
1769249796233,-0.0645599365234375,-0.948455810546875,-0.071807861328125,0.0849492475390434,-0.0060046291910111,-0.0625621825456619
1769249796243,-0.0772705078125,-1.0064849853515625,-0.0809173583984375,0.0395287685096263,-0.0149411326274275,-0.0910260453820228
1769249796253,-0.0584869384765625,-1.021484375,-0.091705322265625,0.0049862363375723,-0.0172093473374843,-0.1010136976838111
1769249796263,-0.032806396484375,-1.01824951171875,-0.1021575927734375,-0.0028751487843692,-0.0126984845846891,-0.1038651466369628
1769249796273,-0.0256195068359375,-1.0101470947265625,-0.12353515625,0.0140071623027324,-0.0073279538191854,-0.1012967899441719
1769249796283,-0.026031494140625,-1.004180908203125,-0.143585205078125,0.0254318565130233,-0.004954544827342,-0.0893826112151146
1769249796293,-0.024169921875,-0.996002197265625,-0.14276123046875,0.0340514443814754,0.0003395530220586,-0.0752148628234863
1769249796304,-0.0210418701171875,-0.9952545166015624,-0.1386871337890625,0.0510053932666778,0.0157760344445705,-0.0618721544742584
1769249796313,-0.0211944580078125,-0.989288330078125,-0.1415863037109375,0.0696227550506591,0.0323427580296993,-0.0495899245142936
1769249796324,-0.0218353271484375,-0.9771728515625,-0.1356201171875,0.0883136168122291,0.0332120135426521,-0.0394928157329559
1769249796333,-0.026885986328125,-0.976470947265625,-0.1218414306640625,0.0964114889502525,0.0123442839831113,-0.0371835865080356
1769249796343,-0.0327301025390625,-0.994873046875,-0.11187744140625,0.0999284610152244,-0.0039478698745369,-0.0374999716877937
1769249796354,-0.0306243896484375,-1.0051727294921875,-0.103363037109375,0.0997886434197425,-0.0031851406674832,-0.0329512916505336
1769249796364,-0.02130126953125,-1.0042724609375,-0.0975189208984375,0.0996371135115623,-0.0157395489513874,-0.0283685252070426
1769249796373,-0.0152587890625,-1.0170440673828125,-0.0955963134765625,0.109524093568325,-0.0026519757229834,-0.0297251380980014
1769249796383,-0.0126190185546875,-1.00018310546875,-0.098876953125,0.1264666020870208,0.0133669376373291,-0.0244946908205747
1769249796394,-0.009674072265625,-0.976837158203125,-0.0862274169921875,0.1300224512815475,-0.0124856978654861,-0.0226243529468774
1769249796404,-0.0172119140625,-0.9903411865234376,-0.0781097412109375,0.1238226071000099,-0.0262047052383422,-0.0215937085449695
1769249796414,-0.0172119140625,-0.9944610595703124,-0.07415771484375,0.1109467595815658,-0.025139708071947,-0.0151342116296291
1769249796424,-0.01190185546875,-0.989166259765625,-0.0700225830078125,0.0952413007616996,-0.0222485810518264,-0.0122020710259675
1769249796434,-0.011627197265625,-0.990570068359375,-0.0702056884765625,0.0801752656698226,-0.0209452286362648,-0.0094358455389738
1769249796444,-0.0191802978515625,-0.991302490234375,-0.0719757080078125,0.0676200538873672,-0.0160791017115116,-0.006025668233633
1769249796455,-0.0256805419921875,-0.98980712890625,-0.0748748779296875,0.0463483221828937,-0.0089205242693424,-0.0034794199746102
1769249796464,-0.0308380126953125,-0.9874420166015624,-0.07440185546875,0.0209681317210197,-0.0078568579629063,-0.0014689996605738
1769249796474,-0.036651611328125,-0.990814208984375,-0.074493408203125,-0.0042445459403097,-0.0115855494514107,0.0009302421822212
1769249796484,-0.0361175537109375,-0.9963531494140624,-0.0782470703125,-0.0338357277214527,-0.0027784758713096,0.0027806065045297
1769249796494,-0.032135009765625,-0.9967803955078124,-0.0767059326171875,-0.0625970661640167,0.0015638081822544,0.0015962987672537
1769249796504,-0.033966064453125,-0.9984283447265624,-0.07403564453125,-0.0933587104082107,0.0096467686817049,0.00291243288666
1769249796514,-0.0337982177734375,-0.999969482421875,-0.071685791015625,-0.1206680908799171,0.0139123536646366,-0.0023156185634434
1769249796525,-0.03875732421875,-0.9944915771484376,-0.0740203857421875,-0.1425728648900985,0.0121080614626407,-0.0106579707935452
1769249796534,-0.0369415283203125,-0.9918975830078124,-0.0788726806640625,-0.1540630757808685,0.0086800409480929,-0.0141126234084367
1769249796546,-0.036407470703125,-0.99176025390625,-0.0856170654296875,-0.156210646033287,0.0101607581600546,-0.0199689138680696
1769249796554,-0.0351409912109375,-0.9914703369140624,-0.094451904296875,-0.1536870300769806,0.006662696134299,-0.0289099458605051
1769249796564,-0.03594970703125,-0.9884490966796876,-0.10369873046875,-0.1458405554294586,0.0053817159496247,-0.0358152538537979
1769249796575,-0.0347137451171875,-0.9820556640625,-0.108062744140625,-0.1390942335128784,0.0049505499191582,-0.0419892631471157
1769249796584,-0.0281829833984375,-0.98455810546875,-0.106201171875,-0.1382865011692047,-0.0054996940307319,-0.0449997000396251
1769249796595,-0.025299072265625,-1.0106048583984375,-0.105255126953125,-0.1491609811782837,-0.0258230753242969,-0.0541556477546691
1769249796605,-0.0271453857421875,-1.0387725830078125,-0.1167449951171875,-0.118262194097042,0.0114084491506218,-0.0558054745197296
1769249796615,-0.0148162841796875,-0.9831695556640624,-0.1357421875,-0.0840440392494201,0.0289019551128149,-0.0413391850888729
1769249796625,-0.0046234130859375,-0.949920654296875,-0.13018798828125,-0.0674094036221504,0.0012327772565186,-0.043353334069252
1769249796635,-0.018646240234375,-1.00079345703125,-0.130035400390625,-0.0459701530635356,0.0276958104223012,-0.0492282658815383
1769249796645,-0.025390625,-1.0094146728515625,-0.126983642578125,-0.0468250289559364,0.0335981734097003,-0.0382600389420986
1769249796655,-0.0163421630859375,-1.013916015625,-0.1101226806640625,-0.0370821207761764,0.0583812855184078,-0.0349771603941917
1769249796665,-0.0137939453125,-0.9813995361328124,-0.1031951904296875,-0.0105849998071789,0.088640920817852,-0.0286247208714485
1769249796675,-0.014312744140625,-0.919219970703125,-0.0975494384765625,0.0081063956022262,0.0700573846697807,-0.0167824421077966
1769249796686,-0.0302886962890625,-0.9176483154296876,-0.09197998046875,0.0110776843503117,0.0036551884841173,-0.0262145604938268
1769249796696,-0.045074462890625,-0.964447021484375,-0.1022186279296875,0.0107636982575058,-0.048700425773859,-0.0451336577534675
1769249796705,-0.0408935546875,-1.0039825439453125,-0.1215972900390625,0.0092531535774469,-0.0681343153119087,-0.0548523291945457
1769249796715,-0.0206298828125,-1.0267333984375,-0.1344451904296875,0.0168607383966445,-0.0583940669894218,-0.0546496622264385
1769249796725,-0.0046234130859375,-1.0218353271484375,-0.139801025390625,0.0298037026077508,-0.0368272550404071,-0.0481677949428558
1769249796736,-0.0032196044921875,-1.0064239501953125,-0.132110595703125,0.0352831557393074,-0.030117155984044,-0.0391362160444259
1769249796745,-0.0118865966796875,-1.000946044921875,-0.1154937744140625,0.0257732737809419,-0.0320426225662231,-0.0299895908683538
1769249796756,-0.019989013671875,-1.0012359619140625,-0.1021575927734375,0.0038245655596256,-0.0249793864786624,-0.0202123280614614
1769249796765,-0.023468017578125,-0.9967498779296876,-0.094757080078125,-0.0204970184713602,-0.0093796532601118,-0.0094422372058033
1769249796776,-0.022186279296875,-0.98590087890625,-0.0934295654296875,-0.0381854698061943,0.0026130937039852,-0.0002585929469205
1769249796785,-0.0204315185546875,-0.9791259765625,-0.1003265380859375,-0.0478186532855033,0.006237655878067,0.0116044580936431
1769249796796,-0.0189971923828125,-0.9818878173828124,-0.10693359375,-0.0538483187556266,0.0024141555186361,0.0192317515611648
1769249796806,-0.0185089111328125,-0.9954833984375,-0.1093292236328125,-0.0559530146420002,0.0037526602391153,0.022809175774455
1769249796816,-0.02020263671875,-1.0007171630859375,-0.1111602783203125,-0.0550576597452163,0.0026202842127531,0.0228925328701734
1769249796826,-0.0234527587890625,-1.0091400146484375,-0.1130828857421875,-0.057400707155466,0.0012245214311406,0.0110172312706708
1769249796836,-0.0269622802734375,-1.0144195556640625,-0.114501953125,-0.0456274077296257,0.0255530308932065,0.0019827233627438
1769249796846,-0.02276611328125,-0.97637939453125,-0.1137847900390625,-0.0340309366583824,0.0144580351188778,-0.0034426683560013
1769249796856,-0.0174713134765625,-0.973236083984375,-0.104705810546875,-0.0354376174509525,-0.0180868580937385,-0.0100534334778785
1769249796866,-0.0231781005859375,-0.99456787109375,-0.1042938232421875,-0.0326346419751644,-0.0245863031595945,-0.0230989269912242
1769249796876,-0.0221099853515625,-0.9980926513671876,-0.113006591796875,-0.0260742101818323,-0.0144844008609652,-0.0299903899431228
1769249796886,-0.0125579833984375,-0.989105224609375,-0.1142425537109375,-0.0213343165814876,-0.0130364401265978,-0.0360216498374938
1769249796896,-0.007965087890625,-0.98602294921875,-0.1083221435546875,-0.0246241204440593,-0.0217020995914936,-0.0383737534284591
1769249796906,-0.0069580078125,-0.987579345703125,-0.103851318359375,-0.0265423953533172,-0.0239998754113912,-0.0386214293539524
1769249796916,-0.0071563720703125,-0.986907958984375,-0.10626220703125,-0.0272547900676727,-0.0285786483436822,-0.036942571401596
1769249796926,-0.009857177734375,-0.9915771484375,-0.1134796142578125,-0.0239572636783123,-0.0395229086279869,-0.0329603478312492
1769249796937,-0.0116729736328125,-0.99481201171875,-0.118682861328125,-0.0309081152081489,-0.0400448888540267,-0.0309728290885686
1769249796946,-0.0137176513671875,-0.9972381591796876,-0.11749267578125,-0.0382840074598789,-0.0329393073916435,-0.0261895265430212
1769249796956,-0.012420654296875,-0.99755859375,-0.1172332763671875,-0.0488421060144901,-0.0202272403985261,-0.0198645181953907
1769249796966,-0.0126953125,-0.9937744140625,-0.115631103515625,-0.0582119077444076,-0.0043643885292112,-0.0139485727995634
1769249796976,-0.0154266357421875,-0.9913482666015624,-0.1134033203125,-0.0645683407783508,0.0041571944020688,-0.0115392105653882
1769249796987,-0.0221099853515625,-0.9918670654296876,-0.1163177490234375,-0.0626942738890647,0.0074238278903067,-0.0108100371435284
1769249796997,-0.0240936279296875,-0.9868927001953124,-0.1191864013671875,-0.0567852519452571,0.013063071295619,-0.0097658112645149
1769249797008,-0.0214691162109375,-0.9854888916015624,-0.1206817626953125,-0.0499712862074375,0.0072123729623854,-0.0093290535733103
1769249797016,-0.0210113525390625,-0.9815826416015624,-0.122802734375,-0.0422758162021636,-0.0018753979820758,-0.0099924467504024
1769249797027,-0.019744873046875,-0.98309326171875,-0.125030517578125,-0.0318074636161327,-0.0059827915392816,-0.0100182797759771
1769249797037,-0.02166748046875,-0.9868927001953124,-0.1300201416015625,-0.0145837366580963,-0.0053300503641366,-0.0151006560772657
1769249797047,-0.0234527587890625,-0.991912841796875,-0.13592529296875,-0.0056557552888989,-0.0124601321294903,-0.0211063511669635
1769249797057,-0.0208282470703125,-1.0222625732421875,-0.1338653564453125,-0.007104514632374,-0.0257564950734376,-0.0292148776352405
1769249797067,-0.0186767578125,-1.0337982177734375,-0.1355133056640625,0.0142694832757115,0.0115655763074755,-0.0248534176498651
1769249797077,-0.0048370361328125,-0.9733123779296876,-0.1356658935546875,0.025376196950674,0.007022222969681,-0.018255703151226
1769249797087,-0.0033721923828125,-0.9662933349609376,-0.12420654296875,0.0435000732541084,0.02162966132164,-0.0246904324740171
1769249797097,-0.0194549560546875,-0.9774169921875,-0.1262664794921875,0.0596564076840877,0.0512275025248527,-0.0235564578324556
1769249797108,-0.0205230712890625,-0.9785614013671876,-0.1208038330078125,0.0585032552480697,0.0266417302191257,-0.0219854600727558
1769249797117,-0.023162841796875,-1.0101165771484375,-0.12078857421875,0.0792175903916359,0.0482428967952728,-0.0214858502149581
1769249797127,-0.0125579833984375,-0.97412109375,-0.1242828369140625,0.0988171249628067,0.0549697764217853,-0.0094845816493034
1769249797137,-0.0072784423828125,-0.936737060546875,-0.10772705078125,0.0972357392311096,0.012245480902493,-0.0011744539951905
1769249797147,-0.017578125,-0.9495391845703124,-0.0926361083984375,0.087249681353569,-0.0228888038545846,-0.0089295795187354
1769249797157,-0.0318450927734375,-0.9811859130859376,-0.0960845947265625,0.0712060034275055,-0.0371708050370216,-0.0295435115694999
1769249797168,-0.0314788818359375,-1.0143585205078125,-0.1072998046875,0.0556118637323379,-0.0477512776851654,-0.0483954958617687
1769249797177,-0.0167694091796875,-1.032379150390625,-0.1141510009765625,0.049514289945364,-0.0414917841553688,-0.0538871996104717
1769249797187,-0.0029144287109375,-1.0189208984375,-0.116729736328125,0.04920669272542,-0.031186681240797,-0.0468221008777618
1769249797197,0.00482177734375,-0.996551513671875,-0.11492919921875,0.0467097163200378,-0.0367620103061199,-0.0357878245413303
1769249797207,0.0004730224609375,-0.993865966796875,-0.1116180419921875,0.0383335389196872,-0.037046167999506,-0.025482190772891
1769249797217,-0.0079803466796875,-0.997589111328125,-0.1104278564453125,0.0281229801476001,-0.0269005894660949,-0.011086206883192
1769249797228,-0.0086517333984375,-0.9929656982421876,-0.1116180419921875,0.0185076370835304,-0.0073170349933207,0.0058698733337223
1769249797238,-0.004486083984375,-0.9817962646484376,-0.109283447265625,0.0131203290075063,0.0055079497396945,0.023364445194602
1769249797248,-0.0028228759765625,-0.9797821044921876,-0.1080322265625,0.003221093211323,0.0110148340463638,0.0361113995313644
1769249797258,-0.007537841796875,-0.990753173828125,-0.104705810546875,-0.0082238409668207,0.0172745939344167,0.0405237227678298
1769249797268,-0.013031005859375,-1.000396728515625,-0.0977935791015625,-0.0192695688456296,0.0287384372204542,0.0404094755649566
1769249797278,-0.014739990234375,-0.998443603515625,-0.0917205810546875,-0.0331105478107929,0.024918932467699,0.0323904305696487
1769249797288,-0.017120361328125,-1.0054168701171875,-0.0916595458984375,-0.0392459407448768,0.0227716248482465,0.0227159652858972
1769249797298,-0.0154571533203125,-0.999755859375,-0.099884033203125,-0.0296931806951761,0.030949393287301,0.0185348019003868
1769249797308,-0.011322021484375,-0.9735565185546876,-0.10858154296875,-0.016791496425867,0.0081846928223967,0.0119775673374533
1769249797318,-0.0142822265625,-0.9839630126953124,-0.11187744140625,-0.0058363173156976,-0.0146364672109484,0.0018895127577707
1769249797328,-0.0182342529296875,-1.0005645751953125,-0.1186676025390625,0.0035555863287299,-0.0169329103082418,-0.006686398293823
1769249797338,-0.0134735107421875,-1.000030517578125,-0.11871337890625,0.0141536360606551,-0.0143720153719186,-0.0133837163448333
1769249797348,-0.00726318359375,-0.9895782470703124,-0.11273193359375,0.0181877929717302,-0.0221766754984855,-0.0192312188446521
1769249797358,-0.0093841552734375,-0.988525390625,-0.1074981689453125,0.0173462331295013,-0.0291922409087419,-0.0241620615124702
1769249797368,-0.0144500732421875,-0.98809814453125,-0.1039886474609375,0.008046475239098,-0.0281237792223691,-0.0297898538410663
1769249797378,-0.016265869140625,-0.9868316650390624,-0.0972747802734375,-0.0002689792599994,-0.0338570326566696,-0.031131288036704
1769249797388,-0.0138702392578125,-0.989532470703125,-0.0993194580078125,-0.009212139993906,-0.0360253788530826,-0.022939670830965
1769249797398,-0.0075836181640625,-0.9920654296875,-0.1069488525390625,-0.0193659737706184,-0.0232235640287399,-0.0122204469516873
1769249797408,-0.0066986083984375,-0.99749755859375,-0.1159210205078125,-0.0251484960317611,-0.0068752164952456,-0.0062941149808466
1769249797418,-0.0096893310546875,-0.999114990234375,-0.1197967529296875,-0.0237412825226783,0.0030471889767795,-0.0024474449455738
1769249797429,-0.0115966796875,-0.9929046630859376,-0.1201171875,-0.0233327522873878,0.0079921465367078,0.0029076393693685
1769249797439,-0.01287841796875,-0.9882659912109376,-0.11724853515625,-0.0245692580938339,0.0111650368198752,0.0057441722601652
1769249797449,-0.0162506103515625,-0.9893341064453124,-0.11334228515625,-0.0255785975605249,0.0124385599046945,0.0051052798517048
1769249797459,-0.0190277099609375,-0.9905548095703124,-0.1111602783203125,-0.0217511020600795,0.0126284435391426,0.0029566413722932
1769249797469,-0.0194549560546875,-0.984619140625,-0.1132049560546875,-0.0155744319781661,0.0086808400228619,0.0039476035162806
1769249797479,-0.0191650390625,-0.9810333251953124,-0.115264892578125,-0.0083311665803194,0.0031441280152648,-0.0035787557717412
1769249797489,-0.0240631103515625,-0.9874114990234376,-0.116485595703125,0.0023262712638825,0.0007518103811889,-0.0128468228504061
1769249797499,-0.023468017578125,-0.9902801513671876,-0.1217498779296875,0.0139128863811492,-0.0008948221220634,-0.0157667119055986
1769249797509,-0.016815185546875,-0.9967041015625,-0.1215667724609375,0.0159422140568494,-0.0138476388528943,-0.0202615950256586
1769249797519,-0.0125579833984375,-1.03167724609375,-0.1197662353515625,0.0167249180376529,-0.015263108536601,-0.0224270112812519
1769249797530,-0.0071563720703125,-1.0224456787109375,-0.122955322265625,0.0288135390728712,0.0047742486931383,-0.0094648748636245
1769249797539,0.00799560546875,-0.9764251708984376,-0.118865966796875,0.0391817577183246,0.0049481531605124,-0.0066954530775547
1769249797549,0.0010223388671875,-0.9778900146484376,-0.1148834228515625,0.0633028075098991,0.0455520376563072,-0.0041183121502399
1769249797559,-0.0096588134765625,-0.95635986328125,-0.1114349365234375,0.0686746686697006,0.0450417771935462,0.0066587016917765
1769249797569,-0.0110321044921875,-0.991455078125,-0.099151611328125,0.0721181333065033,0.0541897341609001,0.0023209447972476
1769249797579,-0.0139617919921875,-1.005279541015625,-0.1032257080078125,0.0852001160383224,0.0783059895038604,0.0102220112457871
1769249797589,0.000701904296875,-0.9646148681640624,-0.0977020263671875,0.095800295472145,0.0581144355237484,0.0265072416514158
1769249797599,-3.0517578125e-05,-0.9510955810546876,-0.08917236328125,0.0996400415897369,0.0158258341252803,0.0252118799835443
1769249797609,-0.015533447265625,-0.9684600830078124,-0.095245361328125,0.0973462611436843,-0.0086137279868125,0.0138481715694069
1769249797620,-0.023223876953125,-0.992706298828125,-0.1071319580078125,0.0946846976876258,-0.0411277301609516,-0.001676726154983
1769249797630,-0.0223541259765625,-1.0277557373046875,-0.1172943115234375,0.0917650759220123,-0.0515801049768924,-0.0123605290427804
1769249797640,-0.011566162109375,-1.0306396484375,-0.1214599609375,0.0904899537563324,-0.0247325096279382,-0.0155893461778759
1769249797650,-0.000701904296875,-1.00531005859375,-0.110382080078125,0.0877849757671356,-0.0111993914470076,-0.0113866114988923
1769249797660,-0.002471923828125,-0.991485595703125,-0.0974884033203125,0.0727351903915405,-0.0189475920051336,-0.008103466592729
1769249797670,-0.013519287109375,-0.9972686767578124,-0.0857086181640625,0.0492953769862651,-0.0165158603340387,-0.0055351140908896
1769249797680,-0.0225677490234375,-0.9961700439453124,-0.0816192626953125,0.0233220998197793,0.0039452067576348,-0.0003081277245655
1769249797690,-0.021820068359375,-0.9885711669921876,-0.0837860107421875,0.0010128001449629,0.0295610874891281,0.0105027081444859
1769249797700,-0.016265869140625,-0.9813232421875,-0.083953857421875,-0.0199955459684133,0.0304852053523063,0.0180671513080596
1769249797710,-0.018890380859375,-0.98944091796875,-0.085418701171875,-0.0360956862568855,0.0279951486736536,0.0210187323391437
1769249797721,-0.0212860107421875,-1.00067138671875,-0.091522216796875,-0.0467611141502857,0.0249865762889385,0.0217630863189697
1769249797730,-0.0188751220703125,-1.0032806396484375,-0.0941162109375,-0.0517252460122108,0.0250164028257131,0.0246355719864368
1769249797740,-0.01763916015625,-0.998809814453125,-0.094329833984375,-0.0516442842781543,0.0072344769723713,0.0193614475429058
1769249797750,-0.02001953125,-1.0069122314453125,-0.0980987548828125,-0.0438247136771678,0.0053697316907346,0.0109858056530356
1769249797760,-0.0164794921875,-0.9883575439453124,-0.1033172607421875,-0.0297011695802211,0.0042746397666633,0.011969843879342
1769249797770,-0.009552001953125,-0.970123291015625,-0.1002655029296875,-0.0177952423691749,-0.0233284924179315,0.0037183053791522
1769249797780,-0.0140838623046875,-0.991363525390625,-0.099884033203125,-0.0098366513848304,-0.0273762308061122,-0.0065021077170968
1769249797790,-0.0108642578125,-1.0022735595703125,-0.1031494140625,-0.0027153589762747,-0.0193438697606325,-0.0101583618670701
1769249797800,-0.0028839111328125,-0.993988037109375,-0.1012725830078125,0.0071354075334966,-0.0196381490677595,-0.0091796498745679
1769249797810,0.000732421875,-0.9869384765625,-0.0984344482421875,0.0103402556851506,-0.0298074297606945,-0.01169846765697
1769249797821,-0.0035552978515625,-0.990966796875,-0.0972137451171875,0.0116603840142488,-0.0300881266593933,-0.0136724030598998
1769249797831,-0.007781982421875,-0.99090576171875,-0.0978240966796875,0.004073305055499,-0.0250635407865047,-0.0115171065554022
1769249797841,-0.00701904296875,-0.989288330078125,-0.0955047607421875,-0.0076648439280688,-0.024706944823265,-0.0034586472902446
1769249797850,-0.0038299560546875,-0.9923248291015624,-0.0911865234375,-0.021011009812355,-0.0207593403756618,0.0085162566974759
1769249797861,-0.0048675537109375,-1.0000762939453125,-0.093353271484375,-0.0291943699121475,-0.0128817101940512,0.0157840233296155
1769249797871,-0.0062103271484375,-1.002532958984375,-0.1007537841796875,-0.0305752195417881,-0.0091775190085172,0.0213817209005355
1769249797882,-0.0098876953125,-1.00054931640625,-0.1054840087890625,-0.0307331457734107,-0.0087583381682634,0.0258427821099758
1769249797891,-0.0145263671875,-0.9964752197265624,-0.10552978515625,-0.0338924527168273,-0.0067990501411259,0.0266795475035905
1769249797901,-0.0145721435546875,-0.993438720703125,-0.099212646484375,-0.0332274623215198,-0.0070094401016831,0.0258566308766603
1769249797911,-0.017364501953125,-0.9899749755859376,-0.1004638671875,-0.0352645143866539,-0.0030780816450715,0.0219574961811304
1769249797921,-0.0196075439453125,-0.98785400390625,-0.1000518798828125,-0.035446673631668,-0.0031209585722535,0.0166181251406669
1769249797931,-0.024017333984375,-0.9909820556640624,-0.103363037109375,-0.0278875567018985,-0.0039049931801855,0.0068943914957344
1769249797941,-0.026519775390625,-0.986083984375,-0.112335205078125,-0.0174335855990648,0.0036719664931297,-0.0008487494196742
1769249797951,-0.0246429443359375,-0.9782257080078124,-0.1156005859375,-0.0069034462794661,0.0084328996017575,-0.0028069717809557
1769249797961,-0.0222320556640625,-0.978607177734375,-0.11322021484375,-0.0044509409926831,-0.0006301039247773,-0.0053601441904902
1769249797972,-0.02099609375,-1.0032501220703125,-0.109832763671875,-0.0144487144425511,-0.0265908651053905,-0.0140106240287423
1769249797981,-0.0216064453125,-1.0426177978515625,-0.1103973388671875,-0.0109234880656003,-0.0048631983809173,-0.0162133239209651
1769249797991,-0.009185791015625,-1.005706787109375,-0.1141204833984375,0.0001763012696756,0.0188250858336687,-0.0075937374494969
1769249798001,-0.00341796875,-0.9616851806640624,-0.1082611083984375,0.0076395436190068,0.0148841412737965,-0.0134372450411319
1769249798011,-0.01593017578125,-0.990814208984375,-0.109771728515625,0.0218605585396289,0.0418848656117916,-0.0187747534364461
1769249798022,-0.018798828125,-1.0050506591796875,-0.1132965087890625,0.025593776255846,0.0447139404714107,-0.0130462935194373
1769249798031,-0.0146484375,-1.01470947265625,-0.1099090576171875,0.0488804578781127,0.0755552127957344,-0.0047436226159334
1769249798042,-0.0029449462890625,-0.9652862548828124,-0.108154296875,0.0812754184007644,0.0882702097296714,0.0092598106712102
1769249798051,-0.0030670166015625,-0.9171142578125,-0.0955963134765625,0.1023783013224601,0.0527710691094398,0.0198528002947568
1769249798062,-0.0217437744140625,-0.9277191162109376,-0.087799072265625,0.0983516052365303,-0.0050485543906688,0.0136340530589222
1769249798072,-0.0365753173828125,-0.9775848388671876,-0.086822509765625,0.0835755839943885,-0.0309238266199827,-0.00243785767816
1769249798082,-0.0278472900390625,-1.0128631591796875,-0.092010498046875,0.0627238377928733,-0.043529100716114,-0.0141800008714199
1769249798092,-0.0133056640625,-1.0315093994140625,-0.0960235595703125,0.0559282451868057,-0.0303326062858104,-0.0222967825829982
1769249798102,-0.004058837890625,-1.0234527587890625,-0.1047515869140625,0.0593445487320423,-0.0139102227985858,-0.022514896467328
1769249798112,-0.002655029296875,-1.0075225830078125,-0.1053619384765625,0.0562366396188735,-0.0084227798506617,-0.0156540609896183
1769249798122,-0.008209228515625,-1.0091552734375,-0.0992279052734375,0.0423937961459159,-0.0085418224334716,-0.0085759116336703
1769249798132,-0.012847900390625,-1.0084075927734375,-0.085601806640625,0.021223796531558,0.0103700831532478,0.0021803299896419
1769249798142,-0.0150146484375,-0.994049072265625,-0.08270263671875,0.0035840822383761,0.0220286026597023,0.016522517427802
1769249798152,-0.0142974853515625,-0.9813079833984376,-0.0824737548828125,-0.0104861967265605,0.0171986948698759,0.0243812389671802
1769249798162,-0.0166015625,-0.97540283203125,-0.079925537109375,-0.0251756608486175,0.0074959993362426,0.0308905374258756
1769249798172,-0.021484375,-0.9808349609375,-0.0835113525390625,-0.0362778455018997,-0.0078150462359189,0.0335510373115539
1769249798182,-0.0223541259765625,-0.997802734375,-0.0872650146484375,-0.0430657118558883,-0.0127922277897596,0.0315166488289833
1769249798192,-0.0197601318359375,-1.0010223388671875,-0.087890625,-0.045218076556921,-0.013587181456387,0.0338836647570133
1769249798204,-0.015106201171875,-1.00836181640625,-0.0906982421875,-0.0426870100200176,-0.0134913073852658,0.0270811524242162
1769249798212,-0.016387939453125,-1.0107269287109375,-0.0988006591796875,-0.029765885323286,0.0019342538435012,0.0236528646200895
1769249798222,-0.006195068359375,-0.9845123291015624,-0.0953521728515625,-0.0192930046468973,0.0037023264449089,0.019437612965703
1769249798232,-0.007537841796875,-0.98089599609375,-0.09124755859375,-0.01593236066401,0.0058751995675265,0.0121400197967886
1769249798242,-0.0149383544921875,-0.99676513671875,-0.095306396484375,-0.0149067780002951,0.0065279402770102,0.0043185818940401
1769249798252,-0.0101318359375,-1.001617431640625,-0.09375,-0.0104539720341563,-0.0074307518079876,-0.0039313584566116
1769249798263,-0.0052947998046875,-0.9923095703125,-0.09228515625,-0.0064392569474875,-0.0177710074931383,-0.0029073730111122
1769249798273,-0.001800537109375,-0.985687255859375,-0.09197998046875,-0.0053982273675501,-0.0166743174195289,-0.0041049965657293
1769249798283,-0.0047607421875,-0.9844970703125,-0.0968170166015625,-0.0071519189514219,-0.0138566931709647,-0.0017459683585911
1769249798293,-0.01055908203125,-0.9875946044921876,-0.093292236328125,-0.0201412215828895,-0.0116009963676333,0.0005760417552664
1769249798303,-0.0157928466796875,-0.995391845703125,-0.0899658203125,-0.0340059027075767,-0.0090693952515721,0.0012636699248105
1769249798313,-0.017486572265625,-0.999359130859375,-0.0915069580078125,-0.0483582131564617,-0.0090685961768031,0.0018674085149541
1769249798323,-0.017333984375,-1.0030975341796875,-0.09307861328125,-0.0580864734947681,-0.0053553506731987,0.000557665945962
1769249798333,-0.02093505859375,-1.0007476806640625,-0.0999908447265625,-0.0566773936152458,-0.0013337110867723,-0.0008253136184066
1769249798343,-0.0242462158203125,-0.9978179931640624,-0.110382080078125,-0.0488889776170253,0.0007669904152862,-0.0020378509070724
1769249798353,-0.0185546875,-0.989471435546875,-0.114227294921875,-0.0328133404254913,0.0005195827106945,0.0003805657033808
1769249798363,-0.017913818359375,-0.986785888671875,-0.11859130859375,-0.0193734318017959,-0.0002545981842558,0.0007486145477741
1769249798373,-0.0198822021484375,-0.984588623046875,-0.116729736328125,-0.0084661887958645,0.0018777948571369,-0.0011012171162292
1769249798383,-0.021820068359375,-0.983642578125,-0.1097869873046875,-0.0054488275200128,0.0027497138362377,-0.0011829761788249
1769249798393,-0.02313232421875,-0.9870147705078124,-0.0983428955078125,-0.0082792351022362,0.0020407803822308,-0.0051303133368492
1769249798403,-0.0211334228515625,-0.991455078125,-0.0883026123046875,-0.0128066092729568,0.0094749946147203,-0.0060967747122049
1769249798413,-0.0223388671875,-0.9895782470703124,-0.0884857177734375,-0.0141419181600213,0.0165438223630189,-0.0072011873126029
1769249798423,-0.0184326171875,-0.9916229248046876,-0.08819580078125,-0.0264694243669509,-0.0032250881195068,-0.0069745522923767
1769249798434,-0.0175933837890625,-1.01153564453125,-0.093048095703125,-0.0371803902089595,-0.0235561914741992,-0.0061252703890204
1769249798443,-0.0152587890625,-1.0191650390625,-0.1068115234375,-0.0191228277981281,0.0140564301982522,-0.0006761765689589
1769249798457,-0.0030059814453125,-0.96734619140625,-0.1123046875,0.0005161206354387,0.0310005266219377,0.010595385916531
1769249798464,-0.006195068359375,-0.9595184326171876,-0.1104278564453125,0.0073308832943439,-0.0002647181972861,0.0031422637403011
1769249798474,-0.023834228515625,-1.014923095703125,-0.11993408203125,0.0037340181879699,-0.0137070240452885,0.0020655477419495
1769249798483,-0.0193939208984375,-1.04541015625,-0.1165008544921875,0.0091626057401299,-0.0005257080192677,0.005468534771353
1769249798494,-0.005035400390625,-1.012176513671875,-0.1068878173828125,0.0359856970608234,0.0541156977415084,0.0167757850140333
1769249798504,0.002227783203125,-0.9365692138671876,-0.0903472900390625,0.0649020373821258,0.084993191063404,0.0287099424749612
1769249798514,-0.0126800537109375,-0.902191162109375,-0.073577880859375,0.0709687173366546,0.05514607578516,0.0258632879704237
1769249798525,-0.0379638671875,-0.94573974609375,-0.068756103515625,0.0535891912877559,-0.005011270288378,0.006860302761197
1769249798534,-0.0458221435546875,-1.0072784423828125,-0.0822906494140625,0.0314013324677944,-0.0216821264475584,-0.0086901606991887
1769249798544,-0.023101806640625,-1.0241241455078125,-0.093841552734375,0.0148378014564514,-0.0256462413817644,-0.0179667491465806
1769249798555,-0.006103515625,-1.020294189453125,-0.10028076171875,0.0082286354154348,-0.0152572495862841,-0.0221116933971643
1769249798564,-0.0046539306640625,-1.009857177734375,-0.102294921875,0.0015153386630117,-0.0186519809067249,-0.0223479159176349
1769249798574,-0.0120697021484375,-1.0117034912109375,-0.1026611328125,-0.0085101313889026,-0.0237058624625206,-0.0181438494473695
1769249798584,-0.014617919921875,-1.0080108642578125,-0.1029205322265625,-0.0168250519782304,-0.0133056854829192,-0.0094907069578766
1769249798595,-0.00897216796875,-0.9944000244140624,-0.0987548828125,-0.025531992316246,-0.0007880293414928,0.0057625477202236
1769249798604,-0.0091705322265625,-0.98236083984375,-0.095428466796875,-0.0343792773783206,0.0118566593155264,0.0176106858998537
1769249798615,-0.0125885009765625,-0.9755096435546876,-0.0940093994140625,-0.0415807329118251,0.0228398013859987,0.0276332255452871
1769249798625,-0.0198822021484375,-0.9705657958984376,-0.0902099609375,-0.0538749508559703,0.0094030890613794,0.0286745224148035
1769249798634,-0.0265960693359375,-0.9867095947265624,-0.0899200439453125,-0.0653033703565597,-0.0106457201763987,0.026683809235692
1769249798644,-0.0295867919921875,-1.0057525634765625,-0.0951995849609375,-0.0665073841810226,0.00028842035681,0.02532559633255
1769249798654,-0.02447509765625,-1.0012054443359375,-0.0999298095703125,-0.0597528107464313,-0.0057633467949926,0.0237031988799572
1769249798665,-0.0199127197265625,-1.0016937255859375,-0.102996826171875,-0.0503800846636295,-0.0140111567452549,0.0123054021969437
1769249798674,-0.0218505859375,-1.0064239501953125,-0.1107177734375,-0.0243101324886083,0.0051984903402626,0.0032562471460551
1769249798685,-0.018768310546875,-0.9846649169921876,-0.112152099609375,-0.0031635691411793,-0.0066592344082891,-0.0033060482237488
1769249798695,-0.0182952880859375,-0.9862823486328124,-0.1099853515625,0.01265534106642,-0.0302199535071849,-0.0112859439104795
1769249798705,-0.019287109375,-0.996734619140625,-0.110687255859375,0.0253687389194965,-0.0282758455723524,-0.0124034062027931
1769249798715,-0.00970458984375,-0.9902191162109376,-0.11077880859375,0.0330524928867816,-0.0243130624294281,-0.0121171167120337
1769249798725,-0.005615234375,-0.981781005859375,-0.10272216796875,0.0326434299349784,-0.0289514902979135,-0.009916546754539
1769249798735,-0.0069732666015625,-0.983062744140625,-0.09393310546875,0.0239772386848926,-0.0252339839935302,-0.0041763694025576
1769249798745,-0.0072174072265625,-0.9856719970703124,-0.0848388671875,0.0066496469080448,-0.0176471713930368,-0.0015733955660834
1769249798756,-0.01287841796875,-0.9898681640625,-0.079193115234375,-0.0167531464248895,-0.0159853585064411,0.0056775929406285
1769249798765,-0.01605224609375,-0.9951171875,-0.07843017578125,-0.0347641073167324,-0.0086510125547647,0.008300008252263
1769249798775,-0.0148162841796875,-0.9989776611328124,-0.0847625732421875,-0.0505356118083,-0.0040280311368405,0.0120657179504632
1769249798785,-0.0158538818359375,-0.9975433349609376,-0.092864990234375,-0.0596332363784313,-0.0011555455857887,0.0161012057214975
1769249798795,-0.01702880859375,-0.9936981201171876,-0.0967864990234375,-0.0644002929329872,-0.002479403046891,0.0176301263272762
1769249798805,-0.0194854736328125,-0.9946441650390624,-0.10247802734375,-0.0647449046373367,-0.0062637547962367,0.0223854668438434
1769249798815,-0.0124969482421875,-0.9926910400390624,-0.105804443359375,-0.0596268437802791,-0.0069252839311957,0.0261421222239732
1769249798825,-0.0203704833984375,-0.9913482666015624,-0.1063079833984375,-0.0528317876160144,0.0060507017187774,0.0141224768012762
1769249798835,-0.0331268310546875,-0.994049072265625,-0.107177734375,-0.0455059669911861,0.0034405377227813,0.0097594195976853
1769249798845,-0.027923583984375,-0.99365234375,-0.1074676513671875,-0.0383047796785831,0.0001944107643794,0.0017872473690658
1769249798855,-0.026885986328125,-0.988525390625,-0.1083831787109375,-0.0296753365546464,0.0022232069168239,-0.0061111557297408
1769249798865,-0.025604248046875,-0.9835968017578124,-0.1088714599609375,-0.021073592826724,0.0016365124611184,-0.0116638466715812
1769249798876,-0.02203369140625,-0.9809722900390624,-0.1060943603515625,-0.0148753523826599,-0.0025113609153777,-0.0158415473997592
1769249798885,-0.0217437744140625,-0.993133544921875,-0.10723876953125,-0.0237404834479093,-0.0302758794277906,-0.0191220287233591
1769249798896,-0.0198822021484375,-1.0186767578125,-0.1077880859375,-0.0216506998986005,-0.0321036092936992,-0.0212576184421777
1769249798905,-0.0126953125,-1.0040130615234375,-0.1135406494140625,0.0035507925786077,0.0101264035329222,-0.0176226701587438
1769249798916,-0.0068511962890625,-0.9510498046875,-0.11456298828125,0.0070280819199979,-0.0003190466959495,-0.0199974104762077
1769249798926,-0.0143280029296875,-0.9761199951171876,-0.10577392578125,-0.0104286726564168,-0.028326978906989,-0.0286875702440738
1769249798936,-0.0210418701171875,-1.0485076904296875,-0.1087493896484375,-0.0341632962226867,-0.0223061051219701,-0.0252526253461837
1769249798946,-0.012054443359375,-1.0460205078125,-0.1027069091796875,-0.0317938812077045,0.0215492341667413,-0.0113368099555373
1769249798956,0.003204345703125,-0.98358154296875,-0.0969696044921875,-0.0108819426968693,0.069125011563301,0.0028839372098445
1769249798966,-0.0030364990234375,-0.9223175048828124,-0.08770751953125,0.0229772217571735,0.09538085013628,0.0129663981497287
1769249798976,-0.025299072265625,-0.902008056640625,-0.087188720703125,0.0300774741917848,0.0511934123933315,0.0097234677523374
1769249798986,-0.044158935546875,-0.956329345703125,-0.092926025390625,0.0188242886215448,-0.0055305864661931,-0.008274707943201
1769249798996,-0.04388427734375,-1.01031494140625,-0.1040191650390625,0.0049084722995758,-0.0234643127769231,-0.0235069245100021
1769249799006,-0.02886962890625,-1.02545166015625,-0.115447998046875,-0.0038663772866129,-0.0240659210830926,-0.0359220467507839
1769249799016,-0.017852783203125,-1.017608642578125,-0.1175384521484375,-0.0038378813769668,-0.011363442055881,-0.04196422919631
1769249799026,-0.016754150390625,-1.00665283203125,-0.115142822265625,-0.0052975597791373,-0.0098592890426516,-0.0425386726856231
1769249799036,-0.021942138671875,-1.0037078857421875,-0.1097564697265625,-0.0122718466445803,-0.0137943755835294,-0.0371894463896751
1769249799046,-0.0226898193359375,-1.0044097900390625,-0.10552978515625,-0.0195239000022411,-0.0154284909367561,-0.029814887791872
1769249799056,-0.01776123046875,-1.0020599365234375,-0.108123779296875,-0.0237133186310529,-0.0040011331439018,-0.0224477853626012
1769249799066,-0.0167388916015625,-0.991943359375,-0.1089935302734375,-0.0247285161167383,0.0135467015206813,-0.0137080885469913
1769249799077,-0.016815185546875,-0.97283935546875,-0.102630615234375,-0.0239407531917095,0.0158378183841705,-0.0059244679287076
1769249799086,-0.0213470458984375,-0.971588134765625,-0.0998382568359375,-0.0261983145028352,-0.0050845071673393,-0.0065918564796447
1769249799097,-0.02471923828125,-0.9920654296875,-0.1011505126953125,-0.0271804872900247,-0.017028784379363,-0.0037635792978107
1769249799107,-0.02032470703125,-1.004974365234375,-0.107757568359375,-0.0226331409066915,-0.0145144937559962,0.0009787116432562
1769249799117,-0.010467529296875,-1.0041046142578125,-0.10992431640625,-0.0209353752434253,-0.0150260869413614,0.0039153792895376
1769249799127,-0.005859375,-1.011016845703125,-0.10797119140625,-0.0113197658210992,-0.0021459751296788,0.0024256070610135
1769249799137,-0.0050201416015625,-0.993133544921875,-0.104583740234375,-0.0016370450612157,0.006491987966001,0.0043468116782605
1769249799147,-0.0054779052734375,-0.9766387939453124,-0.0944366455078125,-0.0038200381677597,-0.0068190237507224,-0.0004588626616168
1769249799157,-0.010162353515625,-0.991241455078125,-0.0919342041015625,-0.0087737841531634,-0.0122012728825211,-0.0042703789658844
1769249799167,-0.009765625,-0.9967803955078124,-0.0948486328125,-0.0193782243877649,-0.0079692434519529,-0.0046996804885566
1769249799177,-0.0010528564453125,-0.991180419921875,-0.0899658203125,-0.0293549597263336,-0.0073106433264911,-0.0047164582647383
1769249799187,0.0002288818359375,-0.9898529052734376,-0.0916595458984375,-0.0320367626845836,-0.0119900833815336,-0.0058376491069793
1769249799197,-0.00579833984375,-0.988037109375,-0.101593017578125,-0.0335813947021961,-0.0132313827052712,-0.0065303370356559
1769249799207,-0.0061798095703125,-0.9867706298828124,-0.10650634765625,-0.0327121391892433,-0.01149473618716,-0.0027984497137367
1769249799217,-0.0085906982421875,-0.9892730712890624,-0.115081787109375,-0.0302316714078187,-0.0190589129924774,-0.0002977414114866
1769249799227,-0.010101318359375,-0.993804931640625,-0.1188812255859375,-0.0332644805312156,-0.0217353887856006,0.0022905848454684
1769249799240,-0.0125579833984375,-1.00054931640625,-0.11309814453125,-0.0455419197678566,-0.0148929292336106,0.0009784454014152
1769249799247,-0.017974853515625,-1.000396728515625,-0.105926513671875,-0.0591269694268703,-0.0060959756374359,-0.0058997008018195
1769249799258,-0.0221099853515625,-0.997772216796875,-0.0993194580078125,-0.0745964720845222,0.0035851474385708,-0.0111237578094005
1769249799267,-0.021881103515625,-0.9945526123046876,-0.09649658203125,-0.0847782716155052,0.0089546125382184,-0.0185308065265417
1769249799277,-0.0239410400390625,-0.988922119140625,-0.103668212890625,-0.0813177600502967,0.0097085535526275,-0.0210373736917972
1769249799289,-0.0208282470703125,-0.987518310546875,-0.114227294921875,-0.0711418241262435,0.0048304414376616,-0.024500548839569
1769249799297,-0.0189056396484375,-0.9883575439453124,-0.12518310546875,-0.0525974296033382,0.0048038098029792,-0.0229655038565397
1769249799308,-0.0143890380859375,-0.9854583740234376,-0.12896728515625,-0.0331608839333057,-0.003450924064964,-0.0190844777971506
1769249799318,-0.01458740234375,-0.98687744140625,-0.1290740966796875,-0.0153403403237462,-0.0067473850212991,-0.019407520070672
1769249799328,-0.0182647705078125,-0.9862060546875,-0.128509521484375,0.0011787151452153,-0.0051287156529724,-0.0260355956852436
1769249799339,-0.0226898193359375,-0.9875335693359376,-0.1272735595703125,0.0110984575003385,-0.0126260463148355,-0.0301357973366975
1769249799348,-0.0228424072265625,-1.0068511962890625,-0.1264495849609375,0.0034349451307207,-0.0342668928205966,-0.0349172390997409
1769249799358,-0.0167083740234375,-1.0295257568359375,-0.1236572265625,0.0122271049767732,-0.0015848471084609,-0.0343297459185123
1769249799368,-0.0059356689453125,-0.97955322265625,-0.120635986328125,0.0247277170419693,0.0197396166622638,-0.0249924343079328
1769249799378,-0.002349853515625,-0.93780517578125,-0.108917236328125,0.0184000469744205,-0.0012205267557874,-0.029332322999835
1769249799388,-0.0188751220703125,-0.9996185302734376,-0.1092071533203125,0.0165105331689119,0.010818026959896,-0.0409695357084274
1769249799401,-0.021942138671875,-1.031707763671875,-0.122161865234375,0.0141403200104832,0.0418220162391662,-0.0270622447133064
1769249799408,-0.001983642578125,-1.0104827880859375,-0.109588623046875,0.0196892824023962,0.055396944284439,-0.0144388601183891
1769249799418,0.005706787109375,-0.9774627685546876,-0.1019287109375,0.0487611480057239,0.0775379315018653,-0.0045707831159234
1769249799428,-0.0028533935546875,-0.9288177490234376,-0.1008453369140625,0.0752356350421905,0.080498568713665,0.0042610578238964
1769249799438,-0.02093505859375,-0.9170989990234376,-0.096588134765625,0.0763451009988784,0.0240259747952222,-0.0037558560725301
1769249799448,-0.0352325439453125,-0.9659423828125,-0.095367431640625,0.0636346340179443,-0.0253796577453613,-0.0211028885096311
1769249799458,-0.0307159423828125,-1.0095367431640625,-0.1011810302734375,0.0466545857489109,-0.0532637536525726,-0.0322261117398738
1769249799469,-0.0164947509765625,-1.03240966796875,-0.1056976318359375,0.0304500516504049,-0.0528086200356483,-0.0408403724431991
1769249799478,-0.0057830810546875,-1.0284881591796875,-0.10589599609375,0.0237854905426502,-0.0251980312168598,-0.0418260097503662
1769249799489,-0.0030975341796875,-1.0083465576171875,-0.1046905517578125,0.0184352006763219,-0.0176756661385297,-0.038552451878786
1769249799498,-0.0053558349609375,-0.9984893798828124,-0.104522705078125,0.0091346427798271,-0.0269903391599655,-0.0285288468003273
1769249799508,-0.009735107421875,-0.999267578125,-0.1053314208984375,-0.0017675400013104,-0.0258739423006773,-0.0163358300924301
1769249799519,-0.0063323974609375,-0.9981689453125,-0.1040802001953125,-0.0138673456385731,-0.0145128965377807,-0.0064531057141721
1769249799529,-0.0045013427734375,-0.985870361328125,-0.100860595703125,-0.0296433791518211,-0.000834634702187,0.0085364961996674
1769249799539,-0.0026702880859375,-0.9734649658203124,-0.0951690673828125,-0.0479100011289119,-0.0019646140281111,0.0193265601992607
1769249799549,-0.003814697265625,-0.979339599609375,-0.0899505615234375,-0.0635480806231498,-0.0037651772145181,0.0239013377577066
1769249799559,-0.0068206787109375,-0.9954071044921876,-0.0943756103515625,-0.070361778140068,0.004512726329267,0.0237969420850276
1769249799569,-0.0091400146484375,-0.9994659423828124,-0.100738525390625,-0.0728611573576927,0.0072464612312614,0.0258212108165025
1769249799579,-0.008270263671875,-1.0059051513671875,-0.1048431396484375,-0.0781746953725814,0.0019816581625491,0.0129384351894259
1769249799589,-0.0123291015625,-1.0148773193359375,-0.109344482421875,-0.0694067701697349,0.0187925957143306,0.0088169276714324
1769249799599,-0.0062713623046875,-0.9817657470703124,-0.110107421875,-0.0588342882692813,0.0145097002387046,0.0049857036210596
1769249799609,-0.0050811767578125,-0.97528076171875,-0.1097869873046875,-0.046773362904787,-0.009777795523405,-0.0047572045587003
1769249799619,-0.0082550048828125,-0.9969329833984376,-0.117218017578125,-0.0345758199691772,-0.012663597241044,-0.013227654621005
1769249799629,-0.0057830810546875,-0.99505615234375,-0.1197662353515625,-0.0282548069953918,-0.012189288623631,-0.0183142926543951
1769249799640,0.000579833984375,-0.988800048828125,-0.1130218505859375,-0.0220909211784601,-0.0134340496733784,-0.0248014871031045
1769249799649,-0.000946044921875,-0.9893035888671876,-0.1122283935546875,-0.0167643334716558,-0.0190605092793703,-0.0315536633133888
1769249799659,-0.0041351318359375,-0.988922119140625,-0.1147613525390625,-0.0118380170315504,-0.0189968608319759,-0.0316207781434059
1769249799669,-0.0031280517578125,-0.986968994140625,-0.1177825927734375,-0.0080989394336938,-0.0205185916274786,-0.0309307519346475
1769249799680,-0.005767822265625,-0.9873199462890624,-0.11785888671875,-0.0165520794689655,-0.0212168712168931,-0.0271799564361572
1769249799689,-0.01043701171875,-0.992034912109375,-0.1148223876953125,-0.0268819481134414,-0.0229002553969621,-0.0282066036015748
1769249799700,-0.0133056640625,-0.9966888427734376,-0.1146697998046875,-0.0335214734077453,-0.0254326555877923,-0.0240981448441743
1769249799709,-0.0114593505859375,-0.99835205078125,-0.11480712890625,-0.0422334745526313,-0.0139954444020986,-0.0217913147062063
1769249799719,-0.0131988525390625,-0.9968719482421876,-0.11669921875,-0.0474532693624496,-0.0051090084016323,-0.0235655140131711
1769249799729,-0.0158233642578125,-0.9933929443359376,-0.120819091796875,-0.0454990416765213,-0.0004141215467825,-0.023559121415019
1769249799739,-0.0183563232421875,-0.9906768798828124,-0.123687744140625,-0.0398659221827983,0.0015917713753879,-0.0272361487150192
1769249799750,-0.0212554931640625,-0.9897918701171876,-0.1251220703125,-0.0287799835205078,0.0015406386228278,-0.0321496799588203
1769249799760,-0.02215576171875,-0.9893798828125,-0.1253662109375,-0.0157792288810014,0.005397162400186,-0.03773033618927
1769249799770,-0.018951416015625,-0.9844207763671876,-0.120330810546875,-0.0121567975729703,-0.0029049760196357,-0.0426627732813358
1769249799780,-0.0152740478515625,-0.98309326171875,-0.1137847900390625,-0.0082179820165038,-0.013905961997807,-0.046942476183176
1769249799791,-0.0162353515625,-0.986053466796875,-0.111175537109375,-0.0075426045805215,-0.0154354153200984,-0.04977847635746
1769249799800,-0.0127410888671875,-0.9890594482421876,-0.1111907958984375,-0.0086310384795069,-0.0225117001682519,-0.0457941181957721
1769249799810,-0.003387451171875,-1.010955810546875,-0.1130218505859375,-0.0148814776912331,-0.0360227152705192,-0.0484644696116447
1769249799820,0.0013427734375,-1.032684326171875,-0.1190032958984375,-0.0074302195571362,-0.0041814292781054,-0.0372642800211906
1769249799830,0.0179290771484375,-0.979095458984375,-0.118743896484375,-0.0011827098205685,0.0031004520133137,-0.0178668815642595
1769249799840,0.020294189453125,-0.955078125,-0.10784912109375,-0.002730805426836,-0.0038948729634284,-0.0136942407116293
1769249799850,0.0048065185546875,-0.990509033203125,-0.1086883544921875,-0.0011150655336678,0.0242803059518337,-0.0074539217166602
1769249799860,0.000823974609375,-0.992431640625,-0.1057281494140625,-0.0129794478416442,0.0347358770668506,0.0018775284988805
1769249799870,0.0030364990234375,-1.0078887939453125,-0.1020050048828125,-0.0105429217219352,0.0634175911545753,0.0076267607510089
1769249799880,0.008270263671875,-0.9720916748046876,-0.102264404296875,0.001114000333473,0.066800870001316,0.0198775678873062
1769249799890,0.004669189453125,-0.9430389404296876,-0.0996551513671875,0.0072504561394453,0.0403689928352832,0.0254861842840909
1769249799900,-0.0120697021484375,-0.9490203857421876,-0.10626220703125,0.0094574177637696,0.0049742520786821,0.0178988389670848
1769249799910,-0.0196380615234375,-0.9712371826171876,-0.11566162109375,0.0115221664309501,-0.0375159494578838,-0.0013779195724055
1769249799920,-0.0142364501953125,-1.0040435791015625,-0.1217041015625,0.0054514906369149,-0.0528142116963863,-0.0203265771269798
1769249799931,-0.00836181640625,-1.0290069580078125,-0.1291961669921875,-0.0036298886407166,-0.0394845604896545,-0.0330884456634521
1769249799941,-0.0015106201171875,-1.024932861328125,-0.1273956298828125,-0.00830639898777,-0.0229101087898015,-0.0409703366458416
1769249799951,0.001434326171875,-1.0044708251953125,-0.120819091796875,-0.012385562993586,-0.0289285872131586,-0.0393391512334346
1769249799961,-0.0011138916015625,-0.9946746826171876,-0.1138458251953125,-0.0255410466343164,-0.0406315810978412,-0.0374147482216358
1769249799971,-0.0063934326171875,-0.999359130859375,-0.1102447509765625,-0.0420201532542705,-0.0264454558491706,-0.0333832576870918
1769249799981,-0.0063934326171875,-0.9946136474609376,-0.1113739013671875,-0.0532227419316768,-0.0055244611576199,-0.0216533634811639
1769249799991,-0.0019683837890625,-0.9850006103515624,-0.115447998046875,-0.0530461743474006,0.0088518150150775,-0.0101514374837279
1769249800001,-0.0035247802734375,-0.980133056640625,-0.123992919921875,-0.0463882721960544,0.0085002770647406,-0.003688744502142
1769249800011,-0.004150390625,-0.9884033203125,-0.1244659423828125,-0.042708583176136,0.0085213165730237,-8.255799184553325e-05
1769249800021,-0.00830078125,-0.9962921142578124,-0.12603759765625,-0.0364677309989929,0.0123996781185269,-0.0015273229219019
1769249800031,-0.006744384765625,-0.994384765625,-0.1252593994140625,-0.0273948721587657,0.00771837355569,-0.0008154599345289
1769249800041,-0.00634765625,-1.0019989013671875,-0.12384033203125,-0.0182386580854654,0.0044983453117311,-0.0105394599959254
1769249800051,-0.007843017578125,-1.000579833984375,-0.127777099609375,-0.0030852721538394,0.0144681548699736,-0.0117980698123574
1769249800061,0.0023651123046875,-0.9678802490234376,-0.123046875,0.0122287031263113,-0.0045739789493381,-0.0095391767099499
1769249800073,0.003509521484375,-0.97540283203125,-0.122222900390625,0.0214200709015131,-0.0211881101131439,-0.0133424373343586
1769249800081,0.0003662109375,-0.9972686767578124,-0.124053955078125,0.0267120376229286,-0.0160034671425819,-0.0146449888125061
1769249800091,0.0079803466796875,-0.9987945556640624,-0.118408203125,0.0296159498393535,-0.0049705239944159,-0.0155994659289717
1769249800101,0.0106201171875,-0.9893035888671876,-0.1149139404296875,0.0313294269144535,-0.0088321072980761,-0.0145022431388497
1769249800111,0.0106964111328125,-0.9849395751953124,-0.11138916015625,0.0320418216288089,-0.0138098215684294,-0.014112090691924
1769249800122,0.0092926025390625,-0.98590087890625,-0.1092071533203125,0.0309025216847658,-0.0121384216472506,-0.0082989428192377
1769249800131,0.0072784423828125,-0.985931396484375,-0.11029052734375,0.0262417234480381,-0.0111413346603512,-0.0005587312043644
1769249800141,0.0039215087890625,-0.987823486328125,-0.1109466552734375,0.017836520448327,-0.0137799941003322,0.0057260626927018
1769249800152,-0.0005035400390625,-0.9959716796875,-0.11224365234375,0.0095098819583654,-0.0145419249311089,0.0110531840473413
1769249800162,-0.00341796875,-1.0011138916015625,-0.113037109375,0.001953961327672,-0.0106087019667029,0.0092467619106173
1769249800173,-0.0072174072265625,-0.99822998046875,-0.1162872314453125,-0.0056762616150081,-0.0052807820029556,0.0090049467980861
1769249800182,-0.0074310302734375,-0.992095947265625,-0.115936279296875,-0.0146644301712512,-0.0035113778430968,0.0080760363489389
1769249800192,-0.0085906982421875,-0.9898529052734376,-0.1109161376953125,-0.02165655978024,-0.0085095986723899,0.0039875512011349
1769249800202,-0.0125732421875,-0.9932708740234376,-0.110260009765625,-0.0258829966187477,-0.002691390691325,-0.0010410296963527
1769249800212,-0.010040283203125,-0.9932403564453124,-0.110198974609375,-0.0271818190813064,0.0049540121108293,-0.0031260184478014
1769249800222,-0.0074462890625,-0.989837646484375,-0.1139068603515625,-0.0278609264642,0.0037593182642012,-0.0059369849041104
1769249800232,-0.00823974609375,-0.9845428466796876,-0.1154327392578125,-0.0244797766208648,-0.0033582460600882,-0.0131315141916275
1769249800242,-0.0092926025390625,-0.983489990234375,-0.119110107421875,-0.0210632067173719,-0.0040940777398645,-0.016864201053977
1769249800252,-0.0088348388671875,-0.982574462890625,-0.12286376953125,-0.0149408662691712,0.0018935075495392,-0.0206900984048843
1769249800262,-0.0036773681640625,-0.984161376953125,-0.1192169189453125,-0.016710802912712,-0.0047063380479812,-0.023529827594757
1769249800274,-0.0016021728515625,-1.013824462890625,-0.1194610595703125,-0.027033481746912,-0.0220075640827417,-0.0272276252508163
1769249800282,0.0014801025390625,-1.02862548828125,-0.12103271484375,-0.0173076167702674,0.0066501796245574,-0.0216182097792625
1769249800292,0.013641357421875,-0.96923828125,-0.1252899169921875,-0.0061098239384591,0.0003800330741796,-0.0211140736937522
1769249800302,0.0065155029296875,-0.9649810791015624,-0.124755859375,0.0050016827881336,0.0170831121504306,-0.026876887306571
1769249800312,-0.0019683837890625,-0.974395751953125,-0.125701904296875,0.0208706613630056,0.0388659052550792,-0.0151749579235911
1769249800322,0.0056610107421875,-0.97381591796875,-0.1210174560546875,0.025357287377119,0.0388893410563468,-0.0119048627093434
1769249800332,0.003692626953125,-1.0047607421875,-0.123046875,0.0357209779322147,0.0553000085055828,-0.0047968858852982
1769249800343,0.0090484619140625,-0.97998046875,-0.1118011474609375,0.0446209982037544,0.060341902077198,0.0032136365771293
1769249800353,0.007080078125,-0.959564208984375,-0.1027374267578125,0.0447909086942672,0.0382890664041042,0.0034972631838172
1769249800363,-0.0078887939453125,-0.9645233154296876,-0.1033477783203125,0.0383519157767295,0.015116368420422,-0.0048461542464792
1769249800373,-0.011077880859375,-0.9859619140625,-0.1065673828125,0.033649306744337,-0.0132329808548092,-0.0146873332560062
1769249800382,-0.003387451171875,-1.013641357421875,-0.1175689697265625,0.0264795441180467,-0.0292316544800996,-0.0211481619626283
1769249800393,0.0055084228515625,-1.03106689453125,-0.1249847412109375,0.0260784719139337,-0.0214735995978117,-0.0236267652362585
1769249800403,0.0086517333984375,-1.013824462890625,-0.1240081787109375,0.0268499907106161,-0.0110342754051089,-0.0220855940133333
1769249800413,0.0076904296875,-0.9944000244140624,-0.11639404296875,0.0262611657381057,-0.0202916897833347,-0.019916983321309
1769249800423,0.0014495849609375,-0.99212646484375,-0.11334228515625,0.0237780343741178,-0.0205596033483743,-0.0129392342641949
1769249800433,-0.0005035400390625,-0.9980316162109376,-0.1163482666015625,0.0192538555711507,-0.0065524415113031,8.655273268232122e-05
1769249800443,0.002685546875,-0.9922332763671876,-0.1179351806640625,0.0170154683291912,0.013736318796873,0.0161334294825792
1769249800453,0.0034332275390625,-0.98095703125,-0.11419677734375,0.0069356705062091,0.026159431785345,0.0267253536731004
1769249800463,0.0009613037109375,-0.98297119140625,-0.101715087890625,-0.0036834180355072,0.0292915757745504,0.0311707016080617
1769249800473,-0.0058441162109375,-0.9954833984375,-0.1001129150390625,-0.0198061950504779,0.023025956004858,0.0285168625414371
1769249800483,-0.007720947265625,-1.0030059814453125,-0.09967041015625,-0.0281368289142847,0.0233982671052217,0.0313997343182563
1769249800493,-0.004302978515625,-0.9951171875,-0.1001739501953125,-0.0317976102232933,0.0160069297999143,0.0300788059830665
1769249800503,-0.0046234130859375,-0.9979248046875,-0.10626220703125,-0.0272960700094699,0.0112715633586049,0.0224621649831533
1769249800514,-0.0036773681640625,-0.9932403564453124,-0.1182861328125,-0.0116944732144474,0.0077468692325055,0.0227338075637817
1769249800524,0.0059967041015625,-0.9715118408203124,-0.1187591552734375,0.0008050735923461,-0.0140034332871437,0.0203830357640981
1769249800533,0.0022430419921875,-0.98419189453125,-0.11968994140625,0.0114646423608064,-0.0318801701068878,0.0097263967618346
1769249800543,-0.0034637451171875,-0.99884033203125,-0.119537353515625,0.0111471936106681,-0.0297467093914747,0.0005323658697307
1769249800553,0.0022430419921875,-0.9961700439453124,-0.1150360107421875,0.0052823801524937,-0.0204376298934221,-0.0047769118100404
1769249800564,0.0091094970703125,-0.9837646484375,-0.1024017333984375,-0.009589510038495,-0.0242076013237237,-0.0071050473488867
1769249800573,0.0070343017578125,-0.9882354736328124,-0.0962982177734375,-0.0218501705676317,-0.0193550549447536,-0.0101016359403729
1769249800584,0.0037689208984375,-0.9909515380859376,-0.1035003662109375,-0.0313691087067127,-0.0141981104388833,-0.0104052368551492
1769249800594,0.003143310546875,-0.9913177490234376,-0.11370849609375,-0.0343140326440334,-0.0101639544591307,-0.0049212551675736
1769249800604,0.0034942626953125,-0.993927001953125,-0.118682861328125,-0.0386046506464481,-0.0107996510341763,0.0025542378425598
1769249800614,0.004425048828125,-0.9978485107421876,-0.119384765625,-0.044024184346199,-0.0103325322270393,0.0104806041345
1769249800624,0.0040130615234375,-1.0007476806640625,-0.1198272705078125,-0.0479190573096275,-0.0062666842713952,0.0172586161643266
1769249800634,0.0011749267578125,-1.00335693359375,-0.1224822998046875,-0.0444220602512359,-0.000492152175866,0.0202000774443149
1769249800644,-0.00164794921875,-0.9971160888671876,-0.125274658203125,-0.0405799150466918,0.0050216563977301,0.0194844845682382
1769249800654,-0.0048828125,-0.9883270263671876,-0.1216583251953125,-0.0368411056697368,0.0048895636573433,0.0179827287793159
1769249800665,-0.0085601806640625,-0.9871826171875,-0.11968994140625,-0.0293107498437166,0.0046139266341924,0.0143453832715749
1769249800674,-0.0088958740234375,-0.9879302978515624,-0.121490478515625,-0.0182037707418203,0.0037289580795913,0.0133624104782938
1769249800684,-0.00750732421875,-0.98748779296875,-0.1233062744140625,-0.0030080403666943,0.0045582666061818,0.0083985449746251
1769249800694,-0.0089111328125,-0.9845733642578124,-0.12432861328125,0.015597335062921,0.0017811221769079,0.0039454731158912
1769249800704,-0.00811767578125,-0.98333740234375,-0.1283111572265625,0.0332024283707141,0.0076472670771181,0.0014466290595009
1769249800715,-0.00494384765625,-0.979705810546875,-0.1316375732421875,0.0520088709890842,0.0056323194876313,0.0032637037802487
1769249800725,-0.0010833740234375,-0.9898223876953124,-0.1286773681640625,0.0526978336274623,-0.0189883392304182,2.2903184799361043e-05
1769249800734,-0.0016632080078125,-1.0261077880859375,-0.121734619140625,0.0468228980898857,-0.0231529902666807,-0.0011930961627513
1769249800744,0.0027618408203125,-1.0191650390625,-0.1198577880859375,0.0527391098439693,0.005585447885096,0.0083018718287348
1769249800754,0.01470947265625,-0.9639434814453124,-0.1102752685546875,0.0509132482111454,0.0035204326268285,0.013790912926197
1769249800764,0.0049591064453125,-0.9796905517578124,-0.1050872802734375,0.0495510399341583,0.0240643229335546,0.0037744981236755
1769249800775,-0.00628662109375,-1.001312255859375,-0.1056365966796875,0.0392813608050346,0.0438657253980636,0.0074975974857807
1769249800784,0.001434326171875,-1.013397216796875,-0.098907470703125,0.0402068085968494,0.0670221745967865,0.0178096238523721
1769249800795,0.011260986328125,-0.98016357421875,-0.100830078125,0.0594952851533889,0.0786601901054382,0.0320058688521385
1769249800805,0.0167236328125,-0.935272216796875,-0.09832763671875,0.0816581100225448,0.0669803619384765,0.0504732951521873
1769249800815,0.0012969970703125,-0.927276611328125,-0.1002960205078125,0.0856203585863113,0.0157283637672662,0.0503489226102829
1769249800826,-0.02099609375,-0.964508056640625,-0.10552978515625,0.0743442699313163,-0.0270539876073598,0.0394818969070911
1769249800835,-0.0225067138671875,-1.0002593994140625,-0.1059112548828125,0.0602383054792881,-0.044213268905878,0.0224222186952829
1769249800845,-0.013031005859375,-1.0213623046875,-0.1093292236328125,0.0417780727148056,-0.0460527129471302,0.0011334413429722
1769249800855,-0.011383056640625,-1.02587890625,-0.11334228515625,0.0280103292316198,-0.0235977377742528,-0.0134937046095728
1769249800865,-0.0087738037109375,-1.0130462646484375,-0.106353759765625,0.0147597715258598,-0.0097410446032881,-0.0199372228235006
1769249800875,-0.0074920654296875,-1.0053863525390625,-0.099456787109375,0.0006045375484973,-0.0099895168095827,-0.016923589631915
1769249800885,-0.0064697265625,-1.003143310546875,-0.0987091064453125,-0.0128857046365737,-0.0030485205352306,-0.0101250717416405
1769249800895,-0.00592041015625,-0.9973907470703124,-0.103118896484375,-0.0232749618589878,0.0094678038731217,-0.000258326617768
1769249800905,-0.006591796875,-0.98651123046875,-0.1065673828125,-0.0291363131254911,0.0242174547165632,0.0081846928223967
1769249800915,-0.0083160400390625,-0.9781036376953124,-0.10284423828125,-0.0323171950876712,0.0241724476218223,0.0162418205291032
1769249800925,-0.0116729736328125,-0.9794158935546876,-0.1092071533203125,-0.032747559249401,0.0052437642589211,0.0192858129739761
1769249800935,-0.0139312744140625,-0.9940948486328124,-0.110626220703125,-0.0344423949718475,-0.0116374809294939,0.0150969270616769
1769249800945,-0.0147552490234375,-1.0028228759765625,-0.108245849609375,-0.0309392735362052,-0.0123165873810648,0.0179078932851552
1769249800955,-0.0087127685546875,-1.0011749267578125,-0.108551025390625,-0.0295315273106098,-0.0108393318951129,0.0152327483519911
1769249800965,-0.006927490234375,-1.0077972412109375,-0.1104278564453125,-0.0212818533182144,0.0101309306919574,0.0064549697563052
1769249800975,-0.005401611328125,-0.994293212890625,-0.1124267578125,-0.0081322286278009,0.0037971350830048,0.0075412732549011
1769249800985,0.001007080078125,-0.978851318359375,-0.1033935546875,8.468852320220321e-05,-0.0084986798465251,0.0056562880054116
1769249800996,0.003509521484375,-0.9833221435546876,-0.0996856689453125,0.000176034940523,-0.016202138736844,0.0013986921403557
1769249801007,0.0049591064453125,-0.997161865234375,-0.0997161865234375,-0.0017811221769079,-0.0124641265720129,-0.0020240023732185
1769249801016,0.0095367431640625,-0.995574951171875,-0.101715087890625,-0.0002093244547722,-0.0085620628669857,0.0017275925492867
1769249801026,0.01318359375,-0.9895172119140624,-0.106689453125,0.0051247207447886,-0.0140692135319113,0.0066776098683476
1769249801036,0.007843017578125,-0.99005126953125,-0.1113739013671875,0.0100126862525939,-0.0137333888560533,0.0116436062380671
1769249801046,0.004364013671875,-0.9853363037109376,-0.1127777099609375,0.0068019796162843,-0.0120425475761294,0.0175648797303438
1769249801056,0.003265380859375,-0.9845123291015624,-0.1089324951171875,0.0004596615908667,-0.014201040379703,0.02409228682518
1769249801066,-0.0028228759765625,-0.991973876953125,-0.1072845458984375,-0.0128875691443681,-0.0140420496463775,0.0270230956375598
1769249801076,-0.0079803466796875,-1.00152587890625,-0.1047821044921875,-0.0247034821659326,-0.0105381282046437,0.029076924547553
1769249801086,-0.00933837890625,-1.0050201416015625,-0.104461669921875,-0.0363233871757984,-3.0892668291926384e-05,0.0289485603570938
1769249801096,-0.0084991455078125,-0.99725341796875,-0.1072235107421875,-0.0379369966685771,0.0088478196412324,0.0274926107376813
1769249801109,-0.01031494140625,-0.9891510009765624,-0.1119537353515625,-0.0386406034231185,0.0159246381372213,0.0231966655701398
1769249801116,-0.013641357421875,-0.984222412109375,-0.11260986328125,-0.0316463448107242,0.0109490538015961,0.010937069542706
1769249801126,-0.0260467529296875,-0.9902496337890624,-0.1185150146484375,-0.020878916606307,0.0050115366466343,-0.0014024205738678
1769249801136,-0.0312957763671875,-0.992828369140625,-0.1231536865234375,-0.0074288877658545,0.0029771476984024,-0.0110704945400357
1769249801146,-0.022705078125,-0.9846649169921876,-0.1196136474609375,0.0007052050787024,-0.0023313311394304,-0.0164205189794302
1769249801156,-0.01568603515625,-0.98443603515625,-0.1139373779296875,0.0099442433565855,-0.0002074602525681,-0.0243833698332309
1769249801166,-0.0133514404296875,-0.980926513671875,-0.1120147705078125,0.0196741018444299,0.0015281217638403,-0.0296247377991676
1769249801176,-0.0126190185546875,-0.98126220703125,-0.1143341064453125,0.0223905257880687,-0.0079937446862459,-0.0302947890013456
1769249801186,-0.0076751708984375,-0.999420166015625,-0.11248779296875,0.0098132155835628,-0.0334205403923988,-0.0267469249665737
1769249801197,-0.0010833740234375,-1.023040771484375,-0.1138153076171875,0.0195254981517791,-0.0081327613443136,-0.0193984657526016
1769249801207,0.0089263916015625,-0.9888458251953124,-0.120941162109375,0.0387729629874229,0.0258515700697898,-0.0060520335100591
1769249801217,0.0106658935546875,-0.9481658935546876,-0.1099700927734375,0.0293496325612068,0.0049249837175011,0.0010293117957189
1769249801227,0.00030517578125,-1.0004425048828125,-0.1002655029296875,0.021466676145792,0.0047412258572876,-0.00464508542791
1769249801237,-0.0048828125,-1.04296875,-0.1104583740234375,0.0057090185582637,0.0059351208619773,0.0062997075729072
1769249801247,0.0098724365234375,-1.0338134765625,-0.1020660400390625,0.0209327116608619,0.050653588026762,0.0251615457236766
1769249801257,0.0185089111328125,-0.964752197265625,-0.100250244140625,0.0522365719079971,0.0826117917895317,0.0372086204588413
1769249801267,0.00567626953125,-0.9106597900390624,-0.0928497314453125,0.0808024406433105,0.0841841176152229,0.0464577786624431
1769249801277,-0.019134521484375,-0.914459228515625,-0.090484619140625,0.0751762464642524,0.0193883460015058,0.0350458696484565
1769249801287,-0.0383453369140625,-0.9808197021484376,-0.08917236328125,0.0482668653130531,-0.008460596203804,0.0138311274349689
1769249801297,-0.0353851318359375,-1.014984130859375,-0.0916900634765625,0.0100366547703742,0.0050315102562308,-0.0169142689555883
1769249801309,-0.033355712890625,-1.016693115234375,-0.082763671875,-0.0670458823442459,0.0431645140051841,-0.069240853190422
1769249801317,-0.0549468994140625,-1.02056884765625,-0.040191650390625,-0.1364470571279525,0.0609315261244773,-0.1043618246912956
1769249801328,-0.044708251953125,-1.0170440673828125,-0.040130615234375,-0.1908309310674667,0.0475789718329906,-0.1100133210420608
1769249801337,-0.0145721435546875,-1.0117645263671875,-0.06341552734375,-0.2305104434490203,0.0521348416805267,-0.0963054969906807
1769249801347,0.005889892578125,-1.00213623046875,-0.091156005859375,-0.2314036637544632,0.0553900226950645,-0.0678482875227928
1769249801357,0.02606201171875,-0.98406982421875,-0.127593994140625,-0.2030681669712066,0.044556550681591,-0.0298058316111564
1769249801367,0.03253173828125,-0.9748077392578124,-0.15435791015625,-0.1642145067453384,0.0428702346980571,-0.0060301953926682
1769249801377,0.0162200927734375,-0.9759521484375,-0.1651611328125,-0.1211996600031852,0.0240086633712053,0.0054016895592212
1769249801387,0.002899169921875,-0.98114013671875,-0.1639862060546875,-0.0918910428881645,-0.0197955425828695,0.0175507646054029
1769249801398,0.0005950927734375,-0.9997100830078124,-0.1553192138671875,-0.0632953494787216,-0.041933599859476,0.0222626943141222
1769249801407,-0.0033111572265625,-1.010284423828125,-0.1470794677734375,-0.0431818254292011,-0.0352056585252285,0.023264043033123
1769249801417,-0.002166748046875,-1.0091552734375,-0.13494873046875,-0.0296284649521112,-0.0446545518934726,0.0170168001204729
1769249801428,0.000579833984375,-1.007476806640625,-0.1264801025390625,-0.0157091878354549,-0.0373814590275287,0.0145397940650582
1769249801438,0.00433349609375,-0.9921875,-0.1176605224609375,-0.0046860980801284,-0.0328386388719081,0.0111029846593737
1769249801448,0.008819580078125,-0.98175048828125,-0.109954833984375,0.0009936253773048,-0.03801129758358,0.0150463273748755
1769249801458,0.0142059326171875,-0.98822021484375,-0.1140594482421875,0.0088422270491719,-0.0443948954343795,0.0183377284556627
1769249801468,0.0189666748046875,-0.990936279296875,-0.1221160888671875,0.0227508526295423,-0.0392318256199359,0.0286548137664794
1769249801478,0.0220947265625,-0.9787139892578124,-0.126007080078125,0.0348397381603717,-0.0277083273977041,0.0372544266283512
1769249801488,0.01593017578125,-0.9710235595703124,-0.1295013427734375,0.0495939180254936,-0.035070102661848,0.0478639304637908
1769249801498,0.0127105712890625,-0.9728851318359376,-0.1396636962890625,0.0675444230437278,-0.0387119762599468,0.0563077479600906
1769249801508,0.0057525634765625,-0.9770965576171876,-0.1422576904296875,0.0750795677304267,-0.0381116978824138,0.0585509277880191
1769249801518,-0.0062713623046875,-0.9835662841796876,-0.1357879638671875,0.0730502381920814,-0.0340069681406021,0.0598915629088878
1769249801528,-0.0096588134765625,-0.9916839599609376,-0.128936767578125,0.0679942294955253,-0.030141657218337,0.0615443214774131
1769249801538,-0.005859375,-0.9964447021484376,-0.1269073486328125,0.0671532079577446,-0.0213654767721891,0.0610359236598014
1769249801548,-0.010498046875,-0.9950408935546876,-0.1296234130859375,0.0688858553767204,-0.0102497078478336,0.0607046261429786
1769249801558,-0.0182342529296875,-0.9899139404296876,-0.1288299560546875,0.0718592777848243,-0.0080579267814755,0.049948651343584
1769249801568,-0.026947021484375,-0.9942626953125,-0.12396240234375,0.0768180787563324,-0.0048019457608461,0.0333262644708156
1769249801578,-0.037994384765625,-0.993560791015625,-0.1240234375,0.0825023353099823,-0.0046751792542636,0.0162064004689455
1769249801588,-0.0350341796875,-0.9901580810546876,-0.1155242919921875,0.0883008316159248,-0.0103897899389266,0.0013062804937362
1769249801598,-0.0291900634765625,-0.9881134033203124,-0.111602783203125,0.0909677222371101,-0.0134252617135643,-0.0130308475345373
1769249801608,-0.028045654296875,-0.9915771484375,-0.105224609375,0.0861838832497596,-0.0096414424479007,-0.0208152662962675
1769249801618,-0.01885986328125,-0.9895172119140624,-0.096343994140625,0.0850054398179054,-0.0089612705633044,-0.0253975018858909
1769249801629,-0.012420654296875,-0.9869232177734376,-0.0987396240234375,0.0934623032808303,-0.0124398916959762,-0.0253495648503303
1769249801638,-0.0098114013671875,-0.99029541015625,-0.1053466796875,0.0877266526222229,-0.0324687287211418,-0.020183565095067
1769249801649,-0.001739501953125,-1.010986328125,-0.1069793701171875,0.0815145671367645,-0.0513212457299232,-0.0169869735836982
1769249801659,-0.0005645751953125,-1.0148162841796875,-0.1120452880859375,0.1030542105436325,-0.0062805325724184,-0.0088728535920381
1769249801669,0.0043182373046875,-0.95892333984375,-0.110626220703125,0.1094780266284942,0.0209071468561887,-0.0005118595436215
1769249801679,-0.0015869140625,-0.94305419921875,-0.0869140625,0.0682046189904213,-0.0414731428027153,0.0018450380302965
1769249801689,-0.010650634765625,-1.03564453125,-0.072906494140625,0.0181691497564315,-0.0623230300843715,0.0013025520602241
1769249801699,-0.00555419921875,-1.0676422119140625,-0.0784454345703125,-0.0058344532735645,-0.0075178374536335,0.0205859690904617
1769249801709,0.0190582275390625,-1.00665283203125,-0.0761566162109375,-0.003874899353832,0.0623744279146194,0.0465576499700546
1769249801719,0.0238494873046875,-0.92974853515625,-0.0668792724609375,0.0196349546313285,0.094597615301609,0.0646777972579002
1769249801729,-0.0032501220703125,-0.8996734619140625,-0.06451416015625,0.0237897522747516,0.0664629116654396,0.0681782513856887
1769249801739,-0.029632568359375,-0.94122314453125,-0.0677490234375,0.0043851612135767,0.01039245352149,0.0550667159259319
1769249801749,-0.038299560546875,-0.9957427978515624,-0.07757568359375,-0.0274595879018306,-0.0160948131233453,0.0300875939428806
1769249801759,-0.035247802734375,-1.0209503173828125,-0.0861053466796875,-0.0509012639522552,-0.026158632710576,0.0079498020932078
1769249801769,-0.0209503173828125,-1.02008056640625,-0.098663330078125,-0.0610028989613056,-0.0219308659434318,-0.0010865697404369
1769249801780,-0.0121917724609375,-1.0082244873046875,-0.1095733642578125,-0.0664810240268707,-0.0156551264226436,-0.0081042656674981
1769249801794,-0.0152130126953125,-1.00494384765625,-0.1090087890625,-0.0748705118894577,-0.011550928466022,-0.0063010388985276
1769249801799,-0.0165252685546875,-1.0068359375,-0.1088409423828125,-0.0824685096740722,-0.0088606029748916,3.27568814100232e-05
1769249801809,-0.01519775390625,-1.0049285888671875,-0.1136627197265625,-0.0907900929450988,-0.0004617921367753,0.0003312972257845
1769249801819,-0.019500732421875,-0.9948577880859376,-0.110321044921875,-0.0936529859900474,0.0171680673956871,0.0016045545926317
1769249801829,-0.02142333984375,-0.9799957275390624,-0.1125946044921875,-0.0932117030024528,0.025612685829401,0.0054672034457325
1769249801839,-0.018280029296875,-0.97320556640625,-0.1079864501953125,-0.099342830479145,0.0218781344592571,0.0056291236542165
1769249801850,-0.02001953125,-0.983612060546875,-0.09906005859375,-0.1081515029072761,0.0050426954403519,0.0002444782003294
1769249801861,-0.0239105224609375,-1.0049896240234375,-0.10211181640625,-0.1050449237227439,0.0014522217679768,-0.0065364623442292
1769249801870,-0.0224456787109375,-1.010650634765625,-0.113311767578125,-0.0944340899586677,0.0032226911280304,-0.0138481715694069
1769249801880,-0.0165557861328125,-1.0118865966796875,-0.1197967529296875,-0.0843244642019271,0.0013398362789303,-0.0233665760606527
1769249801890,-0.00921630859375,-1.0069732666015625,-0.124237060546875,-0.0567192062735557,0.0174365136772394,-0.0239900220185518
1769249801900,0.0024566650390625,-0.9757537841796876,-0.1289825439453125,-0.0339031070470809,0.0105314701795578,-0.0199891552329063
1769249801910,0.0068206787109375,-0.976043701171875,-0.1210479736328125,-0.0199678484350442,-0.0035366779193282,-0.0185502488166093
1769249801920,0.0047149658203125,-0.9928131103515624,-0.118438720703125,-0.0046996804885566,-0.0045617287978529,-0.0207058116793632
1769249801930,0.0040283203125,-0.9934539794921876,-0.1253204345703125,0.0097354520112276,0.0064102285541594,-0.0176431760191917
1769249801940,0.0078125,-0.986419677734375,-0.1241912841796875,0.0239165183156728,0.0039577237330377,-0.0163198504596948
1769249801950,0.0081024169921875,-0.9864959716796876,-0.1220855712890625,0.0324769839644432,0.002339054364711,-0.0128393657505512
1769249801960,0.0001983642578125,-0.9852447509765624,-0.118865966796875,0.0354304276406765,0.0063519054092466,-0.0119259012863039
1769249801970,-0.0052947998046875,-0.984039306640625,-0.113494873046875,0.0355004705488681,0.0027374632190912,-0.0098598208278417
1769249801980,-0.010955810546875,-0.9907379150390624,-0.114776611328125,0.0320247784256935,-0.009140501730144,-0.0037457360886037
1769249801990,-0.009674072265625,-0.9938507080078124,-0.1176910400390625,0.0232451353222131,-0.0049918289296329,0.0101319961249828
1769249802000,0.0005645751953125,-0.9941558837890624,-0.1118927001953125,0.0115898102521896,0.0051753208972513,0.0134990308433771
1769249802010,-0.009735107421875,-1.0003662109375,-0.1090850830078125,0.0028469192329794,0.0137096866965293,0.0128979552537202
1769249802020,-0.016510009765625,-0.9980010986328124,-0.109161376953125,-0.0047601340338587,0.0141826644539833,0.0107213538140058
1769249802031,-0.0156402587890625,-0.991546630859375,-0.10595703125,-0.01330834813416,0.0145342014729976,0.0130500216037034
1769249802042,-0.0153961181640625,-0.9891204833984376,-0.1037750244140625,-0.0166349038481712,0.0175084192305803,0.009786850772798
1769249802051,-0.01947021484375,-0.9922332763671876,-0.1046600341796875,-0.0143459159880876,0.0179696790874004,0.0065290057100355
1769249802061,-0.023101806640625,-0.9904937744140624,-0.1068267822265625,-0.0144681548699736,0.0146617665886878,0.0039931437931954
1769249802071,-0.0200958251953125,-0.9853057861328124,-0.105255126953125,-0.015850069001317,0.0105650266632437,0.0025132251903414
1769249802081,-0.0196075439453125,-0.9809112548828124,-0.104888916015625,-0.0114792892709374,0.0109202917665243,-0.0021089571528136
1769249802091,-0.021728515625,-0.9861602783203124,-0.1102447509765625,-0.0147938597947359,0.0030477214604616,-0.0095596825703978
1769249802101,-0.0246124267578125,-1.0079803466796875,-0.1110382080078125,-0.0304045118391513,-0.0132388398051261,-0.0189196281135082
1769249802111,-0.0176239013671875,-1.0275726318359375,-0.115509033203125,-0.0236496683210134,0.0156284943222999,-0.0199273694306612
1769249802121,-0.00439453125,-0.9806976318359376,-0.118621826171875,-0.0146931922063231,0.0298966467380523,-0.0081354239955544
1769249802131,0.0019683837890625,-0.9438934326171876,-0.1044921875,-0.0207699928432703,0.0006868292111903,-0.0114438692107796
1769249802141,-0.0111541748046875,-1.0047149658203125,-0.109619140625,-0.0233902782201766,0.0091402353718876,-0.0229979939758777
1769249802151,-0.015625,-1.0351409912109375,-0.12225341796875,-0.0207851734012365,0.0325938947498798,-0.0118430769070982
1769249802161,0.00189208984375,-1.014739990234375,-0.11517333984375,-0.0106220180168747,0.0474146530032157,-0.0022397185675799
1769249802171,0.00189208984375,-0.9843292236328124,-0.111328125,0.0098542282357811,0.0760156735777854,0.0009206547983922
1769249802181,-0.0025177001953125,-0.9260406494140624,-0.09735107421875,0.0299863945692777,0.0845580250024795,0.0161661859601736
1769249802191,-0.010040283203125,-0.9032440185546876,-0.0867462158203125,0.0259024370461702,0.0372751988470554,0.0075077172368764
1769249802201,-0.02789306640625,-0.9558258056640624,-0.091705322265625,0.0114734303206205,-0.0109099056571722,-0.0088765826076269
1769249802211,-0.02923583984375,-1.0085296630859375,-0.1092529296875,-0.0030610372778028,-0.0329092144966125,-0.0259628910571336
1769249802221,-0.016571044921875,-1.0307159423828125,-0.1203765869140625,-0.0116737000644207,-0.028400482609868,-0.0338498428463935
1769249802231,-0.0045623779296875,-1.024383544921875,-0.1243133544921875,-0.0137954410165548,-0.0107162939384579,-0.0379338003695011
1769249802242,0.0,-1.007080078125,-0.118988037109375,-0.0145381959155201,-0.0067508472129702,-0.0337664857506752
1769249802251,-0.00384521484375,-1.0,-0.1144866943359375,-0.015869777649641,-0.0198349580168724,-0.0280963499099016
1769249802262,-0.009246826171875,-1.0030059814453125,-0.116851806640625,-0.0172682031989097,-0.0261977817863225,-0.0187965910881757
1769249802271,-0.006500244140625,-1.00018310546875,-0.1194915771484375,-0.0217324588447809,-0.0200908873230218,-0.0078832227736711
1769249802282,-0.003753662109375,-0.9903106689453124,-0.1140594482421875,-0.0296095572412014,-0.0014426343841478,0.0084773739799857
1769249802292,-0.0039520263671875,-0.975616455078125,-0.108917236328125,-0.0390952043235302,0.0109354723244905,0.0148923965170979
1769249802302,-0.01031494140625,-0.9763641357421876,-0.1039886474609375,-0.0453395172953605,0.0039148465730249,0.0169643368571996
1769249802312,-0.01861572265625,-0.994415283203125,-0.1060028076171875,-0.0524797178804874,0.0013861752813681,0.0135030252858996
1769249802322,-0.017425537109375,-1.0032806396484375,-0.10943603515625,-0.0530491024255752,0.0051657333970069,0.0153065184131264
1769249802332,-0.0094146728515625,-1.002349853515625,-0.1142730712890625,-0.0480258502066135,0.0003020024741999,0.0108382664620876
1769249802342,-0.0056915283203125,-1.0114593505859375,-0.1225433349609375,-0.0310298204421997,0.0156042594462633,0.0053984937258064
1769249802352,-0.0058135986328125,-0.9844207763671876,-0.1302337646484375,-0.0057508298195898,0.0119631858542561,0.002250104676932
1769249802362,-0.0064849853515625,-0.970703125,-0.127410888671875,0.0173931047320365,-0.0173233300447464,-0.0014594122767448
1769249802372,-0.00823974609375,-0.988800048828125,-0.1285400390625,0.0310167726129293,-0.0215843878686428,-0.0063058328814804
1769249802382,-0.0066375732421875,-0.9950408935546876,-0.1291656494140625,0.0354645177721977,-0.0088398307561874,-0.0149552477523684
1769249802392,-0.0044708251953125,-0.9908599853515624,-0.1150970458984375,0.033859696239233,-0.0032338765449821,-0.0185734182596206
1769249802402,-0.001922607421875,-0.9881591796875,-0.1053466796875,0.0275083240121603,-0.0032458608038723,-0.0207715909928083
1769249802413,-0.0038604736328125,-0.9887847900390624,-0.1018218994140625,0.0187617037445306,-0.0049521480686962,-0.0234107840806245
1769249802422,-0.0049285888671875,-0.984039306640625,-0.0997467041015625,0.0150963952764868,-0.0069420621730387,-0.0215444397181272
1769249802432,-0.005523681640625,-0.988037109375,-0.1023712158203125,0.0108403973281383,-0.0138103542849421,-0.0190093778073787
1769249802442,-0.0078887939453125,-0.993804931640625,-0.111480712890625,0.0026596989482641,-0.0151922684162855,-0.0154617801308631
1769249802452,-0.004241943359375,-0.994476318359375,-0.11474609375,-0.00914769154042,-0.0144939878955483,-0.0072251558303833
1769249802463,-0.0019378662109375,-0.9965057373046876,-0.1122283935546875,-0.0202584005892276,-0.0081324949860572,-0.0035236284602433
1769249802472,-0.0047454833984375,-0.998321533203125,-0.1113128662109375,-0.0317763052880764,-0.0023113575298339,0.0008271778351627
1769249802483,-0.0058746337890625,-0.9965057373046876,-0.106475830078125,-0.0407138727605342,0.0002202434261562,0.0017534252256155
1769249802493,-0.0084686279296875,-0.9939727783203124,-0.107696533203125,-0.0455211475491523,0.0035798212047666,0.002503637690097
1769249802503,-0.01055908203125,-0.991668701171875,-0.1081085205078125,-0.0501931309700012,0.0124129941686987,0.0020442423410713
1769249802514,-0.0109405517578125,-0.9866943359375,-0.1120452880859375,-0.0505119115114212,0.0141717456281185,0.0026128273457288
1769249802523,-0.012054443359375,-0.98651123046875,-0.11407470703125,-0.0429179072380065,0.0078701740130782,0.000623179716058
1769249802533,-0.01361083984375,-0.9829254150390624,-0.12030029296875,-0.0329928360879421,0.010685933753848,-0.0028099012561142
1769249802543,-0.0153045654296875,-0.9814300537109376,-0.1239013671875,-0.0169787164777517,0.0019971043802797,-0.0096915094181895
1769249802553,-0.0175628662109375,-0.9952545166015624,-0.1301727294921875,-0.0085239792242646,-0.0119410818442702,-0.016547817736864
1769249802563,-0.01361083984375,-1.026885986328125,-0.1322021484375,-0.0063519054092466,-0.0083577986806631,-0.0228666998445987
1769249802573,-0.0051116943359375,-1.017333984375,-0.129486083984375,0.0052000884898006,0.0137150129303336,-0.0155139788985252
1769249802583,0.0061187744140625,-0.9563446044921876,-0.11712646484375,0.0142471129074692,0.0007954862085171,-0.0130952959880232
1769249802594,-0.0036163330078125,-0.9660491943359376,-0.1151885986328125,0.0265210904181003,0.004751079250127,-0.0251596812158823
1769249802603,-0.0173797607421875,-0.991973876953125,-0.1263885498046875,0.0393042638897895,0.0205313730984926,-0.0205867681652307
1769249802613,-0.0089111328125,-0.9927215576171876,-0.1221923828125,0.0433045960962772,0.0148644335567951,-0.0190711636096239
1769249802624,-0.0050048828125,-1.0047760009765625,-0.121490478515625,0.0588433444499969,0.0336202792823314,-0.0156862847506999
1769249802633,0.0003509521484375,-0.9685211181640624,-0.115966796875,0.0741887465119361,0.0482362397015094,-0.0002692455891519
1769249802644,0.003021240234375,-0.9353179931640624,-0.1015625,0.0798082798719406,0.0236723069101572,0.0063926517032086
1769249802653,-0.0128936767578125,-0.9520111083984376,-0.10406494140625,0.0797126740217208,-0.0108635667711496,-0.0017323862994089
1769249802663,-0.0207977294921875,-0.9852447509765624,-0.1119384765625,0.0711037367582321,-0.0289759915322065,-0.0160982757806777
1769249802673,-0.015472412109375,-1.0169677734375,-0.11297607421875,0.0562073476612567,-0.0343364030122756,-0.0281980820000171
1769249802684,-0.0058135986328125,-1.0347900390625,-0.11248779296875,0.0414603576064109,-0.0191406719386577,-0.0337928496301174
1769249802694,0.0036163330078125,-1.02069091796875,-0.1075439453125,0.0289586801081895,-0.0074824173934757,-0.0287485569715499
1769249802704,0.0058746337890625,-1.0001678466796875,-0.0968170166015625,0.0126414932310581,-0.009385778568685,-0.0223385952413082
1769249802714,-0.0018463134765625,-0.995941162109375,-0.09356689453125,-0.0052498895674943,-0.0173049550503492,-0.0171254575252532
1769249802724,-0.0063323974609375,-0.99822998046875,-0.0961151123046875,-0.0244851037859916,-0.0153392748907208,-0.0022575615439563
1769249802734,-0.000640869140625,-0.99053955078125,-0.0986175537109375,-0.0405160002410411,-0.0023494407068938,0.015638081356883
1769249802744,0.0019378662109375,-0.9811553955078124,-0.100677490234375,-0.0515156537294387,0.0063718790188431,0.0284372344613075
1769249802754,-0.001251220703125,-0.98199462890625,-0.10504150390625,-0.0572712793946266,0.008838765323162,0.0334535650908947
1769249802764,-0.0093841552734375,-0.9930877685546876,-0.1070404052734375,-0.0642708614468574,0.0152175687253475,0.0317944139242172
1769249802774,-0.0139312744140625,-1.0027618408203125,-0.10748291015625,-0.0670109912753105,0.0282891616225242,0.0277773030102252
1769249802784,-0.0129241943359375,-0.9968109130859376,-0.10748291015625,-0.0699455291032791,0.0252704694867134,0.0235234349966049
1769249802794,-0.012725830078125,-1.0016632080078125,-0.10711669921875,-0.069785475730896,0.0256526321172714,0.0082661854103207
1769249802804,-0.01239013671875,-0.9933624267578124,-0.1129913330078125,-0.0569450408220291,0.0237340908497571,0.0027297399938106
1769249802814,-0.008270263671875,-0.9728240966796876,-0.114776611328125,-0.043560791760683,0.0057252636179327,-0.0037630465812981
1769249802827,-0.011322021484375,-0.9840240478515624,-0.1159515380859375,-0.0361931584775447,-0.0126010132953524,-0.0162247754633426
1769249802834,-0.0118255615234375,-0.9969024658203124,-0.1178741455078125,-0.0306777507066726,-0.0127916950732469,-0.0243586022406816
1769249802844,-0.00433349609375,-0.993743896484375,-0.117340087890625,-0.0206402968615293,-0.0078762993216514,-0.0272401422262191
1769249802854,0.0040435791015625,-0.987213134765625,-0.11724853515625,-0.0109634352847933,-0.0179438460618257,-0.0323888324201107
1769249802865,0.0049285888671875,-0.9864959716796876,-0.1186981201171875,-0.0036344157997518,-0.024573253467679,-0.0331704691052436
1769249802876,0.0059661865234375,-0.9845428466796876,-0.1164398193359375,-4.926848123432137e-05,-0.024180170148611,-0.0278774369508028
1769249802884,0.0045318603515625,-0.9881744384765624,-0.113616943359375,-0.004202201962471,-0.0288500245660543,-0.0249285195022821
1769249802894,0.002349853515625,-0.9927215576171876,-0.110809326171875,-0.010448645800352,-0.0255343876779079,-0.0204362999647855
1769249802904,-0.0013580322265625,-0.998931884765625,-0.112762451171875,-0.018420286476612,-0.0123400231823325,-0.0158159807324409
1769249802915,-0.0020294189453125,-1.0006256103515625,-0.1168975830078125,-0.0268449299037456,-0.0052168662659823,-0.0116856843233108
1769249802925,-0.002227783203125,-0.998870849609375,-0.115692138671875,-0.0360355004668235,-0.0001025317033054,-0.0034890072420239
1769249802935,-0.0018768310546875,-0.9902801513671876,-0.114227294921875,-0.0404749885201454,0.0018072210950776,0.0011174624087288
1769249802945,-0.00885009765625,-0.991668701171875,-0.119140625,-0.036050945520401,0.002959837205708,-0.0008817726047709
1769249802955,-0.013519287109375,-0.9888153076171876,-0.1224517822265625,-0.0350104495882988,0.0084083983674645,8.122641156660393e-05
1769249802965,-0.0099334716796875,-0.9846649169921876,-0.1190032958984375,-0.0302931908518075,0.0064456486143171,0.0024327975697815
1769249802976,-0.0093994140625,-0.9849395751953124,-0.1248016357421875,-0.0168138667941093,-0.0003547330561559,-0.0002127865736838
1769249802985,-0.00994873046875,-0.9837646484375,-0.1282196044921875,-0.0074235615320503,-0.0016863135388121,-7.297061529243365e-05
1769249802995,-0.0080413818359375,-0.98028564453125,-0.125701904296875,0.0034551850985735,0.0028575719334185,-0.00566694047302
1769249803005,-0.0097503662109375,-0.985107421875,-0.126983642578125,0.0116681074723601,0.0019915117882192,-0.0070563117042183
1769249803015,-0.0089874267578125,-1.0102996826171875,-0.1263275146484375,0.0121285682544112,-0.008754875510931,-0.0170639380812644
1769249803025,-0.0082550048828125,-1.0398406982421875,-0.1286163330078125,0.0195484012365341,0.0115408087149262,-0.0170442312955856
1769249803035,0.00250244140625,-0.9910125732421876,-0.1237030029296875,0.027546938508749,0.0123738450929522,-0.0107463877648115
1769249803045,0.0037689208984375,-0.9620513916015624,-0.113037109375,0.0426420010626316,0.0091250548139214,-0.0203327015042305
1769249803055,-0.0142059326171875,-0.97015380859375,-0.1180877685546875,0.0534877255558967,0.0329393073916435,-0.016096144914627
1769249803066,-0.0084686279296875,-0.96197509765625,-0.1107177734375,0.0435155183076858,0.0163957513868808,-0.0141355264931917
1769249803075,-0.006195068359375,-1.0114898681640625,-0.1092529296875,0.0440952889621257,0.0369441695511341,-0.010775682516396
1769249803085,0.00335693359375,-0.9944610595703124,-0.1095123291015625,0.0529867857694625,0.0504461303353309,0.0005709817050956
1769249803096,0.005889892578125,-0.9590301513671876,-0.0990447998046875,0.0573788695037364,0.0409160070121288,0.0099535640329122
1769249803106,-0.00115966796875,-0.9490966796875,-0.10076904296875,0.061835404485464,0.0198717098683118,0.0008141283178701
1769249803116,-0.011932373046875,-0.968017578125,-0.1097412109375,0.0588020645081996,-0.0011504855938255,-0.0128042120486497
1769249803126,-0.013427734375,-1.0030059814453125,-0.112884521484375,0.0474239736795425,-0.0286577437072992,-0.0276175122708082
1769249803136,-0.0078582763671875,-1.035552978515625,-0.1119384765625,0.0383258163928985,-0.0248555485159158,-0.0376011729240417
1769249803146,-0.00244140625,-1.030029296875,-0.115142822265625,0.0229348763823509,-0.0116742327809333,-0.0357699804008007
1769249803156,0.0049285888671875,-1.0047607421875,-0.1075592041015625,0.0081854918971657,-0.016734505072236,-0.0289016887545585
1769249803166,0.0063018798828125,-0.9949188232421876,-0.1002349853515625,-0.0065343319438397,-0.0301192868500947,-0.0184016432613134
1769249803176,4.57763671875e-05,-0.9941864013671876,-0.1021575927734375,-0.0290383100509643,-0.0242134612053632,-0.0082816323265433
1769249803186,-0.0007171630859375,-0.99237060546875,-0.1017303466796875,-0.0430406779050827,-0.0071354075334966,0.0038892803713679
1769249803196,-0.000885009765625,-0.98577880859375,-0.1046142578125,-0.0497877970337867,0.0124795725569128,0.0146628320217132
1769249803206,0.0001068115234375,-0.9798126220703124,-0.1062774658203125,-0.0531782656908035,0.0221601631492376,0.0271362792700529
1769249803216,0.001434326171875,-0.9876556396484376,-0.1080780029296875,-0.0545149073004722,0.0198535993695259,0.0301895942538976
1769249803226,-0.000640869140625,-1.004302978515625,-0.1123504638671875,-0.0542075783014297,0.027359452098608,0.0313459374010562
1769249803236,-0.002410888671875,-1.005157470703125,-0.114715576171875,-0.047380831092596,0.0356421507894992,0.0298588294535875
1769249803246,-0.00640869140625,-1.0008544921875,-0.1176605224609375,-0.0363681279122829,0.0229415353387594,0.0219503063708543
1769249803256,-0.0067901611328125,-1.003509521484375,-0.1204681396484375,-0.01660081371665,0.015125423669815,0.0178037639707326
1769249803266,-0.00390625,-0.9788818359375,-0.1242828369140625,0.0081316959112882,-0.0026477146893739,0.0109772840514779
1769249803276,-0.005035400390625,-0.97796630859375,-0.1251678466796875,0.0241756439208984,-0.0207564104348421,0.0015342470724135
1769249803286,-0.0096893310546875,-0.9902801513671876,-0.123443603515625,0.0326631367206573,-0.0219937153160572,-0.0056376457214355
1769249803296,-0.001373291015625,-0.9883270263671876,-0.1192169189453125,0.0356248393654823,-0.0106084356084465,-0.005200354848057
1769249803309,0.0108184814453125,-0.9805755615234376,-0.1119232177734375,0.0360946208238601,-0.0145539091899991,-0.0039308257400989
1769249803316,0.0086822509765625,-0.9876251220703124,-0.106201171875,0.0395804308354854,-0.018550781533122,-0.0101940482854843
1769249803326,-0.000823974609375,-0.9899749755859376,-0.110443115234375,0.0375532358884811,-0.0180817991495132,-0.0117168435826897
1769249803337,7.62939453125e-05,-0.9876861572265624,-0.1089324951171875,0.0321651250123977,-0.0129221901297569,-0.0084872283041477
1769249803347,6.103515625e-05,-0.9901123046875,-0.10504150390625,0.0192954000085592,-0.0142692169174551,-0.0031308121979236
1769249803357,0.0007781982421875,-0.9956817626953124,-0.103790283203125,0.0044024717062711,-0.0122398883104324,0.0004990763845853
1769249803367,-0.00115966796875,-1.0002899169921875,-0.10430908203125,-0.0117123164236545,-0.0064890584908425,0.0036991306114941
1769249803377,-0.007415771484375,-1.0019073486328125,-0.1034698486328125,-0.0285205915570259,0.0034605115652084,0.0064128916710615
1769249803387,-0.005218505859375,-0.9994049072265624,-0.101959228515625,-0.0427256263792514,0.0076509956270456,0.0113653065636754
1769249803397,-0.0042877197265625,-0.995086669921875,-0.1025543212890625,-0.0492746047675609,0.0051090084016323,0.0104052368551492
1769249803408,-0.0084991455078125,-0.9957122802734376,-0.1099700927734375,-0.0496839322149753,0.0031047132797539,0.0112505238503217
1769249803417,-0.0079498291015625,-0.9899749755859376,-0.114593505859375,-0.0466836169362068,0.0009313074406236,0.0102827316150069
1769249803427,-0.00665283203125,-0.98651123046875,-0.1168670654296875,-0.0442952923476696,0.0007046724203974,0.0131086111068725
1769249803437,-0.0074920654296875,-0.98577880859375,-0.1169586181640625,-0.0398081317543983,0.0012279836228117,0.0070081083104014
1769249803447,-0.0130462646484375,-0.9849700927734376,-0.115997314453125,-0.0345284156501293,0.0017294568242505,-0.0002604571636766
1769249803458,-0.0136260986328125,-0.9828643798828124,-0.116424560546875,-0.0261482466012239,-0.000770452490542,-0.0030466562602669
1769249803468,-0.0112457275390625,-0.9953460693359376,-0.118408203125,-0.0285565443336963,-0.0136873163282871,-0.0090566119179129
1769249803477,-0.00640869140625,-1.02667236328125,-0.1205596923828125,-0.0293959714472293,-0.0056432383134961,-0.0127594713121652
1769249803487,-0.000335693359375,-1.0083160400390625,-0.123748779296875,-0.0240097288042306,0.0128036793321371,-0.0033071134239435
1769249803498,0.00927734375,-0.9629974365234376,-0.113128662109375,-0.0217577591538429,0.0056163403205573,-0.0037534593138843
1769249803508,-0.002349853515625,-0.9805755615234376,-0.113311767578125,-0.0180716775357723,0.0307192970067262,-0.0079607209190726
1769249803518,-0.0035858154296875,-0.988494873046875,-0.11376953125,-0.0134542901068925,0.0476045385003089,-0.0023132218047976
1769249803528,0.0003509521484375,-0.9940185546875,-0.107025146484375,-0.0102989766746759,0.0642729923129081,0.0047545414417982
1769249803538,0.0037689208984375,-0.981597900390625,-0.1049041748046875,0.0078217042610049,0.0675995498895645,0.0096435723826289
1769249803548,0.006256103515625,-0.9483642578125,-0.1049652099609375,0.0276923477649688,0.0529242008924484,0.0207843743264675
1769249803558,-0.002899169921875,-0.93927001953125,-0.10748291015625,0.0358525402843952,0.0207079406827688,0.0193854160606861
1769249803568,-0.0169219970703125,-0.9674224853515624,-0.1160736083984375,0.0345598421990871,-0.0056078182533383,0.0108518488705158
1769249803578,-0.01348876953125,-0.9953460693359376,-0.119049072265625,0.0234150439500808,-0.0332575552165508,-0.0033190976828336
1769249803588,-0.0074920654296875,-1.02642822265625,-0.120269775390625,0.0182586330920457,-0.0329555533826351,-0.0131331123411655
1769249803598,-0.00048828125,-1.0332183837890625,-0.12872314453125,0.0212408397346735,-0.0147557761520147,-0.0175688732415437
1769249803609,0.0031585693359375,-1.01318359375,-0.12469482421875,0.0260992441326379,-0.0106180235743522,-0.0194698385894298
1769249803618,-0.0049285888671875,-1.0049285888671875,-0.1154022216796875,0.0192109793424606,-0.0116561232134699,-0.015738483518362
1769249803628,-0.01165771484375,-1.000396728515625,-0.1105804443359375,0.008486695587635,-0.0075657744891941,-0.0076997312717139
1769249803638,-0.0074005126953125,-0.9957733154296876,-0.1100006103515625,-0.0024085629265755,0.0101487739011645,0.0069071743637323
1769249803648,-0.0012664794921875,-0.988739013671875,-0.1112213134765625,-0.0091466270387172,0.0261458493769168,0.0160463452339172
1769249803659,-0.008056640625,-0.983612060546875,-0.1151275634765625,-0.0098651479929685,0.0143043706193566,0.0219359248876571
1769249803668,-0.0110015869140625,-0.9826202392578124,-0.1139373779296875,-0.0124121950939297,0.0031143005471676,0.0234198383986949
1769249803678,-0.011077880859375,-0.994171142578125,-0.114044189453125,-0.0156977362930774,-0.0063822655938565,0.0286673307418823
1769249803688,-0.0068817138671875,-1.0005340576171875,-0.1140289306640625,-0.0140785351395607,-0.0070509854704141,0.0331899113953113
1769249803698,-0.0034027099609375,-0.9969482421875,-0.11480712890625,-0.0098483692854642,-0.0108134988695383,0.0278007388114929
1769249803709,-0.008453369140625,-1.0059356689453125,-0.116302490234375,-0.0015172028215602,-0.0037217675708234,0.0209881067276
1769249803718,-0.0093536376953125,-0.9918365478515624,-0.1163787841796875,0.0081093255430459,0.0142210135236382,0.0186136309057474
1769249803728,-0.00396728515625,-0.972747802734375,-0.1106719970703125,0.0199100580066442,-0.0015723302494734,0.0114233633503317
1769249803738,-0.003997802734375,-0.9824981689453124,-0.10931396484375,0.0242965519428253,-0.0129616046324372,0.0030069751664996
1769249803749,-0.0020751953125,-0.993988037109375,-0.1097259521484375,0.0244001485407352,-0.0109208244830369,-0.0023347933311015
1769249803760,0.002166748046875,-0.99169921875,-0.105682373046875,0.0231127757579088,-0.0145256798714399,-0.0087791103869676
1769249803769,0.00592041015625,-0.9840087890625,-0.10040283203125,0.014390124939382,-0.0228659007698297,-0.006090915761888
1769249803779,0.0084075927734375,-0.9857635498046876,-0.097076416015625,0.0027326694689691,-0.0174876470118761,0.00173478317447
1769249803789,0.013214111328125,-0.984161376953125,-0.097259521484375,-0.0083157205954194,-0.0168197266757488,0.0111551824957132
1769249803799,0.0112152099609375,-0.990814208984375,-0.1045379638671875,-0.0216054264456033,-0.0220392551273107,0.0216754674911499
1769249803810,0.005096435546875,-0.9976654052734376,-0.1067962646484375,-0.0309427361935377,-0.0166263803839683,0.0301381945610046
1769249803819,0.000152587890625,-1.002960205078125,-0.1084136962890625,-0.0410646125674247,-0.0106419920921325,0.0315392836928367
1769249803829,-0.0040283203125,-1.0028533935546875,-0.10943603515625,-0.0519886314868927,-0.002102832077071,0.0385412685573101
1769249803839,-0.0059661865234375,-0.99853515625,-0.109771728515625,-0.0599205903708934,0.002846652874723,0.0406009554862976
1769249803849,-0.0106658935546875,-0.994873046875,-0.1105194091796875,-0.0623493939638137,0.0074762920849025,0.0339369289577007
1769249803860,-0.0187530517578125,-0.989776611328125,-0.113677978515625,-0.0603256598114967,0.0059084892272949,0.0269764903932809
1769249803869,-0.0252532958984375,-0.98797607421875,-0.115936279296875,-0.0575988478958606,0.0028863339684903,0.014240987598896
1769249803879,-0.026885986328125,-0.989593505859375,-0.1194610595703125,-0.0510320253670215,0.0017941716359928,0.0035206989850848
1769249803889,-0.0253143310546875,-0.9878997802734376,-0.1225738525390625,-0.0399844348430633,0.0065284729935228,-0.004006459377706
1769249803899,-0.020050048828125,-0.9814453125,-0.126220703125,-0.0236187763512134,0.0109839411452412,-0.0108465226367115
1769249803910,-0.0178680419921875,-0.979156494140625,-0.131195068359375,-0.003534014802426,0.0095261270180344,-0.017423465847969
1769249803919,-0.017822265625,-0.9830322265625,-0.1309967041015625,0.0032245554029941,-0.0130830453708767,-0.0211497601121664
1769249803930,-0.01116943359375,-1.008544921875,-0.1237335205078125,-0.0003320961841382,-0.0276609230786561,-0.0236174445599317
1769249803940,-0.0025634765625,-1.016998291015625,-0.1266632080078125,0.0168061442673206,0.0133413719013333,-0.0132063496857881
1769249803950,0.009063720703125,-0.96868896484375,-0.122161865234375,0.0252899099141359,0.0229077134281396,-0.0046560047194361
1769249803961,0.0005645751953125,-0.9692535400390624,-0.1112213134765625,0.0189595762640237,-0.0050264503806829,-0.0114574516192078
1769249803970,-0.0124664306640625,-1.0297393798828125,-0.116851806640625,0.011322695761919,0.0097831217572093,-0.0087721860036253
1769249803980,-0.000152587890625,-1.0410308837890625,-0.11553955078125,0.0098355868831276,0.0323704555630683,0.0029148298781365
1769249803990,0.0092926025390625,-1.0039825439453125,-0.1112823486328125,0.0380405932664871,0.0690871924161911,0.0157944094389677
1769249804000,0.0080108642578125,-0.93426513671875,-0.109039306640625,0.0732747465372085,0.0787107869982719,0.0292436387389898
1769249804010,-0.00543212890625,-0.892913818359375,-0.101226806640625,0.0947017446160316,0.0477219820022583,0.0351811572909355
1769249804020,-0.0240631103515625,-0.929534912109375,-0.1026153564453125,0.0855300799012184,-0.0038384140934795,0.0403660647571086
1769249804030,-0.005767822265625,-0.984375,-0.10772705078125,0.070587620139122,-0.0279120579361915,0.0447847805917263
1769249804040,0.0036468505859375,-1.009124755859375,-0.112640380859375,0.0551852248609066,-0.0177784636616706,0.0317520722746849
1769249804050,-0.010101318359375,-1.0296173095703125,-0.1165924072265625,0.0398424863815307,-0.0027790085878223,0.0147701576352119
1769249804060,-0.012359619140625,-1.0229949951171875,-0.108551025390625,0.0245604701340198,0.0008213188848458,0.0022200110834091
1769249804070,-0.0225830078125,-1.016632080078125,-0.1024322509765625,0.0083543360233306,-0.0074286214075982,-0.0069146314635872
1769249804080,-0.02239990234375,-1.0129241943359375,-0.1043548583984375,-0.0052208611741662,0.0030346720013767,-0.0010359697043895
1769249804090,-0.0118865966796875,-0.9990081787109376,-0.10589599609375,-0.023665115237236,0.0175257306545972,0.0107197556644678
1769249804100,-0.0088043212890625,-0.9872894287109376,-0.105438232421875,-0.030517429113388,0.0278595946729183,0.0146985184401273
1769249804110,-0.0174102783203125,-0.9802093505859376,-0.1071929931640625,-0.0353372171521186,0.026557307690382,0.0172389075160026
1769249804120,-0.020538330078125,-0.970184326171875,-0.10406494140625,-0.0402347706258297,0.0138676119968295,0.0177491698414087
1769249804130,-0.02130126953125,-0.9830169677734376,-0.107269287109375,-0.0437378920614719,-0.0107138967141509,0.0141970450058579
1769249804141,-0.0200042724609375,-1.008575439453125,-0.1139068603515625,-0.0407873764634132,-0.0111000556498765,0.0151533866301178
1769249804150,-0.012664794921875,-1.0078277587890625,-0.11529541015625,-0.0362986177206039,-0.0102534368634223,0.0151302171871066
1769249804161,-0.00970458984375,-1.009979248046875,-0.1127166748046875,-0.0299363266676664,-0.0056429719552397,0.006433664355427
1769249804171,-0.0125274658203125,-1.0109100341796875,-0.11749267578125,-0.0166178587824106,0.0074440678581595,0.0021752698812633
1769249804181,-0.004852294921875,-0.987335205078125,-0.1132659912109375,-0.0042424155399203,0.0081788338720798,-0.0004178499802947
1769249804191,-0.0029296875,-0.9853057861328124,-0.1086273193359375,0.001340635237284,-0.0031265511643141,-0.0067276773042976
1769249804201,-0.0032806396484375,-0.9954681396484376,-0.10650634765625,0.0047553405165672,-0.0111898034811019,-0.0114518590271472
1769249804211,-0.001434326171875,-0.9959259033203124,-0.1062164306640625,0.0082520712167024,-0.0123818349093198,-0.0127807762473821
1769249804221,-0.0005340576171875,-0.988555908203125,-0.1112213134765625,0.0109975235536694,-0.0167480874806642,-0.0143677536398172
1769249804231,-0.00146484375,-0.9833831787109376,-0.1129913330078125,0.0123615944758057,-0.0223327353596687,-0.0088683264330029
1769249804241,-0.001220703125,-0.9801788330078124,-0.11163330078125,0.0095351822674274,-0.0268811490386724,-0.0014508900931105
1769249804251,-0.0018310546875,-0.9865264892578124,-0.1117706298828125,0.0063612265512347,-0.0251844488084316,0.0040328246541321
1769249804261,-0.0031890869140625,-0.9946746826171876,-0.111419677734375,-0.005601692944765,-0.0165329035371541,0.0129296472296118
1769249804271,-0.0025634765625,-0.99871826171875,-0.1056976318359375,-0.0237703099846839,-0.0045271073468029,0.015369901433587
1769249804281,-0.00738525390625,-0.9998321533203124,-0.1028594970703125,-0.0392869524657726,0.0028141622897237,0.0187569092959165
1769249804292,-0.0110626220703125,-0.9945068359375,-0.1049652099609375,-0.0468575209379196,-0.0033803503029048,0.0194730330258607
1769249804301,-0.01214599609375,-0.99169921875,-0.10772705078125,-0.0493547655642032,-0.0026138925459235,0.0190900713205337
1769249804311,-0.013336181640625,-0.98822021484375,-0.1129608154296875,-0.0496003106236457,-0.0044429516419768,0.0182634256780147
1769249804321,-0.0140838623046875,-0.9868927001953124,-0.1130828857421875,-0.045902244746685,-0.0050703925080597,0.0182599630206823
1769249804331,-0.0138092041015625,-0.98419189453125,-0.115478515625,-0.0393857546150684,-0.0063969129696488,0.0216363202780485
1769249804342,-0.0111236572265625,-0.9822235107421876,-0.1172332763671875,-0.0327430330216884,-0.0101698134094476,0.0186349377036094
1769249804352,-0.0166015625,-0.9858551025390624,-0.1180419921875,-0.0219532363116741,-0.0096262618899345,0.012154933065176
1769249804362,-0.0225677490234375,-0.9817657470703124,-0.12286376953125,-0.0091128041967749,-0.0059870523400604,0.0040669133886694
1769249804372,-0.0233306884765625,-0.9815216064453124,-0.1270904541015625,0.0001720402069622,-0.0163861643522977,-0.00286236545071
1769249804382,-0.0222930908203125,-0.9958038330078124,-0.1275634765625,-0.0077825556509196,-0.0436963476240634,-0.0031214910559356
1769249804392,-0.0152587890625,-1.005157470703125,-0.1272735595703125,0.0044163200072944,-0.0198834277689456,-0.0011973571963608
1769249804402,-0.00750732421875,-0.97186279296875,-0.1273956298828125,0.0203619971871376,0.0197414811700582,0.0022833943367004
1769249804412,-0.011962890625,-0.939697265625,-0.11444091796875,0.0068310080096125,-0.0123389577493071,-0.0101999072358012
1769249804422,-0.028717041015625,-1.01275634765625,-0.1136932373046875,-0.0169755220413208,-0.0377444475889205,-0.0245588719844818
1769249804432,-0.0252838134765625,-1.0569000244140625,-0.1202239990234375,-0.036209937185049,-0.0336250700056552,-0.0171020217239856
1769249804443,-0.001434326171875,-1.0301971435546875,-0.1108551025390625,-0.0171699319034814,0.0218176804482936,-0.0063348612748086
1769249804452,0.0035247802734375,-0.962158203125,-0.11083984375,0.0186706241220235,0.0619408637285232,0.0028266792651265
1769249804462,-0.006591796875,-0.9060211181640624,-0.100433349609375,0.0512922145426273,0.0697018504142761,0.0095032239332795
1769249804472,-0.023895263671875,-0.92193603515625,-0.0968170166015625,0.0591032691299915,0.0251325163990259,-0.0034202977549284
1769249804482,-0.0399017333984375,-0.987060546875,-0.1061859130859375,0.0477723143994808,-0.001097488682717,-0.0239737760275602
1769249804492,-0.0268707275390625,-1.017730712890625,-0.109527587890625,0.0346890054643154,-0.0071396683342754,-0.0318980105221271
1769249804502,-0.0065460205078125,-1.01708984375,-0.1128387451171875,0.0264395959675312,-0.0099064270034432,-0.0413503684103488
1769249804512,-0.003570556640625,-1.0114593505859375,-0.111602783203125,0.025508290156722,-0.0072089107707142,-0.044168259948492
1769249804522,-0.0085601806640625,-1.0056610107421875,-0.1096343994140625,0.0246358383446931,-0.0146295428276062,-0.0416853949427604
1769249804532,-0.0110931396484375,-1.006805419921875,-0.11126708984375,0.0163075998425483,-0.0191049855202436,-0.0327997580170631
1769249804543,-0.0072174072265625,-0.9991607666015624,-0.1091766357421875,0.0067074373364448,-0.0117549262940883,-0.0195124484598636
1769249804553,0.0015411376953125,-0.9831695556640624,-0.106689453125,-0.0016453008865937,0.0012048140633851,-0.0035095135681331
1769249804562,-0.00177001953125,-0.9755859375,-0.1073150634765625,-0.0042027346789836,0.016757408156991,0.0068674935027956
1769249804573,-0.0044097900390625,-0.968841552734375,-0.1045684814453125,-0.010431601665914,0.028156004846096,0.0140657518059015
1769249804583,-0.01318359375,-0.972381591796875,-0.101593017578125,-0.0148852057754993,0.0154380779713392,0.0105282748118042
1769249804593,-0.0217437744140625,-0.99749755859375,-0.1040191650390625,-0.015539544634521,0.0110995229333639,0.0025100293569266
1769249804603,-0.028228759765625,-1.01544189453125,-0.1107025146484375,-0.0131331123411655,0.0173765942454338,-0.0147949252277612
1769249804613,-0.02593994140625,-1.0131378173828125,-0.1112060546875,-0.022327410057187,0.000190149701666,-0.0136351184919476
1769249804623,-0.0066375732421875,-1.0059814453125,-0.09857177734375,-0.0257783345878124,-0.0021169467363506,-0.017749436199665
1769249804633,-0.00054931640625,-0.9853363037109376,-0.1046142578125,-0.0171603448688983,0.0025814019609242,-0.01517921872437
1769249804643,0.006317138671875,-0.971405029296875,-0.1096038818359375,-0.0149326100945472,-0.007809187285602,-0.0113067170605063
1769249804653,0.00592041015625,-0.990081787109375,-0.1047515869140625,-0.0160133205354213,-0.0123735787346959,-0.0095429047942161
1769249804663,0.001678466796875,-0.999359130859375,-0.1080780029296875,-0.015083878301084,-0.0068379323929548,-0.0105320028960704
1769249804673,0.0043792724609375,-0.9938812255859376,-0.10992431640625,-0.0165206529200077,-0.0058200722560286,-0.0088118677958846
1769249804683,0.0053253173828125,-0.9880828857421876,-0.1058807373046875,-0.0252068191766738,-0.008716526441276,-0.0041500041261315
1769249804693,0.00299072265625,-0.988494873046875,-0.1056365966796875,-0.0301326029002666,-0.008502940647304,-0.0006319681415334
1769249804703,-0.0034027099609375,-0.987823486328125,-0.1102447509765625,-0.0345742218196392,-0.0029523803386837,0.0016636766958981
1769249804713,-0.011322021484375,-0.989288330078125,-0.115509033203125,-0.0400629974901676,-0.0069111692719161,0.0033143039327114
1769249804723,-0.0124969482421875,-0.9929962158203124,-0.11785888671875,-0.0449528284370899,-0.0101913847029209,0.0034557178150862
1769249804733,-0.0157012939453125,-0.9979095458984376,-0.124176025390625,-0.0452681444585323,-0.0088006816804409,-0.0005589975044131
1769249804744,-0.0175933837890625,-0.9976348876953124,-0.12957763671875,-0.0485539548099041,-0.0035281558521091,-0.0003914846747647
1769249804753,-0.01434326171875,-0.988983154296875,-0.1253814697265625,-0.0490061566233634,-0.0006772418855689,-0.0034637073986232
1769249804764,-0.0178375244140625,-0.9938201904296876,-0.1201171875,-0.0474468767642974,-0.0006074670236557,-0.0097311902791261
1769249804773,-0.0197296142578125,-0.994293212890625,-0.1201019287109375,-0.0438931547105312,0.0049787797033786,-0.0102664856240153
1769249804784,-0.01361083984375,-0.9861297607421876,-0.1130218505859375,-0.0433759689331054,0.0065825353376567,-0.0057865162380039
1769249804794,-0.0065155029296875,-0.980712890625,-0.1155548095703125,-0.0350290909409523,-0.0035782232880592,-0.0032724924385547
1769249804804,-0.00225830078125,-0.9801025390625,-0.12017822265625,-0.0234363507479429,-0.0124926222488284,0.0057761301286518
1769249804814,0.0032958984375,-0.97357177734375,-0.12371826171875,-0.0138106206431984,-0.0086627304553985,0.0201955493539571
1769249804824,0.0071258544921875,-0.9776763916015624,-0.1200103759765625,-0.0088989529758691,-0.0098254662007093,0.027465445920825
1769249804834,-0.0009765625,-1.0081329345703125,-0.1197509765625,-0.014659103937447,-0.0259591620415449,0.03038533590734
1769249804844,-0.005126953125,-1.0387420654296875,-0.1202392578125,-0.0108875352889299,-0.000449807906989,0.0297288671135902
1769249804854,-0.0037841796875,-0.998748779296875,-0.118560791015625,0.0054951664060354,0.0355209745466709,0.0377255417406559
1769249804864,-0.0010833740234375,-0.9423675537109376,-0.1086883544921875,-0.0006045375484973,0.0202682539820671,0.0316245034337043
1769249804874,-0.0182647705078125,-0.993865966796875,-0.105865478515625,-0.0156106511130929,0.0019028285751119,0.0089149316772818
1769249804884,-0.0304718017578125,-1.0513458251953125,-0.1209564208984375,-0.0133245941251516,0.0328985601663589,0.0043305661529302
1769249804894,-0.0211029052734375,-1.019744873046875,-0.125640869140625,-0.0065207500010728,0.0379290059208869,0.0043785031884908
1769249804904,-0.0101165771484375,-0.9864044189453124,-0.115570068359375,0.0157752353698015,0.0620998553931713,0.003965713083744
1769249804914,-0.0147705078125,-0.9345703125,-0.10711669921875,0.0443549491465091,0.0806588903069496,0.0008737831376492
1769249804924,-0.0309600830078125,-0.9037017822265624,-0.0997161865234375,0.0544571168720722,0.039371907711029,-0.0176208056509494
1769249804934,-0.0488739013671875,-0.949127197265625,-0.10137939453125,0.0451421774923801,-0.0137240681797266,-0.0463307462632656
1769249804944,-0.045867919921875,-0.9966278076171876,-0.109588623046875,0.0238659176975488,-0.0326197296380996,-0.0642908364534378
1769249804954,-0.0200347900390625,-1.020538330078125,-0.1158599853515625,0.0046714507043361,-0.0322370305657386,-0.0721128061413765
1769249804965,-0.0046844482421875,-1.026031494140625,-0.11724853515625,-0.0109698269516229,-0.0226360708475112,-0.0771136954426765
1769249804975,-0.001708984375,-1.00982666015625,-0.1104736328125,-0.0240046679973602,-0.0160370226949453,-0.0748097896575927
1769249804984,-0.0061798095703125,-1.002655029296875,-0.1056060791015625,-0.039667785167694,-0.018761970102787,-0.0661630406975746
1769249804995,-0.002838134765625,-1.001312255859375,-0.1069793701171875,-0.0553684495389461,-0.0196296274662017,-0.045860432088375
1769249805005,0.0080718994140625,-0.995269775390625,-0.10858154296875,-0.0712539404630661,-0.01323511172086,-0.0212413724511861
1769249805014,0.014251708984375,-0.9927825927734376,-0.1118011474609375,-0.0817963257431984,0.0045481463894248,0.0021015002857893
1769249805024,0.0091705322265625,-0.9846954345703124,-0.1168212890625,-0.083662673830986,0.0132894404232501,0.0154031906276941
1769249805035,0.000396728515625,-0.9743499755859376,-0.115081787109375,-0.0849870592355728,0.013137106783688,0.0227742884308099
1769249805045,-0.008941650390625,-0.9851226806640624,-0.1172943115234375,-0.0818099081516265,0.0009614011505618,0.0242680553346872
1769249805055,-0.0086822509765625,-0.9976348876953124,-0.1233978271484375,-0.0753725171089172,0.0016120113432407,0.0270547866821289
1769249805065,-0.0058746337890625,-1.0027618408203125,-0.128814697265625,-0.0648903176188469,-0.0021499700378626,0.0230200979858636
1769249805075,-0.0066375732421875,-1.0146331787109375,-0.1318359375,-0.0502762198448181,0.0077577880583703,0.0151025196537375
1769249805085,-0.00128173828125,-0.992095947265625,-0.1362457275390625,-0.0222616288810968,0.01627803966403,0.0152955995872616
1769249805095,-3.0517578125e-05,-0.963714599609375,-0.1348876953125,0.0016061523929238,-0.006557501386851,0.008510397747159
1769249805106,-0.008087158203125,-0.9871826171875,-0.13372802734375,0.0161613933742046,-0.0129426969215273,-0.0040557282045483
1769249805115,-0.00982666015625,-0.99822998046875,-0.1324920654296875,0.0254012309014797,-0.0081063956022262,-0.0113458652049303
1769249805126,-0.00323486328125,-0.99188232421875,-0.1265716552734375,0.0317062623798847,-0.00706536648795,-0.0148420631885528
1769249805135,-0.00115966796875,-0.9871978759765624,-0.11956787109375,0.0308692324906587,-0.0086020100861787,-0.0204879641532897
1769249805145,0.0010528564453125,-0.9832763671875,-0.111541748046875,0.0222411230206489,-0.0114950025454163,-0.0178034976124763
1769249805155,0.0003662109375,-0.9834136962890624,-0.1090850830078125,0.0179326608777046,-0.0114425374194979,-0.019249327480793
1769249805165,-0.006195068359375,-0.98876953125,-0.1167144775390625,0.0203702524304389,-0.0143416551873087,-0.0164546072483062
1769249805176,-0.006683349609375,-0.9925689697265624,-0.1253509521484375,0.0212517585605382,-0.0151019878685474,-0.009869142435491
1769249805185,-0.00408935546875,-0.99468994140625,-0.1316680908203125,0.0204104669392108,-0.0162306353449821,-0.0039891488850116
1769249805196,-0.00164794921875,-0.994964599609375,-0.1315460205078125,0.0205260477960109,-0.0139536326751112,0.0038741005118936
1769249805205,-0.002044677734375,-0.994384765625,-0.1302490234375,0.0224461872130632,-0.0126204537227749,0.0121914185583591
1769249805216,-0.002960205078125,-0.9953460693359376,-0.1284637451171875,0.0196996685117483,-0.0027622305788099,0.0199683811515569
1769249805226,-0.002532958984375,-0.9921875,-0.1194610595703125,0.0130260530859231,0.0117093864828348,0.0288913026452064
1769249805236,-0.0029144287109375,-0.9897308349609376,-0.1117095947265625,0.0045564020983874,0.0197944771498441,0.0335054956376552
1769249805246,-0.005615234375,-0.9884796142578124,-0.1065521240234375,0.0003078614245168,0.0276071261614561,0.0304689593613147
1769249805256,-0.0131378173828125,-0.9880523681640624,-0.10797119140625,-0.0052450955845415,0.0246720574796199,0.0213550888001918
1769249805266,-0.0211944580078125,-0.9880523681640624,-0.112091064453125,-0.002690591616556,0.016735304147005,0.0130204604938626
1769249805276,-0.018035888671875,-0.9811859130859376,-0.1192779541015625,0.0068310080096125,0.0061151506379246,0.0088073397055268
1769249805286,-0.01666259765625,-0.98614501953125,-0.1298370361328125,0.0162735115736722,-0.0076485984027385,0.0005313006113283
1769249805297,-0.0141754150390625,-1.0230865478515625,-0.140655517578125,0.028156004846096,-0.0113916713744401,-0.0085735144093632
1769249805306,-0.0097503662109375,-1.0200958251953125,-0.143341064453125,0.0439967513084411,0.0099924467504024,-0.0074744280427694
1769249805316,1.52587890625e-05,-0.9566802978515624,-0.120819091796875,0.0406563505530357,0.0027912592049688,-0.0072704297490417
1769249805326,-0.01263427734375,-0.965667724609375,-0.105926513671875,0.0358085967600345,0.0072414013557136,-0.0294300597161054
1769249805336,-0.02984619140625,-1.0044403076171875,-0.108001708984375,0.0223255455493927,0.0344013832509517,-0.0292257964611053
1769249805346,-0.0159759521484375,-1.0052337646484375,-0.099639892578125,0.0116795590147376,0.0417442508041858,-0.0273581203073263
1769249805356,-0.006622314453125,-1.0034637451171875,-0.1051025390625,0.0200333632528781,0.0549226365983486,-0.023267239332199
1769249805366,-0.003204345703125,-0.9685821533203124,-0.1070556640625,0.0374525673687458,0.0558757819235324,-0.0143826678395271
1769249805377,-0.006134033203125,-0.9303436279296876,-0.0997161865234375,0.044655617326498,0.0235900152474641,-0.0075553879141807
1769249805386,-0.0156402587890625,-0.9425048828125,-0.1002197265625,0.0412731394171714,-0.0013462279457598,-0.0171369090676307
1769249805397,-0.022705078125,-0.97833251953125,-0.10784912109375,0.026690199971199,-0.0214392449706792,-0.0291901100426912
1769249805406,-0.01141357421875,-1.0066986083984375,-0.1095428466796875,0.0082699144259095,-0.0366243235766887,-0.0376792028546333
1769249805417,-0.001556396484375,-1.0295257568359375,-0.1114501953125,-0.0095066856592893,-0.0315941460430622,-0.0418915227055549
1769249805427,0.005859375,-1.0203704833984375,-0.10467529296875,-0.0254108179360628,-0.0177449081093072,-0.0402632653713226
