timestamp_ms,acc_x,acc_y,acc_z,gyro_x,gyro_y,gyro_z
1769146188778,-0.0596923828125,-0.1314239501953125,-1.007537841796875,0.0488634146749973,0.0085988147184252,-0.0031076427549123
1769146188788,-0.0652313232421875,-0.12750244140625,-0.999053955078125,0.0528501644730567,0.0149845425039529,-0.0066344668157398
1769146188796,-0.071380615234375,-0.123931884765625,-0.991424560546875,0.0553050674498081,0.0202030055224895,-0.0152244931086897
1769146188806,-0.07275390625,-0.1251068115234375,-0.986053466796875,0.0513486750423908,0.0140412505716085,-0.0246211905032396
1769146188816,-0.0705718994140625,-0.1263580322265625,-0.97528076171875,0.0407612770795822,0.0045193843543529,-0.0345412008464336
1769146188826,-0.0670623779296875,-0.127197265625,-0.969451904296875,0.0290798544883728,-0.0061883875168859,-0.046543002128601
1769146188836,-0.0664215087890625,-0.1285247802734375,-0.965667724609375,0.0154418069869279,-0.0135208684951066,-0.056503489613533
1769146188847,-0.065765380859375,-0.1293487548828125,-0.9618072509765624,0.0048549426719546,-0.0121890222653746,-0.0615246146917343
1769146188856,-0.06781005859375,-0.1323089599609375,-0.9570159912109376,-0.0033803503029048,0.0031832763925194,-0.0648176148533821
1769146188867,-0.0670318603515625,-0.1367034912109375,-0.961273193359375,-0.0198264345526695,0.0170120056718587,-0.0516666546463966
1769146188877,-0.0489501953125,-0.153350830078125,-0.957244873046875,-0.0505912713706493,0.01729217171669,-0.0240819007158279
1769146188887,-0.034576416015625,-0.149505615234375,-0.957550048828125,-0.050617903470993,0.0144074354320764,-0.0114119118079543
1769146188897,-0.0523223876953125,-0.1371917724609375,-0.9824066162109376,-0.0388904064893722,0.0156468693166971,-0.0186762157827615
1769146188907,-0.0743408203125,-0.107330322265625,-0.9977264404296876,-0.0118103204295039,0.028693962842226,-0.0470082536339759
1769146188917,-0.0822296142578125,-0.117462158203125,-1.0049285888671875,-0.0422169603407382,0.005765211302787,-0.0242190528661012
1769146188927,-0.0435791015625,-0.1318359375,-0.9752044677734376,-0.0341262780129909,-0.013504090718925,-0.0316620543599128
1769146188937,-0.077056884765625,-0.115020751953125,-0.9926605224609376,-0.0298348609358072,-0.0067148944362998,-0.0554595291614532
1769146188947,-0.1002960205078125,-0.1124725341796875,-0.9858551025390624,-0.0533175505697727,-0.0226022470742464,-0.0739618390798568
1769146188957,-0.08184814453125,-0.132843017578125,-0.9689178466796876,-0.0853447243571281,-0.0326245203614234,-0.0643789917230606
1769146188967,-0.058929443359375,-0.1385650634765625,-0.9774932861328124,-0.07971853017807,-0.0275101866573095,-0.0491451770067215
1769146188977,-0.0525360107421875,-0.13726806640625,-1.006134033203125,-0.0561237223446369,-0.0091988248750567,-0.0384485907852649
1769146188987,-0.047821044921875,-0.143951416015625,-1.015655517578125,-0.0267165657132864,0.0046075349673628,-0.0313185080885887
1769146188997,-0.045867919921875,-0.146728515625,-1.02093505859375,0.0164751131087541,0.024387365207076,-0.0251394417136907
1769146189007,-0.0514068603515625,-0.134521484375,-1.02984619140625,0.0700190290808677,0.0483787171542644,-0.0205769147723913
1769146189017,-0.0642852783203125,-0.1178131103515625,-1.0336456298828125,0.1174837499856948,0.0445541515946388,-0.029657494276762
1769146189027,-0.075927734375,-0.10888671875,-1.0253143310546875,0.141452208161354,0.0200727768242359,-0.0430566556751728
1769146189037,-0.0760040283203125,-0.111419677734375,-1.00518798828125,0.1315204799175262,-0.0100723411887884,-0.0486868470907211
1769146189047,-0.0717010498046875,-0.1205291748046875,-0.975372314453125,0.1004776060581207,-0.0227282159030437,-0.0540989227592945
1769146189058,-0.067413330078125,-0.133331298828125,-0.9530792236328124,0.0634641945362091,-0.0205787774175405,-0.0479459539055824
1769146189068,-0.059783935546875,-0.142852783203125,-0.9382171630859376,0.021926337853074,-0.0059202071279287,-0.0397269055247306
1769146189078,-0.0549774169921875,-0.1479644775390625,-0.9317779541015624,-0.0183374620974063,0.0101541001349687,-0.0302937235683202
1769146189088,-0.0503387451171875,-0.148773193359375,-0.932861328125,-0.0501302778720855,0.0165797751396894,-0.0268364083021879
1769146189098,-0.049072265625,-0.147125244140625,-0.9407806396484376,-0.0701705664396286,0.0057915765792131,-0.0199321620166301
1769146189108,-0.0429229736328125,-0.145111083984375,-0.9568634033203124,-0.0784988030791282,-0.0050509511493146,-0.0056006275117397
1769146189118,-0.0354461669921875,-0.145172119140625,-0.97589111328125,-0.0746177807450294,-0.0074057183228433,0.0131562817841768
1769146189128,-0.03607177734375,-0.1414947509765625,-0.9945831298828124,-0.0502115041017532,-0.014619156718254,0.0199590604752302
1769146189138,-0.0484619140625,-0.127471923828125,-1.0166168212890625,-0.0121123231947422,-0.0146143622696399,0.0198280327022075
1769146189148,-0.0627593994140625,-0.118438720703125,-1.0270233154296875,0.0159118548035621,-0.0232344828546047,0.0160442143678665
1769146189158,-0.0709075927734375,-0.120391845703125,-1.016998291015625,0.0246544796973466,-0.0327920354902744,0.011461179703474
1769146189168,-0.077423095703125,-0.12451171875,-0.999176025390625,0.0232067853212356,-0.0159842930734157,0.0063798688352108
1769146189178,-0.080841064453125,-0.12725830078125,-0.9886932373046876,0.0164231825619936,-0.0082203792408108,0.0085218492895364
1769146189188,-0.0771331787109375,-0.1293487548828125,-0.97467041015625,0.0037779603153467,-0.0021805963478982,0.0041177794337272
1769146189198,-0.071197509765625,-0.134552001953125,-0.9693450927734376,-0.0153358131647109,0.0080502033233642,0.0062336609698832
1769146189208,-0.0645751953125,-0.1390838623046875,-0.9675140380859376,-0.0276052616536617,-0.000868190487381,0.0040016658604145
1769146189218,-0.052947998046875,-0.1442718505859375,-0.9764251708984376,-0.0301847998052835,-0.0235940087586641,0.0093586146831512
1769146189228,-0.045379638671875,-0.146087646484375,-0.986053466796875,-0.0239452794194221,-0.0259136222302913,0.019678097218275
1769146189238,-0.04779052734375,-0.143829345703125,-0.9964599609375,-0.0022708773612976,-0.0262957867234945,0.0284002162516117
1769146189248,-0.05548095703125,-0.1363983154296875,-1.008941650390625,0.0228350088000297,-0.0155126471072435,0.0316737741231918
1769146189258,-0.0637969970703125,-0.131072998046875,-1.0122528076171875,0.0413778014481067,-0.0058251321315765,0.029902771115303
1769146189269,-0.0756072998046875,-0.1267547607421875,-1.0037078857421875,0.0470447391271591,0.0007597998483106,0.0261493120342493
1769146189279,-0.08026123046875,-0.128387451171875,-0.9924774169921876,0.0436438843607902,0.0035880769137293,0.0273887477815151
1769146189289,-0.07867431640625,-0.1288909912109375,-0.98321533203125,0.03633963316679,0.0070789484307169,0.0248861741274595
1769146189299,-0.07763671875,-0.1300506591796875,-0.97430419921875,0.0275570582598447,-0.0076035913079977,0.0208440292626619
1769146189309,-0.0792236328125,-0.1277618408203125,-0.964630126953125,0.005469333846122,-0.0209545493125915,0.0087125310674309
1769146189319,-0.0802764892578125,-0.1257781982421875,-0.9591064453125,-0.0082251727581024,-0.0289309844374656,-0.003099386813119
1769146189329,-0.076812744140625,-0.124053955078125,-0.962738037109375,-0.0147187588736414,-0.0315621867775917,-0.0069543123245239
1769146189339,-0.068023681640625,-0.128875732421875,-0.9673004150390624,-0.0214775949716568,-0.0230200979858636,-0.001880191732198
1769146189349,-0.0618438720703125,-0.1324462890625,-0.969024658203125,-0.0260481126606464,-0.0136098181828856,-0.0002615224220789
1769146189359,-0.0604400634765625,-0.1321258544921875,-0.9724884033203124,-0.0295150149613618,-0.0092124063521623,0.0020346550736576
1769146189369,-0.0628204345703125,-0.1332855224609375,-0.9765777587890624,-0.0348666384816169,0.0012807141756638,0.0017925737192854
1769146189379,-0.063507080078125,-0.1310272216796875,-0.9747772216796876,-0.0417708829045295,0.0021331920288503,-0.0003528688393998
1769146189389,-0.0660247802734375,-0.1291656494140625,-0.9779510498046876,-0.0434569306671619,-0.0053446977399289,-0.0005219795857556
1769146189400,-0.0646820068359375,-0.1349334716796875,-0.982452392578125,-0.0530975721776485,-0.0127429589629173,0.0138497687876224
1769146189409,-0.0490264892578125,-0.149810791015625,-0.9761810302734376,-0.0714438259601593,-0.0347830131649971,0.0329584814608097
1769146189419,-0.0438232421875,-0.1413421630859375,-0.97796630859375,-0.0612034350633621,-0.047510527074337,0.0308726951479911
1769146189429,-0.0679779052734375,-0.132598876953125,-0.989593505859375,-0.0484863109886646,-0.0483728572726249,0.0135107487440109
1769146189439,-0.0886077880859375,-0.1039886474609375,-0.9935455322265624,-0.032907348126173,-0.015688681975007,0.0032394691370427
1769146189449,-0.08367919921875,-0.128448486328125,-0.9916229248046876,-0.0599272511899471,-0.0194019265472888,0.0382469892501831
1769146189459,-0.0446929931640625,-0.12939453125,-0.9715576171875,-0.0300228800624609,-0.0195025950670242,0.0245482195168733
1769146189470,-0.0958404541015625,-0.1104583740234375,-1.001678466796875,-0.0184557065367698,-0.0099676791578531,-0.0011989551130682
1769146189479,-0.1017608642578125,-0.1146697998046875,-0.9842681884765624,-0.0335963107645511,-0.0136407110840082,-0.0104076331481337
1769146189490,-0.083709716796875,-0.1321868896484375,-0.96978759765625,-0.0570230707526207,-0.0179624892771244,-0.0052823801524937
1769146189500,-0.07330322265625,-0.1316375732421875,-0.97796630859375,-0.0608732029795646,-0.0117511982098221,-0.0024591628462076
1769146189510,-0.0718994140625,-0.1327056884765625,-0.991180419921875,-0.0543127730488777,-0.0141624240204691,0.007055246271193
1769146189521,-0.0591888427734375,-0.144439697265625,-0.9909515380859376,-0.0564257241785526,-0.010161024518311,0.0218389853835105
1769146189530,-0.0467987060546875,-0.1482696533203125,-0.9893646240234376,-0.0469824224710464,-0.0087807085365057,0.0277727749198675
1769146189540,-0.05755615234375,-0.1362762451171875,-0.995391845703125,-0.0219388548284769,-0.0118907475844025,0.0183808710426092
1769146189550,-0.0753326416015625,-0.1168670654296875,-1.0066986083984375,0.0072134379297494,0.0019281286513432,-0.0018498316640034
1769146189560,-0.0892791748046875,-0.1079864501953125,-1.010040283203125,0.032359804958105,0.0043462789617478,-0.0180394537746906
1769146189570,-0.089996337890625,-0.11181640625,-1.002685546875,0.0369612127542495,0.0059883841313421,-0.015694273635745
1769146189580,-0.073577880859375,-0.1185760498046875,-0.9926300048828124,0.0310601815581321,0.0067921262234449,-0.0091370390728116
1769146189590,-0.062957763671875,-0.1270294189453125,-0.98211669921875,0.0179699454456567,-0.0006146575906313,-0.0002945456071756
1769146189600,-0.0595550537109375,-0.132568359375,-0.9730682373046876,0.0009699232759885,0.0005360943032428,0.0088326400145888
1769146189610,-0.05853271484375,-0.1350555419921875,-0.96826171875,-0.0168783161789178,0.0017944378778338,0.015573632903397
1769146189621,-0.0590362548828125,-0.133544921875,-0.9680938720703124,-0.0281970165669918,-0.0058102183975279,0.0190621074289083
1769146189631,-0.0583953857421875,-0.1298370361328125,-0.9722137451171876,-0.0281970165669918,-0.0058102183975279,0.0190621074289083
1769146189641,-0.0547332763671875,-0.133514404296875,-0.9743804931640624,-0.0378469824790954,-0.0184863321483135,0.0248454287648201
1769146189650,-0.0512237548828125,-0.138702392578125,-0.96978759765625,-0.0735522508621215,-0.0140825295820832,0.0502804815769195
1769146189660,-0.0514984130859375,-0.141632080078125,-0.9651947021484376,-0.0908646583557128,-0.0016010924009606,0.057996992021799
1769146189671,-0.0608978271484375,-0.1297607421875,-0.97589111328125,-0.0851140916347503,0.0007334345718845,0.0521489530801773
1769146189680,-0.07342529296875,-0.119110107421875,-0.9932861328125,-0.0851140916347503,0.0007334345718845,0.0521489530801773
1769146189690,-0.0721435546875,-0.1160430908203125,-1.002471923828125,-0.0698480606079101,-0.0068765482865273,0.0448945052921772
1769146189701,-0.07745361328125,-0.11322021484375,-1.0018310546875,-0.0496256090700626,-0.0321262441575527,0.0286430958658456
1769146189711,-0.0833740234375,-0.110870361328125,-1.0031585693359375,-0.0366373732686042,-0.0347984619438648,0.0259274709969759
1769146189721,-0.077667236328125,-0.1112823486328125,-1.0079803466796875,-0.0147914625704288,-0.0381849370896816,0.0260478463023901
1769146189731,-0.07403564453125,-0.116912841796875,-1.01348876953125,0.0044386903755366,-0.0229593776166439,0.0321632623672485
1769146189741,-0.0682830810546875,-0.122894287109375,-1.00836181640625,0.0173630118370056,-0.007538610137999,0.0409735329449176
1769146189751,-0.0678558349609375,-0.1298675537109375,-0.9970703125,0.0152782890945672,0.0084446175023913,0.0437717139720916
1769146189761,-0.0687713623046875,-0.1354217529296875,-0.9881744384765624,0.0098726041615009,0.0209854431450366,0.0488740652799606
1769146189771,-0.069549560546875,-0.1336822509765625,-0.9848480224609376,0.0007555388147011,0.0315113216638565,0.0498218834400177
1769146189781,-0.0732421875,-0.1312103271484375,-0.98150634765625,-0.0056102150119841,0.0446074157953262,0.0457073003053665
1769146189791,-0.077789306640625,-0.12225341796875,-0.982818603515625,-0.0032261533197015,0.0233868155628442,0.0424979254603385
1769146189801,-0.07891845703125,-0.1130523681640625,-0.99114990234375,0.0040535973384976,-0.0064869276247918,0.0395018681883811
1769146189811,-0.080169677734375,-0.1124420166015625,-0.9923553466796876,0.0004111920716241,-0.0314300954341888,0.0339654237031936
1769146189821,-0.0838470458984375,-0.1130218505859375,-0.987030029296875,-0.0067508472129702,-0.0386312827467918,0.0292692054063081
1769146189831,-0.08380126953125,-0.1161956787109375,-0.977813720703125,-0.0171939004212617,-0.0322700552642345,0.0250779222697019
1769146189853,-0.08380126953125,-0.123321533203125,-0.9743194580078124,-0.0245109349489212,-0.0233175735920667,0.0229740254580974
1769146189885,-0.0807952880859375,-0.1188201904296875,-0.9810333251953124,-0.0543481931090354,0.0054312506690621,0.0008617989369668
1769146189891,-0.073333740234375,-0.1185760498046875,-0.9943084716796876,-0.0404715277254581,-0.0021744710393249,0.003771036164835
1769146189901,-0.064971923828125,-0.1170806884765625,-1.0048065185546875,-0.0190490577369928,-0.0129232555627822,0.0080904169008135
1769146189911,-0.0648193359375,-0.1163177490234375,-1.01507568359375,0.0036147085484117,-0.0178415812551975,0.0102944495156407
1769146189921,-0.0699005126953125,-0.1163177490234375,-1.01531982421875,0.0215412452816963,-0.0069005168043076,0.012459865771234
1769146189932,-0.072845458984375,-0.1180267333984375,-1.0062255859375,0.0305714905261993,-0.0031036478467285,0.0221055690199136
1769146189942,-0.0674896240234375,-0.1281890869140625,-0.992034912109375,0.0117144463583827,0.0033276197500526,0.0394094586372375
1769146189953,-0.0552520751953125,-0.1446075439453125,-0.9664459228515624,-0.0190629065036773,-0.0017174725653603,0.0427352115511894
1769146189962,-0.072357177734375,-0.1267852783203125,-0.959625244140625,-0.0282651931047439,0.0064046359620988,0.0180085618048906
1769146189972,-0.093658447265625,-0.109710693359375,-0.9729766845703124,-0.0131829138845205,0.0178823284804821,-0.017780328169465
1769146189982,-0.1038360595703125,-0.0905914306640625,-0.9901885986328124,-0.0092917690053582,0.0109392004087567,-0.0141858598217368
1769146189992,-0.068603515625,-0.1126251220703125,-0.9816741943359376,-0.0210285857319831,-0.0158990714699029,0.0093650063499808
1769146190002,-0.0602569580078125,-0.1107177734375,-0.980865478515625,-0.0010381002211943,-0.013171462342143,-0.0147845391184091
1769146190012,-0.105316162109375,-0.100311279296875,-0.9981231689453124,0.0083056008443236,0.0091689974069595,-0.0299341976642608
1769146190022,-0.1019744873046875,-0.1135711669921875,-0.9878997802734376,-0.001603755634278,0.0150399357080459,-0.0243436899036169
1769146190032,-0.0805511474609375,-0.13079833984375,-0.9759674072265624,-0.001603755634278,0.0150399357080459,-0.0243436899036169
1769146190042,-0.0659942626953125,-0.13189697265625,-0.9809417724609376,-0.0191222950816154,0.0116752982139587,-0.0074938689358532
1769146190052,-0.0682373046875,-0.1274566650390625,-0.991363525390625,-0.0226459242403507,0.0124449515715241,0.0077806916087865
1769146190062,-0.067108154296875,-0.13104248046875,-0.9899444580078124,-0.0271906089037656,0.0028240159153938,0.01033466309309
1769146190072,-0.0617523193359375,-0.135833740234375,-0.98223876953125,-0.0309075824916362,-0.0126478848978877,0.0102800680324435
1769146190082,-0.0673675537109375,-0.128173828125,-0.9840545654296876,-0.0237703099846839,-0.0259924512356519,-0.0039843553677201
1769146190093,-0.08856201171875,-0.11688232421875,-0.9855804443359376,-0.0223196875303983,-0.0230595134198665,-0.0250148065388202
1769146190103,-0.100860595703125,-0.1077423095703125,-0.986846923828125,-0.018983544781804,-0.0217447094619274,-0.0402012169361114
1769146190113,-0.09869384765625,-0.10430908203125,-0.9881439208984376,-0.0168761853128671,-0.017692444846034,-0.0430092513561248
1769146190123,-0.088226318359375,-0.1048583984375,-0.990509033203125,-0.0165981519967317,-0.0182298701256513,-0.0350535921752452
1769146190133,-0.0792388916015625,-0.1120452880859375,-0.992889404296875,-0.0156276952475309,-0.013874003663659,-0.0284023471176624
1769146190143,-0.075653076171875,-0.1181793212890625,-0.9863739013671876,-0.0194008629769086,-0.0050429617986083,-0.023633424192667
1769146190153,-0.07281494140625,-0.126800537109375,-0.9824676513671876,-0.0220107603818178,0.002789394930005,-0.0120976753532886
1769146190163,-0.06640625,-0.130035400390625,-0.9804229736328124,-0.0201233774423599,0.0042504048906266,-0.0005302353529259
1769146190173,-0.0626068115234375,-0.126129150390625,-0.98980712890625,-0.0109407985582947,-0.0048317732289433,0.0129349734634161
1769146190183,-0.0638275146484375,-0.1194305419921875,-0.998138427734375,-0.0048283110372722,-0.0164777766913175,0.0176700744777917
1769146190193,-0.066070556640625,-0.1181182861328125,-0.997161865234375,-0.0058506983332335,-0.0226065088063478,0.019375829026103
1769146190205,-0.0687713623046875,-0.117706298828125,-0.993804931640625,-0.0089266495779156,-0.0230067819356918,0.0173358470201492
1769146190213,-0.0716400146484375,-0.1145172119140625,-0.993194580078125,-0.0025545042008161,-0.0250065494328737,0.0116792926564812
1769146190223,-0.0840606689453125,-0.108245849609375,-0.990997314453125,0.0003150519623886,-0.0201846305280923,0.0005845638806931
1769146190233,-0.0888824462890625,-0.10809326171875,-0.9866790771484376,-0.0073798857629299,-0.0123807694762945,-0.0029150960035622
1769146190243,-0.083770751953125,-0.1142578125,-0.9730377197265624,-0.0270870104432106,-0.0138425789773464,-0.0083628585562109
1769146190254,-0.0832061767578125,-0.114166259765625,-0.9630584716796876,-0.0461523160338401,0.0003496730350889,-0.0150868073105812
1769146190263,-0.083709716796875,-0.112213134765625,-0.96954345703125,-0.053712498396635,0.011991947889328,-0.0153888100758194
1769146190274,-0.077392578125,-0.1115570068359375,-0.9809722900390624,-0.051583033055067,0.0089783146977424,-0.0129781169816851
1769146190283,-0.0697174072265625,-0.1150970458984375,-0.9901580810546876,-0.0377196818590164,0.0059124836698174,-0.0017979000695049
1769146190293,-0.0608978271484375,-0.1158905029296875,-1.0011749267578125,-0.0206022132188081,0.0038181741256266,0.0115559883415699
1769146190303,-0.063323974609375,-0.117889404296875,-1.0038909912109375,-0.0057026268914341,0.0003398193512111,0.0163920223712921
1769146190314,-0.0685577392578125,-0.12017822265625,-1.000091552734375,-0.0015417039394378,0.0047249803319573,0.0162620600312948
1769146190324,-0.0753936767578125,-0.1197052001953125,-0.9944915771484376,0.0018008295446634,0.0081652514636516,0.0089711239561438
1769146190334,-0.077972412109375,-0.1181793212890625,-0.9944915771484376,0.0061684134416282,0.0143509758636355,0.0127490842714905
1769146190344,-0.07672119140625,-0.11669921875,-0.9917449951171876,0.0031103058718144,0.0261455830186605,0.0133815854787826
1769146190354,-0.080902099609375,-0.1127777099609375,-0.9883575439453124,-0.0042205778881907,0.0173856485635042,0.0080012008547782
1769146190364,-0.0841064453125,-0.1097869873046875,-0.9836578369140624,-0.0174365136772394,-0.0017108146566897,-0.0012205267557874
1769146190374,-0.0849761962890625,-0.1083221435546875,-0.97943115234375,-0.0302058383822441,-0.0052229915745556,-0.006230198778212
1769146190384,-0.08380126953125,-0.109405517578125,-0.97802734375,-0.0373212732374668,-0.0067199543118476,-0.0095405085012316
1769146190394,-0.0797882080078125,-0.11114501953125,-0.9830169677734376,-0.0281687881797552,-0.0084560690447688,-0.007138337008655
1769146190404,-0.0754547119140625,-0.1113128662109375,-0.990875244140625,-0.0157992038875818,0.0052616074681282,-0.0009526127250865
1769146190414,-0.07598876953125,-0.1119842529296875,-0.9928131103515624,0.0021739383228123,0.0189883392304182,0.0019489012192934
1769146190424,-0.077484130859375,-0.113250732421875,-0.9942626953125,0.0150378048419952,0.0274289604276418,0.0076328860595822
1769146190434,-0.0761260986328125,-0.114654541015625,-0.992218017578125,0.0185134969651699,0.0247210580855608,0.0085721826180815
1769146190445,-0.076019287109375,-0.1134796142578125,-0.99322509765625,0.0192408058792352,0.0110137686133384,0.0059545617550611
1769146190454,-0.0802001953125,-0.11114501953125,-0.9887847900390624,0.0143568348139524,0.0043822317384183,-0.0010082727530971
1769146190464,-0.085357666015625,-0.108917236328125,-0.984130859375,0.0031313446816056,0.0034930021502077,-0.0081490064039826
1769146190474,-0.08697509765625,-0.1086883544921875,-0.9813385009765624,-0.007619303651154,-0.0017398431664332,-0.0093378415331244
1769146190484,-0.0821990966796875,-0.112640380859375,-0.9781341552734376,-0.0181292034685611,-0.0108372010290622,-0.0022362563759088
1769146190494,-0.0684814453125,-0.12579345703125,-0.973358154296875,-0.0471174456179142,-0.0224123653024435,0.0137618845328688
1769146190505,-0.0549774169921875,-0.1235198974609375,-0.9722137451171876,-0.0450071543455123,-0.0386294163763523,0.0048922267742455
1769146190514,-0.076324462890625,-0.1126251220703125,-0.9909210205078124,-0.0214467030018568,-0.0312695056200027,-0.0119671802967786
1769146190525,-0.0873870849609375,-0.0914764404296875,-1.00128173828125,0.0141554996371269,0.0076118470169603,-0.025997245684266
1769146190535,-0.086456298828125,-0.104583740234375,-1.0039520263671875,0.008944759145379,0.0140918502584099,0.0051889028400182
1769146190545,-0.050628662109375,-0.115814208984375,-0.9856719970703124,0.0280177854001522,0.01811801828444,-0.0054650730453431
1769146190555,-0.0915069580078125,-0.1032867431640625,-0.99700927734375,0.0359654575586319,0.0425911359488964,-0.0316053293645381
1769146190565,-0.1024169921875,-0.103973388671875,-0.985992431640625,0.0214597526937723,0.0522472262382507,-0.0385204926133155
1769146190575,-0.0873870849609375,-0.1161346435546875,-0.970184326171875,-0.0110840760171413,0.0455088950693607,-0.0251101460307836
1769146190585,-0.072723388671875,-0.121337890625,-0.96136474609375,-0.0453499034047126,0.0389191694557666,-0.0067465859465301
1769146190595,-0.06719970703125,-0.1186981201171875,-0.9663543701171876,-0.0626197084784507,0.0216661468148231,-0.0020287961233407
1769146190605,-0.06365966796875,-0.116546630859375,-0.982452392578125,-0.0650288015604019,-0.0088241174817085,-0.0016351809026673
1769146190615,-0.0543060302734375,-0.1217041015625,-0.9927520751953124,-0.0620641708374023,-0.0344264172017574,0.0061550978571176
1769146190625,-0.0517730712890625,-0.1229095458984375,-0.998291015625,-0.0382480546832084,-0.0453033000230789,0.0080984067171812
1769146190635,-0.06622314453125,-0.1162567138671875,-1.006683349609375,-0.0090741887688636,-0.0251511596143245,0.0031177627388387
1769146190645,-0.08905029296875,-0.10638427734375,-1.008941650390625,0.0178133510053157,0.0094046872109174,-0.0051702610217034
1769146190655,-0.095703125,-0.10186767578125,-1.006378173828125,0.0355960763990879,0.0332889817655086,-0.0071761538274586
1769146190665,-0.0908203125,-0.102203369140625,-1.0030364990234375,0.0447477623820304,0.0457190200686454,-0.0058586881496012
1769146190675,-0.088775634765625,-0.10333251953125,-0.9996795654296876,0.0471944101154804,0.0515167191624641,-0.010979413986206
1769146190685,-0.08447265625,-0.10784912109375,-0.9940032958984376,0.0493449121713638,0.0406361110508441,-0.0118286963552236
1769146190695,-0.0778656005859375,-0.109771728515625,-0.991943359375,0.0460124984383583,0.0275040622800588,-0.0121847605332732
1769146190705,-0.0738983154296875,-0.1141204833984375,-0.9881134033203124,0.0422438606619834,0.0100326603278517,-0.0072909360751509
1769146190715,-0.0716705322265625,-0.11505126953125,-0.98345947265625,0.0357633233070373,-0.0035603800788521,-0.0033643713686615
1769146190726,-0.06671142578125,-0.1195831298828125,-0.9784393310546876,0.0235183760523796,-0.0177912469953298,0.004194744862616
1769146190736,-0.0595855712890625,-0.126129150390625,-0.9702606201171876,-0.0033220271579921,-0.0370602831244468,0.0098281297832727
1769146190746,-0.0577392578125,-0.125152587890625,-0.9604644775390624,-0.0274737030267715,-0.0364783816039562,0.0069037126377224
1769146190756,-0.0683135986328125,-0.1165008544921875,-0.9652862548828124,-0.0417146906256675,-0.0449749305844306,-0.0022359900176525
1769146190766,-0.0772247314453125,-0.1116485595703125,-0.9716644287109376,-0.0562451630830764,-0.0374456420540809,-0.0053039514459669
1769146190776,-0.079010009765625,-0.11065673828125,-0.9764404296875,-0.0627762973308563,-0.0119802299886941,0.0001533980830572
1769146190786,-0.0759124755859375,-0.1125640869140625,-0.98486328125,-0.0573964491486549,0.0087434239685535,0.0045079328119754
1769146190796,-0.07403564453125,-0.113494873046875,-1.003936767578125,-0.0293333884328603,0.0210299175232648,0.0051201935857534
1769146190806,-0.071533203125,-0.1085052490234375,-1.0243377685546875,0.0079476712271571,0.0256531648337841,0.003263437654823
1769146190816,-0.0726165771484375,-0.10791015625,-1.034515380859375,0.0419644936919212,0.0358719788491725,0.0065716160461306
1769146190826,-0.0726776123046875,-0.1126251220703125,-1.0288543701171875,0.0639169290661811,0.034695129841566,0.0054592140950262
1769146190837,-0.07537841796875,-0.116485595703125,-1.0148773193359375,0.0663132444024086,0.0337864607572555,-0.0014213290996849
1769146190846,-0.0721588134765625,-0.123504638671875,-0.994415283203125,0.0663132444024086,0.0337864607572555,-0.0014213290996849
1769146190856,-0.0669403076171875,-0.126495361328125,-0.9785919189453124,0.0568619519472122,0.0218752045184373,-0.0017305220244452
1769146190866,-0.072509765625,-0.123504638671875,-0.9630584716796876,0.0072320802137255,-0.0124324345961213,-0.0165017452090978
1769146190876,-0.0771484375,-0.1165618896484375,-0.9562225341796876,-0.0109218899160623,-0.0342314727604389,-0.025399899110198
1769146190887,-0.079437255859375,-0.109527587890625,-0.962921142578125,-0.0164487473666667,-0.0441014133393764,-0.030379744246602
1769146190896,-0.0747528076171875,-0.1042633056640625,-0.9721221923828124,-0.014748053625226,-0.0359361618757247,-0.0279394891113042
1769146190906,-0.071990966796875,-0.1097412109375,-0.9761810302734376,-0.0107703562825918,-0.016015451401472,-0.0172737948596477
1769146190916,-0.069305419921875,-0.11456298828125,-0.9771881103515624,-0.0122196478769183,0.0214688070118427,-0.0026551715563982
1769146190926,-0.0664520263671875,-0.11407470703125,-0.980010986328125,-0.0129067441448569,0.0511047281324863,0.0098997689783573
1769146190937,-0.0695037841796875,-0.117156982421875,-0.9821624755859376,-0.0124529413878917,0.0683209970593452,0.0137714724987745
1769146190946,-0.0769195556640625,-0.113525390625,-0.9845733642578124,-0.0086198532953858,0.0619536489248275,0.005420065484941
1769146190957,-0.083160400390625,-0.109771728515625,-0.993499755859375,0.0019518306944519,0.026157034561038,-0.0113035207614302
1769146190967,-0.0826568603515625,-0.107086181640625,-1.0010223388671875,0.0138590903952717,-0.015229819342494,-0.0227258186787366
1769146190977,-0.0834197998046875,-0.1081085205078125,-1.000823974609375,0.0214019604027271,-0.0552542023360729,-0.0370373800396919
1769146190988,-0.0875701904296875,-0.1095733642578125,-0.994720458984375,0.0174594167619943,-0.0728337243199348,-0.0466181002557277
1769146190997,-0.0923309326171875,-0.1086883544921875,-0.9844207763671876,0.007351123727858,-0.0593741126358509,-0.0522730574011802
1769146191007,-0.0928192138671875,-0.1099395751953125,-0.9816131591796876,-0.0016977651976048,-0.0362573415040969,-0.0450878478586673
1769146191017,-0.090667724609375,-0.109466552734375,-0.9811553955078124,-0.0063769393600523,-0.0170506220310926,-0.0442460253834724
1769146191027,-0.0837554931640625,-0.114898681640625,-0.982086181640625,-0.0114353476092219,0.0075399414636194,-0.035070102661848
1769146191038,-0.0679931640625,-0.1316070556640625,-0.9770355224609376,-0.0358309671282768,0.0159246381372213,-0.0131400367245078
1769146191047,-0.0474395751953125,-0.1367034912109375,-0.9662628173828124,-0.0259066987782716,0.0056895771995186,-0.0189981926232576
1769146191057,-0.066192626953125,-0.1287078857421875,-0.99127197265625,-0.0042536007240414,0.0127911623567342,-0.0312753655016422
1769146191067,-0.07379150390625,-0.1070098876953125,-1.0045623779296875,0.0466125085949897,0.0241077337414026,-0.0480668619275093
1769146191078,-0.08538818359375,-0.107574462890625,-1.0169525146484375,0.0505390726029872,0.0129525503143668,-0.0304140988737344
1769146191087,-0.0574188232421875,-0.1196746826171875,-0.996124267578125,0.0588129833340644,-0.0135850505903363,-0.0291182044893503
1769146191097,-0.0836944580078125,-0.101348876953125,-0.9967193603515624,0.0696619004011154,-0.0027632960118353,-0.053294114768505
1769146191107,-0.112884521484375,-0.100830078125,-0.990478515625,0.0372142121195793,-0.0065790731459856,-0.0632199794054031
1769146191117,-0.1011962890625,-0.117584228515625,-0.959381103515625,-0.0204615984112024,-0.0051164650358259,-0.062120895832777
1769146191128,-0.0853271484375,-0.13330078125,-0.9511260986328124,-0.0638181269168853,-0.0036203011404722,-0.0585432052612304
1769146191137,-0.0714874267578125,-0.1333465576171875,-0.9640045166015624,-0.0828924849629402,0.0092891054227948,-0.0477728471159935
1769146191148,-0.06573486328125,-0.1375579833984375,-0.980010986328125,-0.0798479616641998,0.0134303215891122,-0.0341281443834304
1769146191158,-0.048553466796875,-0.144622802734375,-0.997467041015625,-0.0548600517213344,0.0130604086443781,-0.0156103847548365
1769146191167,-0.0404052734375,-0.1401519775390625,-1.018280029296875,0.0011377023765817,0.0135674737393856,-0.0035699673462659
1769146191178,-0.0540771484375,-0.125274658203125,-1.0386505126953125,0.0698075741529464,0.015957660973072,-0.0090912329033017
1769146191188,-0.074859619140625,-0.1107330322265625,-1.0488433837890625,0.1295958161354065,0.01653902977705,-0.0261200182139873
1769146191198,-0.0893707275390625,-0.1052703857421875,-1.04302978515625,0.1594378650188446,0.0188724901527166,-0.027866518124938
1769146191208,-0.0884552001953125,-0.1102142333984375,-1.019287109375,0.1615843623876571,0.0308572482317686,-0.0249301176518201
1769146191218,-0.08563232421875,-0.11639404296875,-0.9928436279296876,0.1356787383556366,0.0235383491963148,-0.0164934899657964
1769146191228,-0.08746337890625,-0.124755859375,-0.962890625,0.0866691172122955,0.0276590585708618,-0.0220669526606798
1769146191239,-0.093963623046875,-0.13092041015625,-0.9396820068359376,0.0362847708165645,0.029852170497179,-0.0276944786310195
1769146191248,-0.0936431884765625,-0.1313934326171875,-0.9291229248046876,-0.0093500921502709,0.0198285654187202,-0.0351617150008678
1769146191258,-0.081512451171875,-0.13427734375,-0.9298858642578124,-0.0468703024089336,0.0007803061744198,-0.0386659018695354
1769146191268,-0.0692138671875,-0.138916015625,-0.93902587890625,-0.0719780549407005,-0.0137845212593674,-0.0360749140381813
1769146191278,-0.0567626953125,-0.1435546875,-0.95892333984375,-0.0758444294333458,-0.0269226934760808,-0.0292953047901392
1769146191288,-0.046539306640625,-0.1395263671875,-0.9824981689453124,-0.0491600893437862,-0.0341103002429008,-0.0290209986269474
1769146191305,-0.0543670654296875,-0.127105712890625,-1.0079345703125,-0.0119490707293152,-0.0246542133390903,-0.0279959477484226
1769146191308,-0.0643768310546875,-0.1201019287109375,-1.0152130126953125,-0.0119490707293152,-0.0246542133390903,-0.0279959477484226
1769146191318,-0.07513427734375,-0.1199951171875,-1.00579833984375,0.0098864529281854,0.0109676960855722,-0.0355641208589077
1769146191328,-0.0851593017578125,-0.118804931640625,-0.996124267578125,-0.0001326254277955,0.0301712173968553,-0.0356930159032344
1769146191338,-0.0831298828125,-0.119964599609375,-0.9898681640625,-0.0103857954964041,0.0497553050518035,-0.0249927006661891
1769146191348,-0.079833984375,-0.1195220947265625,-0.990325927734375,-0.0147983869537711,0.0485187992453575,-0.0269815493375062
1769146191359,-0.08038330078125,-0.122100830078125,-0.9912109375,-0.0231186356395483,0.0323049426078796,-0.0258417166769504
1769146191370,-0.0734100341796875,-0.13104248046875,-0.9881591796875,-0.0291016921401023,0.0168218575417995,-0.0279908888041973
1769146191379,-0.0643463134765625,-0.1380615234375,-0.986846923828125,-0.0301275420933961,0.0016889767721295,-0.0204317718744277
1769146191389,-0.0605316162109375,-0.14093017578125,-0.9884033203125,-0.0200948826968669,-0.0102744754403829,-0.0221242103725671
1769146191399,-0.0615081787109375,-0.14154052734375,-0.9986724853515624,-0.0027585022617131,-0.0175012294203043,-0.0209311135113239
1769146191409,-0.066162109375,-0.1367034912109375,-1.002593994140625,0.0110590429976582,-0.006939931306988,-0.0211556181311607
1769146191420,-0.07391357421875,-0.12933349609375,-1.0073699951171875,0.025781262665987,0.0116401445120573,-0.028135497123003
1769146191429,-0.08349609375,-0.1236114501953125,-1.008209228515625,0.0443850420415401,0.0197441428899765,-0.0372501648962497
1769146191439,-0.0826263427734375,-0.122039794921875,-1.011871337890625,0.0614732131361961,0.0175608843564987,-0.0370000973343849
1769146191449,-0.07745361328125,-0.1222381591796875,-1.0075531005859375,0.0735162943601608,0.008820123039186,-0.0329843163490295
1769146191459,-0.07611083984375,-0.1226959228515625,-0.99798583984375,0.0741493254899978,0.0115740979090332,-0.031105987727642
1769146191469,-0.0805816650390625,-0.1214599609375,-0.9884185791015624,0.0731674209237098,0.0191217623651027,-0.0332732684910297
1769146191479,-0.0840301513671875,-0.1197967529296875,-0.9783782958984376,0.062883622944355,0.005207278765738,-0.0404408983886241
1769146191489,-0.0850677490234375,-0.1172637939453125,-0.965087890625,0.0444034188985824,-0.012499812990427,-0.0556190535426139
1769146191499,-0.085418701171875,-0.118194580078125,-0.9583587646484376,0.0213721338659524,-0.014847389422357,-0.0661451965570449
1769146191509,-0.080535888671875,-0.1217041015625,-0.9599761962890624,0.0083932187408208,-0.0148087730631232,-0.0674400255084037
1769146191520,-0.071563720703125,-0.122222900390625,-0.96441650390625,-0.003975034225732,-0.0009859022684395,-0.0661715641617775
1769146191529,-0.06744384765625,-0.1272735595703125,-0.9691162109375,-0.0105075016617774,0.0141608268022537,-0.0594305694103241
1769146191540,-0.0642242431640625,-0.1274261474609375,-0.9748992919921876,-0.0071913339197635,0.0284766480326652,-0.0539955906569957
1769146191549,-0.0647430419921875,-0.1223297119140625,-0.984100341796875,2.663161012605997e-06,0.0247458256781101,-0.0461650975048542
1769146191560,-0.0625762939453125,-0.1302337646484375,-0.986328125,-0.0079418122768402,0.0064821341075003,-0.0309294201433658
1769146191570,-0.0448760986328125,-0.1439971923828125,-0.981536865234375,-0.0088177267462015,-0.0172966979444026,-0.0113591812551021
1769146191580,-0.0447235107421875,-0.13812255859375,-0.98907470703125,0.0144226150587201,-0.0115293571725487,-0.0127347037196159
1769146191590,-0.06671142578125,-0.1281585693359375,-1.0001983642578125,0.0507233664393425,0.005814479663968,-0.0320913568139076
1769146191600,-0.096527099609375,-0.10443115234375,-0.9998779296875,0.05825025588274,0.0391039922833442,-0.0518469512462616
1769146191610,-0.0894012451171875,-0.128173828125,-0.97650146484375,0.0130351083353161,0.0316324941813945,-0.028063591569662
1769146191621,-0.0641632080078125,-0.126556396484375,-0.949249267578125,0.0146252820268273,0.0476753786206245,-0.0435168519616127
1769146191630,-0.1085662841796875,-0.1086883544921875,-0.9758453369140624,0.0012828446924686,0.0694680213928222,-0.0651451796293258
1769146191640,-0.1058197021484375,-0.1159515380859375,-0.9654083251953124,-0.0405423678457737,0.0425610430538654,-0.0729879215359687
1769146191650,-0.0804595947265625,-0.1336212158203125,-0.954315185546875,-0.0790687203407287,0.0138681447133421,-0.0672554671764373
1769146191660,-0.065948486328125,-0.1313018798828125,-0.97113037109375,-0.0830834358930587,0.0027872642967849,-0.0600510872900486
1769146191670,-0.0613250732421875,-0.13360595703125,-0.9981231689453124,-0.0645060241222381,-0.006645651999861,-0.0506053864955902
1769146191680,-0.0485382080078125,-0.14263916015625,-1.0169830322265625,-0.02109170332551,-0.0192384086549282,-0.040314931422472
1769146191690,-0.044830322265625,-0.143524169921875,-1.0283355712890625,0.0382134318351745,-0.0062914518639445,-0.0298889223486185
1769146191700,-0.057464599609375,-0.1327056884765625,-1.034637451171875,0.0933091714978218,0.0228959955275058,-0.0305587071925401
1769146191710,-0.0760498046875,-0.1237335205078125,-1.0277252197265625,0.1296293586492538,0.0518368333578109,-0.039964459836483
1769146191721,-0.0907745361328125,-0.119049072265625,-1.0092926025390625,0.1330107748508453,0.0748276337981224,-0.0428784899413585
1769146191730,-0.0930938720703125,-0.122833251953125,-0.982421875,0.1048808768391609,0.0789973437786102,-0.0520120672881603
1769146191740,-0.089447021484375,-0.126434326171875,-0.963134765625,0.0707069262862205,0.0658783465623855,-0.0528991669416427
1769146191750,-0.0759124755859375,-0.13446044921875,-0.9528045654296876,0.033542513847351,0.0474711135029792,-0.0445991605520248
1769146191761,-0.060699462890625,-0.1388397216796875,-0.9488067626953124,0.0049643986858427,0.029640981927514,-0.0339829996228218
1769146191773,-0.0547637939453125,-0.1395263671875,-0.949127197265625,-0.0245042778551578,-0.0017355820164084,-0.0316934809088707
1769146191781,-0.0504302978515625,-0.1403656005859375,-0.9512176513671876,-0.0444670654833316,-0.0305784158408641,-0.0222547054290771
1769146191791,-0.04559326171875,-0.13995361328125,-0.9593353271484376,-0.0517151243984699,-0.0441671945154666,-0.0091066788882017
1769146191801,-0.039276123046875,-0.144775390625,-0.97442626953125,-0.049922551959753,-0.0429804883897304,0.0096291918307542
1769146191811,-0.0381622314453125,-0.15057373046875,-0.98284912109375,-0.0522003546357154,-0.0436713136732578,0.0234494004398584
1769146191821,-0.0454559326171875,-0.1475982666015625,-0.985626220703125,-0.0349180363118648,-0.0323134660720825,0.0202288385480642
1769146191831,-0.0656890869140625,-0.1351470947265625,-0.99969482421875,-0.0124958176165819,0.005070658866316,0.0184751469641923
1769146191841,-0.076080322265625,-0.1299591064453125,-1.0030670166015625,-0.0045473473146557,0.0295083578675985,0.0183699522167444
1769146191851,-0.0789642333984375,-0.12847900390625,-0.9969329833984376,0.0026122946292161,0.0364349745213985,0.0106361331418156
1769146191861,-0.081939697265625,-0.1233367919921875,-0.99957275390625,0.0163568686693906,0.0196554604917764,-0.0008857673965394
1769146191872,-0.07720947265625,-0.118927001953125,-1.0073394775390625,0.0306820124387741,-0.0067945229820907,-0.0072001223452389
1769146191881,-0.07025146484375,-0.1198577880859375,-1.006866455078125,0.0419045723974704,-0.0239958800375461,-0.010170878842473
1769146191891,-0.06524658203125,-0.1263580322265625,-1.0011138916015625,0.0445405691862106,-0.0301789417862892,-0.0064208814874291
1769146191901,-0.0587158203125,-0.1339111328125,-0.9872283935546876,0.0381364673376083,-0.0288798511028289,0.0012420982820913
1769146191911,-0.0546722412109375,-0.142303466796875,-0.978912353515625,0.0284470878541469,-0.012434565462172,0.0082054659724235
1769146191921,-0.0528717041015625,-0.1460113525390625,-0.9718475341796876,0.020316457375884,0.0106989834457635,0.0177044291049242
1769146191931,-0.058441162109375,-0.1435089111328125,-0.966888427734375,0.0175933744758367,0.0283501483500003,0.0139086246490478
1769146191941,-0.064453125,-0.140106201171875,-0.9697265625,0.0119623867794871,0.0337393209338188,0.011314439587295
1769146191951,-0.0659027099609375,-0.1354522705078125,-0.970001220703125,0.0050035468302667,0.0235689748078584,0.0074877436272799
1769146191966,-0.0647430419921875,-0.1324615478515625,-0.970489501953125,-0.004734834190458,0.0097977695986628,0.0137845212593674
1769146191971,-0.065460205078125,-0.129974365234375,-0.970123291015625,-0.0094113452360033,-0.005306614562869,0.0146380644291639
1769146191981,-0.0690460205078125,-0.1291351318359375,-0.97503662109375,-0.0131730595603585,-0.0067955879494547,0.0118827586993575
1769146191991,-0.071258544921875,-0.1309967041015625,-0.976226806640625,-0.020672520622611,-0.0069284797646105,0.0101019022986292
1769146192003,-0.070831298828125,-0.1342620849609375,-0.9720001220703124,-0.0307445973157882,-0.0013797837309539,0.007325024344027
1769146192012,-0.07318115234375,-0.136627197265625,-0.97021484375,-0.0434382893145084,0.0133158052340149,0.0020945761352777
1769146192021,-0.0755462646484375,-0.13665771484375,-0.971710205078125,-0.0528080873191356,0.0190083123743534,0.0035848810803145
1769146192032,-0.0665130615234375,-0.137908935546875,-0.977294921875,-0.0537468530237674,0.0089626023545861,0.0142566999420523
1769146192042,-0.0604400634765625,-0.1370086669921875,-0.982696533203125,-0.0483662001788616,-0.002274605911225,0.0203068703413009
1769146192052,-0.0608367919921875,-0.13232421875,-0.9932861328125,-0.0348314829170703,-0.0174426399171352,0.0220123585313558
1769146192062,-0.062713623046875,-0.127166748046875,-1.0071563720703125,-0.0113147059455513,-0.0426622442901134,0.0228837449103593
1769146192072,-0.0670166015625,-0.12359619140625,-1.0113372802734375,0.0107498494908213,-0.0518288426101207,0.0154322190210223
1769146192082,-0.073516845703125,-0.125579833984375,-1.0081787109375,0.0234552584588527,-0.0514317639172077,0.0140553647652268
1769146192092,-0.070281982421875,-0.1413421630859375,-0.993194580078125,0.0077324882149696,-0.0536147579550743,0.0298455134034156
1769146192102,-0.0536346435546875,-0.149871826171875,-0.975555419921875,0.0038317560683935,-0.0448052883148193,0.0329816527664661
1769146192112,-0.07330322265625,-0.139923095703125,-0.982177734375,0.0082366243004798,-0.0038147119339555,0.0190511886030435
1769146192122,-0.090240478515625,-0.1243743896484375,-0.9791107177734376,0.0334042944014072,0.0127368345856666,-0.0056229983456432
1769146192132,-0.101318359375,-0.124603271484375,-0.9794769287109376,-0.0055798552930355,0.01630893163383,0.0161936171352863
1769146192142,-0.04998779296875,-0.149688720703125,-0.9488372802734376,-0.0292678736150264,-0.0167883019894361,0.032650887966156
1769146192152,-0.06549072265625,-0.1230621337890625,-0.9618988037109376,-0.0164388939738273,-0.0130478916689753,0.0077535272575914
1769146192162,-0.1013336181640625,-0.1139373779296875,-0.9773101806640624,-0.0399591326713562,-0.0133621441200375,0.0001952097081812
1769146192172,-0.0838623046875,-0.12725830078125,-0.959686279296875,-0.0756582766771316,-0.0228874720633029,0.0101570300757884
1769146192182,-0.0684814453125,-0.1329345703125,-0.96160888671875,-0.09442850202322,-0.0220749415457248,0.0130763873457908
1769146192193,-0.0699310302734375,-0.1261138916015625,-0.982666015625,-0.0863476693630218,-0.0164223834872245,0.0078944079577922
1769146192204,-0.0689544677734375,-0.13323974609375,-0.9959259033203124,-0.0810756757855415,-0.0241823010146617,0.0139810629189014
1769146192213,-0.0538330078125,-0.1433258056640625,-0.9940185546875,-0.0690424516797065,-0.0350775606930255,0.0166122652590274
1769146192223,-0.054046630859375,-0.143218994140625,-0.99566650390625,-0.043341614305973,-0.0223058387637138,0.0121251055970788
1769146192233,-0.0673065185546875,-0.134613037109375,-1.0046844482421875,-0.017649034038186,-0.0112478611990809,-0.0004591289616655
1769146192243,-0.0807342529296875,-0.1245269775390625,-1.006988525390625,0.0087871002033352,-0.006280000321567,-0.0110603738576173
1769146192253,-0.0871734619140625,-0.1182403564453125,-1.00445556640625,0.0171310491859912,-0.01017726957798,-0.0183252114802598
1769146192263,-0.0811004638671875,-0.1215972900390625,-0.9946136474609376,0.010367153212428,-0.0101122893393039,-0.0109509183093905
1769146192273,-0.0701446533203125,-0.1298370361328125,-0.9829254150390624,-0.0033542513847351,-0.0113274892792105,0.0057700048200786
1769146192283,-0.062469482421875,-0.1341400146484375,-0.974609375,-0.0166194569319486,-0.0134534910321235,0.0160330291837453
1769146192293,-0.0645751953125,-0.136474609375,-0.9752197265625,-0.0296471081674098,-0.0190461296588182,0.0215436406433582
1769146192304,-0.06195068359375,-0.1371612548828125,-0.978485107421875,-0.0378927886486053,-0.0210799854248762,0.0244611352682113
1769146192313,-0.061492919921875,-0.1359100341796875,-0.983154296875,-0.0435887575149536,-0.0151264881715178,0.0298756062984466
1769146192323,-0.061187744140625,-0.135345458984375,-0.985382080078125,-0.0379186198115348,-0.0104664890095591,0.0383825413882732
1769146192333,-0.0611114501953125,-0.133209228515625,-0.9955902099609376,-0.0251769926398992,-0.0155882807448506,0.0431496016681194
1769146192343,-0.0617218017578125,-0.1380157470703125,-0.9998626708984376,-0.0146306082606315,-0.029633792117238,0.0492594242095947
1769146192354,-0.0590667724609375,-0.136962890625,-1.0029144287109375,0.0048650624230504,-0.0382049083709716,0.0433669164776802
1769146192363,-0.071624755859375,-0.127593994140625,-1.005584716796875,0.027709923684597,-0.0335273332893848,0.0319028049707412
1769146192373,-0.0845947265625,-0.1222686767578125,-1.0036163330078125,0.0397215783596038,-0.027249464765191,0.0206184592097997
1769146192383,-0.091796875,-0.1242828369140625,-0.9888153076171876,0.035469576716423,-0.0186866018921136,0.0116971358656883
1769146192394,-0.09283447265625,-0.127471923828125,-0.9736480712890624,0.0207710582762956,-0.0050211236812174,0.0056325858458876
1769146192404,-0.0890350341796875,-0.129669189453125,-0.9650115966796876,-0.0025393241085112,0.0117527963593602,0.0096142776310443
1769146192414,-0.08251953125,-0.1313323974609375,-0.961395263671875,-0.0224171578884124,0.0278137885034084,0.0160300992429256
1769146192424,-0.0760040283203125,-0.1315155029296875,-0.9653778076171876,-0.0365311130881309,0.0180724766105413,0.0206663962453603
1769146192434,-0.0751190185546875,-0.127410888671875,-0.9737701416015624,-0.0489158779382705,-0.0024823325220495,0.0208019502460956
1769146192444,-0.0691986083984375,-0.131988525390625,-0.9750518798828124,-0.0614111609756946,-0.0225444566458463,0.025483788922429
1769146192454,-0.0676422119140625,-0.1304473876953125,-0.9803009033203124,-0.0632570013403892,-0.0315906815230846,0.0230768229812383
1769146192464,-0.070556640625,-0.129425048828125,-0.9917144775390624,-0.0506938025355339,-0.0401210524141788,0.0147653641179203
1769146192474,-0.076080322265625,-0.1261444091796875,-0.997161865234375,-0.0284572076052427,-0.0334335900843143,0.0085745798423886
1769146192484,-0.08038330078125,-0.125274658203125,-1.0043487548828125,-0.0059636165387928,-0.0143594983965158,0.0092310486361384
1769146192494,-0.0786895751953125,-0.1240081787109375,-1.001739501953125,0.0053090117871761,0.0035494610201567,0.0151517884805798
1769146192506,-0.0781707763671875,-0.12420654296875,-0.995819091796875,0.010057427920401,0.0084611289203166,0.0154527258127927
1769146192514,-0.0828399658203125,-0.12371826171875,-0.9901580810546876,0.0045105959288775,0.0150812147185206,0.0131293842568993
1769146192524,-0.085205078125,-0.1260223388671875,-0.98150634765625,-0.0064477794803678,0.0223508458584547,0.0124428207054734
1769146192534,-0.0834808349609375,-0.12689208984375,-0.979949951171875,-0.0155163751915097,0.028300879523158,0.0144793400540947
1769146192544,-0.0823516845703125,-0.1250762939453125,-0.9793548583984376,-0.0209827795624732,0.0253785941749811,0.0133317839354276
1769146192555,-0.0780181884765625,-0.125640869140625,-0.983917236328125,-0.0157406143844127,0.0012990899849683,0.0136313894763588
1769146192564,-0.07513427734375,-0.1219482421875,-0.9898681640625,-0.0088366344571113,-0.0240659210830926,0.0120838265866041
1769146192575,-0.0777130126953125,-0.1234588623046875,-0.9914703369140624,-0.0075631109066307,-0.0349963344633579,0.0119051290675997
1769146192584,-0.0792388916015625,-0.123291015625,-0.98785400390625,-0.0061995727010071,-0.0398728474974632,0.0113602457568049
1769146192594,-0.083587646484375,-0.12420654296875,-0.9824066162109376,-0.0069441925734281,-0.0240544695407152,0.0121591947972774
1769146192604,-0.0794830322265625,-0.127777099609375,-0.978179931640625,-0.0106454538181424,-0.0174293238669633,0.021362280473113
1769146192614,-0.077667236328125,-0.1285247802734375,-0.97528076171875,-0.0209537521004676,-0.0122313657775521,0.0297110229730606
1769146192625,-0.07598876953125,-0.1369781494140625,-0.9659423828125,-0.0503244213759899,-0.0105325356125831,0.0477973483502864
1769146192635,-0.0604095458984375,-0.148101806640625,-0.9535675048828124,-0.0823510661721229,-0.0311677735298872,0.059090219438076
1769146192645,-0.068023681640625,-0.1257781982421875,-0.962921142578125,-0.0670996755361557,-0.0474617928266525,0.035098597407341
1769146192655,-0.0873260498046875,-0.109130859375,-0.9971160888671876,-0.0306087750941514,-0.0529188737273216,-0.0010431602131575
1769146192665,-0.0989837646484375,-0.0859832763671875,-1.019683837890625,-0.0033840788528323,-0.0346727594733238,-0.0057047572918236
1769146192675,-0.0794525146484375,-0.1146240234375,-1.0095367431640625,-0.0050544133409857,-0.0168610047549009,0.0226882677525281
1769146192689,-0.066192626953125,-0.1145172119140625,-0.993988037109375,0.0187638346105813,0.0077479346655309,0.0083029372617602
1769146192695,-0.106170654296875,-0.1073760986328125,-0.99847412109375,0.0226477887481451,0.0277586597949266,-0.0110872723162174
1769146192705,-0.10540771484375,-0.1204833984375,-0.97509765625,-0.0116603840142488,0.0257740728557109,-0.0134577518329024
1769146192715,-0.0866851806640625,-0.13897705078125,-0.9503173828125,-0.064180314540863,0.0061122211627662,-0.0060219396837055
1769146192725,-0.0766143798828125,-0.1369171142578125,-0.949249267578125,-0.0920353829860687,-0.0092233261093497,-0.0107501158490777
1769146192735,-0.075439453125,-0.1319427490234375,-0.978179931640625,-0.0895493254065513,-0.0268683657050132,-0.0055335159413516
1769146192745,-0.058441162109375,-0.132598876953125,-0.9954681396484376,-0.0834075435996055,-0.0439967513084411,0.0074549866840243
1769146192756,-0.050994873046875,-0.136077880859375,-1.0018768310546875,-0.0681947693228721,-0.0482191927731037,0.0190045833587646
1769146192765,-0.058197021484375,-0.1338043212890625,-1.0069580078125,-0.0396944172680377,-0.0300777405500412,0.0197044629603624
1769146192775,-0.0771331787109375,-0.1226806640625,-1.0124969482421875,-0.0089365029707551,0.0001147822404163,0.0125378957018256
1769146192785,-0.0926055908203125,-0.113128662109375,-1.018280029296875,0.0277575943619012,0.0255863200873136,0.0079521993175148
1769146192795,-0.0946197509765625,-0.1099853515625,-1.019317626953125,0.0511918142437934,0.0253146775066852,0.0042424155399203
1769146192806,-0.0903472900390625,-0.1076202392578125,-1.011566162109375,0.0584539882838726,0.0261935200542211,0.0047388286329805
1769146192815,-0.0919036865234375,-0.11016845703125,-1.001129150390625,0.0587437413632869,0.0284348372370004,-0.0013073458103463
1769146192826,-0.091522216796875,-0.1166534423828125,-0.987091064453125,0.0487955026328563,0.0221947841346263,-0.0061913169920444
1769146192836,-0.0861053466796875,-0.1243133544921875,-0.9735260009765624,0.0310383439064025,0.013979997485876,-0.0045369612053036
1769146192846,-0.0823211669921875,-0.128753662109375,-0.96807861328125,0.0131661361083388,0.0036565200425684,-0.0039100530557334
1769146192856,-0.0764007568359375,-0.12786865234375,-0.9715576171875,-0.0002689792599994,-0.0090614054352045,0.0014719291357323
1769146192866,-0.0720672607421875,-0.1271514892578125,-0.9709625244140624,-0.0117533290758728,-0.00846379250288,0.0040914141573011
1769146192876,-0.0707855224609375,-0.12774658203125,-0.9698638916015624,-0.0249271877110004,-0.0115978000685572,0.0101988418027758
1769146192886,-0.0677642822265625,-0.1309967041015625,-0.9672088623046876,-0.0408888421952724,-0.0196730364114046,0.0165566056966781
1769146192896,-0.067718505859375,-0.12689208984375,-0.9679412841796876,-0.042569562792778,-0.0257157497107982,0.0131560154259204
1769146192906,-0.08056640625,-0.1159515380859375,-0.9804229736328124,-0.0277943462133407,-0.014502509497106,0.0072259549051523
1769146192916,-0.08746337890625,-0.111419677734375,-0.991119384765625,-0.0182176195085048,-0.0080613885074853,0.008788963779807
1769146192926,-0.0853729248046875,-0.11566162109375,-0.990264892578125,-0.0176959056407213,0.0065732141956686,0.0148969236761331
1769146192936,-0.0870208740234375,-0.11859130859375,-0.9849395751953124,-0.018955048173666,0.0176865849643945,0.0134391095489263
1769146192946,-0.090179443359375,-0.11663818359375,-0.987457275390625,-0.0136090191081166,0.0190344117581844,0.0028586371336132
1769146192956,-0.09161376953125,-0.1151275634765625,-0.9945526123046876,-0.0043268376030027,0.0071505876258015,-0.0056131444871425
1769146192968,-0.0869293212890625,-0.118072509765625,-0.995025634765625,-0.0090211918577551,-0.0079045286402106,-0.0065793395042419
1769146192976,-0.0819854736328125,-0.120452880859375,-0.9879150390625,-0.0224062390625476,-0.0139986397698521,-0.0083024045452475
1769146192986,-0.0845489501953125,-0.12286376953125,-0.978424072265625,-0.0373838581144809,-0.0160149186849594,-0.0115072522312402
1769146192996,-0.083282470703125,-0.1270599365234375,-0.971649169921875,-0.0542677640914917,-0.0140849258750677,-0.0116513296961784
1769146193006,-0.0804901123046875,-0.1245269775390625,-0.9729766845703124,-0.0595940873026847,-0.0094789890572428,-0.0069266157224774
1769146193016,-0.082275390625,-0.1193084716796875,-0.985076904296875,-0.0538632310926914,-0.0012303803814575,-0.0076243639923632
1769146193027,-0.0803070068359375,-0.1148834228515625,-0.998046875,-0.0320002771914005,-0.0069242189638316,-0.0071085095405578
1769146193036,-0.07855224609375,-0.1126861572265625,-1.0101318359375,-0.0037649108562618,-0.0095892436802387,-0.0001243696169694
1769146193047,-0.077789306640625,-0.113494873046875,-1.0197296142578125,0.0241298377513885,-0.002796585438773,0.0018924422329291
1769146193057,-0.0800323486328125,-0.1159210205078125,-1.0184478759765625,0.0492146834731102,0.0072440644726157,-0.0009845705935731
1769146193067,-0.086273193359375,-0.120574951171875,-1.013458251953125,0.066009908914566,0.0253599509596824,-0.0049651972949504
1769146193077,-0.086395263671875,-0.12310791015625,-1.0085601806640625,0.0880331844091415,0.0072888056747615,-0.0013238573446869
1769146193090,-0.07904052734375,-0.121490478515625,-0.99810791015625,0.0803100168704986,0.021450962871313,0.0007041397620923
1769146193097,-0.0888671875,-0.1197662353515625,-0.9833221435546876,0.0641278550028801,0.0117362849414348,-0.0066698868758976
1769146193107,-0.094146728515625,-0.1220550537109375,-0.9626922607421876,0.0272412076592445,0.0084049366414546,-0.0144575024023652
1769146193117,-0.09356689453125,-0.1236724853515625,-0.9510955810546876,-0.0132079469040036,0.001285774167627,-0.0205305758863687
1769146193127,-0.0908203125,-0.1241302490234375,-0.943359375,-0.0505079142749309,-0.0034442662727087,-0.020796624943614
1769146193138,-0.087432861328125,-0.1199188232421875,-0.950225830078125,-0.0679612085223198,-0.0087876329198479,-0.0281557384878397
1769146193147,-0.0854644775390625,-0.115509033203125,-0.96527099609375,-0.0720195993781089,-0.0072238245047628,-0.0310865473002195
1769146193157,-0.08135986328125,-0.1148223876953125,-0.977874755859375,-0.0615738816559314,-0.0006756439688615,-0.028826056048274
1769146193167,-0.078125,-0.1157989501953125,-0.9915771484375,-0.0409538261592388,-0.0063678845763206,-0.0222517754882574
1769146193177,-0.0662078857421875,-0.1318511962890625,-0.9963226318359376,-0.0499302744865417,0.0008620652370154,-0.003483947366476
1769146193188,-0.0550537109375,-0.139556884765625,-0.9840545654296876,-0.0400347672402858,-0.00075314193964,-0.0071966601535677
1769146193197,-0.0767364501953125,-0.1299285888671875,-0.9977569580078124,-0.0174695383757352,0.0035222969017922,-0.0193100478500127
1769146193207,-0.0908050537109375,-0.1021728515625,-1.0135650634765625,0.0272694379091262,0.0167068075388669,-0.0323675274848938
1769146193217,-0.092010498046875,-0.109710693359375,-1.022796630859375,0.0201694499701261,0.0034490597900003,0.0027292075101286
1769146193227,-0.059234619140625,-0.1192779541015625,-0.993804931640625,0.0283554755151271,-0.016810405999422,-0.0029510487802326
1769146193238,-0.1014862060546875,-0.104095458984375,-0.9954376220703124,0.0295536313205957,-0.0135078188031911,-0.0286928974092006
1769146193248,-0.1183319091796875,-0.1015625,-0.979644775390625,0.0029462550301104,-0.0025145567487925,-0.0435008704662323
1769146193258,-0.1067047119140625,-0.1144866943359375,-0.957489013671875,-0.0339185521006584,0.0023603597655892,-0.0440947562456131
1769146193268,-0.089508056640625,-0.1248779296875,-0.9497833251953124,-0.0697386041283607,0.017942514270544,-0.0323217213153839
1769146193278,-0.07476806640625,-0.1244659423828125,-0.9566497802734376,-0.0794703215360641,0.026183133944869,-0.0236017331480979
1769146193288,-0.06719970703125,-0.125244140625,-0.9777679443359376,-0.0806058943271637,0.0165882967412471,-0.0174154751002788
1769146193298,-0.0566253662109375,-0.128814697265625,-0.98583984375,-0.0716534107923507,0.0058991680853068,-0.014993330463767
1769146193308,-0.0597381591796875,-0.128143310546875,-0.9971466064453124,-0.0423959270119667,-0.0005486111622303,-0.0205313730984926
1769146193318,-0.0704345703125,-0.1218414306640625,-1.013946533203125,0.0021265340037643,-0.0033433323260396,-0.0269879419356584
1769146193328,-0.08355712890625,-0.1151885986328125,-1.0238037109375,0.0414744727313518,0.0081404848024249,-0.0323323719203472
1769146193339,-0.0923309326171875,-0.10980224609375,-1.024566650390625,0.0648943111300468,0.0201659891754388,-0.033722810447216
1769146193348,-0.0959625244140625,-0.10791015625,-1.01654052734375,0.0726417154073715,0.0280513409525156,-0.0330508947372436
1769146193358,-0.09271240234375,-0.1082611083984375,-1.003509521484375,0.0667228400707244,0.0248230583965778,-0.0270270910114049
1769146193368,-0.09027099609375,-0.1117401123046875,-0.986663818359375,0.0459334030747413,0.0245894994586706,-0.0275104530155658
1769146193378,-0.08917236328125,-0.1153106689453125,-0.9695281982421876,0.0205859690904617,0.0233665760606527,-0.0282108653336763
1769146193389,-0.084075927734375,-0.1215667724609375,-0.957977294921875,-0.009093097411096,0.0165595356374979,-0.0200759731233119
1769146193398,-0.0741119384765625,-0.1223602294921875,-0.95355224609375,-0.0268481262028217,0.0009853695519268,-0.0127770481631159
1769146193408,-0.0667724609375,-0.12225341796875,-0.961639404296875,-0.0364746525883674,-0.020136160776019,-0.0060413810424506
1769146193418,-0.0645751953125,-0.1240386962890625,-0.966461181640625,-0.0448409728705883,-0.0286135356873273,-0.0020876519847661
1769146193428,-0.0605316162109375,-0.129974365234375,-0.967864990234375,-0.0567338541150093,-0.0255088228732347,0.005182777531445
1769146193439,-0.06341552734375,-0.1239013671875,-0.9749603271484376,-0.0502447932958602,-0.02829528786242,0.0030360035598278
1769146193448,-0.0762481689453125,-0.11663818359375,-0.9897613525390624,-0.0388286225497722,-0.0170924346894025,-0.003991013392806
1769146193459,-0.08648681640625,-0.10968017578125,-0.9962921142578124,-0.0293040927499532,-0.0065886606462299,-0.0105447862297296
1769146193469,-0.0920257568359375,-0.1103668212890625,-0.9973297119140624,-0.0227330084890127,0.0003627225232776,-0.016921192407608
1769146193479,-0.088226318359375,-0.113372802734375,-0.9967803955078124,-0.022246716544032,0.0114731639623641,-0.0153419384732842
1769146193489,-0.0873260498046875,-0.1123809814453125,-0.993133544921875,-0.0159704443067312,0.0171933677047491,-0.0170674007385969
1769146193499,-0.08758544921875,-0.109649658203125,-0.9942169189453124,-0.0110273510217666,0.0143515085801482,-0.0160689819604158
1769146193509,-0.0824737548828125,-0.1085662841796875,-0.9949188232421876,-0.0087191890925168,0.0082496739923954,-0.0164005439728498
1769146193519,-0.07293701171875,-0.1151885986328125,-0.9951934814453124,-0.0042847599834203,-0.0051215249113738,-0.007570035289973
1769146193529,-0.0635528564453125,-0.1195526123046875,-0.9904937744140624,-0.0117453392595052,-0.0132636073976755,0.0023747407831251
1769146193539,-0.065643310546875,-0.120849609375,-0.9840240478515624,-0.0211138073354959,-0.0107320062816143,0.0091183967888355
1769146193549,-0.0711212158203125,-0.12158203125,-0.9793853759765624,-0.0324889682233333,0.0034895399585366,0.0108222877606749
1769146193559,-0.077362060546875,-0.11920166015625,-0.9794769287109376,-0.0394792333245277,0.0182024389505386,0.0087154610082507
1769146193569,-0.0822296142578125,-0.1156158447265625,-0.9838714599609376,-0.0415863245725631,0.0173278581351041,0.0003278351214248
1769146193579,-0.0824127197265625,-0.113250732421875,-0.9925994873046876,-0.0379188880324363,0.0155629804357886,-0.0001906823308672
1769146193589,-0.08056640625,-0.11431884765625,-1.0005035400390625,-0.0196075234562158,0.0143914557993412,0.0033526534680277
1769146193599,-0.0762939453125,-0.113128662109375,-1.0124053955078125,0.0050632017664611,0.0097482344135642,0.006352970842272
1769146193609,-0.0765380859375,-0.111785888671875,-1.015380859375,0.0311419405043125,0.0125554725527763,0.0098923118785023
1769146193619,-0.0802459716796875,-0.1093902587890625,-1.018035888671875,0.0536440536379814,0.0148308780044317,0.0121370898559689
1769146193629,-0.0829620361328125,-0.1057586669921875,-1.0155181884765625,0.0724076181650161,0.0090952273458242,0.0067420587874948
1769146193639,-0.0880279541015625,-0.102325439453125,-1.0080718994140625,0.0792375653982162,0.0057742656208574,-0.0005206479690968
1769146193649,-0.0917510986328125,-0.10357666015625,-0.9951629638671876,0.0707985386252403,0.0045292382128536,-0.0077609838917851
1769146193660,-0.0902252197265625,-0.108306884765625,-0.977508544921875,0.0440249815583229,0.010913367383182,-0.0098108192905783
1769146193669,-0.0864410400390625,-0.1134796142578125,-0.9627685546875,0.0172807201743125,0.024786839261651,-0.0110310791060328
1769146193680,-0.0848541259765625,-0.1157073974609375,-0.9544219970703124,-0.0069601712748408,0.0277349576354026,-0.0096201365813612
1769146193690,-0.0831146240234375,-0.11676025390625,-0.9552764892578124,-0.0286902338266372,0.0265368018299341,-0.0085066687315702
1769146193700,-0.08087158203125,-0.115814208984375,-0.9593048095703124,-0.0359870307147502,0.0209324453026056,-0.0087178573012351
1769146193710,-0.080780029296875,-0.1162872314453125,-0.969696044921875,-0.0296774674206972,0.0033763556275516,-0.0065548382699489
1769146193720,-0.072021484375,-0.12628173828125,-0.98358154296875,-0.0361433550715446,-0.016759805381298,0.0072192968800663
1769146193730,-0.060394287109375,-0.1291351318359375,-0.9888458251953124,-0.0147736193612217,-0.0220381896942853,-0.0041002025827765
1769146193740,-0.0881195068359375,-0.1184844970703125,-1.0062408447265625,0.0179395861923694,0.0003909520455636,-0.023871511220932
1769146193750,-0.103271484375,-0.099456787109375,-1.016571044921875,0.0661441311240196,0.035040009766817,-0.0415796674787998
1769146193760,-0.103759765625,-0.1073455810546875,-1.017547607421875,0.0643459632992744,0.0577445216476917,-0.016839699819684
1769146193773,-0.075347900390625,-0.1168060302734375,-0.989410400390625,0.0719213262200355,0.0554083958268165,-0.023154055699706
1769146193780,-0.101715087890625,-0.099365234375,-0.99212646484375,0.0811134949326515,0.0472961440682411,-0.0535724125802516
1769146193790,-0.1214599609375,-0.0946807861328125,-0.981536865234375,0.054198257625103,0.0342855341732502,-0.0662184357643127
1769146193800,-0.1029510498046875,-0.1104583740234375,-0.95648193359375,0.0087948227301239,0.0056456350721418,-0.0586308240890502
1769146193810,-0.083404541015625,-0.12225341796875,-0.9450531005859376,-0.0389521941542625,-0.0201380252838134,-0.0485986955463886
1769146193821,-0.0731353759765625,-0.122406005859375,-0.952880859375,-0.0658527836203575,-0.0490338541567325,-0.0456721484661102
1769146193830,-0.0617828369140625,-0.132110595703125,-0.9691314697265624,-0.0830163210630416,-0.0606257952749729,-0.0372682772576808
1769146193841,-0.04815673828125,-0.140594482421875,-0.98443603515625,-0.0801254585385322,-0.0600510872900486,-0.0275464057922363
1769146193850,-0.0497283935546875,-0.1394195556640625,-0.9969482421875,-0.0547790937125682,-0.0221798699349164,-0.0239902883768081
1769146193860,-0.0660858154296875,-0.12969970703125,-1.010101318359375,-0.0111056482419371,0.0281674563884735,-0.0208703950047492
1769146193871,-0.0825958251953125,-0.1167755126953125,-1.0208892822265625,0.0408065505325794,0.0668623894453048,-0.021819544956088
1769146193881,-0.0904541015625,-0.1082611083984375,-1.0264892578125,0.0757096707820892,0.0809422507882118,-0.0276337582617998
1769146193891,-0.087615966796875,-0.106964111328125,-1.025421142578125,0.0964367911219596,0.0665326863527298,-0.0299669541418552
1769146193901,-0.086151123046875,-0.108123779296875,-1.0176544189453125,0.1038971021771431,0.0395383536815643,-0.0324165299534797
1769146193911,-0.0838470458984375,-0.1163177490234375,-1.004180908203125,0.0880800560116767,0.0143792051821947,-0.0322127975523471
1769146193921,-0.079437255859375,-0.1269378662109375,-0.9840087890625,0.057817492634058,0.0008594020619057,-0.0280678533017635
1769146193931,-0.07708740234375,-0.1360931396484375,-0.9632720947265624,0.017233582213521,0.0009174589649774,-0.0192557200789451
1769146193941,-0.0753631591796875,-0.1392669677734375,-0.949005126953125,-0.027786623686552,0.0032021848019212,-0.0138186104595661
1769146193951,-0.0726776123046875,-0.1408233642578125,-0.94476318359375,-0.0669960752129554,-2.1305288100847974e-05,-0.0074294204823672
1769146193961,-0.0667877197265625,-0.1431732177734375,-0.948577880859375,-0.0969113633036613,0.0093008233234286,0.0014836470363661
1769146193971,-0.064300537109375,-0.133697509765625,-0.965118408203125,-0.0878502279520034,0.0163091979920864,-0.0004402205231599
1769146193981,-0.06829833984375,-0.1208343505859375,-0.998565673828125,-0.0466439351439476,0.0122404210269451,-0.0080235712230205
1769146193991,-0.06829833984375,-0.1124725341796875,-1.027862548828125,0.0035739622544497,-0.0037886130157858,-0.0066778762266039
1769146194001,-0.067230224609375,-0.1134490966796875,-1.041748046875,0.0435996763408184,-0.0038083202671259,-0.0056123454123735
1769146194011,-0.0667572021484375,-0.118682861328125,-1.032318115234375,0.0647443756461143,0.019625898450613,-0.0021883193403482
1769146194022,-0.068603515625,-0.1251983642578125,-1.0200653076171875,0.0783960074186325,0.0485928356647491,0.0063167517073452
1769146194031,-0.072265625,-0.1265716552734375,-1.01055908203125,0.0840403065085411,0.069766029715538,0.0062499064952135
1769146194041,-0.0774078369140625,-0.1268768310546875,-0.996002197265625,0.0776023864746093,0.0835263207554817,0.0057372478768229
1769146194051,-0.0815887451171875,-0.1265106201171875,-0.985870361328125,0.0754225850105285,0.0800088122487068,-0.0020240023732185
1769146194061,-0.081756591796875,-0.1259765625,-0.982666015625,0.0650788694620132,0.0593690499663353,-0.0079679116606712
1769146194071,-0.07769775390625,-0.1285552978515625,-0.973846435546875,0.0474980100989341,0.0360445529222488,-0.0167632680386304
1769146194081,-0.07916259765625,-0.1263275146484375,-0.969696044921875,0.0369249954819679,0.0143688190728425,-0.0277357567101717
1769146194092,-0.077392578125,-0.1267852783203125,-0.973663330078125,0.0317238420248031,0.0047753141261637,-0.0343965888023376
1769146194102,-0.0717926025390625,-0.127288818359375,-0.9770050048828124,0.0353598557412624,0.0150407347828149,-0.0275642499327659
1769146194112,-0.067962646484375,-0.12664794921875,-0.983551025390625,0.0415940470993518,0.0313073210418224,-0.0172429028898477
1769146194123,-0.064788818359375,-0.1302337646484375,-0.9817352294921876,0.0398733802139759,0.0476487465202808,-0.0080419471487402
1769146194132,-0.0672149658203125,-0.133880615234375,-0.9733428955078124,0.0294234026223421,0.0619280822575092,-0.0054637412540614
1769146194142,-0.070556640625,-0.1323699951171875,-0.973297119140625,0.0171731282025575,0.0616026446223259,-0.0084145236760377
1769146194152,-0.072479248046875,-0.1298370361328125,-0.9727783203125,0.0048203216865658,0.0476916208863258,-0.0128324413672089
1769146194162,-0.0730133056640625,-0.126708984375,-0.9688873291015624,-0.0115112476050853,0.0326634049415588,-0.0145957209169864
1769146194172,-0.07659912109375,-0.1258392333984375,-0.969635009765625,-0.0264872666448354,0.0291893109679222,-0.0173310525715351
1769146194182,-0.0772552490234375,-0.1219024658203125,-0.974395751953125,-0.0338160209357738,0.0233149100095033,-0.0207532159984111
1769146194192,-0.074981689453125,-0.1190643310546875,-0.9850006103515624,-0.0332514308393001,0.0071575115434825,-0.0241993460804224
1769146194202,-0.0688018798828125,-0.1224822998046875,-0.993560791015625,-0.0316498056054115,-0.0036911412607878,-0.0282556060701608
1769146194212,-0.0630645751953125,-0.127471923828125,-0.996490478515625,-0.0272864811122417,-0.0005382248782552,-0.0294489692896604
1769146194223,-0.06121826171875,-0.129791259765625,-0.99993896484375,-0.0282673239707946,0.0120052639394998,-0.0282966196537017
1769146194232,-0.064788818359375,-0.130859375,-0.99334716796875,-0.023373233154416,0.0402147956192493,-0.0227314122021198
1769146194242,-0.06610107421875,-0.1363983154296875,-0.9919586181640624,-0.0303706880658864,0.0516570694744586,-0.0121283018961548
1769146194252,-0.054229736328125,-0.150390625,-0.9815673828125,-0.0555551387369632,0.0372339226305484,0.015662582591176
1769146194263,-0.043304443359375,-0.1464080810546875,-0.9793853759765624,-0.0494037680327892,0.0216147471219301,0.0212858468294143
1769146194273,-0.0584716796875,-0.1348724365234375,-1.005096435546875,-0.0123059349134564,-0.0040943436324596,0.0188613049685955
1769146194282,-0.073699951171875,-0.095611572265625,-1.0342864990234375,0.0623142421245574,-0.0117248324677348,-0.0196685101836919
1769146194293,-0.0973663330078125,-0.0978546142578125,-1.052886962890625,0.079317457973957,-0.025401497259736,0.0031995216850191
1769146194303,-0.05078125,-0.1228790283203125,-1.013397216796875,0.1000118181109428,-0.035807266831398,0.0096765961498022
1769146194313,-0.0727081298828125,-0.114654541015625,-1.0077972412109375,0.1312232613563537,0.0021635519806295,-0.0129059450700879
1769146194323,-0.1059112548828125,-0.11328125,-0.9957275390625,0.1135159060359001,0.0419394597411155,-0.024575650691986
1769146194333,-0.0965118408203125,-0.134521484375,-0.9544525146484376,0.067449614405632,0.0309659056365489,-0.0333627499639987
1769146194343,-0.0843048095703125,-0.1457061767578125,-0.9404144287109376,0.0502269528806209,0.0700672343373298,-0.0425024516880512
1769146194353,-0.0820770263671875,-0.13677978515625,-0.9641571044921876,0.0362781137228012,0.0365785174071788,-0.0543228946626186
1769146194363,-0.077178955078125,-0.1467437744140625,-0.968109130859375,0.020986508578062,0.0527399107813835,-0.0551380850374698
1769146194373,-0.0519561767578125,-0.1501617431640625,-0.97320556640625,0.0051630702801048,0.0049372343346476,-0.0496980473399162
1769146194383,-0.0478973388671875,-0.1433563232421875,-0.9747314453125,0.0027118970174342,-0.0422284118831157,-0.0500072389841079
1769146194393,-0.0564422607421875,-0.1294097900390625,-0.9936676025390624,0.0168032143265008,-0.0579980537295341,-0.0456180833280086
1769146194403,-0.0669097900390625,-0.121734619140625,-1.0045013427734375,0.0414196103811264,-0.0546387434005737,-0.0332514308393001
1769146194413,-0.06689453125,-0.1195068359375,-1.0145416259765625,0.0748960822820663,-0.0050807786174118,-0.0129024824127554
1769146194423,-0.06988525390625,-0.121002197265625,-1.023193359375,0.1199019029736518,0.092074267566204,0.0133325830101966
1769146194433,-0.0663299560546875,-0.1310577392578125,-1.0189361572265625,0.1617438942193985,0.1593041718006134,0.0372328571975231
1769146194443,-0.0621490478515625,-0.13818359375,-1.0094451904296875,0.178630456328392,0.1760048568248748,0.0422792807221412
1769146194453,-0.063323974609375,-0.1440277099609375,-0.99053955078125,0.1583315879106521,0.1804800331592559,0.0345209576189518
1769146194463,-0.063262939453125,-0.151763916015625,-0.97393798828125,0.137235090136528,0.1742437034845352,0.0228592436760664
1769146194473,-0.0591278076171875,-0.1524810791015625,-0.96893310546875,0.1052278876304626,0.1552425771951675,0.0146010471507906
1769146194483,-0.04888916015625,-0.157958984375,-0.9597930908203124,0.0646977722644805,0.1110458299517631,0.0045289718545973
1769146194493,-0.0452880859375,-0.16357421875,-0.9570159912109376,0.0258307978510856,0.0643960312008857,-0.0105967177078127
1769146194504,-0.038665771484375,-0.162994384765625,-0.95361328125,0.0075529911555349,0.0198456104844808,-0.0085833678022027
1769146194514,-0.0359344482421875,-0.154449462890625,-0.964080810546875,0.0097160106524825,0.0079649817198514,0.0003217098710592
1769146194524,-0.0464935302734375,-0.1469268798828125,-0.966400146484375,0.0172812528908252,0.0527420416474342,0.0182964485138654
1769146194534,-0.0648345947265625,-0.14404296875,-0.95733642578125,0.0177246686071157,0.1133342832326889,0.0318146534264087
1769146194544,-0.0770416259765625,-0.14056396484375,-0.9478759765625,-0.000515321677085,0.1772735863924026,0.0286417640745639
1769146194554,-0.087127685546875,-0.1342926025390625,-0.9361419677734376,-0.0282028764486312,0.2270720303058624,0.0184842012822628
1769146194564,-0.076812744140625,-0.135528564453125,-0.9450531005859376,-0.0445046164095401,0.2379116266965866,0.0247082766145467
1769146194574,-0.0508575439453125,-0.1385955810546875,-0.9613494873046876,-0.0442223213613033,0.1970038712024688,0.0442063435912132
1769146194584,-0.0266571044921875,-0.1368408203125,-0.992034912109375,-0.0345017835497856,0.0916854441165924,0.0418518409132957
1769146194594,-0.0310821533203125,-0.1342315673828125,-1.00616455078125,-0.0347529202699661,0.0020833909511566,0.020854415372014
1769146194604,-0.0275421142578125,-0.1485443115234375,-1.000885009765625,-0.0296897180378437,-0.0527090169489383,0.0239801667630672
1769146194614,-0.0181121826171875,-0.1568450927734375,-1.0011444091796875,-0.0194690395146608,-0.0636431574821472,0.0326623395085334
1769146194624,-0.02813720703125,-0.15948486328125,-0.98980712890625,-0.0223971847444772,-0.0241279732435941,0.0391069240868091
1769146194634,-0.049072265625,-0.1562042236328125,-0.9733123779296876,-0.028407672420144,0.0392909459769725,0.0384014509618282
1769146194645,-0.061614990234375,-0.1514892578125,-0.9630584716796876,-0.0472623221576213,0.1264524757862091,0.0400179885327816
1769146194654,-0.066650390625,-0.1473388671875,-0.95538330078125,-0.0478245131671428,0.1735361069440841,0.0319201163947582
1769146194664,-0.0702667236328125,-0.1350555419921875,-0.9748382568359376,-0.0346368066966533,0.1609830260276794,0.0191907379776239
1769146194674,-0.0609588623046875,-0.13226318359375,-0.9951934814453124,-0.0191689003258943,0.1088516488671302,0.016701215878129
1769146194684,-0.034912109375,-0.1330108642578125,-1.0101165771484375,0.0200077965855598,0.0275304280221462,0.0407255925238132
1769146194695,-0.0186920166015625,-0.129913330078125,-1.032867431640625,0.056836649775505,-0.0412190742790699,0.0598066076636314
1769146194704,-0.0213623046875,-0.134735107421875,-1.0184326171875,0.0680019557476043,-0.0606705360114574,0.0694744139909744
1769146194715,-0.03619384765625,-0.1399688720703125,-0.9874725341796876,0.0559889674186706,-0.0502455942332744,0.0665731653571128
1769146194725,-0.055908203125,-0.1423187255859375,-0.9635467529296876,0.0237255692481994,-0.0276004690676927,0.0464431308209896
1769146194735,-0.063568115234375,-0.145599365234375,-0.9444732666015624,-0.0146460542455315,0.0074973311275243,0.0285357702523469
1769146194745,-0.0663604736328125,-0.144683837890625,-0.93804931640625,-0.0496192164719104,0.0257948450744152,0.0067697553895413
1769146194755,-0.0713958740234375,-0.142333984375,-0.9389495849609376,-0.0750489458441734,0.0318705812096595,-0.0197302959859371
1769146194765,-0.0659942626953125,-0.1414947509765625,-0.9536895751953124,-0.0857311487197876,0.0217122193425893,-0.0196791626513004
1769146194775,-0.033233642578125,-0.1584930419921875,-0.9709930419921876,-0.0917469635605812,-0.0276995375752449,0.0146923931315541
1769146194785,0.0034332275390625,-0.1685943603515625,-0.9889373779296876,-0.0875040143728256,-0.092231661081314,0.0451395139098167
1769146194795,-0.0074005126953125,-0.152191162109375,-1.009490966796875,-0.0662671700119972,-0.1237874552607536,0.0372869186103343
1769146194805,-0.0451507568359375,-0.134765625,-1.01824951171875,-0.0235191751271486,-0.1065860986709594,0.0064384583383798
1769146194815,-0.080322265625,-0.11114501953125,-1.028594970703125,0.0280558690428733,-0.0543785542249679,0.0212613455951213
1769146194825,-0.043304443359375,-0.144775390625,-1.01165771484375,0.0349425375461578,-0.026495523750782,0.0636703222990036
1769146194835,-0.0335540771484375,-0.14111328125,-0.9830474853515624,0.0560558103024959,0.0070491209626197,0.0342927277088165
1769146194845,-0.0964202880859375,-0.119781494140625,-0.98370361328125,0.049752376973629,0.0389103814959526,0.0089548788964748
1769146194855,-0.0869293212890625,-0.130218505859375,-0.9577484130859376,0.005936718545854,0.0435666516423225,0.0012269183062016
1769146194865,-0.0665283203125,-0.14202880859375,-0.945709228515625,-0.0432390831410884,0.0157328899949789,-0.010563694871962
1769146194875,-0.05938720703125,-0.1369171142578125,-0.9601898193359376,-0.0534461811184883,-0.0210309829562902,-0.0141150197014212
1769146194885,-0.03948974609375,-0.1432342529296875,-0.993743896484375,-0.0505992621183395,-0.0571849942207336,0.0088968221098184
1769146194895,-0.01495361328125,-0.157928466796875,-1.0,-0.0500767491757869,-0.0672525390982627,0.0286391023546457
1769146194906,-0.019866943359375,-0.1617279052734375,-0.995330810546875,-0.0442196577787399,-0.0685604214668273,0.0340399928390979
1769146194915,-0.0390625,-0.1507415771484375,-0.99383544921875,-0.0393894836306571,-0.0538786761462688,0.0226850714534521
1769146194926,-0.0538482666015625,-0.14288330078125,-0.985443115234375,-0.0250755250453948,-0.0295259337872266,0.0218408498913049
1769146194936,-0.0621490478515625,-0.1318359375,-0.9834747314453124,-0.0027648939285427,0.0003920173039659,0.0175166763365268
1769146194946,-0.063995361328125,-0.129241943359375,-0.9862060546875,0.0100529007613658,0.0199590604752302,0.0159882865846157
1769146194956,-0.05560302734375,-0.1343994140625,-0.976593017578125,0.017692444846034,0.0234629809856414,0.0233151763677597
1769146194966,-0.0425262451171875,-0.139312744140625,-0.9825439453125,0.0183220151811838,-9.853696246864274e-05,0.0291600152850151
1769146194976,-0.037139892578125,-0.1411285400390625,-0.979766845703125,-0.0036754286848008,-0.0321672558784484,0.0218024998903274
1769146194986,-0.0428619384765625,-0.1423797607421875,-0.9679412841796876,-0.0409415736794471,-0.0626178383827209,0.010407100431621
1769146194996,-0.047332763671875,-0.1444549560546875,-0.9593505859375,-0.0704872161149978,-0.0754899606108665,0.0120779676362872
1769146195006,-0.039581298828125,-0.14581298828125,-0.9610443115234376,-0.0860472694039344,-0.0714550092816352,0.0268819481134414
1769146195016,-0.03656005859375,-0.14471435546875,-0.9712371826171876,-0.0788615271449089,-0.0562960281968116,0.0453451126813888
1769146195026,-0.0350799560546875,-0.143035888671875,-0.9868011474609376,-0.0671739801764488,-0.0584481284022331,0.0655121654272079
1769146195036,-0.0297393798828125,-0.1500396728515625,-0.99066162109375,-0.0546480640769004,-0.0562960281968116,0.0794591382145881
1769146195046,-0.0348052978515625,-0.14031982421875,-1.0006256103515625,-0.0332077555358409,-0.0607014298439025,0.0785858854651451
1769146195056,-0.052947998046875,-0.131195068359375,-1.008697509765625,-0.0205002147704362,-0.045713160187006,0.0738236233592033
1769146195066,-0.0604705810546875,-0.1279449462890625,-1.0056610107421875,-0.0133970314636826,-0.0405674017965793,0.0587645135819911
1769146195076,-0.068328857421875,-0.1256256103515625,-1.0041046142578125,-0.0132718635722994,-0.0495457164943218,0.0380778759717941
1769146195086,-0.069854736328125,-0.1271820068359375,-0.9933319091796876,-0.021679462864995,-0.040346622467041,0.0231705661863088
1769146195097,-0.07220458984375,-0.126495361328125,-0.986602783203125,-0.0244339704513549,-0.0230416692793369,0.0118446750566363
1769146195106,-0.0684814453125,-0.1287689208984375,-0.98358154296875,-0.0216208733618259,-0.0030051108915358,0.014593057334423
1769146195116,-0.0537109375,-0.1357421875,-0.980072021484375,-0.0166106689721345,0.0066408584825694,0.0316567309200763
1769146195127,-0.04046630859375,-0.141326904296875,-0.979339599609375,-0.0145203527063131,0.0044131241738796,0.0519103370606899
1769146195137,-0.0358428955078125,-0.14404296875,-0.98089599609375,-0.0136071555316448,-0.0003675162151921,0.0693969205021858
1769146195147,-0.0381622314453125,-0.1414031982421875,-0.9916534423828124,-0.0048035434447228,-0.0175731349736452,0.0692946538329124
1769146195157,-0.052459716796875,-0.1356658935546875,-0.999298095703125,-0.0064781391993165,-0.032607477158308,0.0474287681281566
1769146195167,-0.06561279296875,-0.1328887939453125,-0.991058349609375,-0.0229929331690073,-0.02858716994524,0.032626386731863
1769146195177,-0.064910888671875,-0.1385955810546875,-0.9813232421875,-0.031135281547904,-0.0167728550732135,0.0281488131731748
1769146195187,-0.0640869140625,-0.1371917724609375,-0.9820098876953124,-0.0382011830806732,-0.0115546565502882,0.015720373019576
1769146195197,-0.0724945068359375,-0.1351776123046875,-0.97979736328125,-0.0482077412307262,-0.0113527895882725,0.0029390645213425
1769146195207,-0.0675811767578125,-0.138641357421875,-0.9788360595703124,-0.053273607045412,-0.0157166458666324,0.0064645572565495
1769146195217,-0.061737060546875,-0.13494873046875,-0.98583984375,-0.0452979728579521,-0.0125647941604256,0.0141544351354241
1769146195227,-0.060028076171875,-0.131195068359375,-0.9973907470703124,-0.0264161601662635,-0.0274175088852643,0.0269352104514837
1769146195237,-0.0612030029296875,-0.1246490478515625,-1.0053558349609375,-0.0095205344259738,-0.0344884693622589,0.0324082747101783
1769146195247,-0.065277099609375,-0.1206817626953125,-1.00390625,0.0088017471134662,-0.0400896295905113,0.0326879061758518
1769146195257,-0.07073974609375,-0.1184844970703125,-1.0013580322265625,0.0145488493144512,-0.0572835281491279,0.0164748467504978
1769146195267,-0.0742645263671875,-0.1197357177734375,-0.992828369140625,0.0061050304211676,-0.0504735596477985,-0.0002450108295306
1769146195277,-0.073089599609375,-0.12738037109375,-0.977386474609375,-0.0093924365937709,-0.0317110568284988,-0.0166719201952219
1769146195288,-0.07537841796875,-0.1337890625,-0.96624755859375,-0.0244544763118028,-0.0154021261259913,-0.0243093334138393
1769146195297,-0.0675811767578125,-0.1374053955078125,-0.96575927734375,-0.0315571278333663,-0.0024740765802562,-0.016219450160861
1769146195308,-0.0583648681640625,-0.1427001953125,-0.972564697265625,-0.0439581349492073,-0.0070392675697803,0.005380384158343
1769146195317,-0.045745849609375,-0.1578826904296875,-0.9656982421875,-0.0725988373160362,-0.0113716982305049,0.0201113931834697
1769146195327,-0.053253173828125,-0.143280029296875,-0.9657440185546876,-0.0664466693997383,-0.0280537381768226,-0.0019017633749172
1769146195338,-0.07220458984375,-0.1249237060546875,-0.9949798583984376,-0.031824242323637,-0.0645081549882888,-0.0221902579069137
1769146195348,-0.0792236328125,-0.0984344482421875,-1.01171875,0.0029515814967453,-0.0656573101878166,-0.0335861891508102
1769146195358,-0.0740203857421875,-0.1122283935546875,-1.006103515625,-0.0022421153262257,-0.06353610008955,-0.0004868258547503
1769146195368,-0.0494232177734375,-0.1295166015625,-0.9747314453125,-0.0003435477847233,-0.0294119510799646,-0.0211337804794311
1769146195378,-0.098541259765625,-0.1143341064453125,-0.981475830078125,-0.0016032229177653,0.0094970986247062,-0.0479289107024669
1769146195388,-0.1019439697265625,-0.1196441650390625,-0.9759063720703124,-0.0189081765711307,0.0310093145817518,-0.0432372204959392
1769146195398,-0.0736236572265625,-0.137451171875,-0.969635009765625,-0.050291933119297,0.0366642698645591,-0.035802736878395
1769146195408,-0.0653533935546875,-0.1375885009765625,-0.9718475341796876,-0.068697303533554,0.0421597026288509,-0.0343822091817855
1769146195418,-0.0653228759765625,-0.1343841552734375,-0.9884796142578124,-0.064382717013359,0.0368514917790889,-0.0326405018568038
1769146195428,-0.0531158447265625,-0.1358489990234375,-1.0097808837890625,-0.038370557129383,0.0107024451717734,-0.0209662690758705
1769146195438,-0.029022216796875,-0.142730712890625,-1.0230255126953125,-0.0058320565149188,-0.0302612334489822,0.0036450685001909
1769146195448,-0.0219879150390625,-0.1461029052734375,-1.026092529296875,0.0316255688667297,-0.0524719953536987,0.0117240343242883
1769146195458,-0.0472259521484375,-0.13604736328125,-1.019927978515625,0.0647728741168975,-0.0430412106215953,0.0038900794461369
1769146195468,-0.0736541748046875,-0.1277313232421875,-1.00311279296875,0.0748199149966239,-0.0160721763968467,-0.0018924422329291
1769146195478,-0.08306884765625,-0.1212158203125,-0.9817962646484376,0.0667723715305328,0.0089543461799621,-0.0089977560564875
1769146195488,-0.087554931640625,-0.118560791015625,-0.9685821533203124,0.0425202958285808,0.0175441056489944,-0.0250933691859245
1769146195498,-0.086181640625,-0.1224212646484375,-0.9552764892578124,0.0157312918454408,0.013431386090815,-0.0374573618173599
1769146195508,-0.0815887451171875,-0.1320343017578125,-0.94622802734375,-0.0298676174134016,0.0310087818652391,-0.0423474572598934
1769146195518,-0.0759735107421875,-0.1319122314453125,-0.938323974609375,-0.0671670511364936,0.0233106482774019,-0.0509923435747623
1769146195528,-0.06793212890625,-0.13861083984375,-0.940704345703125,-0.0955598130822181,0.0060666808858513,-0.0473510026931762
1769146195539,-0.0525970458984375,-0.1392059326171875,-0.95806884765625,-0.0997148752212524,-0.017429856583476,-0.0372767969965934
1769146195549,-0.0425872802734375,-0.134429931640625,-0.9844970703125,-0.0870520770549774,-0.0373305939137935,-0.0141299339011311
1769146195559,-0.0339813232421875,-0.131103515625,-1.00439453125,-0.0599640011787414,-0.047223437577486,0.006909305229783
1769146195569,-0.0345611572265625,-0.138458251953125,-1.0166778564453125,-0.0391665771603584,-0.0499268136918544,0.0261959172785282
1769146195579,-0.0399932861328125,-0.1298828125,-1.0166168212890625,-0.0232725664973258,-0.0485630072653293,0.0233604498207569
1769146195589,-0.062469482421875,-0.1200408935546875,-1.0156097412109375,-0.0038232340011745,-0.0251154731959104,0.0101343933492898
1769146195599,-0.073150634765625,-0.1200408935546875,-1.011932373046875,0.0152175687253475,0.0042083272710442,0.0170719269663095
1769146195609,-0.0670623779296875,-0.1232757568359375,-1.0029449462890625,0.0210488252341747,0.0152447326108813,0.0219881236553192
1769146195619,-0.0712432861328125,-0.123443603515625,-0.9901580810546876,0.0137131493538618,0.0263839364051818,0.0082669844850897
1769146195629,-0.0835723876953125,-0.121063232421875,-0.979888916015625,0.0016570187872275,0.0243293084204196,-0.0099546294659376
1769146195639,-0.0806427001953125,-0.121307373046875,-0.9761810302734376,-0.0064246095716953,0.0161784365773201,-0.0172647405415773
1769146195649,-0.06890869140625,-0.1220855712890625,-0.9821319580078124,-0.0070206252858042,-0.0003837615076918,-0.0118009997531771
1769146195659,-0.0587005615234375,-0.12371826171875,-0.9899139404296876,-0.0097138797864317,-0.0117250988259911,-0.0079245017841458
1769146195669,-0.059844970703125,-0.127166748046875,-0.98858642578125,-0.0129003524780273,-0.0166343711316585,-0.0083277048543095
1769146195679,-0.0635223388671875,-0.1285400390625,-0.9875030517578124,-0.010661432519555,-0.0240169186145067,-0.0052972938865423
1769146195689,-0.0620269775390625,-0.130859375,-0.985626220703125,-0.0090475566685199,-0.019276225939393,0.0003414172388147
1769146195699,-0.063018798828125,-0.1285400390625,-0.9836578369140624,-0.0095104146748781,-0.0052155344747006,0.0087056076154112
1769146195709,-0.0714111328125,-0.125274658203125,-0.979583740234375,-0.0124699855223298,0.0128894336521625,0.0127008818089962
1769146195719,-0.0762481689453125,-0.123443603515625,-0.9732666015625,-0.0217321924865245,0.0316884219646453,0.0174013599753379
1769146195729,-0.0731658935546875,-0.1202545166015625,-0.975677490234375,-0.0201665200293064,0.030352845788002,0.0142601625993847
1769146195739,-0.0749359130859375,-0.1154327392578125,-0.987152099609375,-0.0183955188840627,0.0176184084266424,0.0058765313588082
1769146195750,-0.0723419189453125,-0.117889404296875,-0.9933319091796876,-0.01142203155905,-0.0018548916559666,-0.0032360069453716
1769146195760,-0.065460205078125,-0.1206817626953125,-0.9972381591796876,-0.0044581317342817,-0.0252760611474514,-0.0087876329198479
1769146195770,-0.0664520263671875,-0.1213836669921875,-0.9955596923828124,-0.0047335023991763,-0.0366877056658268,-0.0174871142953634
1769146195780,-0.0705718994140625,-0.123565673828125,-0.9911651611328124,-0.0087197218090295,-0.041656631976366,-0.0255777984857559
1769146195790,-0.0711822509765625,-0.1234893798828125,-0.984283447265625,-0.0209516212344169,-0.0365020856261253,-0.0341212190687656
1769146195800,-0.0723724365234375,-0.1272735595703125,-0.977447509765625,-0.0319062657654285,-0.0256446432322263,-0.0256680790334939
1769146195810,-0.0634613037109375,-0.1328582763671875,-0.972747802734375,-0.0358192510902881,-0.004325239919126,-0.0078533953055739
1769146195820,-0.065765380859375,-0.1270751953125,-0.9753265380859376,-0.032332107424736,0.011837750673294,-0.0016564861871302
1769146195830,-0.0732421875,-0.120819091796875,-0.9794769287109376,-0.0224741492420434,0.0234099850058555,-0.0007882956997491
1769146195840,-0.074310302734375,-0.120849609375,-0.98516845703125,-0.0094947014003992,0.0302479173988103,0.0026397253386676
1769146195850,-0.0674285888671875,-0.12408447265625,-0.9945831298828124,0.014396515674889,0.0287211276590824,0.0163121279329061
1769146195860,-0.0498504638671875,-0.138519287109375,-1.0024871826171875,0.0045167212374508,0.0166961550712585,0.0343180261552333
1769146195870,-0.0442047119140625,-0.1390533447265625,-0.996612548828125,0.0103572998195886,0.0001304948964389,0.0170471612364053
1769146195880,-0.0700531005859375,-0.12432861328125,-1.0142364501953125,0.0345800817012786,-0.0045121936127543,-0.0150202279910445
1769146195890,-0.0889434814453125,-0.0981903076171875,-1.026519775390625,0.0669121891260147,-0.0019486349774524,-0.0413674153387546
1769146195900,-0.0850677490234375,-0.113922119140625,-1.017913818359375,0.0507079176604747,-0.0168466251343488,-0.0212272573262453
1769146195910,-0.0519561767578125,-0.1308441162109375,-0.9815216064453124,0.0520277805626392,-0.0007819040911272,-0.0349513255059719
1769146195920,-0.0893096923828125,-0.1208648681640625,-0.9796295166015624,0.0523766539990901,0.0180636886507272,-0.0508029945194721
1769146195930,-0.089569091796875,-0.12103271484375,-0.9719696044921876,0.0457672215998172,0.0349630452692508,-0.0451573580503463
1769146195940,-0.0740814208984375,-0.128753662109375,-0.9669189453125,0.0320423543453216,0.0409426391124725,-0.0291485637426376
1769146195950,-0.063385009765625,-0.1302337646484375,-0.9705963134765624,0.0245705898851156,0.0445030182600021,-0.0140513703227043
1769146195960,-0.0570220947265625,-0.12744140625,-0.980682373046875,0.0246121361851692,0.0470157116651535,-0.0053138053044676
1769146195971,-0.0556182861328125,-0.1295318603515625,-0.9878082275390624,0.0191127080470323,0.0292210020124912,-0.0009185242815874
1769146195981,-0.0482177734375,-0.1357421875,-0.982452392578125,0.0038091193418949,0.0017813884187489,-0.0043774377554655
1769146195991,-0.0525054931640625,-0.135284423828125,-0.975830078125,-0.0143073005601763,-0.0156596526503562,-0.0242920238524675
1769146196001,-0.0729827880859375,-0.129486083984375,-0.973541259765625,-0.0249769892543554,-0.0089982887730002,-0.0409548915922641
1769146196011,-0.0764312744140625,-0.1227874755859375,-0.9779052734375,-0.0211654733866453,0.0029787456151098,-0.0352866165339946
1769146196021,-0.0699615478515625,-0.11944580078125,-0.9896392822265624,-0.0079284971579909,0.014108894392848,-0.0282023437321186
1769146196031,-0.0682525634765625,-0.1168365478515625,-0.9990997314453124,0.0110166985541582,0.0227425973862409,-0.0220997091382741
1769146196041,-0.0680999755859375,-0.1175994873046875,-1.002349853515625,0.027974909171462,0.0292175393551588,-0.0156279616057872
1769146196051,-0.0652008056640625,-0.1210479736328125,-1.0000457763671875,0.0358472131192684,0.0333262644708156,-0.0164721831679344
1769146196061,-0.065948486328125,-0.1256866455078125,-0.9921417236328124,0.0294095538556575,0.0258382558822631,-0.0179576948285102
1769146196071,-0.064300537109375,-0.1307830810546875,-0.98065185546875,0.0067098340950906,0.0150876063853502,-0.0217377860099077
1769146196081,-0.0621185302734375,-0.1309356689453125,-0.9738006591796876,-0.0113011235371232,0.0002037318190559,-0.028726452961564
1769146196091,-0.0583648681640625,-0.1296234130859375,-0.9764251708984376,-0.0246406309306621,-0.0103639578446745,-0.0276755690574646
1769146196101,-0.04840087890625,-0.1358642578125,-0.9805450439453124,-0.0328439660370349,-0.0134162064641714,-0.0138202076777815
1769146196111,-0.0350494384765625,-0.141326904296875,-0.9812774658203124,-0.0375356562435627,-0.0135818552225828,0.0044128578156232
1769146196121,-0.037139892578125,-0.1372833251953125,-0.9883880615234376,-0.0279192496091127,-0.0074589815922081,0.0147696249186992
1769146196131,-0.0485687255859375,-0.130767822265625,-0.998443603515625,-0.0091743236407637,0.0049947584047913,0.0246419627219438
1769146196142,-0.054534912109375,-0.124969482421875,-1.004486083984375,0.0075529911555349,0.0219897218048572,0.0384030491113662
1769146196151,-0.058197021484375,-0.12420654296875,-1.002655029296875,0.0154159739613533,0.0434779673814773,0.0436694510281086
1769146196162,-0.06793212890625,-0.1207427978515625,-0.9971466064453124,0.0164181217551231,0.0477520748972892,0.0300255436450243
1769146196172,-0.078887939453125,-0.11602783203125,-0.9964752197265624,0.017906030640006,0.0323571413755416,-0.0014626081101596
1769146196182,-0.080841064453125,-0.1130523681640625,-0.997283935546875,0.0167946927249431,0.0080749709159135,-0.0281096659600734
1769146196192,-0.0710296630859375,-0.1201324462890625,-0.992584228515625,0.0143600311130285,-0.0041156490333378,-0.0392320901155471
1769146196202,-0.0584869384765625,-0.1300048828125,-0.984710693359375,0.0091950958594679,0.0022714100778102,-0.0334740690886974
1769146196212,-0.0499267578125,-0.13812255859375,-0.975799560546875,0.0036426717415452,0.0071157002821564,-0.0187324080616235
1769146196222,-0.0478057861328125,-0.13995361328125,-0.970550537109375,-0.002869555959478,0.0170221272855997,-0.0095074847340583
1769146196232,-0.0536956787109375,-0.134735107421875,-0.97039794921875,-0.0047047403641045,0.0305824093520641,-0.0050658648833632
1769146196242,-0.0595245361328125,-0.130523681640625,-0.970672607421875,-0.0076422072015702,0.0433908849954605,0.0053452304564416
1769146196252,-0.064727783203125,-0.1259307861328125,-0.972137451171875,-0.0136226015165448,0.0628673806786537,0.0164793748408556
1769146196262,-0.069610595703125,-0.1212615966796875,-0.974029541015625,-0.0218118224292993,0.0573602281510829,0.0078672440722584
1769146196272,-0.078460693359375,-0.1164093017578125,-0.975738525390625,-0.0358607955276966,0.0374621525406837,-0.0106209525838494
1769146196282,-0.0760345458984375,-0.1207733154296875,-0.978851318359375,-0.0457073003053665,0.0180181488394737,-0.0182162877172231
1769146196292,-0.0684356689453125,-0.1267852783203125,-0.9850616455078124,-0.0470980033278465,0.0051761199720203,-0.0248472932726144
1769146196302,-0.0690765380859375,-0.127410888671875,-0.9918975830078124,-0.0410457029938697,-0.0088179921731352,-0.0324314422905445
1769146196312,-0.069793701171875,-0.1272125244140625,-0.9985198974609376,-0.0307877399027347,-0.0181257408112287,-0.0370973013341426
1769146196322,-0.067596435546875,-0.1267852783203125,-1.0021820068359375,-0.0178945790976285,-0.0106763467192649,-0.0349774248898029
1769146196332,-0.0650634765625,-0.1279296875,-1.0029144287109375,-0.0018780612153932,0.0081498054787516,-0.0287397690117359
1769146196342,-0.0629119873046875,-0.1294403076171875,-1.002838134765625,0.0134098147973418,0.0274204388260841,-0.0220672190189361
1769146196353,-0.063079833984375,-0.1285247802734375,-1.00189208984375,0.0250009577721357,0.0449437722563743,-0.0149528505280613
1769146196362,-0.0596923828125,-0.12994384765625,-0.9951934814453124,0.0300596319139003,0.0552965439856052,-0.0124731808900833
1769146196373,-0.0612640380859375,-0.1294403076171875,-0.9922027587890624,0.0317800343036651,0.0453853234648704,-0.0198757033795118
1769146196382,-0.060699462890625,-0.128631591796875,-0.990081787109375,0.0282273776829242,0.0246193259954452,-0.0251514259725809
1769146196393,-0.055328369140625,-0.138641357421875,-0.9880523681640624,0.004504204262048,0.0085213165730237,-0.0155073208734393
1769146196403,-0.0340118408203125,-0.15081787109375,-0.973541259765625,-0.0129509521648287,-0.0206275135278701,-0.016514528542757
1769146196413,-0.048004150390625,-0.1429290771484375,-0.9787750244140624,-0.0099477050825953,-0.0206562764942646,-0.0268012546002864
1769146196423,-0.056793212890625,-0.1274871826171875,-0.99237060546875,0.0226549785584211,-0.0123549364507198,-0.0432124510407447
1769146196433,-0.076873779296875,-0.1110382080078125,-1.0051422119140625,0.036385703831911,0.0057268617674708,-0.030591731891036
1769146196443,-0.05169677734375,-0.13092041015625,-0.9875030517578124,0.0260859280824661,0.0059977052733302,-0.0148481884971261
1769146196453,-0.0597991943359375,-0.1214752197265625,-0.9727783203125,0.0356695801019668,0.0336327962577343,-0.0393812283873558
1769146196463,-0.099700927734375,-0.1124420166015625,-0.979034423828125,0.0262534413486719,0.0510442741215229,-0.0431834235787391
1769146196473,-0.08038330078125,-0.127166748046875,-0.9621734619140624,-0.0100867226719856,0.036410205066204,-0.0424582436680793
1769146196483,-0.0613555908203125,-0.1414947509765625,-0.9543609619140624,-0.051982507109642,0.0074933362193405,-0.0365803800523281
1769146196493,-0.047760009765625,-0.14739990234375,-0.96282958984375,-0.0736462548375129,-0.0130843762308359,-0.0341981835663318
1769146196503,-0.0432586669921875,-0.1484222412109375,-0.9816131591796876,-0.0769517719745636,-0.0186924617737531,-0.0226962585002183
1769146196513,-0.028350830078125,-0.1571044921875,-0.99517822265625,-0.0643204003572464,-0.0281855650246143,-0.004335360135883
1769146196523,-0.0301361083984375,-0.1538238525390625,-1.0087738037109375,-0.033453032374382,-0.0262816715985536,0.0012575446162372
1769146196533,-0.04791259765625,-0.140167236328125,-1.0252838134765625,0.0071641695685684,-0.0074339476414024,-0.0036021915730088
1769146196543,-0.067291259765625,-0.1248321533203125,-1.0345611572265625,0.0558986850082874,0.0075322184711694,-0.0080858897417783
1769146196553,-0.075408935546875,-0.11639404296875,-1.037353515625,0.0916425660252571,0.0071157002821564,-0.0138127515092492
1769146196564,-0.076507568359375,-0.11968994140625,-1.0215301513671875,0.1043493077158927,0.015386146493256,-0.0166112016886472
1769146196574,-0.076904296875,-0.1264190673828125,-0.9992218017578124,0.1049344018101692,0.0141997085884213,-0.0160047989338636
1769146196583,-0.0731658935546875,-0.132568359375,-0.9814910888671876,0.0911810398101806,0.0045012747868895,-0.0217162147164344
1769146196593,-0.07354736328125,-0.137420654296875,-0.9649200439453124,0.0683827847242355,-0.0113184349611401,-0.0283022113144397
1769146196604,-0.0703125,-0.1403656005859375,-0.9560394287109376,0.042551189661026,-0.0165536757558584,-0.0308428667485713
1769146196614,-0.065887451171875,-0.1411590576171875,-0.9546661376953124,0.0216877181082963,-0.0094891088083386,-0.0236533973366022
1769146196624,-0.0558929443359375,-0.143280029296875,-0.9596710205078124,0.0097173424437642,-0.0045092641375958,-0.0128228543326258
1769146196634,-0.0538330078125,-0.1448211669921875,-0.9708099365234376,0.010081130079925,-0.0083759082481265,-0.0094574177637696
1769146196644,-0.0466766357421875,-0.1413116455078125,-0.9814605712890624,0.0018873822409659,0.0029230855870991,-0.0151541857048869
1769146196654,-0.05474853515625,-0.135589599609375,-0.98175048828125,-0.0021643510553985,-0.0052725262939929,-0.029839389026165
1769146196664,-0.069427490234375,-0.128204345703125,-0.98565673828125,-0.0016096145845949,-0.0078486017882823,-0.0527747981250286
1769146196674,-0.0739288330078125,-0.1257781982421875,-0.9861297607421876,-0.0085857650265097,-0.0126177910715341,-0.0616492480039596
1769146196684,-0.067047119140625,-0.1324462890625,-0.9800262451171876,-0.0144399255514144,-0.0093780551105737,-0.0587429404258728
1769146196694,-0.0615692138671875,-0.13580322265625,-0.9778289794921876,-0.0205233842134475,-0.0114875454455614,-0.0537388622760772
1769146196704,-0.0577850341796875,-0.1373291015625,-0.977691650390625,-0.0222858637571334,-0.0177909806370735,-0.0461722873151302
1769146196714,-0.0547332763671875,-0.1378631591796875,-0.980621337890625,-0.0222395248711109,-0.0250033531337976,-0.0361241810023784
1769146196724,-0.05078125,-0.1396026611328125,-0.98651123046875,-0.0193824861198663,-0.0201686508953571,-0.022408103570342
1769146196734,-0.050140380859375,-0.140869140625,-0.9910888671875,-0.0133051527664065,-0.007472563534975,-0.0176024287939071
1769146196744,-0.053558349609375,-0.142333984375,-0.9943389892578124,-0.0013299826532602,0.0007107976707629,-0.0115815550088882
1769146196754,-0.0560455322265625,-0.140777587890625,-0.9997711181640624,0.0097556915134191,0.007577758282423,-0.0109559781849384
1769146196764,-0.061553955078125,-0.1374053955078125,-1.004486083984375,0.0167483538389205,0.0204243157058954,-0.0234885476529598
1769146196774,-0.0690765380859375,-0.129486083984375,-1.0077972412109375,0.0273498650640249,0.0205422937870025,-0.0348812863230705
1769146196785,-0.070343017578125,-0.125885009765625,-1.009033203125,0.0456364601850509,0.0299970470368862,-0.0399109311401844
1769146196795,-0.0640411376953125,-0.128692626953125,-1.0119781494140625,0.0628641843795776,0.0355971418321132,-0.031431958079338
1769146196805,-0.0550689697265625,-0.134185791015625,-1.009857177734375,0.0776484534144401,0.0330351814627647,-0.0241221133619546
1769146196815,-0.0522308349609375,-0.1365509033203125,-1.0001983642578125,0.0849045068025589,0.0280020739883184,-0.0178823284804821
1769146196825,-0.05206298828125,-0.1401824951171875,-0.9905548095703124,0.0820357501506805,0.0288697313517332,-0.0125594679266214
1769146196835,-0.0535736083984375,-0.14276123046875,-0.971405029296875,0.0690733417868614,0.0290782563388347,-0.0111330784857273
1769146196845,-0.060211181640625,-0.1413116455078125,-0.9595489501953124,0.0469185076653957,0.0359308347105979,-0.0080193104222416
1769146196855,-0.062103271484375,-0.140899658203125,-0.9537506103515624,0.0291722659021615,0.0364778488874435,-0.0123072667047381
1769146196865,-0.065948486328125,-0.1366424560546875,-0.957611083984375,0.0119882198050618,0.0267637036740779,-0.0249402374029159
1769146196875,-0.070098876953125,-0.1340789794921875,-0.962066650390625,-0.004120975267142,0.0118089886382222,-0.0417168214917182
1769146196885,-0.0644989013671875,-0.1362457275390625,-0.9695587158203124,-0.009720005095005,-0.0085508776828646,-0.0432396158576011
1769146196895,-0.053802490234375,-0.1369476318359375,-0.98028564453125,-0.0158737711608409,-0.0235993359237909,-0.0449650771915912
1769146196905,-0.0564727783203125,-0.13568115234375,-0.98681640625,-0.0160000044852495,-0.0262539740651845,-0.0452423132956028
1769146196915,-0.0514373779296875,-0.14697265625,-0.985809326171875,-0.0265216212719678,-0.0169861745089292,-0.0216925125569105
1769146196925,-0.0243988037109375,-0.1660308837890625,-0.977996826171875,-0.0329675376415252,-0.0170610081404447,0.0053063482046127
1769146196935,-0.0326995849609375,-0.1569976806640625,-0.982940673828125,-0.0236747022718191,0.0063676182180643,0.0071343421004712
1769146196945,-0.056488037109375,-0.1461029052734375,-0.9912567138671876,0.0048405616544187,0.0358421541750431,-0.0174684729427099
1769146196955,-0.0872039794921875,-0.115966796875,-0.998382568359375,0.0332309231162071,0.0675678551197052,-0.0377196818590164
1769146196966,-0.077728271484375,-0.129608154296875,-0.9924774169921876,0.0169062782078981,0.0407266579568386,-0.0230435337871313
1769146196975,-0.0487213134765625,-0.1345672607421875,-0.9721527099609376,0.0273629147559404,0.0253658108413219,-0.0564275905489921
1769146196985,-0.0953216552734375,-0.1191558837890625,-0.982879638671875,0.0192954000085592,0.0265282802283763,-0.0863229036331176
1769146196996,-0.08905029296875,-0.129150390625,-0.965850830078125,-0.0170495565980672,0.0119693111628293,-0.0833593383431434
1769146197006,-0.0601959228515625,-0.144073486328125,-0.954010009765625,-0.0585165731608867,-0.0117818247526884,-0.0788982808589935
1769146197016,-0.0560455322265625,-0.1409759521484375,-0.963409423828125,-0.0710747092962265,-0.0155850844457745,-0.0768574997782707
1769146197026,-0.0510711669921875,-0.145294189453125,-0.9803924560546876,-0.0738124400377273,-0.0099668800830841,-0.062621034681797
1769146197036,-0.038787841796875,-0.15313720703125,-0.984619140625,-0.0610835924744606,0.0001328917423961,-0.0552395544946193
1769146197046,-0.039459228515625,-0.147216796875,-0.9958038330078124,-0.0312215685844421,0.0172522235661745,-0.048357680439949
1769146197056,-0.046661376953125,-0.134521484375,-1.0115814208984375,0.0127064744010567,0.0422153621912002,-0.0517066046595573
1769146197066,-0.05560302734375,-0.127655029296875,-1.017364501953125,0.0495912544429302,0.0541023835539817,-0.0528680086135864
1769146197076,-0.058319091796875,-0.12799072265625,-1.010894775390625,0.0631006732583046,0.046365100890398,-0.0518051423132419
1769146197086,-0.05157470703125,-0.1367340087890625,-0.9966583251953124,0.0569604896008968,0.0406587459146976,-0.0406792536377906
1769146197096,-0.04229736328125,-0.1490325927734375,-0.98150634765625,0.0376855917274951,0.0286683961749076,-0.0287794508039951
1769146197106,-0.04022216796875,-0.1544036865234375,-0.97662353515625,0.0229117069393396,0.0137248672544956,-0.0211417712271213
1769146197116,-0.0455780029296875,-0.15399169921875,-0.9779815673828124,0.0083972131833434,-0.0052014198154211,-0.0219343267381191
1769146197126,-0.047637939453125,-0.15533447265625,-0.9759979248046876,-0.0013664679136127,-0.0165326371788978,-0.0110803479328751
1769146197136,-0.038238525390625,-0.1554718017578125,-0.9754486083984376,-0.0151222273707389,-0.004096208140254,0.0036581179592758
1769146197146,-0.04339599609375,-0.154205322265625,-0.973236083984375,-0.0220531038939952,-0.0023688818328082,0.0122745092958211
1769146197156,-0.0446014404296875,-0.15179443359375,-0.97918701171875,-0.0257604904472827,-0.0121061978861689,0.0175891127437353
1769146197166,-0.044342041015625,-0.15057373046875,-0.9831695556640624,-0.0304769482463598,-0.0079482039436697,0.0230928026139736
1769146197176,-0.0446624755859375,-0.152862548828125,-0.984405517578125,-0.0182173531502485,-0.0018085526535287,0.0286321770399808
1769146197186,-0.0469818115234375,-0.1429901123046875,-0.9974365234375,0.0121235083788633,0.0114167053252458,0.0309246256947517
1769146197196,-0.0523223876953125,-0.1375274658203125,-1.007049560546875,0.035677570849657,0.0200253725051879,0.0348655730485916
1769146197207,-0.0535736083984375,-0.1374359130859375,-0.999725341796875,0.0451645478606224,0.0155217014253139,0.0343638323247432
1769146197217,-0.0546417236328125,-0.138275146484375,-0.99169921875,0.0395127870142459,0.0103447828441858,0.0252789910882711
1769146197227,-0.0597991943359375,-0.135162353515625,-0.984100341796875,0.0286873038858175,0.0048352354206144,0.0123991454020142
1769146197237,-0.0613250732421875,-0.136383056640625,-0.9796905517578124,0.0206789132207632,0.0020461066160351,0.0050016827881336
1769146197247,-0.0563507080078125,-0.1405792236328125,-0.9793701171875,0.0169214587658643,-0.002910568844527,0.0097543597221374
1769146197257,-0.052276611328125,-0.143829345703125,-0.9731903076171876,0.0035614452790468,-0.0015286544803529,0.0048970207571983
1769146197267,-0.0565032958984375,-0.1483612060546875,-0.96087646484375,-0.018344385549426,0.0087673924863338,-0.0015046859625726
1769146197277,-0.056549072265625,-0.154144287109375,-0.95074462890625,-0.0316245034337043,0.0185529123991727,0.0002135855174856
1769146197287,-0.051544189453125,-0.15185546875,-0.9542999267578124,-0.041977010667324,0.0214914437383413,0.0068427259102463
1769146197297,-0.0479278564453125,-0.1452178955078125,-0.9610443115234376,-0.0438380278646945,0.0122595960274338,0.0148497857153415
1769146197307,-0.050537109375,-0.138214111328125,-0.97161865234375,-0.0431682430207729,0.0038839541375637,0.015714781358838
1769146197317,-0.0537109375,-0.13421630859375,-0.9827423095703124,-0.0429642461240291,0.0045124599710106,0.0194842182099819
1769146197327,-0.0496673583984375,-0.1366729736328125,-0.9873504638671876,-0.0380840040743351,0.0113277556374669,0.0305243525654077
1769146197337,-0.0478668212890625,-0.137542724609375,-0.99468994140625,-0.0224914606660604,0.0036738307680934,0.0414406508207321
1769146197347,-0.046417236328125,-0.1382598876953125,-1.0034027099609375,-0.0108055099844932,-0.0168847069144248,0.0400779098272323
1769146197357,-0.0526885986328125,-0.13818359375,-0.9991607666015624,-0.0039638490416109,-0.0310212988406419,0.0336863249540329
1769146197367,-0.052825927734375,-0.139892578125,-0.9940948486328124,-0.0015765913994982,-0.044601023197174,0.0338426530361175
1769146197377,-0.055145263671875,-0.1364593505859375,-0.990234375,-0.0022892532870173,-0.0490431748330593,0.0208954289555549
1769146197387,-0.0660400390625,-0.137115478515625,-0.9850921630859376,-0.0109024485573172,-0.0432044602930545,0.0033478597179055
1769146197398,-0.0706787109375,-0.140045166015625,-0.973785400390625,-0.0182695519179105,-0.0305507183074951,-1.3315805063029984e-06
1769146197408,-0.063995361328125,-0.1397857666015625,-0.9710693359375,-0.0229465942829847,-0.0162551365792751,0.0074746944010257
1769146197417,-0.062255859375,-0.1390533447265625,-0.9739227294921876,-0.0246163960546255,-0.0140511039644479,0.0128217888996005
1769146197428,-0.0629119873046875,-0.1387939453125,-0.96942138671875,-0.0369023568928241,-0.0189017858356237,0.0147211551666259
1769146197438,-0.0647430419921875,-0.1433258056640625,-0.9678192138671876,-0.0533159524202346,-0.0252374466508626,0.0227114371955394
1769146197448,-0.045135498046875,-0.1592559814453125,-0.9673919677734376,-0.0737684965133667,-0.0402922965586185,0.0461650975048542
1769146197458,-0.0325775146484375,-0.154754638671875,-0.970550537109375,-0.062684953212738,-0.0556337013840675,0.0435637235641479
1769146197468,-0.0555419921875,-0.14080810546875,-0.992401123046875,-0.0452518984675407,-0.0594249777495861,0.029764287173748
1769146197478,-0.0766448974609375,-0.107757568359375,-1.005218505859375,-0.0048719868063926,-0.0248595438897609,0.004734035115689
1769146197488,-0.079193115234375,-0.1273345947265625,-1.010833740234375,-0.0226070415228605,-0.033518012613058,0.0296686794608831
1769146197498,-0.03594970703125,-0.144622802734375,-0.977935791015625,-0.0118334898725152,-0.0366648025810718,0.0032740901224315
1769146197508,-0.08721923828125,-0.1221466064453125,-0.99603271484375,-0.0035907400306314,-0.0204187221825122,-0.0304053090512752
1769146197518,-0.0919952392578125,-0.126800537109375,-0.984100341796875,-0.028511269018054,-0.0213140770792961,-0.0397202484309673
1769146197528,-0.0706939697265625,-0.1502532958984375,-0.962371826171875,-0.0682078152894973,-0.030083866789937,-0.0352719686925411
1769146197538,-0.0566558837890625,-0.1514892578125,-0.9608154296875,-0.0874155983328819,-0.0162660554051399,-0.031005585566163
1769146197548,-0.054290771484375,-0.1467742919921875,-0.980499267578125,-0.0797907039523124,0.0032682311721146,-0.0183619633316993
1769146197558,-0.040740966796875,-0.152557373046875,-0.9989013671875,-0.0555215813219547,-0.0064096958376467,0.0082406196743249
1769146197568,-0.0250091552734375,-0.15472412109375,-1.011322021484375,-0.0125725166872143,-0.0122995432466268,0.0261168219149112
1769146197578,-0.0335540771484375,-0.14263916015625,-1.0277862548828125,0.0346581116318702,-0.0098206726834177,0.030466828495264
1769146197588,-0.0536651611328125,-0.1280517578125,-1.029388427734375,0.076266273856163,0.0059178103692829,0.0226248856633901
1769146197598,-0.0735015869140625,-0.1175994873046875,-1.021820068359375,0.0973427966237068,0.0240166522562503,0.0029023129027336
1769146197608,-0.0802459716796875,-0.1163482666015625,-1.0030975341796875,0.0921901166439056,0.0229175668209791,-0.0062467106617987
1769146197618,-0.067535400390625,-0.1271820068359375,-0.97894287109375,0.0642066821455955,0.0086448872461915,-0.0042597260326147
1769146197629,-0.057708740234375,-0.1362762451171875,-0.95916748046875,0.0267882049083709,-0.0018511632224544,-0.0069745522923767
1769146197639,-0.06512451171875,-0.1418609619140625,-0.9453887939453124,-0.0203841011971235,0.0076166405342519,-0.0172319840639829
1769146197649,-0.0626983642578125,-0.1468658447265625,-0.9315032958984376,-0.0652775391936302,0.0183752793818712,-0.0152263566851615
1769146197659,-0.05291748046875,-0.1510772705078125,-0.9280242919921876,-0.0968394577503204,0.0197028648108243,-0.0046189865097403
1769146197669,-0.047271728515625,-0.148712158203125,-0.9404296875,-0.1107685938477516,0.0264318734407424,0.0040738373063504
1769146197679,-0.04315185546875,-0.14215087890625,-0.9629669189453124,-0.1008267477154731,0.0195372160524129,0.0160908196121454
1769146197689,-0.0362396240234375,-0.13726806640625,-0.9876708984375,-0.0780705660581588,0.0073838802054524,0.0328626073896884
1769146197699,-0.0325775146484375,-0.1406402587890625,-1.0092926025390625,-0.0536594986915588,-0.0053958306089043,0.0472282320261001
1769146197709,-0.034698486328125,-0.138641357421875,-1.01788330078125,-0.0237849578261375,-0.0061689461581408,0.0499084368348121
1769146197719,-0.052276611328125,-0.129913330078125,-1.0251617431640625,0.0099197421222925,0.0033912693616002,0.0434329621493816
1769146197729,-0.0696563720703125,-0.1228179931640625,-1.02117919921875,0.0259543694555759,0.0122460136190056,0.0337971113622188
1769146197739,-0.075775146484375,-0.125091552734375,-1.0059967041015625,0.023937290534377,0.0139272669330239,0.022359101101756
1769146197749,-0.0764617919921875,-0.1298370361328125,-0.98101806640625,0.0031518512405455,0.0162133239209651,0.0173057541251182
1769146197759,-0.0722808837890625,-0.1343536376953125,-0.9597625732421876,-0.0291970334947109,0.0230667032301425,0.017561150714755
1769146197770,-0.067352294921875,-0.135406494140625,-0.9528656005859376,-0.0547511279582977,0.0170554164797067,0.0213854499161243
1769146197779,-0.0565032958984375,-0.1359710693359375,-0.957366943359375,-0.0751410871744155,0.0011925635626539,0.0320253111422061
1769146197789,-0.048492431640625,-0.1395263671875,-0.960418701171875,-0.0952271819114685,-0.0051540154963731,0.0425565131008625
1769146197799,-0.042724609375,-0.1439208984375,-0.96636962890625,-0.1023663207888603,-0.0050911651924252,0.0558195896446704
1769146197810,-0.039093017578125,-0.14453125,-0.97393798828125,-0.1015625745058059,-0.004161455668509,0.068476527929306
1769146197820,-0.0385284423828125,-0.143402099609375,-0.9819793701171876,-0.0993705317378044,0.0142521727830171,0.0755962207913398
1769146197830,-0.04833984375,-0.1395111083984375,-0.9810638427734376,-0.1009196862578392,0.0210203304886817,0.0704613849520683
1769146197840,-0.062286376953125,-0.1278533935546875,-0.976837158203125,-0.1057408079504966,0.0240648556500673,0.0521494857966899
1769146197850,-0.0697174072265625,-0.1212615966796875,-0.9792022705078124,-0.106738694012165,0.0246843080967664,0.0512573271989822
1769146197860,-0.0597381591796875,-0.115875244140625,-0.9934539794921876,-0.0933853387832641,-0.0067479177378118,0.0562012195587158
1769146197870,-0.05426025390625,-0.113006591796875,-1.006805419921875,-0.0834400355815887,-0.0362370982766151,0.0554552674293518
1769146197880,-0.0572052001953125,-0.1167449951171875,-1.009918212890625,-0.0749874264001846,-0.0442902334034442,0.0476364940404892
1769146197890,-0.0642242431640625,-0.1201019287109375,-1.011505126953125,-0.0616686902940273,-0.0477765761315822,0.0389468669891357
1769146197900,-0.0612335205078125,-0.12310791015625,-1.01312255859375,-0.0437842309474945,-0.0456505753099918,0.0384927988052368
1769146197910,-0.0574951171875,-0.1253204345703125,-1.0171356201171875,-0.0212357807904481,-0.032159000635147,0.0440944917500019
1769146197920,-0.0601959228515625,-0.1278533935546875,-1.01513671875,-0.0072222263552248,-0.0175188053399324,0.0405431650578975
1769146197931,-0.0646820068359375,-0.1290435791015625,-1.005584716796875,0.0050922301597893,0.0007374293054454,0.0396549999713897
1769146197940,-0.0655059814453125,-0.1279296875,-1.0060577392578125,0.0234275609254837,-0.0007310376968234,0.0375465750694274
1769146197950,-0.0662689208984375,-0.119171142578125,-1.0122833251953125,0.0448875799775123,-0.0068552428856492,0.0344213582575321
1769146197960,-0.06854248046875,-0.115814208984375,-1.0141143798828125,0.0653854012489318,-0.0193116459995508,0.0304503180086612
1769146197970,-0.066192626953125,-0.122161865234375,-1.010009765625,0.0693828016519546,-0.0227678958326578,0.0419554412364959
1769146197980,-0.0504608154296875,-0.143218994140625,-0.9874725341796876,0.0438076667487621,-0.0221521742641925,0.0513105913996696
1769146197990,-0.05596923828125,-0.1373443603515625,-0.96954345703125,0.0443003512918949,-0.008035821840167,0.0255855210125446
1769146198000,-0.0826416015625,-0.1264190673828125,-0.976593017578125,0.0438532084226608,0.015787485986948,-0.0026775421574711
1769146198010,-0.0989227294921875,-0.097930908203125,-0.976837158203125,0.0451477691531181,0.0526666715741157,-0.0242664571851491
1769146198020,-0.0904083251953125,-0.1111297607421875,-0.968109130859375,0.0074017234146595,0.0392499342560768,-0.0058965049684047
1769146198030,-0.0579986572265625,-0.11932373046875,-0.9484100341796876,-0.0103522399440407,0.0224501807242631,-0.0247333087027072
1769146198041,-0.0905303955078125,-0.104156494140625,-0.96636962890625,-0.0181643571704626,0.0057739997282624,-0.0524874441325664
1769146198051,-0.089202880859375,-0.1115875244140625,-0.9630279541015624,-0.0396749749779701,-0.0203673224896192,-0.0499142967164516
1769146198061,-0.0632781982421875,-0.1300048828125,-0.9555206298828124,-0.0701396763324737,-0.0448694713413715,-0.0371633470058441
1769146198071,-0.0535888671875,-0.1359710693359375,-0.9604034423828124,-0.0874683260917663,-0.0294257998466491,-0.027303259819746
1769146198081,-0.0530548095703125,-0.13616943359375,-0.9739990234375,-0.0853913277387619,-0.0089197251945734,-0.0182429198175668
1769146198091,-0.0443878173828125,-0.1412200927734375,-0.9890594482421876,-0.0760079473257064,0.0059175440110266,-0.0028636970091611
1769146198101,-0.0400543212890625,-0.1429443359375,-0.997039794921875,-0.065653845667839,0.0094845816493034,0.0027710190042853
1769146198111,-0.050323486328125,-0.135986328125,-1.0050811767578125,-0.0457917228341102,0.0092038847506046,-0.0050336406566202
1769146198121,-0.06591796875,-0.1229400634765625,-1.01715087890625,-0.0137906465679407,0.0081556644290685,-0.019998475909233
