timestamp_ms,acc_x,acc_y,acc_z,gyro_x,gyro_y,gyro_z
1768725256509,-0.0997161865234375,-0.9732513427734376,-0.1993408203125,0.0031220237724483,-0.0149858733639121,0.0005014732014387
1768725256517,-0.100067138671875,-0.97760009765625,-0.204742431640625,0.0085889603942632,-0.0050853062421083,-0.0041444110684096
1768725256527,-0.1005706787109375,-0.979766845703125,-0.2037811279296875,0.0125743811950087,0.0124145913869142,-0.0042488072067499
1768725256537,-0.0992889404296875,-0.9788055419921876,-0.199127197265625,0.0144290067255496,0.0194072537124156,-0.0077426079660654
1768725256547,-0.0971221923828125,-0.978302001953125,-0.1942138671875,0.0162900239229202,0.0119221732020378,-0.0030245520174503
1768725256560,-0.09173583984375,-0.9756317138671876,-0.192413330078125,0.0154982656240463,0.000956873758696,-0.0022540995851159
1768725256567,-0.0901947021484375,-0.9720458984375,-0.188232421875,0.0087578054517507,-0.0064563015475869,-0.0007291734800674
1768725256577,-0.0889129638671875,-0.97210693359375,-0.185150146484375,-0.003524693660438,-0.0084430193528532,-0.0036466664168983
1768725256587,-0.090179443359375,-0.9730682373046876,-0.183807373046875,-0.018094316124916,-0.0137696079909801,-0.0051992894150316
1768725256597,-0.08819580078125,-0.9724578857421876,-0.1849517822265625,-0.0247791167348623,-0.0125296404585242,-0.0046032737009227
1768725256607,-0.084716796875,-0.969482421875,-0.190948486328125,-0.0326277166604995,-0.0035699673462659,0.0014745922526344
1768725256617,-0.0835113525390625,-0.968841552734375,-0.1916961669921875,-0.0363950245082378,-0.0090211918577551,0.0092483591288328
1768725256627,-0.080535888671875,-0.9645233154296876,-0.1934356689453125,-0.034487135708332,-0.0200053993612527,0.0145898619666695
1768725256637,-0.078338623046875,-0.9644927978515624,-0.1982421875,-0.0325875058770179,-0.023692812770605,0.0191625095903873
1768725256648,-0.0800323486328125,-0.9686431884765624,-0.2028045654296875,-0.0312812253832817,-0.0198328271508216,0.0236249025911092
1768725256658,-0.0848846435546875,-0.959625244140625,-0.2071990966796875,-0.0146662946790456,-0.0106987170875072,0.032897762954235
1768725256668,-0.0792083740234375,-0.9506378173828124,-0.2138519287109375,0.0010703244479373,-0.0257892534136772,0.0408390425145626
1768725256678,-0.081817626953125,-0.9699554443359376,-0.216522216796875,0.0152418036013841,-0.0346384048461914,0.0381215512752532
1768725256688,-0.0962677001953125,-0.986083984375,-0.219207763671875,0.021172396838665,-0.0043883565813302,0.0201641246676445
1768725256698,-0.1075286865234375,-0.989105224609375,-0.2203216552734375,0.0398763082921505,0.0357068665325641,0.0160865578800439
1768725256708,-0.10540771484375,-0.9821624755859376,-0.2215118408203125,0.050507117062807,0.0362011492252349,0.0139997052028775
1768725256718,-0.107330322265625,-0.99200439453125,-0.2122802734375,0.0515236444771289,0.0380536429584026,0.0103040365502238
1768725256731,-0.112762451171875,-0.987030029296875,-0.2015380859375,0.0492980405688285,0.0555735118687152,0.0095383776351809
1768725256738,-0.1106719970703125,-0.973876953125,-0.189788818359375,0.0383266173303127,0.0453541651368141,0.0134079502895474
1768725256748,-0.1035919189453125,-0.9655914306640624,-0.1791229248046875,0.021820344030857,0.0213854499161243,0.0186461228877306
1768725256758,-0.097198486328125,-0.965972900390625,-0.172576904296875,-0.0024264061357825,-0.0020823257509618,0.0188099071383476
1768725256768,-0.0985565185546875,-0.9680938720703124,-0.1784515380859375,-0.0180988423526287,-0.0105770109221339,0.0164825692772865
1768725256778,-0.10394287109375,-0.9697265625,-0.1868743896484375,-0.0303459223359823,-0.0030405309516936,0.0079692434519529
1768725256788,-0.10504150390625,-0.9699554443359376,-0.1943359375,-0.0304234195500612,0.0032120386604219,0.0077886809594929
1768725256798,-0.1022796630859375,-0.9678192138671876,-0.2013397216796875,-0.0277272351086139,0.0111133707687258,0.0111053818836808
1768725256808,-0.1001129150390625,-0.964385986328125,-0.203704833984375,-0.0221076998859643,-0.0004063983797095,0.0086621977388858
1768725256818,-0.101531982421875,-0.968719482421875,-0.20257568359375,-0.0167262498289346,-0.0146116996183991,0.0086970850825309
1768725256828,-0.0966796875,-0.9694366455078124,-0.2046966552734375,-0.0006388923502527,-0.0228712279349565,0.0069836070761084
1768725256838,-0.091217041015625,-0.97039794921875,-0.21173095703125,0.0185835380107164,-0.0251703336834907,0.0051193945109844
1768725256849,-0.0920257568359375,-0.9721527099609376,-0.21807861328125,0.0402912311255931,-0.0162809696048498,0.0040807616896927
1768725256859,-0.09722900390625,-0.975860595703125,-0.2175750732421875,0.049251701682806,0.0022295983508229,0.0038258971180766
1768725256869,-0.1003570556640625,-0.9800872802734376,-0.208587646484375,0.0505582503974437,0.0061931810341775,-0.000157392816618
1768725256879,-0.098419189453125,-0.9809722900390624,-0.1988525390625,0.0422012507915496,0.0043105925433337,-0.0007155913626775
1768725256889,-0.096466064453125,-0.9807891845703124,-0.18939208984375,0.0295459069311618,-0.0003454120014794,3.1158982892520726e-05
1768725256899,-0.0944671630859375,-0.9818115234375,-0.18341064453125,0.0141054326668381,-0.0031545143574476,-0.0001909486454678
1768725256909,-0.0924835205078125,-0.981170654296875,-0.1804656982421875,-0.0010205233702436,0.0001454086013836,-0.0004359594604466
1768725256919,-0.0961456298828125,-0.9813385009765624,-0.18084716796875,-0.0119940787553787,0.0066840015351772,0.0001581917604198
1768725256929,-0.094512939453125,-0.9810791015625,-0.1838836669921875,-0.0190597120672464,0.0040442761965096,-0.0001581917604198
1768725256939,-0.0906219482421875,-0.9777069091796876,-0.18902587890625,-0.0263543762266635,0.0057542920112609,0.0027771443128585
1768725256949,-0.091033935546875,-0.9731292724609376,-0.1918792724609375,-0.027334151789546,0.0119594577699899,0.0033926009200513
1768725256959,-0.093841552734375,-0.9659576416015624,-0.194000244140625,-0.0269237589091062,0.0069862706586718,0.0128204571083188
1768725256969,-0.0908355712890625,-0.9651336669921876,-0.196868896484375,-0.0207391008734703,-0.0115016596391797,0.017297763377428
1768725256979,-0.0929412841796875,-0.967803955078125,-0.2036590576171875,-0.0065393918193876,-0.0123778404667973,0.0168261174112558
1768725256989,-0.0977630615234375,-0.96807861328125,-0.2121124267578125,0.01152562815696,0.0149006526917219,0.0131442975252866
1768725256999,-0.1011810302734375,-0.965576171875,-0.214691162109375,0.0236707087606191,0.0368682704865932,0.0145539091899991
1768725257009,-0.103546142578125,-0.9660797119140624,-0.20843505859375,0.0284670609980821,0.0396861582994461,0.0145240817219018
1768725257019,-0.1031951904296875,-0.97039794921875,-0.1977386474609375,0.0221657566726207,0.0292875804007053,0.006719421595335
1768725257029,-0.1052093505859375,-0.9749755859375,-0.185821533203125,0.0084241107106208,0.017722537741065,0.0031052457634359
1768725257039,-0.1053924560546875,-0.972900390625,-0.182373046875,-0.0040477383881807,0.0006266417913138,0.0020202740561217
1768725257050,-0.10064697265625,-0.9696807861328124,-0.1826934814453125,-0.0133341811597347,-0.0151869421824812,0.0031800805591046
1768725257060,-0.09942626953125,-0.9688568115234376,-0.1900177001953125,-0.0180924516171216,-0.0171132069081068,0.005583849735558
1768725257069,-0.099945068359375,-0.968658447265625,-0.196868896484375,-0.0251306537538766,-0.002690591616556,0.0051785167306661
1768725257080,-0.1055450439453125,-0.9712982177734376,-0.2003326416015625,-0.0272164400666952,0.0092520881444215,0.001195226679556
1768725257090,-0.1107025146484375,-0.9756317138671876,-0.2036590576171875,-0.0288979616016149,0.0118108531460165,-0.0049811764620244
1768725257100,-0.1083221435546875,-0.9768829345703124,-0.205078125,-0.0257716756314039,0.0092393048107624,-0.0074624437838792
1768725257110,-0.1062774658203125,-0.9766693115234376,-0.2082977294921875,-0.0199524033814668,0.0077055902220308,-0.0108635667711496
1768725257120,-0.105499267578125,-0.9777984619140624,-0.2100372314453125,-0.0086092008277773,0.0048472196795046,-0.0135914422571659
1768725257130,-0.1046142578125,-0.9783935546875,-0.20989990234375,0.0028304075822234,0.0043153860606253,-0.0162032041698694
1768725257140,-0.1004791259765625,-0.97784423828125,-0.211517333984375,0.0175129473209381,0.0062504392117261,-0.0123536055907607
1768725257150,-0.09637451171875,-0.9737701416015624,-0.212860107421875,0.0295272655785083,0.0127759827300906,-0.0085772424936294
1768725257160,-0.095672607421875,-0.9742431640625,-0.20849609375,0.0335662141442298,0.0217902492731809,-0.00753781106323
1768725257170,-0.096893310546875,-0.9751129150390624,-0.2008209228515625,0.0334269329905509,0.022939670830965,-0.0063931844197213
1768725257180,-0.094451904296875,-0.97357177734375,-0.1946563720703125,0.033347837626934,0.011526427231729,-0.0042719766497612
1768725257190,-0.0919189453125,-0.973114013671875,-0.1926116943359375,0.0327038839459419,0.0023590279743075,-0.0010085391113534
1768725257200,-0.0920562744140625,-0.9716644287109376,-0.1886444091796875,0.0315467417240142,0.0056403088383376,-5.273058923194185e-05
1768725257210,-0.0917205810546875,-0.970458984375,-0.1898193359375,0.0343310758471488,0.0062951799482107,0.0040077911689877
1768725257220,-0.0942535400390625,-0.972137451171875,-0.189208984375,0.0312679074704647,0.008967662230134,0.00370365800336
1768725257230,-0.0945281982421875,-0.9719390869140624,-0.1851043701171875,0.0252459682524204,0.0131570808589458,0.0071708275936543
1768725257241,-0.0952301025390625,-0.97088623046875,-0.1834259033203125,0.0160833615809679,0.0205641314387321,0.0102387890219688
1768725257250,-0.0951690673828125,-0.9703369140625,-0.1805267333984375,0.0065694856457412,0.0159406177699565,0.0091833779588341
1768725257261,-0.09716796875,-0.9726409912109376,-0.1775360107421875,-0.0009179916232824,0.0055114119313657,0.0087873665615916
1768725257270,-0.095977783203125,-0.97393798828125,-0.18231201171875,-0.0055388421751558,0.0018274611793458,0.0087175918743014
1768725257280,-0.0962371826171875,-0.9724273681640624,-0.1899261474609375,-0.0086113316938281,0.0089096054434776,0.0074187680147588
1768725257291,-0.0996856689453125,-0.9718475341796876,-0.1917877197265625,-0.010390855371952,0.0103277387097477,0.0060525662265717
1768725257300,-0.0995941162109375,-0.9730682373046876,-0.1925506591796875,-0.011046259663999,0.0049319081008434,0.0035822179634124
1768725257311,-0.1008453369140625,-0.9739227294921876,-0.1945953369140625,-0.0115804895758628,0.0060038301162421,0.000966461142525
1768725257321,-0.0984344482421875,-0.973846435546875,-0.1962738037109375,-0.0074691013433039,0.0071234232746064,0.0040557282045483
1768725257331,-0.0958099365234375,-0.9710845947265624,-0.2018280029296875,-0.0042935484088957,0.0109290806576609,0.0031699605751782
1768725257341,-0.0997314453125,-0.974273681640625,-0.2028045654296875,-0.0002649845264386,0.0169369056820869,0.0037087181117385
1768725257351,-0.100860595703125,-0.9750518798828124,-0.202178955078125,0.0042610578238964,0.0132790533825755,0.0024282701779156
1768725257361,-0.0992584228515625,-0.973968505859375,-0.2004241943359375,0.0075695025734603,0.0038266961928457,0.0019792614039033
1768725257371,-0.0986328125,-0.974456787109375,-0.2033538818359375,0.0143973147496581,0.0086267776787281,0.0059971725568175
1768725257381,-0.0959930419921875,-0.9708251953125,-0.20159912109375,0.0166159942746162,0.0112694324925541,0.0088755171746015
1768725257391,-0.096466064453125,-0.9723968505859376,-0.1981201171875,0.0171116087585687,0.009703760035336,0.007210508454591
1768725257401,-0.100494384765625,-0.9755401611328124,-0.1934356689453125,0.0162298362702131,0.0120337596163153,0.009451825171709
1768725257411,-0.0982513427734375,-0.9722442626953124,-0.194488525390625,0.0197145827114582,0.0145808067172765,0.0106856673955917
1768725257421,-0.09674072265625,-0.9717559814453124,-0.1960296630859375,0.0231391414999961,0.0137243345379829,0.0092153362929821
1768725257431,-0.101409912109375,-0.975250244140625,-0.1934814453125,0.0206586737185716,0.0221559014171361,0.0069774822331964
1768725257441,-0.10546875,-0.976348876953125,-0.19024658203125,0.0137616181746125,0.0214842520654201,0.0048046088777482
1768725257451,-0.102386474609375,-0.9776153564453124,-0.1867218017578125,0.0055292551405727,0.0117091201245784,0.0015366439474746
1768725257461,-0.101898193359375,-0.9765167236328124,-0.185882568359375,0.0003233077586628,0.0136753320693969,-0.0003310309257358
1768725257471,-0.1048583984375,-0.9740753173828124,-0.1866912841796875,-0.0047486824914813,0.0172980297356843,-0.0008609999786131
1768725257481,-0.1048736572265625,-0.9735870361328124,-0.18817138671875,-0.0063668191432952,0.0165041424334049,0.0012351741315796
1768725257491,-0.1015777587890625,-0.9742431640625,-0.1912689208984375,-0.0041185785084962,0.0072163674049079,0.0017611484508961
1768725257502,-0.1007843017578125,-0.97418212890625,-0.1937103271484375,-0.0021789984311908,0.0039428099989891,0.0008543420699425
1768725257511,-0.1016998291015625,-0.974517822265625,-0.1933135986328125,-0.0024527714122086,0.001947037060745,-0.0023835292086005
1768725257522,-0.1045989990234375,-0.974151611328125,-0.193267822265625,0.0076240976341068,0.0077647124417126,0.0007547398563474
1768725257532,-0.1010589599609375,-0.9589080810546876,-0.196075439453125,0.0189848765730857,0.004628840368241,0.0073314160108566
1768725257542,-0.0933074951171875,-0.9668731689453124,-0.19561767578125,0.0226392652839422,-0.0023012375459074,0.0079178437590599
1768725257552,-0.1011199951171875,-0.974395751953125,-0.191680908203125,0.0152364773675799,0.0059476378373801,-0.002125735161826
1768725257562,-0.1073455810546875,-0.987274169921875,-0.1832122802734375,0.0102795353159308,0.0255370512604713,-0.0143917221575975
1768725257572,-0.1011962890625,-0.9703216552734376,-0.1824493408203125,0.0068105016835033,0.0217801295220851,-0.0085109304636716
1768725257582,-0.0926361083984375,-0.971771240234375,-0.17938232421875,-0.0033883398864418,0.0019819245208054,-0.0066118300892412
1768725257592,-0.09844970703125,-0.97491455078125,-0.1754608154296875,-0.0147935934364795,-3.728425554072601e-06,-0.0036527917254716
1768725257602,-0.099273681640625,-0.968475341796875,-0.175506591796875,-0.024555942043662,-0.0024205471854656,-0.0009851033100858
1768725257612,-0.097625732421875,-0.965301513671875,-0.1773834228515625,-0.0302625652402639,-0.0077607175335288,0.0056120795197784
1768725257622,-0.09619140625,-0.9656829833984376,-0.180389404296875,-0.0359012745320797,-0.0209271200001239,0.0086901606991887
1768725257632,-0.0951080322265625,-0.97283935546875,-0.1865997314453125,-0.0394054614007473,-0.0248832460492849,0.0081154508516192
1768725257642,-0.0973968505859375,-0.978668212890625,-0.195587158203125,-0.0401543453335762,-0.0094092143699526,0.0043002059683203
1768725257652,-0.1004486083984375,-0.97662353515625,-0.202606201171875,-0.0372110195457935,0.0097540933638811,0.0055582835339009
1768725257662,-0.098968505859375,-0.9745330810546876,-0.2052459716796875,-0.0295323263853788,0.012156531214714,0.0097724692896008
1768725257672,-0.09808349609375,-0.9751129150390624,-0.2039947509765625,-0.0228720270097255,0.0074834828265011,0.0077537936158478
1768725257682,-0.0994110107421875,-0.9745025634765624,-0.2040252685546875,-0.0127781126648187,-0.00407250598073,0.0083580650389194
1768725257692,-0.09765625,-0.97418212890625,-0.2107086181640625,0.0043713124468922,-0.0086637958884239,0.0101591609418392
1768725257702,-0.096588134765625,-0.9747772216796876,-0.2170867919921875,0.0222302041947841,0.006255499087274,0.0095085501670837
1768725257712,-0.0988311767578125,-0.975067138671875,-0.2182159423828125,0.0348400063812732,0.0210075471550226,0.0087109338492155
1768725257722,-0.1013031005859375,-0.9752655029296876,-0.2105255126953125,0.0453371219336986,0.0263969860970973,0.0081900190562009
1768725257733,-0.1015777587890625,-0.9761199951171876,-0.2015533447265625,0.0434872880578041,0.0238121226429939,0.0075151743367314
1768725257742,-0.1057586669921875,-0.9780120849609376,-0.1898651123046875,0.0350964665412902,0.0145595017820596,0.0056517603807151
1768725257753,-0.1030731201171875,-0.9752044677734376,-0.1795196533203125,0.0268369410187006,-0.0023731428664177,0.0061095575802028
1768725257763,-0.1014251708984375,-0.973541259765625,-0.1768798828125,0.0190240256488323,-0.0120689133182168,0.0049092709086835
1768725257773,-0.1013031005859375,-0.976409912109375,-0.1792755126953125,0.0114004602655768,-0.0018343853298574,0.0040035299025475
1768725257783,-0.10321044921875,-0.9759674072265624,-0.1825103759765625,0.0058997008018195,0.01608975417912,0.0022959110792726
1768725257793,-0.1042327880859375,-0.976470947265625,-0.1845703125,-0.0009036105475388,0.0223899949342012,-0.000654871284496
1768725257803,-0.1058197021484375,-0.9771728515625,-0.1811065673828125,-0.0137208718806505,0.017615744844079,-0.0040903491899371
1768725257813,-0.10601806640625,-0.980133056640625,-0.1745452880859375,-0.02893684245646,0.0006008091149851,-0.0129677299410104
1768725257823,-0.10552978515625,-0.977508544921875,-0.1729736328125,-0.0385686978697776,-0.0106720849871635,-0.0147864026948809
1768725257833,-0.1002197265625,-0.9685821533203124,-0.180999755859375,-0.0435932837426662,-0.0120231071487069,-0.0102318646386265
1768725257843,-0.09600830078125,-0.9696197509765624,-0.1889801025390625,-0.0412936434149742,-0.012035091407597,-0.0074163707904517
1768725257853,-0.0999603271484375,-0.9757232666015624,-0.1999359130859375,-0.0329097472131252,0.0067079700529575,-0.0103740775957703
1768725257863,-0.1011810302734375,-0.973052978515625,-0.2060394287109375,-0.0187744870781898,0.0249415691941976,-0.0101658180356025
1768725257873,-0.0977630615234375,-0.9671478271484376,-0.2077484130859375,-0.0088273137807846,0.0277309641242027,-0.0056773265823721
1768725257883,-0.09600830078125,-0.9676971435546876,-0.19891357421875,-0.0066523100249469,0.0166378319263458,-0.0037808897905051
1768725257893,-0.0954132080078125,-0.9734649658203124,-0.19219970703125,-0.0099415807053446,0.0044458811171352,-0.0057066213339567
1768725257903,-0.0947113037109375,-0.974853515625,-0.190032958984375,-0.0100539652630686,0.0002263686910737,-0.0037838192656636
1768725257913,-0.093597412109375,-0.9713134765625,-0.191375732421875,-0.0088366344571113,-0.0006998787284828,-0.0012479572324082
1768725257923,-0.096038818359375,-0.97161865234375,-0.1943817138671875,-0.0044043357484042,-0.0031542479991912,0.0039252331480383
1768725257933,-0.09613037109375,-0.97247314453125,-0.1987457275390625,0.0022991069126874,0.0047691888175904,0.0072861425578594
1768725257944,-0.09814453125,-0.972747802734375,-0.1981048583984375,0.0030059099663048,0.0112497247755527,0.0038285604678094
1768725257953,-0.1016998291015625,-0.9742889404296876,-0.1927032470703125,-0.0054261907935142,0.0159217081964015,0.001987517112866
1768725257963,-0.1013946533203125,-0.9752960205078124,-0.1877593994140625,-0.0090720579028129,0.0093985619023442,0.0022178804501891
1768725257973,-0.10040283203125,-0.976043701171875,-0.189422607421875,-0.0087703224271535,0.0004434163274709,-0.0013925669481977
1768725257984,-0.1008148193359375,-0.9760284423828124,-0.194183349609375,-0.0087942909449338,-0.0008788431296125,-0.0019702066201716
1768725257994,-0.101898193359375,-0.9774627685546876,-0.1950225830078125,-0.0082185147330164,-9.507485083304346e-05,-0.002887399168685
1768725258004,-0.1020355224609375,-0.9767913818359376,-0.194488525390625,-0.0054357778280973,-0.0006159891490824,-0.0032661007717251
1768725258014,-0.100189208984375,-0.9765777587890624,-0.1951904296875,-0.006760966964066,0.005027515348047,-0.0035744947381317
1768725258024,-0.0998382568359375,-0.9740142822265624,-0.1934967041015625,-0.0083942832425236,0.0137000996619462,-0.0023238742724061
1768725258034,-0.1012115478515625,-0.972869873046875,-0.1890411376953125,-0.0118015315383672,0.0057156761176884,-0.0028405275661498
1768725258044,-0.0994415283203125,-0.972259521484375,-0.189666748046875,-0.0124473487958312,-0.0016210661269724,-0.0039787627756595
1768725258054,-0.0984344482421875,-0.97235107421875,-0.1922760009765625,-0.012182630598545,-0.0038501319941133,-0.004047205671668
1768725258064,-0.102508544921875,-0.9733428955078124,-0.1941986083984375,-0.0077545922249555,-0.0013747237389907,-0.0038954056799411
1768725258074,-0.102020263671875,-0.9737548828125,-0.1944580078125,-0.0062349927611649,0.0046392264775931,-0.0043268376030027
1768725258084,-0.0995025634765625,-0.972076416015625,-0.19476318359375,-0.0025140240322798,0.0087761813774704,-0.0030035129748284
1768725258094,-0.0976715087890625,-0.970245361328125,-0.194915771484375,-0.0029265477787703,0.0114047210663557,-0.0040597226470708
1768725258104,-0.0982666015625,-0.9710845947265624,-0.1922607421875,-0.007275755982846,0.0099519668146967,-0.0047657266259193
1768725258114,-0.0998687744140625,-0.971710205078125,-0.1908416748046875,-0.0137038277462124,0.0039593214169144,-0.0055124768987298
1768725258124,-0.099945068359375,-0.9723968505859376,-0.1919403076171875,-0.012181831523776,-0.0003331614425405,-0.0054147392511367
1768725258134,-0.099365234375,-0.97161865234375,-0.1930999755859375,-0.0136875826865434,-0.0022405174095183,-0.0014639396686106
1768725258144,-0.0992431640625,-0.9714508056640624,-0.1951446533203125,-0.0143762761726975,0.0006910903030075,-0.0009392969077453
1768725258154,-0.0998992919921875,-0.974945068359375,-0.19610595703125,-0.015396000817418,0.0067726848646998,-0.0024093617685139
1768725258164,-0.1011962890625,-0.9732818603515624,-0.19512939453125,-0.0119932796806097,0.0029968551825731,-0.0052557485178112
1768725258174,-0.0985870361328125,-0.97308349609375,-0.19903564453125,-0.001324922661297,-0.0001185106666525,-0.0030937942210584
1768725258185,-0.09857177734375,-0.973602294921875,-0.2053070068359375,0.0084536718204617,0.0061963768675923,-0.0042176484130322
1768725258194,-0.1015625,-0.976654052734375,-0.20196533203125,0.0094614122062921,0.0148194264620542,-0.0054296529851853
1768725258205,-0.1019134521484375,-0.9765167236328124,-0.196441650390625,0.0099224057048559,0.0090118711814284,-0.0062291338108479
1768725258215,-0.102691650390625,-0.975982666015625,-0.1916961669921875,0.0082613918930292,0.0084281060844659,-0.0046075349673628
1768725258225,-0.098876953125,-0.97564697265625,-0.1873016357421875,0.0014583469601348,0.0092331795021891,-0.00682701356709
1768725258235,-0.099609375,-0.9759979248046876,-0.18255615234375,-0.0079367524012923,0.0068030450493097,-0.0080400835722684
1768725258245,-0.0982208251953125,-0.9751739501953124,-0.1845703125,-0.0130585441365838,-0.0004601942200679,-0.0086760465055704
1768725258255,-0.0955657958984375,-0.9719085693359376,-0.1878662109375,-0.013374394737184,-0.0029502499382942,-0.0053106094710528
1768725258265,-0.095611572265625,-0.971466064453125,-0.1902008056640625,-0.0174088180065155,-0.000958737975452,-0.0066051720641553
1768725258275,-0.0970001220703125,-0.97088623046875,-0.1923828125,-0.0178844574838876,0.0054855793714523,-0.0026969832833856
1768725258285,-0.0955810546875,-0.9705810546875,-0.193695068359375,-0.0153629770502448,0.0024375913199037,-0.0030690268613398
1768725258295,-0.0949859619140625,-0.9712371826171876,-0.19732666015625,-0.0131597444415092,0.0074331490322947,-9.53411654336378e-05
1768725258305,-0.094482421875,-0.969329833984375,-0.1966400146484375,-0.012009791098535,0.0151278199627995,0.0027369307354092
1768725258315,-0.0962371826171875,-0.97149658203125,-0.1940765380859375,-0.0122393555939197,0.0073777548968791,0.0005137237603776
1768725258325,-0.0979766845703125,-0.9781036376953124,-0.192535400390625,-0.0129634691402316,0.001506017637439,-0.0017893778858706
1768725258335,-0.1045379638671875,-0.9788818359375,-0.1935882568359375,-0.0166106689721345,0.0041960766538977,-0.0046930224634706
1768725258345,-0.103179931640625,-0.976806640625,-0.1961822509765625,-0.0128351049497723,0.0018929748330265,-0.0036626453511416
1768725258355,-0.0990447998046875,-0.9756622314453124,-0.198516845703125,-0.011265704408288,-0.0004436826275195,-0.0025462482590228
1768725258365,-0.096588134765625,-0.97393798828125,-0.2003936767578125,-0.0066323364153504,-0.0009060074225999,-0.0026197514962404
1768725258375,-0.0962677001953125,-0.9735107421875,-0.20001220703125,-0.0021627531386911,-0.0047811730764806,-0.0025142903905361
1768725258385,-0.1009063720703125,-0.97637939453125,-0.1999359130859375,0.0011723234783858,0.0026061693206429,-0.0032940639648586
1768725258395,-0.0996551513671875,-0.972564697265625,-0.2003936767578125,0.0125128626823425,0.0142545700073242,0.0002498045214451
1768725258405,-0.09222412109375,-0.954742431640625,-0.202423095703125,0.0206701252609491,-0.0083577986806631,0.009869142435491
1768725258416,-0.0905609130859375,-0.969390869140625,-0.2001495361328125,0.0215755999088287,-0.0118353543803095,0.0073481942526996
1768725258426,-0.1002044677734375,-0.9777374267578124,-0.1963958740234375,0.0099530322477221,0.0067401942797005,-0.0047172573395073
1768725258436,-0.107025146484375,-0.9841461181640624,-0.1903839111328125,0.0131826475262641,0.0219886563718318,-0.0050956923514604
1768725258446,-0.0981292724609375,-0.969085693359375,-0.1883087158203125,0.0105871306732296,0.0104395914822816,-0.0030639667529612
1768725258456,-0.0980072021484375,-0.9796905517578124,-0.1847686767578125,0.0041779670864343,0.0014125406742095,-0.0024453145451843
1768725258466,-0.1018829345703125,-0.9766387939453124,-0.183074951171875,-0.0043808999471366,0.0059468387626111,-0.002861033892259
1768725258476,-0.1018829345703125,-0.966522216796875,-0.1815948486328125,-0.0087617998942732,0.0055889096111059,0.0039982036687433
1768725258486,-0.09967041015625,-0.9620208740234376,-0.180389404296875,-0.0176016297191381,-0.0079660471528768,0.0085735144093632
1768725258496,-0.095458984375,-0.9669342041015624,-0.1822662353515625,-0.0203998144716024,-0.0200762394815683,0.0094014909118413
1768725258506,-0.0965728759765625,-0.9737396240234376,-0.186248779296875,-0.0282068699598312,-0.0096526276320219,0.0042882221750915
1768725258516,-0.1025390625,-0.9784698486328124,-0.1898651123046875,-0.0347862094640731,-0.0001249022607225,0.000744087214116
1768725258526,-0.102447509765625,-0.978515625,-0.1922760009765625,-0.0375993065536022,0.0040543964132666,0.0017584852175787
1768725258536,-0.0983123779296875,-0.97412109375,-0.19390869140625,-0.0354735702276229,0.0036394759081304,0.005592371802777
1768725258546,-0.09686279296875,-0.972869873046875,-0.1961822509765625,-0.0364634692668914,-0.0031465247739106,0.0036567864008247
1768725258556,-0.0982513427734375,-0.974853515625,-0.1983642578125,-0.0361971519887447,-0.0070275492034852,0.0011398328933864
1768725258566,-0.1013336181640625,-0.9743499755859376,-0.199310302734375,-0.0315342247486114,-0.011943744495511,-0.0014303837670013
1768725258576,-0.098602294921875,-0.9733734130859376,-0.2053680419921875,-0.0211303196847438,-0.0177294630557298,-0.0022112226579338
1768725258586,-0.0983734130859375,-0.9745025634765624,-0.2107391357421875,-0.0121301664039492,-0.0111519871279597,0.0020570256747305
1768725258596,-0.0960235595703125,-0.9730987548828124,-0.2110748291015625,0.0044773062691092,0.0024335966445505,0.0021502361632883
1768725258606,-0.09783935546875,-0.9763336181640624,-0.210418701171875,0.0147584397345781,0.015132613480091,0.0003302319673821
1768725258616,-0.09796142578125,-0.9785919189453124,-0.2057647705078125,0.0177869871258735,0.0229481924325227,0.0005864280392415
1768725258627,-0.096221923828125,-0.9774322509765624,-0.1959686279296875,0.0191630423069,0.0143903912976384,5.566006802837365e-05
1768725258636,-0.095367431640625,-0.9746856689453124,-0.1925048828125,0.0195593200623989,0.0002836266648955,0.0028434570413082
1768725258646,-0.0958099365234375,-0.9739227294921876,-0.191864013671875,0.0157262329012155,-0.0083319656550884,0.0046876962296664
1768725258657,-0.0980224609375,-0.97528076171875,-0.1929168701171875,0.0122169852256774,-0.0033060482237488,0.0030306773260235
1768725258667,-0.0994720458984375,-0.9754180908203124,-0.1956939697265625,0.0088179921731352,0.0060040964744985,0.0024415859952569
1768725258678,-0.09735107421875,-0.9746246337890624,-0.192779541015625,0.0015195996966212,0.0111639713868498,0.0004506068653427
1768725258687,-0.0996246337890625,-0.97564697265625,-0.1876373291015625,-0.0093349125236272,0.0132436333224177,-0.0023955134674906
1768725258697,-0.1001129150390625,-0.9761962890625,-0.1846160888671875,-0.0134023576974868,0.0150639042258262,-0.0047835698351264
1768725258707,-0.099029541015625,-0.96826171875,-0.187225341796875,-0.0196429435163736,0.0053572147153317,0.0005408879951573
1768725258717,-0.0953521728515625,-0.9723052978515624,-0.189361572265625,-0.0231737624853849,-0.0060576261021196,-0.0005052016349509
1768725258727,-0.1029510498046875,-0.97821044921875,-0.1923980712890625,-0.0232454016804695,-8.974852971732616e-05,-0.0057907775044441
1768725258737,-0.1030731201171875,-0.97381591796875,-0.196044921875,-0.0134225981310009,0.0142463138327002,-0.0048506814055144
1768725258747,-0.096649169921875,-0.965179443359375,-0.2004241943359375,-0.0076762954704463,0.0132580148056149,0.0004554005572572
1768725258757,-0.0951690673828125,-0.9686431884765624,-0.19842529296875,-0.0070379357784986,0.011992746964097,-0.0012559468159452
1768725258767,-0.099273681640625,-0.9737701416015624,-0.1922760009765625,-0.0095157409086823,0.0110340090468525,-0.0046160570345819
1768725258777,-0.0998687744140625,-0.9714508056640624,-0.1928863525390625,-0.0101144192740321,0.0040424121543765,-0.0017326525412499
1768725258787,-0.0953216552734375,-0.9677276611328124,-0.196563720703125,-0.0072856098413467,0.000409327854868,0.0029965888243168
1768725258797,-0.0958709716796875,-0.971893310546875,-0.1988525390625,-0.0041031320579349,0.0051889028400182,0.0024455809034407
1768725258807,-0.0999755859375,-0.9739837646484376,-0.2016448974609375,-4.793690095539205e-06,0.0112214954569935,0.0028253474738448
1768725258817,-0.097625732421875,-0.9738616943359376,-0.201995849609375,-0.0011954930378124,0.019375829026103,0.0015164038632065
1768725258827,-0.0982666015625,-0.974273681640625,-0.1973724365234375,-0.0055982307530939,0.0186889991164207,0.0013965616235509
1768725258837,-0.0991973876953125,-0.9753875732421876,-0.1931610107421875,-0.013667874969542,0.0108917960897088,-0.0014048174489289
1768725258848,-0.1009521484375,-0.9743804931640624,-0.1922149658203125,-0.0166436918079853,-0.0017805894603952,-0.0021201425697654
1768725258858,-0.1008453369140625,-0.9753875732421876,-0.1934814453125,-0.0157398153096437,-0.0082970783114433,-0.0041830269619822
1768725258868,-0.101470947265625,-0.975372314453125,-0.2001953125,-0.0084006749093532,-0.0048967543989419,-0.0025619608350098
1768725258878,-0.099151611328125,-0.9752655029296876,-0.205078125,-0.0003845604660455,0.0114276241511106,-0.0031164311803877
1768725258888,-0.0983734130859375,-0.9752960205078124,-0.2055511474609375,0.0044826325029134,0.0225841384381055,-0.0030045784078538
1768725258898,-0.100189208984375,-0.97412109375,-0.2020721435546875,0.0059548281133174,0.0219963788986206,-0.0009494169498793
1768725258908,-0.09747314453125,-0.9737396240234376,-0.19622802734375,0.007113036699593,0.0104627609252929,-0.0025883263442665
1768725258918,-0.099090576171875,-0.9754180908203124,-0.193939208984375,0.0078717712312936,0.0047161919064819,-0.0028517129831016
1768725258928,-0.1005096435546875,-0.97467041015625,-0.1954345703125,0.0115575864911079,0.0014373080339282,-0.0045710494741797
1768725258938,-0.098663330078125,-0.97271728515625,-0.2000732421875,0.013907560147345,0.0070469905622303,-0.0048450888134539
1768725258948,-0.0984344482421875,-0.9722442626953124,-0.197113037109375,0.0136620160192251,0.0109346732497215,-0.0033920682035386
1768725258958,-0.09832763671875,-0.9720458984375,-0.194488525390625,0.0127666611224412,0.0098228035494685,-0.0007582019316032
1768725258968,-0.0963897705078125,-0.96990966796875,-0.1900787353515625,0.0111996578052639,0.006050169467926,-0.0002849582233466
1768725258978,-0.0969085693359375,-0.9687042236328124,-0.1885528564453125,0.0039760996587574,0.0020410467404872,0.0026016421616077
1768725258988,-0.0977630615234375,-0.97137451171875,-0.186248779296875,-0.0012269183062016,-0.004284493625164,0.0037444045301526
1768725258998,-0.0957794189453125,-0.9723663330078124,-0.1866912841796875,-0.0070589748211205,0.001750495750457,0.0030834078788757
1768725259008,-0.098175048828125,-0.9716339111328124,-0.1872711181640625,-0.0128532145172357,0.0088251829147338,0.0016519587952643
1768725259018,-0.099395751953125,-0.97283935546875,-0.1863250732421875,-0.0183529090136289,0.0084914891049265,0.0003036003618035
1768725259028,-0.0982818603515625,-0.972442626953125,-0.1873016357421875,-0.0238454118371009,0.0006330333999358,-0.0012207929976284
1768725259038,-0.1012115478515625,-0.973724365234375,-0.189666748046875,-0.0286154001951217,-0.0057241981849074,-0.0054847802966833
1768725259048,-0.10076904296875,-0.9762420654296876,-0.1917877197265625,-0.0295581575483083,-0.0053012883290648,-0.0061609568074345
1768725259058,-0.0978851318359375,-0.97509765625,-0.197601318359375,-0.0280675869435071,-0.0009696569177322,-0.006599046755582
1768725259068,-0.0977935791015625,-0.9748992919921876,-0.20184326171875,-0.0191089790314435,0.0058624162338674,-0.0048549426719546
1768725259079,-0.0966033935546875,-0.9739990234375,-0.204864501953125,-0.0132958320900797,0.0047446875832974,-0.001979527529329
1768725259089,-0.0973663330078125,-0.9750213623046876,-0.2052001953125,-0.0083612604066729,0.005748433060944,-0.0028863339684903
1768725259099,-0.0948944091796875,-0.9730224609375,-0.2028045654296875,-0.0047934236936271,0.0047430898994207,-0.0014777880860492
1768725259109,-0.0968780517578125,-0.972930908203125,-0.2017974853515625,-0.0025459819007664,0.0035960664972662,-0.0005230448441579
1768725259119,-0.097076416015625,-0.9737548828125,-0.20068359375,0.0048988847993314,-0.0022719427943229,-0.0023446469567716
1768725259129,-0.098785400390625,-0.9745330810546876,-0.2042694091796875,0.016917198896408,-0.0019025622168555,-0.0031768847256898
1768725259139,-0.0973663330078125,-0.9754486083984376,-0.2082061767578125,0.024573253467679,0.0067164921201765,-0.0006551376427523
1768725259149,-0.096923828125,-0.9733123779296876,-0.2081298828125,0.0291890446096658,0.0117836883291602,-0.0018255969043821
1768725259159,-0.09722900390625,-0.972747802734375,-0.203887939453125,0.031837023794651,0.0195926092565059,-0.0015488944482058
1768725259169,-0.0977783203125,-0.9701385498046876,-0.19647216796875,0.0290937032550573,0.0213018264621496,0.0016863135388121
1768725259179,-0.097076416015625,-0.97003173828125,-0.1884613037109375,0.0256726071238517,0.0135919749736785,0.000328367750626
1768725259189,-0.099273681640625,-0.97174072265625,-0.1843719482421875,0.0162476785480976,0.011634818278253,0.0011827098205685
1768725259199,-0.099609375,-0.9747772216796876,-0.18255615234375,0.0065926550887525,0.0133381756022572,-0.0038717035204172
1768725259209,-0.1035003662109375,-0.97637939453125,-0.1827239990234375,-0.0036645096261054,0.013089969754219,-0.0037001960445195
1768725259219,-0.102996826171875,-0.9763641357421876,-0.182342529296875,-0.0160700473934412,0.0056549562141299,-0.0061710770241916
1768725259229,-0.1023712158203125,-0.975433349609375,-0.18212890625,-0.0249301176518201,-0.0044040693901479,-0.005421130452305
1768725259239,-0.1009674072265625,-0.9739837646484376,-0.1815948486328125,-0.0318295694887638,-0.0132497586309909,-0.0060597565025091
1768725259249,-0.102691650390625,-0.9750518798828124,-0.1853790283203125,-0.0355955436825752,-0.0124793061986565,-0.0097410446032881
1768725259259,-0.1001739501953125,-0.9762725830078124,-0.1890869140625,-0.0372453741729259,-0.0105141596868634,-0.0089021483436226
1768725259269,-0.0955810546875,-0.97149658203125,-0.1968231201171875,-0.0249053500592708,0.0036171053070575,-0.0028916602022945
1768725259279,-0.0871124267578125,-0.952117919921875,-0.2063751220703125,-0.0056080846115946,-0.001349956379272,0.0151272872462868
1768725259290,-0.0814208984375,-0.9603424072265624,-0.21148681640625,0.0061694788746535,-0.0075402078218758,0.0157664455473423
1768725259299,-0.0967254638671875,-0.9746856689453124,-0.2085723876953125,0.0050416300073266,0.0067114322446286,0.0059353872202336
1768725259309,-0.105743408203125,-0.98712158203125,-0.2011260986328125,0.0052903695032,0.0272974018007516,-0.0095676723867654
1768725259320,-0.10546875,-0.972381591796875,-0.1981048583984375,0.0122129907831549,0.0181960482150316,-0.0056070191785693
1768725259330,-0.09381103515625,-0.975799560546875,-0.19781494140625,0.018470088019967,0.0026069683954119,-0.0028671592008322
1768725259340,-0.0995941162109375,-0.9775390625,-0.1995697021484375,0.0199838280677795,0.0203113965690135,-0.0024610271211713
1768725259350,-0.0980072021484375,-0.969024658203125,-0.197723388671875,0.0219614915549755,0.0296516362577676,0.0016370450612157
1768725259360,-0.0947418212890625,-0.9641876220703124,-0.1900787353515625,0.0189180318266153,0.0162412878125906,0.0107253482565283
1768725259370,-0.0903778076171875,-0.96466064453125,-0.1823883056640625,0.0110095078125596,-0.0147951915860176,0.0142292696982622
1768725259380,-0.0927581787109375,-0.9720458984375,-0.178466796875,-0.0055300537496805,-0.0221942514181137,0.0090619381517171
1768725259390,-0.098663330078125,-0.978607177734375,-0.1795806884765625,-0.0190269537270069,-0.0121181821450591,0.0064456486143171
1768725259400,-0.10284423828125,-0.9795379638671876,-0.183349609375,-0.0289759915322065,-0.0045047369785606,0.0065788067877292
1768725259410,-0.101715087890625,-0.9768218994140624,-0.188873291015625,-0.0318535380065441,-0.0068693575449287,0.0084030721336603
1768725259420,-0.0964508056640625,-0.97332763671875,-0.1959991455078125,-0.024498950690031,-0.0061207432299852,0.0106627643108367
1768725259430,-0.098541259765625,-0.974090576171875,-0.2014312744140625,-0.0195665098726749,0.00668879551813,0.0114089818671345
1768725259440,-0.10015869140625,-0.974853515625,-0.2017059326171875,-0.013807957060635,0.0086065372452139,0.0099839242175221
1768725259450,-0.098114013671875,-0.97406005859375,-0.2032623291015625,-0.008234760724008,0.0052520199678838,0.0064946510829031
1768725259460,-0.09771728515625,-0.9728546142578124,-0.2040863037109375,-0.0011108045000582,-0.0012226572725921,0.0058395131491124
1768725259470,-0.0990447998046875,-0.9744873046875,-0.204803466796875,0.0092217279598116,-0.0063995760865509,0.0034740935079753
1768725259480,-0.1014404296875,-0.97662353515625,-0.205902099609375,0.0166439581662416,0.0003792341449297,0.0025547703262418
1768725259490,-0.1015777587890625,-0.9782257080078124,-0.2030029296875,0.0262784752994775,0.0046975496225059,0.0010325075127184
1768725259501,-0.1007232666015625,-0.978057861328125,-0.201568603515625,0.0294782631099224,0.0106071038171648,0.0020410467404872
1768725259510,-0.0987701416015625,-0.976043701171875,-0.194000244140625,0.0219601597636938,0.010317618958652,0.0009243832319043
1768725259520,-0.1003570556640625,-0.9774627685546876,-0.1847991943359375,0.0092755239456892,0.0042056641541421,-0.0026599653065204
1768725259531,-0.0996856689453125,-0.9778900146484376,-0.179351806640625,-0.0057785268872976,0.0038466698024421,-0.0036197684239596
1768725259540,-0.0970306396484375,-0.97265625,-0.178619384765625,-0.0178463757038116,-0.0001941444352269,-0.0035489285364747
1768725259551,-0.0958099365234375,-0.973236083984375,-0.1810455322265625,-0.0288066137582063,0.0005102616851218,-0.0024109596852213
1768725259561,-0.0975494384765625,-0.97381591796875,-0.1844482421875,-0.0363444238901138,0.0070837419480085,-0.0066376626491546
1768725259571,-0.1023101806640625,-0.9758453369140624,-0.1862640380859375,-0.0406358428299427,0.0157557930797338,-0.0098102865740656
1768725259581,-0.100860595703125,-0.9702606201171876,-0.1898956298828125,-0.0403183959424495,0.0110811470076441,-0.0045417547225952
1768725259591,-0.093994140625,-0.968841552734375,-0.1956024169921875,-0.0368490926921367,-0.0016903083305805,-0.0006021407316438
1768725259601,-0.0966033935546875,-0.9745941162109376,-0.200897216796875,-0.0331550240516662,0.0009781790431588,-0.0054538873955607
1768725259611,-0.1011505126953125,-0.9729156494140624,-0.2023162841796875,-0.0200956799089908,0.008101868443191,-0.0074821510352194
1768725259621,-0.0970916748046875,-0.966461181640625,-0.2087249755859375,-0.0030320088844746,0.008877114392817,0.0001153148768935
1768725259631,-0.092681884765625,-0.9681854248046876,-0.209228515625,0.0023728765081614,0.0089021483436226,-0.001447694376111
1768725259641,-0.09710693359375,-0.9722900390625,-0.20465087890625,0.0065311361104249,0.0104329334571957,0.0001872202265076
1768725259651,-0.096466064453125,-0.9720611572265624,-0.2030487060546875,0.0124401580542325,0.0117266969755291,0.0040370859205722
1768725259661,-0.0940093994140625,-0.9685821533203124,-0.202392578125,0.0146886650472879,0.0131709296256303,0.0089716566726565
1768725259671,-0.0993194580078125,-0.9722747802734376,-0.19927978515625,0.0163360964506864,0.0167422275990247,0.0083436835557222
1768725259681,-0.1004791259765625,-0.9723968505859376,-0.197784423828125,0.0173494294285774,0.0141208786517381,0.0051146009936928
1768725259691,-0.09783935546875,-0.9738922119140624,-0.1973419189453125,0.0194096509367227,0.0137456394731998,0.0021457087714225
1768725259701,-0.1005096435546875,-0.9740447998046876,-0.1952667236328125,0.0159810967743396,0.0157712399959564,0.0004777711001224
1768725259711,-0.097442626953125,-0.973907470703125,-0.1932220458984375,0.0102821988984942,0.014151238836348,-0.0006820355774834
1768725259721,-0.098907470703125,-0.9744720458984376,-0.1902008056640625,-0.001171258278191,0.0216797292232513,-0.0006940197781659
1768725259731,-0.1007232666015625,-0.9762115478515624,-0.1808929443359375,-0.0100651513785123,0.0156876165419816,0.0005906891310587
1768725259741,-0.1047210693359375,-0.9774627685546876,-0.1788787841796875,-0.0154061205685138,0.0070704263634979,-0.0003755057114176
1768725259752,-0.102569580078125,-0.9793701171875,-0.179290771484375,-0.0254995003342628,0.0064264740794897,-0.0011259844759479
1768725259762,-0.1034393310546875,-0.9776458740234376,-0.1816253662109375,-0.032202411442995,0.0030834078788757,-0.0052426988258957
1768725259772,-0.1034088134765625,-0.9770355224609376,-0.1852264404296875,-0.0361500158905983,0.0023747407831251,-0.0072320802137255
1768725259782,-0.099029541015625,-0.97442626953125,-0.1907501220703125,-0.0378379262983799,-0.0016426377696916,-0.0066693541593849
1768725259792,-0.099853515625,-0.9706573486328124,-0.195770263671875,-0.0336847268044948,-0.0083210468292236,-0.0073977289721369
1768725259802,-0.0976715087890625,-0.9715423583984376,-0.2021026611328125,-0.0289219301193952,-0.0096757970750331,-0.0114614460617303
1768725259812,-0.0978546142578125,-0.970489501953125,-0.2075347900390625,-0.0154777597635984,-0.0033188313245773,-0.0122747756540775
1768725259822,-0.097930908203125,-0.96881103515625,-0.2140350341796875,-0.0047675911337137,0.0064824004657566,-0.0092329131439328
1768725259832,-0.09698486328125,-0.9716949462890624,-0.21295166015625,0.0049718553200364,0.0156050585210323,-0.008902414701879
1768725259842,-0.0965576171875,-0.9724578857421876,-0.205108642578125,0.0080030653625726,0.022613700479269,-0.0073729613795876
1768725259852,-0.0930023193359375,-0.9711761474609376,-0.1981353759765625,0.0092792520299553,0.0187286809086799,-0.0033185649663209
1768725259862,-0.0931549072265625,-0.9720458984375,-0.1954345703125,0.0085242455825209,0.0032075112685561,-0.0021398498211055
1768725259872,-0.0933074951171875,-0.970794677734375,-0.1960906982421875,0.0078209051862359,0.0039878175593912,-0.0010620686225593
1768725259882,-0.095001220703125,-0.97052001953125,-0.1945343017578125,0.0087554082274436,0.0041739721782505,-0.0005811017472296
1768725259892,-0.09722900390625,-0.9712371826171876,-0.1956939697265625,0.0111818145960569,-0.0011004181578755,0.0021140172611922
1768725259902,-0.0974273681640625,-0.973846435546875,-0.196441650390625,0.0076965354382991,0.0059092883020639,-0.0006106628570705
1768725259912,-0.1016082763671875,-0.9746246337890624,-0.193389892578125,0.0044211135245859,0.0078808264806866,-0.003189668059349
1768725259922,-0.1005401611328125,-0.9756317138671876,-0.19366455078125,0.0034373418893665,0.0055441688746213,-0.0023558323737233
1768725259932,-0.0957489013671875,-0.9738922119140624,-0.19268798828125,0.0019595539197325,0.004481301177293,-0.002127066720277
1768725259942,-0.0944976806640625,-0.972686767578125,-0.1943511962890625,0.002633333671838,0.0014032195322215,0.0010532801970839
1768725259952,-0.0953369140625,-0.9749298095703124,-0.19378662109375,0.0039366846904158,-0.0002284992224304,0.000548078562133
1768725259962,-0.09576416015625,-0.974365234375,-0.1965484619140625,0.0020066918805241,0.0085668563842773,0.0021331920288503
1768725259972,-0.0974273681640625,-0.97576904296875,-0.19525146484375,0.0021116205025464,0.0091125378385186,0.0011976235546171
1768725259983,-0.100128173828125,-0.9752349853515624,-0.1958770751953125,0.0041667819023132,0.0079085230827331,0.0007438209140673
1768725259993,-0.1005401611328125,-0.9737701416015624,-0.1939239501953125,0.002936135046184,0.0068344702012836,0.0024264061357825
1768725260003,-0.0982208251953125,-0.9734344482421876,-0.1925506591796875,0.0059186089783906,0.0042701126076281,0.0005592638044618
1768725260013,-0.099395751953125,-0.973236083984375,-0.1937713623046875,0.0063367253169417,-0.0007824367494322,-0.001513474388048
1768725260023,-0.10076904296875,-0.974029541015625,-0.194366455078125,0.0060003683902323,0.0004833637212868,-0.0050381682813167
1768725260033,-0.09906005859375,-0.9740142822265624,-0.192535400390625,0.0037119139451533,0.0079913474619388,-0.0080158486962318
1768725260043,-0.0988922119140625,-0.971893310546875,-0.1922760009765625,0.0054163369350135,0.0031406658235937,-0.0067987837828695
1768725260053,-0.0963287353515625,-0.9716949462890624,-0.193389892578125,0.0033268209081143,0.0036834180355072,-0.0049572079442441
1768725260063,-0.098052978515625,-0.97235107421875,-0.191925048828125,-0.0014879080699756,0.0127903632819652,-0.0082379560917615
1768725260073,-0.1004638671875,-0.9755859375,-0.19085693359375,-0.0030056436080485,0.0099072251468896,-0.0113583821803331
1768725260083,-0.100799560546875,-0.97772216796875,-0.193603515625,-0.0028322718571871,0.0079245017841458,-0.0105109643191099
1768725260093,-0.09564208984375,-0.9755706787109376,-0.1945953369140625,-0.0050589409656822,0.0116105834022164,-0.0067130299285054
1768725260103,-0.09454345703125,-0.9733123779296876,-0.1923980712890625,-0.0083348955959081,0.0115085840225219,-0.0038780951872467
1768725260113,-0.0961151123046875,-0.97467041015625,-0.1908721923828125,-0.0121623901650309,0.0104574346914887,-0.0043808999471366
1768725260123,-0.0962982177734375,-0.975250244140625,-0.1917877197265625,-0.0119477398693561,0.0067830714397132,-0.0059883841313421
1768725260133,-0.0953521728515625,-0.9757537841796876,-0.1942138671875,-0.0121064642444252,0.0048687909729778,-0.0038458709605038
1768725260143,-0.0946807861328125,-0.9633941650390624,-0.1989288330078125,0.0035691685043275,0.0042959451675415,0.006729541812092
1768725260153,-0.084808349609375,-0.9538421630859376,-0.2057037353515625,0.0128894336521625,-0.0122963469475507,0.0141158187761902
1768725260164,-0.089019775390625,-0.9720306396484376,-0.2020263671875,0.0128718568012118,-0.0026618295814841,0.0106340022757649
1768725260173,-0.099578857421875,-0.9820098876953124,-0.19708251953125,0.010316819883883,0.0104494448751211,-0.0008170577930286
1768725260184,-0.1072235107421875,-0.98419189453125,-0.1969451904296875,0.0183507781475782,0.0228246226906776,-0.004089550115168
1768725260193,-0.095794677734375,-0.9708251953125,-0.19879150390625,0.0247756540775299,0.0113016562536358,-0.0014828480780124
1768725260204,-0.0989837646484375,-0.980499267578125,-0.1952667236328125,0.0237167812883853,0.0109250852838158,-0.0021808627061545
1768725260214,-0.1027374267578125,-0.9768218994140624,-0.1920013427734375,0.0200368240475654,0.0270499940961599,-0.0005872269975952
1768725260224,-0.096466064453125,-0.9638519287109376,-0.18450927734375,0.0122694494202733,0.0211843810975551,0.0081732412800192
1768725260234,-0.090972900390625,-0.960052490234375,-0.179595947265625,0.0044107274152338,-0.0044288369826972,0.0147128999233245
1768725260244,-0.093841552734375,-0.9715118408203124,-0.1759796142578125,-0.0080960094928741,-0.0189167000353336,0.0102276038378477
1768725260254,-0.1001129150390625,-0.97943115234375,-0.1790008544921875,-0.015385347418487,-0.0210456307977437,0.0032282839529216
1768725260264,-0.101898193359375,-0.9788360595703124,-0.1861724853515625,-0.0177941769361495,-0.0188152324408292,0.0011270497925579
1768725260274,-0.09814453125,-0.9776153564453124,-0.1957244873046875,-0.0168868377804756,-0.0083780381828546,0.0051691955886781
1768725260284,-0.096038818359375,-0.972991943359375,-0.2005462646484375,-0.0113338809460401,-0.0014745922526344,0.0079410141333937
1768725260294,-0.0966949462890625,-0.9733734130859376,-0.2033538818359375,-0.0036083168815821,0.0011337077012285,0.0084030721336603
1768725260304,-0.0973968505859375,-0.973297119140625,-0.202728271484375,0.0039121834561228,0.0050107375718653,0.0086851008236408
1768725260314,-0.098297119140625,-0.9757232666015624,-0.2017364501953125,0.012728844769299,0.0057287258096039,0.0057969028130173
1768725260324,-0.0991668701171875,-0.9770965576171876,-0.20233154296875,0.022588400170207,0.0052632051520049,0.0030032468494027
1768725260334,-0.0999603271484375,-0.9775390625,-0.2023773193359375,0.0290026236325502,0.0053750579245388,0.0012697952333837
1768725260344,-0.1000518798828125,-0.978118896484375,-0.1999969482421875,0.0333760678768157,0.0054887747392058,-0.0012495551491156
1768725260354,-0.09765625,-0.97833251953125,-0.1950531005859375,0.0327989608049392,0.0021486382465809,-0.0027513117529451
1768725260364,-0.0988311767578125,-0.9793243408203124,-0.1910858154296875,0.0292974356561899,0.0022027005907148,-0.0015305186389014
1768725260374,-0.099395751953125,-0.97808837890625,-0.18701171875,0.0213713347911834,0.0074744280427694,-0.0051558800041675
1768725260384,-0.09844970703125,-0.9765625,-0.183929443359375,0.0159427467733621,0.0089263832196593,-0.0074270237237215
1768725260394,-0.0995941162109375,-0.97711181640625,-0.1826934814453125,0.0091133369132876,0.0057657435536384,-0.0057202037423849
1768725260404,-0.0972747802734375,-0.9767608642578124,-0.18206787109375,0.0011883024126291,0.0107091031968593,-0.0060336575843393
1768725260414,-0.0945587158203125,-0.972747802734375,-0.1802215576171875,-0.0067476513795554,0.0056373793631792,-0.0032301479950547
1768725260425,-0.0968170166015625,-0.9748382568359376,-0.180755615234375,-0.0158782992511987,-0.0030325416009873,-0.0045835664495825
1768725260435,-0.09808349609375,-0.976593017578125,-0.1813812255859375,-0.0246486216783523,-0.0061367219313979,-0.0077085196971893
1768725260445,-0.0973358154296875,-0.9765472412109376,-0.1856536865234375,-0.0220280699431896,-0.003647199133411,-0.0065130265429615
1768725260455,-0.097137451171875,-0.97088623046875,-0.1938934326171875,-0.0180301330983638,-0.0058821239508688,-0.004817125853151
1768725260465,-0.0960845947265625,-0.9751129150390624,-0.1994781494140625,-0.0131179327145218,-0.006949252448976,-0.0040160468779504
1768725260475,-0.0988922119140625,-0.97662353515625,-0.2027740478515625,-0.0022216090001165,0.0053199306130409,-0.005298891570419
1768725260485,-0.0985107421875,-0.97186279296875,-0.2016143798828125,0.0077300914563238,0.0132484277710318,-0.0057231332175433
1768725260495,-0.0956268310546875,-0.9669036865234376,-0.2006072998046875,0.0166982859373092,0.0111791510134935,-0.0002740392810665
1768725260505,-0.093536376953125,-0.9689178466796876,-0.1964874267578125,0.0196741018444299,0.0062381885945796,0.0012982910266146
1768725260515,-0.0943450927734375,-0.9731292724609376,-0.1934661865234375,0.0228872057050466,0.0122350947931408,0.0017731325933709
1768725260525,-0.0962982177734375,-0.973419189453125,-0.1923370361328125,0.0191989950835704,0.0179758053272962,0.0031790153589099
1768725260535,-0.09735107421875,-0.973968505859375,-0.1854248046875,0.0146098351106047,0.0085378279909491,0.0030051108915358
1768725260545,-0.0979156494140625,-0.97442626953125,-0.1820526123046875,0.0093929693102836,0.0001009338011499,0.0032679650466889
1768725260555,-0.0970611572265625,-0.972503662109375,-0.18304443359375,0.0050030145794153,0.003083674237132,-0.0009451558580622
1768725260565,-0.1015167236328125,-0.9752349853515624,-0.182098388671875,-0.0045875613577663,0.0014855111949145,-0.0027020431589335
1768725260575,-0.102203369140625,-0.9764862060546876,-0.182281494140625,-0.0089333076030015,0.0022748722694814,-0.003344397759065
1768725260585,-0.097747802734375,-0.9752197265625,-0.1844940185546875,-0.0103551689535379,-0.0051982239820063,-0.0050032804720103
1768725260595,-0.0990142822265625,-0.975067138671875,-0.1888427734375,-0.0098387822508811,-0.0084086647257208,-0.0050951596349477
1768725260605,-0.099395751953125,-0.9781646728515624,-0.192657470703125,-0.0057223341427743,7.723167072981596e-06,-0.0035968653392046
1768725260615,-0.09881591796875,-0.97906494140625,-0.1953125,-0.0020833909511566,0.0117235016077756,-0.0067559070885181
1768725260625,-0.1000823974609375,-0.9792633056640624,-0.1932373046875,0.0009073389810509,0.0094459662213921,-0.0094749946147203
1768725260636,-0.099822998046875,-0.9787139892578124,-0.1912994384765625,-0.0010942928493022,0.0092395711690187,-0.0119179124012589
1768725260646,-0.0993499755859375,-0.9781494140625,-0.1903839111328125,-0.0016924388473853,0.0084259752184152,-0.0129205919802188
1768725260656,-0.097381591796875,-0.97613525390625,-0.1904144287109375,6.817692337790504e-05,0.0072139706462621,-0.0115778259932994
1768725260666,-0.094329833984375,-0.974090576171875,-0.1928558349609375,0.0019438412273302,0.0081601915881037,-0.0103996442630887
1768725260676,-0.0951080322265625,-0.9740447998046876,-0.191375732421875,0.0013851100811734,0.0079021314159035,-0.0096457032486796
1768725260686,-0.0931854248046875,-0.970703125,-0.1920318603515625,0.0071029169484972,-0.0029925941489636,-0.0057574878446757
1768725260696,-0.0908050537109375,-0.9691009521484376,-0.194366455078125,0.0083655212074518,-0.0061266021803021,-0.0010932276491075
1768725260706,-0.0924072265625,-0.9711761474609376,-0.191497802734375,0.009525061585009,-0.0031739552505314,-0.0010823087068274
1768725260716,-0.0973663330078125,-0.971923828125,-0.1899566650390625,0.0083841634914278,0.0021150824613869,0.0004878911131527
1768725260726,-0.09588623046875,-0.9725799560546876,-0.1891326904296875,0.0051857070066034,0.0012868394842371,5.459480235003866e-05
1768725260736,-0.0936126708984375,-0.9720458984375,-0.1832122802734375,0.0053596114739775,-0.0031792817171663,0.0049377670511603
1768725260746,-0.0921173095703125,-0.97161865234375,-0.183807373046875,0.0040682447142899,-0.0078275632113218,0.0085604647174477
1768725260756,-0.096466064453125,-0.9750518798828124,-0.1853485107421875,0.0025321335997432,-0.0052248556166887,0.0072600431740283
1768725260766,-0.09967041015625,-0.976409912109375,-0.18603515625,-0.0005512743373401,-0.0116814235225319,0.0040994039736688
1768725260776,-0.09954833984375,-0.978057861328125,-0.1889495849609375,0.0018540926976129,-0.0082491412758827,0.0017651431262493
1768725260786,-0.1000823974609375,-0.9775238037109376,-0.1925201416015625,0.0039196405559778,-0.0033438650425523,-0.0004617921367753
1768725260796,-0.1015777587890625,-0.9763336181640624,-0.194000244140625,0.0041087251156568,-0.0039617181755602,-0.0007645935402251
1768725260806,-0.098968505859375,-0.9758148193359376,-0.1919708251953125,0.0050709252245724,0.0027294738683849,-0.0010029464028775
1768725260816,-0.0951080322265625,-0.97271728515625,-0.19091796875,0.0063252737745642,0.0056144762784242,4.820321555598639e-05
1768725260826,-0.095550537109375,-0.97406005859375,-0.1891326904296875,0.0064866612665355,0.0068696239031851,0.0020426444243639
1768725260836,-0.0954437255859375,-0.9752960205078124,-0.1882171630859375,0.0066059711389243,0.0080113215371966,0.000695883994922
1768725260846,-0.0962066650390625,-0.975830078125,-0.186737060546875,0.0096579538658261,0.007931426167488,0.0005805690889246
1768725260856,-0.09814453125,-0.9764404296875,-0.188201904296875,0.0093852458521723,0.0071226241998374,1.3582121027866378e-05
1768725260867,-0.0984954833984375,-0.9774932861328124,-0.1867828369140625,0.0106449211016297,0.0047862329520285,-0.0039625172503292
1768725260876,-0.1008453369140625,-0.978057861328125,-0.182220458984375,0.0045992792584002,0.008231564424932,-0.0043185818940401
1768725260887,-0.0982513427734375,-0.9756317138671876,-0.1800079345703125,0.0006162554491311,0.0018708707066252,-0.005601692944765
1768725260897,-0.09747314453125,-0.973876953125,-0.180755615234375,-0.0048149949871003,-0.0040181772783398,-0.0048328381963074
1768725260907,-0.0949249267578125,-0.972686767578125,-0.1849517822265625,-0.0055042211897671,-0.0008705873624421,-0.004163319710642
1768725260917,-0.0938873291015625,-0.97393798828125,-0.1876983642578125,-0.0038397456519305,0.0055747949518263,-0.0034820830915123
1768725260927,-0.09649658203125,-0.9766082763671876,-0.190399169921875,-0.0028450549580156,0.0086012110114097,-0.0056147426366806
1768725260937,-0.09796142578125,-0.978546142578125,-0.1900634765625,-0.0062483083456754,0.0067005134187638,-0.0084305023774504
1768725260947,-0.0981903076171875,-0.9779815673828124,-0.18780517578125,-0.005256547126919,0.0030509172938764,-0.0049745184369385
1768725260957,-0.0982666015625,-0.975372314453125,-0.1888275146484375,-0.0037992654833942,0.0041452101431787,-0.0014788532862439
1768725260967,-0.0981292724609375,-0.9749755859375,-0.18939208984375,-0.0030943269375711,0.0024461133871227,-0.0053084790706634
1768725260977,-0.0948486328125,-0.9745025634765624,-0.190643310546875,-0.001285774167627,0.0008474178612232,-0.0044570663012564
1768725260987,-0.0947418212890625,-0.975555419921875,-0.191619873046875,0.002755040070042,-0.0004157194343861,-0.0038972699549049
1768725260997,-0.093780517578125,-0.9718170166015624,-0.19415283203125,0.0140678817406296,0.0135435052216053,0.000597613339778
1768725261007,-0.0910186767578125,-0.955841064453125,-0.1947479248046875,0.022752184420824,0.0052823801524937,0.0099176121875643
1768725261017,-0.0908660888671875,-0.9683685302734376,-0.192352294921875,0.0301421899348497,-0.0094728637486696,0.007113835774362
1768725261027,-0.1002655029296875,-0.9794464111328124,-0.1908416748046875,0.0230488609522581,-0.0038618498947471,-0.0021667478140443
1768725261037,-0.1049041748046875,-0.989837646484375,-0.1845855712890625,0.0258502401411533,0.0233327522873878,-0.0132862441241741
1768725261047,-0.1027069091796875,-0.9744415283203124,-0.1859893798828125,0.0322189219295978,0.0142604289576411,-0.0082392878830432
1768725261057,-0.095184326171875,-0.9778594970703124,-0.1827545166015625,0.0344650335609912,-0.0050602722913026,-0.0064725466072559
1768725261067,-0.096923828125,-0.9760894775390624,-0.1811370849609375,0.0293890479952096,-0.0013451626291498,-0.0059782639145851
1768725261077,-0.09710693359375,-0.9666290283203124,-0.1815643310546875,0.0439205877482891,-0.0047193877398967,-0.0001344896299997
1768725261087,-0.096435546875,-0.9639892578125,-0.1920013427734375,0.0631286352872848,-0.0105144260451197,0.0076134447008371
1768725261098,-0.0885009765625,-0.9649810791015624,-0.200897216796875,0.0727261379361152,-0.0146282110363245,0.0102502405643463
1768725261108,-0.091033935546875,-0.9734649658203124,-0.2011871337890625,0.070845678448677,-0.0029294772539287,0.0085676554590463
1768725261118,-0.09466552734375,-0.979461669921875,-0.1947021484375,0.0631930828094482,0.0197044629603624,0.0077511304989457
1768725261128,-0.098052978515625,-0.97882080078125,-0.184906005859375,0.0584404058754444,0.0155757637694478,0.0053431000560522
1768725261138,-0.0973358154296875,-0.9799346923828124,-0.1780242919921875,0.0489856526255607,0.0078789619728922,0.00586294895038
1768725261148,-0.0937957763671875,-0.97808837890625,-0.1720428466796875,0.0366011559963226,0.0088611356914043,0.0066525763832032
1768725261158,-0.09368896484375,-0.976470947265625,-0.1688385009765625,0.0313366167247295,0.0067737502977252,0.0083956150338053
1768725261168,-0.0984039306640625,-0.9804534912109376,-0.173248291015625,0.0238150507211685,0.0104063022881746,0.0072043831460177
1768725261178,-0.098602294921875,-0.9802093505859376,-0.1713714599609375,0.0159784331917762,0.0108768828213214,0.0072278189472854
1768725261188,-0.096466064453125,-0.9787445068359376,-0.1711883544921875,0.0100507698953151,0.001455950201489,0.0068512479774653
1768725261198,-0.097808837890625,-0.980743408203125,-0.1694793701171875,0.0023276028223335,-0.0001930791768245,0.0073407371528446
1768725261208,-0.099029541015625,-0.9798126220703124,-0.1686553955078125,-0.0027451864443719,-0.0087175918743014,0.006295446306467
1768725261218,-0.09600830078125,-0.9788818359375,-0.1706085205078125,-0.0051484229043126,-0.0135608157142996,0.0094603467732667
1768725261228,-0.0927276611328125,-0.97796630859375,-0.174896240234375,-0.0051023503765463,-0.0122116589918732,0.0101985754445195
1768725261238,-0.09429931640625,-0.97760009765625,-0.1792755126953125,-0.0092654032632708,-0.0076499301940202,0.0094425035640597
1768725261248,-0.099456787109375,-0.979217529296875,-0.1784820556640625,-0.011429488658905,-0.0063268719241023,0.0080171804875135
1768725261258,-0.1016387939453125,-0.97894287109375,-0.1776580810546875,-0.0110169649124145,-0.0101277353242039,0.0073428675532341
1768725261268,-0.0989227294921875,-0.97808837890625,-0.1797943115234375,-0.0051915659569203,-0.0111599760130047,0.0034224283881485
1768725261278,-0.09893798828125,-0.9775543212890624,-0.1831512451171875,-0.0058320565149188,-0.0081905517727136,0.0006229133578017
1768725261288,-0.10052490234375,-0.9792633056640624,-0.1849212646484375,-0.0030253508593887,0.0012719257501885,-0.0054509579204022
1768725261298,-0.10101318359375,-0.9792633056640624,-0.1839447021484375,0.0029292108956724,0.0062339273281395,-0.007136738859117
1768725261308,-0.098907470703125,-0.9737396240234376,-0.1852569580078125,0.0074786888435482,0.0012362393317744,-0.0036091159563511
1768725261319,-0.0948944091796875,-0.9742279052734376,-0.1838531494140625,0.0109320096671581,-0.0033358754590153,-0.0042812977917492
1768725261328,-0.1013336181640625,-0.9791717529296876,-0.1849212646484375,0.0098028294742107,0.0138939777389168,-0.0113482614979147
1768725261339,-0.10394287109375,-0.9771728515625,-0.1822052001953125,0.0125946216285228,0.0228762868791818,-0.0112249571830034
1768725261349,-0.0970611572265625,-0.9683074951171876,-0.1806488037109375,0.0143371280282735,0.0179947130382061,-0.0038064562249928
1768725261359,-0.0926513671875,-0.9679107666015624,-0.1739501953125,0.0120212426409125,0.0086470181122422,-0.0018863170407712
1768725261369,-0.0970458984375,-0.9745941162109376,-0.167694091796875,0.0027057717088609,0.0061130197718739,-0.0019214707426726
1768725261379,-0.09661865234375,-0.977264404296875,-0.164306640625,-0.0063258064910769,-0.0014042848488315,-0.0020833909511566
1768725261389,-0.095672607421875,-0.973968505859375,-0.168121337890625,-0.0112681007012724,-0.0136859845370054,0.0008828379213809
1768725261399,-0.092529296875,-0.97442626953125,-0.168792724609375,-0.0149392681196331,-0.0146124986931681,0.0029955236241221
1768725261409,-0.09466552734375,-0.977264404296875,-0.1746673583984375,-0.0155861498787999,-0.0067220847122371,0.0035369442775845
1768725261419,-0.0987396240234375,-0.97882080078125,-0.1796417236328125,-0.0179276019334793,0.0052757221274077,0.0026581010315567
1768725261429,-0.098297119140625,-0.9785308837890624,-0.179595947265625,-0.0176759324967861,0.0084739122539758,0.0003976099542342
1768725261439,-0.0971527099609375,-0.9777374267578124,-0.1793212890625,-0.0173781905323267,-0.0054253917187452,-0.001348891062662
1768725261449,-0.0980072021484375,-0.978759765625,-0.180572509765625,-0.014870292507112,-0.0109645007178187,-0.0012948289513587
1768725261459,-0.097686767578125,-0.9767303466796876,-0.185516357421875,-0.0090904338285326,-0.0078411446884274,-0.0037534593138843
1768725261469,-0.0992279052734375,-0.9808502197265624,-0.1897430419921875,-0.0021917815320193,0.0048994175158441,-0.0051249871030449
1768725261479,-0.0977783203125,-0.9794921875,-0.1898040771484375,0.0001392833219142,0.0164418239146471,-0.0066981161944568
1768725261489,-0.0976104736328125,-0.9783477783203124,-0.1846771240234375,0.0044165863655507,0.0180133543908596,-0.0058379154652357
1768725261499,-0.096160888671875,-0.980499267578125,-0.181671142578125,0.0043598609045147,0.0153477974236011,-0.001415736391209
1768725261509,-0.0955352783203125,-0.97772216796875,-0.1782989501953125,0.0020857877098023,0.0059716058894991,-0.0001062601295416
1768725261520,-0.09368896484375,-0.97674560546875,-0.1759185791015625,-0.0001398159511154,0.0044384240172803,0.0039167110808193
1768725261529,-0.0909576416015625,-0.9752349853515624,-0.1753082275390625,-0.0013174657942727,0.0025363946333527,0.0055316518992185
1768725261539,-0.094390869140625,-0.9771881103515624,-0.1777191162109375,0.0005475459038279,-0.0008455536444671,0.0072930664755403
1768725261550,-0.0948638916015625,-0.976715087890625,-0.1795654296875,0.0046477485448122,0.0028549085836857,0.0111812818795442
1768725261559,-0.0930328369140625,-0.9741058349609376,-0.18084716796875,0.0050932955928146,0.004154797643423,0.013318202458322
1768725261570,-0.0966339111328125,-0.974884033203125,-0.1779022216796875,0.0048102014698088,0.0053068809211254,0.0141176832839846
1768725261580,-0.0986480712890625,-0.976287841796875,-0.17718505859375,0.003410177771002,0.0052972938865423,0.0119778327643871
1768725261590,-0.0956268310546875,-0.972808837890625,-0.1785125732421875,0.0034402713645249,0.0011978897964581,0.0150716276839375
1768725261600,-0.0935516357421875,-0.971282958984375,-0.181182861328125,0.0054443003609776,0.0023393207229673,0.0193220321089029
1768725261610,-0.0950927734375,-0.972747802734375,-0.1833953857421875,0.0074185016565024,0.0129789151251316,0.0192951336503028
1768725261620,-0.1001739501953125,-0.9745025634765624,-0.1809539794921875,0.0049529471434652,0.0134217990562319,0.0179784670472145
1768725261630,-0.0998382568359375,-0.978607177734375,-0.1765899658203125,0.0017401094082742,0.0050727892667055,0.016495618969202
1768725261640,-0.1031036376953125,-0.97882080078125,-0.173828125,-0.0006013417732901,-0.0053028864786028,0.0143270073458552
1768725261650,-0.1019134521484375,-0.9787139892578124,-0.1753082275390625,-0.0032695627305656,-0.009613212198019,0.0103740775957703
1768725261660,-0.1019744873046875,-0.9765625,-0.1775360107421875,0.0006162554491311,-0.0003131877456326,0.0096289254724979
1768725261670,-0.10400390625,-0.9766998291015624,-0.180450439453125,0.0032945964485406,0.0040906155481934,0.0073742931708693
1768725261680,-0.1016998291015625,-0.97613525390625,-0.1845245361328125,0.00785659160465,0.0031917984597384,0.0082038678228855
1768725261691,-0.0995635986328125,-0.977508544921875,-0.1819305419921875,0.0096425069496035,0.0031454595737159,0.0088976211845874
1768725261700,-0.1008453369140625,-0.97625732421875,-0.1776580810546875,0.0105557050555944,-0.0009821738349273,0.0068853367120027
1768725261710,-0.1009674072265625,-0.976898193359375,-0.1756744384765625,0.0111314803361892,-0.0003355582884978,0.0058341869153082
1768725261720,-0.098388671875,-0.9766998291015624,-0.1769561767578125,0.0114673050120472,0.0048059406690299,0.0064472467638552
1768725261730,-0.098419189453125,-0.9751434326171876,-0.1768035888671875,0.0124614629894495,0.0135355163365602,0.0082390215247869
1768725261740,-0.10015869140625,-0.976898193359375,-0.173736572265625,0.0102712800726294,0.0190900713205337,0.0053974287584424
1768725261751,-0.1009368896484375,-0.9791717529296876,-0.170013427734375,0.0044301683083176,0.0178525000810623,0.0027302727103233
1768725261760,-0.100189208984375,-0.97607421875,-0.1683807373046875,-0.0016005598008632,0.0097429081797599,0.002076999284327
1768725261771,-0.099639892578125,-0.9739532470703124,-0.1690216064453125,-0.0108683602884411,0.0108190914615988,0.0015592807903885
1768725261781,-0.1021881103515625,-0.9752044677734376,-0.168487548828125,-0.0173377115279436,0.0087386304512619,-0.0028498487081378
1768725261791,-0.105438232421875,-0.979461669921875,-0.1709442138671875,-0.0187715571373701,0.012026036158204,-0.0067857345566153
1768725261801,-0.1051483154296875,-0.9776458740234376,-0.172119140625,-0.0232435371726751,0.0164356976747512,-0.0073391394689679
1768725261811,-0.1019134521484375,-0.9754486083984376,-0.1732940673828125,-0.0220496412366628,0.0061167483218014,-0.0057774614542722
1768725261821,-0.1008453369140625,-0.9740142822265624,-0.1745758056640625,-0.0205577388405799,-0.0025467809755355,-0.0044980789534747
1768725261831,-0.099761962890625,-0.9751129150390624,-0.1759490966796875,-0.0233178399503231,-0.0129701271653175,-0.0058488342911005
1768725261841,-0.10052490234375,-0.978759765625,-0.1786346435546875,-0.0252536907792091,-0.0086424900218844,-0.0087511474266648
1768725261851,-0.1018524169921875,-0.9791717529296876,-0.1798858642578125,-0.0218280665576457,0.0112707642838358,-0.007252852898091
1768725261861,-0.0990142822265625,-0.9653167724609376,-0.1822509765625,-0.0105980494990944,0.0074262246489524,0.0013760552974417
1768725261871,-0.0914764404296875,-0.9694671630859376,-0.18634033203125,0.0036293559242039,-0.000532632227987,0.0035007251426577
1768725261881,-0.0973968505859375,-0.9759368896484376,-0.1871490478515625,0.0063910540193319,0.0022325278259813,-0.0025238776579499
1768725261891,-0.10235595703125,-0.989471435546875,-0.1840057373046875,0.0085743134841322,0.0185688901692628,-0.0169070772826671
1768725261901,-0.1048583984375,-0.9773101806640624,-0.185211181640625,0.0112025868147611,0.024547953158617,-0.0133293876424431
1768725261911,-0.0953216552734375,-0.97515869140625,-0.180389404296875,0.0161933507770299,0.0099463742226362,-0.0099967075511813
1768725261921,-0.0970306396484375,-0.9781494140625,-0.180816650390625,0.0148852057754993,0.0135605502873659,-0.0051124701276421
1768725261931,-0.0972747802734375,-0.97393798828125,-0.1778717041015625,0.0131110083311796,0.0249138716608285,-0.0011872372124344
1768725261941,-0.094970703125,-0.96734619140625,-0.1736602783203125,0.0119882198050618,0.0193191021680831,0.0119770346209406
1768725261951,-0.0947265625,-0.9665069580078124,-0.169464111328125,0.0100667485967278,-0.0072717610746622,0.0158743038773536
1768725261961,-0.0946502685546875,-0.9752655029296876,-0.1682586669921875,0.0015654060989618,-0.0196714401245117,0.0145959872752428
1768725261971,-0.0969696044921875,-0.9793243408203124,-0.1704864501953125,-0.007735417690128,-0.0170998908579349,0.0084118600934743
1768725261982,-0.1014251708984375,-0.9835662841796876,-0.1731719970703125,-0.0190059151500463,-0.0062467106617987,0.0034583809319883
1768725261991,-0.1018524169921875,-0.9827117919921876,-0.174652099609375,-0.0238483417779207,-0.0085325017571449,0.002429335610941
1768725262002,-0.10028076171875,-0.978424072265625,-0.175506591796875,-0.0195742342621088,-0.0114899417385458,0.007268032990396
1768725262011,-0.0966949462890625,-0.97637939453125,-0.183197021484375,-0.0064046359620988,-0.0053934338502585,0.0076912092044949
1768725262022,-0.096160888671875,-0.974517822265625,-0.1912078857421875,0.0058685415424406,0.0070142336189746,0.0109405322000384
1768725262032,-0.098480224609375,-0.973907470703125,-0.190399169921875,0.014700649306178,0.0154367471113801,0.0099881859496235
1768725262042,-0.1003570556640625,-0.975799560546875,-0.1871185302734375,0.0204839687794446,0.0114044547080993,0.0070917317643761
1768725262052,-0.1015625,-0.977325439453125,-0.180755615234375,0.0244765803217887,0.0025723471771925,0.0043308325111866
1768725262062,-0.101837158203125,-0.978729248046875,-0.1791229248046875,0.0299150217324495,-0.0012277172645553,0.0047936900518834
1768725262072,-0.100341796875,-0.9785003662109376,-0.18011474609375,0.0330122783780097,0.0071934643201529,0.0056493636220693
1768725262082,-0.100311279296875,-0.9796905517578124,-0.1771697998046875,0.0290633421391248,0.0179766044020652,0.0039798277430236
1768725262092,-0.10205078125,-0.9819488525390624,-0.1682891845703125,0.0194940734654665,0.0196152459830045,0.0010269149206578
1768725262102,-0.1021270751953125,-0.981109619140625,-0.1624755859375,0.0048110005445778,0.0115645108744502,-0.0023467775899916
1768725262112,-0.1040191650390625,-0.979888916015625,-0.1568603515625,-0.0128388330340385,-0.0016066851094365,-0.008273109793663
1768725262122,-0.103729248046875,-0.97906494140625,-0.1568145751953125,-0.024710139259696,-0.0146465869620442,-0.0085034733638167
1768725262132,-0.1009521484375,-0.977203369140625,-0.162445068359375,-0.031593345105648,-0.0145219508558511,-0.0101354587823152
1768725262142,-0.0999908447265625,-0.9781341552734376,-0.1696929931640625,-0.0316460765898227,-0.012182630598545,-0.0109738213941454
1768725262152,-0.1014251708984375,-0.9796600341796876,-0.1761474609375,-0.0315012000501155,-0.0012471582740545,-0.0146830724552273
1768725262162,-0.101409912109375,-0.9784698486328124,-0.180816650390625,-0.0223934557288885,0.0141262048855423,-0.0108393318951129
1768725262172,-0.0977783203125,-0.9707183837890624,-0.1836090087890625,-0.0173204001039266,0.0095429047942161,-0.0068315407261252
1768725262182,-0.097442626953125,-0.979766845703125,-0.18304443359375,-0.014544054865837,0.0049401638098061,-0.0137850539758801
1768725262192,-0.1026153564453125,-0.9841766357421876,-0.1817169189453125,-0.0148250190541148,0.0217194110155105,-0.0191968642175197
1768725262202,-0.0988006591796875,-0.976806640625,-0.1789703369140625,-0.0071316789835691,0.0255639497190713,-0.0128215225413441
1768725262213,-0.090606689453125,-0.9659881591796876,-0.1785125732421875,2.3968450477696024e-05,0.0128990206867456,-0.0037694382481276
1768725262222,-0.0901641845703125,-0.9692535400390624,-0.1793060302734375,0.001234641415067,0.0044072652235627,-0.0010215885704383
1768725262233,-0.095977783203125,-0.978485107421875,-0.1745758056640625,-0.0056299227289855,0.0030338731594383,-0.0037217675708234
1768725262243,-0.096588134765625,-0.97747802734375,-0.1705780029296875,-0.0103791374713182,0.0045947516337037,0.0015435680979862
1768725262253,-0.0911102294921875,-0.973602294921875,-0.17266845703125,-0.0120673151686787,0.0041236383840441,0.0050296462140977
1768725262263,-0.0957183837890625,-0.9750213623046876,-0.1751556396484375,-0.0137456394731998,0.0082845613360404,0.0087500819936394
1768725262273,-0.099151611328125,-0.97613525390625,-0.175506591796875,-0.0116289593279361,0.0112404040992259,0.0065851984545588
1768725262283,-0.1007537841796875,-0.9788055419921876,-0.17724609375,-0.0158141162246465,0.0175869837403297,0.0013475595042109
1768725262293,-0.10162353515625,-0.978424072265625,-0.177825927734375,-0.017779529094696,0.0172932371497154,-0.0027803401462733
1768725262303,-0.0997314453125,-0.97821044921875,-0.1762542724609375,-0.0160625893622636,0.0079362196847796,-0.003344397759065
1768725262313,-0.1005859375,-0.97869873046875,-0.1783905029296875,-0.0162609945982694,0.0095711341127753,-0.0051814462058246
1768725262323,-0.1006927490234375,-0.9784393310546876,-0.1808624267578125,-0.0141134224832057,0.0099631519988179,-0.0057489657774567
1768725262333,-0.1025238037109375,-0.9793853759765624,-0.1808319091796875,-0.0119125861674547,0.0107826068997383,-0.0041984734125435
1768725262343,-0.1016082763671875,-0.979278564453125,-0.1791839599609375,-0.0084675205871462,0.0095655415207147,-0.0051950281485915
1768725262353,-0.101806640625,-0.9787445068359376,-0.177886962890625,-0.0065340655855834,0.0114071173593401,-0.0044639906845986
1768725262363,-0.09820556640625,-0.9793548583984376,-0.177093505859375,-0.0065268753096461,0.0106800748035311,-0.0028900622855871
1768725262373,-0.09613037109375,-0.976409912109375,-0.179229736328125,-0.0059212720952928,0.014077203348279,-0.0025939189363271
1768725262383,-0.09796142578125,-0.9756317138671876,-0.1786346435546875,-0.0073186331428587,0.0185585040599107,0.0031246868893504
1768725262393,-0.0981597900390625,-0.9771575927734376,-0.17608642578125,-0.0057244645431637,0.0141368582844734,0.0013153352774679
1768725262403,-0.0986785888671875,-0.979705810546875,-0.17449951171875,-0.0086193205788731,0.0060365870594978,-0.0018607506062835
1768725262413,-0.098175048828125,-0.9760284423828124,-0.1735687255859375,-0.0061036986298859,-0.0032479912042617,0.0014263890916481
1768725262424,-0.0965118408203125,-0.972198486328125,-0.1763916015625,-0.0067678913474082,0.0012016182299703,0.0025518408510833
1768725262433,-0.0972747802734375,-0.9734649658203124,-0.1781005859375,-0.008927715010941,0.0075740301981568,-0.0013435647124424
1768725262443,-0.09954833984375,-0.975128173828125,-0.17633056640625,-0.0153049202635884,0.0139152826741337,0.0009888317435979
1768725262454,-0.1006622314453125,-0.9746246337890624,-0.173980712890625,-0.0165171921253204,0.0132851786911487,0.000990163302049
1768725262464,-0.0997161865234375,-0.97509765625,-0.1703033447265625,-0.0222195517271757,0.005953496787697,0.0018844527658075
1768725262474,-0.0951690673828125,-0.974853515625,-0.170989990234375,-0.0259434506297111,0.001570466090925,0.00286236545071
1768725262484,-0.0950927734375,-0.9733734130859376,-0.1733856201171875,-0.026822293177247,0.0021140172611922,0.0036354812327772
1768725262494,-0.0964508056640625,-0.9749603271484376,-0.177215576171875,-0.0287773199379444,0.0060802628286182,0.0051976912654936
1768725262504,-0.098907470703125,-0.97735595703125,-0.1781005859375,-0.0303440578281879,0.0036586506757885,0.0031406658235937
1768725262514,-0.101104736328125,-0.977325439453125,-0.1796875,-0.0319363623857498,0.0002764361270237,0.0014463628176599
1768725262524,-0.1015777587890625,-0.9780120849609376,-0.180084228515625,-0.0321342349052429,0.004415254574269,-0.0020953752100467
1768725262534,-0.103515625,-0.9778900146484376,-0.1818695068359375,-0.0289767906069755,0.0044746431522071,-0.002003229688853
1768725262544,-0.1031646728515625,-0.978912353515625,-0.1868896484375,-0.0198943465948104,0.0050626690499484,-0.0024431839119642
1768725262554,-0.099945068359375,-0.9778289794921876,-0.18878173828125,-0.0126034095883369,0.0076648439280688,-0.0048623993061482
1768725262564,-0.097381591796875,-0.9788818359375,-0.1891021728515625,-0.0051287156529724,0.0042088595218956,-0.0061937137506902
1768725262574,-0.0970001220703125,-0.977203369140625,-0.1851043701171875,-0.0016698020044714,0.0015409049810841,-0.0064839981496334
1768725262584,-0.0965576171875,-0.97918701171875,-0.1810455322265625,-0.001948102377355,0.0048200553283095,-0.0066898604854941
1768725262594,-0.09521484375,-0.9774169921875,-0.1797027587890625,-0.0018706043483689,0.0034506577067077,-0.0035838158801198
1768725262604,-0.0946197509765625,-0.9737396240234376,-0.1768951416015625,-0.0062709455378353,0.0091932322829961,0.0001139832966146
1768725262614,-0.094146728515625,-0.9751434326171876,-0.175689697265625,-0.0120803648605942,0.0202584005892276,0.002086320426315
1768725262624,-0.098602294921875,-0.975921630859375,-0.1741790771484375,-0.0166138634085655,0.0202466826885938,0.0004687163454946
1768725262634,-0.0985870361328125,-0.9774322509765624,-0.1716766357421875,-0.0243514124304056,0.0158093236386775,0.0004024036461487
1768725262644,-0.0986480712890625,-0.9762420654296876,-0.171234130859375,-0.0307051818817853,0.0016945693641901,0.0013994910987094
1768725262654,-0.0953521728515625,-0.976470947265625,-0.17291259765625,-0.0295056942850351,-0.0029108349699527,0.0023893881589174
1768725262665,-0.097625732421875,-0.9756927490234376,-0.17974853515625,-0.0292811896651983,-0.0010423612548038,0.0025217472575604
1768725262674,-0.100250244140625,-0.9781646728515624,-0.1821441650390625,-0.0265839397907257,-0.0013217268278822,0.000507065851707
1768725262685,-0.0994873046875,-0.9786834716796876,-0.185333251953125,-0.0235268976539373,-0.0054216631688177,0.0006649913266301
1768725262695,-0.1009521484375,-0.9805755615234376,-0.189666748046875,-0.0182820688933134,0.0081988079473376,-1.3582121027866378e-05
1768725262705,-0.1000213623046875,-0.96832275390625,-0.1919708251953125,-0.006075735669583,0.0142644234001636,0.0093157375231385
1768725262715,-0.0910491943359375,-0.9631195068359376,-0.1903076171875,0.0035952674224972,-0.0016346483025699,0.0082848276942968
1768725262725,-0.0972137451171875,-0.9796142578125,-0.1881561279296875,0.0051705273799598,-0.0005946838646195,-0.0002314286975888
1768725262735,-0.1020050048828125,-0.9862213134765624,-0.183868408203125,-0.0017496967921033,0.0162705816328525,-0.0146657619625329
1768725262747,-0.107666015625,-0.9806060791015624,-0.18218994140625,-0.0017763284267857,0.0279120579361915,-0.0124540068209171
1768725262755,-0.0943756103515625,-0.9678192138671876,-0.1805267333984375,-0.0024274713359773,0.0070429956540465,-0.0068587050773203
1768725262765,-0.0953826904296875,-0.978424072265625,-0.178314208984375,-0.0063082296401262,0.0072517874650657,-0.0049356361851096
1768725262775,-0.1002044677734375,-0.9731903076171876,-0.1778106689453125,-0.0129016833379864,0.021549766883254,0.0014591459184885
1768725262785,-0.09710693359375,-0.9658050537109376,-0.1736907958984375,-0.0118643827736377,0.0221758764237165,0.0078635159879922
1768725262795,-0.0910491943359375,-0.9605560302734376,-0.175872802734375,-0.010006827302277,0.0046746465377509,0.0214451048523187
1768725262805,-0.0883941650390625,-0.966033935546875,-0.1775054931640625,-0.0137251336127519,-0.0135070206597447,0.0211361777037382
1768725262815,-0.0976409912109375,-0.976226806640625,-0.1784210205078125,-0.0175771284848451,-0.0110422642901539,0.0176913794130086
1768725262825,-0.1029510498046875,-0.9801788330078124,-0.179534912109375,-0.0239106584340333,-0.0054440340027213,0.010326406918466
1768725262835,-0.1035614013671875,-0.9816741943359376,-0.1807098388671875,-0.0269168354570865,-0.0114502608776092,0.0104811368510127
1768725262845,-0.099273681640625,-0.97906494140625,-0.1850433349609375,-0.0206078067421913,-0.0139251369982957,0.0130913006141781
1768725262855,-0.09844970703125,-0.9782562255859376,-0.1903228759765625,-0.0154857486486434,-0.0031899344176054,0.0159419476985931
1768725262865,-0.0985260009765625,-0.9794158935546876,-0.1946258544921875,-0.0077687073498964,0.0083665866404771,0.0131408357992768
1768725262875,-0.1023406982421875,-0.98040771484375,-0.1951904296875,-0.00145621644333,0.0062315305694937,0.0107844704762101
1768725262885,-0.1016693115234375,-0.979034423828125,-0.19281005859375,0.0071007865481078,0.0029350698459893,0.0086403600871562
1768725262895,-0.1002960205078125,-0.9800567626953124,-0.1912994384765625,0.0134103475138545,0.0039955405518412,0.0025635587517172
1768725262906,-0.1025238037109375,-0.9803009033203124,-0.1894683837890625,0.0155866825953125,0.0100576942786574,0.0014245248166844
1768725262916,-0.1026458740234375,-0.9800262451171876,-0.186004638671875,0.0171555504202842,0.0185574386268854,-0.001195226679556
1768725262926,-0.1014404296875,-0.9779052734375,-0.182464599609375,0.0168106723576784,0.0125914253294467,0.0010772485984489
1768725262936,-0.0975799560546875,-0.978302001953125,-0.1805267333984375,0.0195366833359003,0.0087783113121986,4.793690095539205e-06
1768725262946,-0.09796142578125,-0.9773712158203124,-0.1803741455078125,0.0155070545151829,0.0112704979255795,0.000331563554937
1768725262956,-0.1005096435546875,-0.977874755859375,-0.176483154296875,0.0108252167701721,0.0085647264495491,-0.0008428904693573
1768725262966,-0.09942626953125,-0.9761810302734376,-0.1758270263671875,0.0038589204195886,0.0063255401328206,-0.0006940197781659
1768725262976,-0.09765625,-0.974365234375,-0.177520751953125,6.55137628200464e-05,0.011806858703494,-0.0005776396137662
1768725262986,-0.099578857421875,-0.9757843017578124,-0.176849365234375,-0.0092510227113962,0.0132201975211501,-0.0025872609112411
1768725262996,-0.1027679443359375,-0.97760009765625,-0.1746063232421875,-0.0171267893165349,0.0089687276631593,-0.0061558969318866
1768725263006,-0.10308837890625,-0.9812469482421876,-0.174560546875,-0.020297547802329,0.0050914315506815,-0.0098475711420178
1768725263016,-0.098785400390625,-0.9741973876953124,-0.180816650390625,-0.0193697027862072,0.006670952308923,-0.0065300711430609
1768725263026,-0.0954437255859375,-0.974884033203125,-0.1839599609375,-0.0217385850846767,0.0062419171445071,-0.0107900630682706
1768725263036,-0.1035614013671875,-0.97998046875,-0.1856689453125,-0.0222754776477813,0.0205982197076082,-0.0146393962204456
1768725263046,-0.1048126220703125,-0.976226806640625,-0.1841278076171875,-0.0172024220228195,0.021385982632637,-0.0123022058978676
1768725263056,-0.099395751953125,-0.968902587890625,-0.1829376220703125,-0.0125600006431341,0.0033579797018319,-0.0069335396401584
1768725263066,-0.0941925048828125,-0.9694061279296876,-0.182708740234375,-0.0108441254124045,-0.0094851143658161,-0.0075428709387779
1768725263076,-0.0998077392578125,-0.9755096435546876,-0.1822967529296875,-0.0090616717934608,-0.0025145567487925,-0.0058698733337223
1768725263086,-0.0976104736328125,-0.97613525390625,-0.186737060546875,-0.0028189560398459,0.0045771747827529,-0.0037097833119332
1768725263096,-0.0962066650390625,-0.9725341796875,-0.185638427734375,-0.0072078453376889,0.0044522727839648,-0.0036850159522145
1768725263106,-0.095703125,-0.9755401611328124,-0.18084716796875,-0.0069665629416704,0.0007832356495782,-0.0042061964049935
1768725263117,-0.0974578857421875,-0.9742279052734376,-0.182891845703125,-0.008194014430046,0.0005664543714374,-0.0044203149154782
1768725263127,-0.0987548828125,-0.97412109375,-0.183349609375,-0.0100185452029109,0.0063180834986269,-0.0052730590105056
1768725263137,-0.0982513427734375,-0.976165771484375,-0.1820220947265625,-0.0100510362535715,0.007433415390551,-0.0020988371688872
1768725263147,-0.0954132080078125,-0.9735870361328124,-0.185272216796875,-0.0082233091816306,0.0086462190374732,0.0023052322212606
1768725263157,-0.095489501953125,-0.9750213623046876,-0.1859893798828125,-0.0060142166912555,0.0158167798072099,0.0022967101540416
1768725263167,-0.1008758544921875,-0.9789886474609376,-0.180755615234375,-0.0109690278768539,0.0184650272130966,-0.0011475561186671
1768725263177,-0.1004638671875,-0.9787750244140624,-0.1776123046875,-0.0109903328120708,0.0087716532871127,0.0013520868960767
1768725263187,-0.09942626953125,-0.97833251953125,-0.1802520751953125,-0.012559201568365,0.0029891319572925,0.0002047970920102
1768725263197,-0.099578857421875,-0.9769439697265624,-0.1819915771484375,-0.0146942576393485,5.1132694352418184e-05,-0.0013217268278822
1768725263207,-0.103118896484375,-0.9781951904296876,-0.18206787109375,-0.013415940105915,0.0013819142477586,-0.0035366779193282
1768725263217,-0.101654052734375,-0.97821044921875,-0.1844329833984375,-0.0123690515756607,-0.0028194885235279,0.0010032127611339
1768725263227,-0.096923828125,-0.9752044677734376,-0.18768310546875,-0.0066885291598737,-0.0065063689835369,0.0017488978337496
1768725263237,-0.0969390869140625,-0.9751739501953124,-0.1880645751953125,-0.0048096687532961,0.0084536718204617,0.00094142742455
1768725263247,-0.100372314453125,-0.9730072021484376,-0.1847076416015625,-0.004391552414745,0.0128817101940512,-0.0019355855183675
1768725263257,-0.1013641357421875,-0.977386474609375,-0.1818084716796875,-0.0070595075376331,0.0032466596458107,-0.001316666835919
1768725263267,-0.0955963134765625,-0.973724365234375,-0.1801605224609375,-0.0041827606037259,-0.0120763704180717,0.0008527441532351
1768725263277,-0.094696044921875,-0.9752655029296876,-0.1857452392578125,-0.0054597463458776,-0.0125426901504397,0.0030991204548627
1768725263287,-0.0966644287109375,-0.9748687744140624,-0.1873016357421875,-0.0038003309164196,0.0029230855870991,0.0016274576773867
1768725263297,-0.1039276123046875,-0.97784423828125,-0.18719482421875,-0.0058943745680153,0.0138255339115858,-0.000664458668325
1768725263307,-0.101959228515625,-0.9785919189453124,-0.184722900390625,-0.0052741239778697,0.0089133335277438,-0.0015832493081688
1768725263317,-0.0956878662109375,-0.973602294921875,-0.1823883056640625,-0.0032131038606166,-0.0041036647744476,0.0039124498143792
1768725263327,-0.0942840576171875,-0.9725494384765624,-0.1829071044921875,-0.0029467877466231,-0.0065961172804236,0.0037681066896766
1768725263337,-0.09796142578125,-0.9734039306640624,-0.181304931640625,-0.0075820195488631,-0.0032320122700184,0.0004404868523124
1768725263348,-0.1004486083984375,-0.9768829345703124,-0.183258056640625,-0.0067066387273371,-0.0064935856498777,-0.0006061354652047
1768725263358,-0.0986175537109375,-0.976898193359375,-0.186767578125,-0.0044453484006226,-0.0071196947246789,-0.0018362496048212
1768725263368,-0.0983428955078125,-0.97662353515625,-0.1845550537109375,-0.0056235310621559,-0.0066043729893863,-0.0001898833870654
1768725263378,-0.1000823974609375,-0.9757232666015624,-0.178253173828125,-0.0097232013940811,4.9801110435510054e-05,0.0023401195649057
1768725263388,-0.0987396240234375,-0.977203369140625,-0.1760101318359375,-0.0150343431159853,0.0074451332911849,-0.0002897519152611
1768725263398,-0.101104736328125,-0.9783172607421876,-0.1762847900390625,-0.0170069467276334,0.0032458608038723,-0.0008894957718439
1768725263408,-0.09722900390625,-0.9766693115234376,-0.1826629638671875,-0.0146942576393485,-0.0027561055030673,-0.0009422263829037
1768725263418,-0.097076416015625,-0.97479248046875,-0.1844482421875,-0.0139373866841197,-0.0035337484441697,0.0009206547983922
1768725263428,-0.098663330078125,-0.9749755859375,-0.184539794921875,-0.0100808637216687,-0.0042815641500055,0.0023837955668568
1768725263438,-0.0966949462890625,-0.97625732421875,-0.18780517578125,-0.0088289119303226,-0.0020543625578284,0.0022213426418602
1768725263448,-0.0970458984375,-0.975616455078125,-0.1863861083984375,-0.0056720003485679,0.0086408928036689,0.003556917887181
1768725263458,-0.09820556640625,-0.9733734130859376,-0.1844635009765625,-0.0050671966746449,0.01546763908118,0.0057233995757997
1768725263468,-0.0987091064453125,-0.973388671875,-0.182769775390625,-0.0080997385084629,0.0156202390789985,0.0043606599792838
1768725263478,-0.0992431640625,-0.975341796875,-0.1819305419921875,-0.0137573573738336,0.0096406433731317,0.0031617048662155
1768725263488,-0.102783203125,-0.976165771484375,-0.179962158203125,-0.0158284977078437,0.0036943370942026,0.0023531690239906
1768725263498,-0.10357666015625,-0.976715087890625,-0.181884765625,-0.0218091588467359,0.0024924525059759,-0.0003281014505773
1768725263508,-0.10089111328125,-0.9777374267578124,-0.180145263671875,-0.0248385034501552,-0.0015363775892183,-0.0027883297298103
1768725263518,-0.102630615234375,-0.9774017333984376,-0.1830596923828125,-0.0227639023214578,-0.0034951325505971,-0.0031297469977289
1768725263528,-0.100830078125,-0.9766387939453124,-0.188446044921875,-0.0180130880326032,-0.0029185581952333,-0.002323341788724
1768725263538,-0.0991668701171875,-0.97650146484375,-0.18853759765625,-0.0186642315238714,0.0004655205411836,-0.0064262077212333
1768725263548,-0.1019439697265625,-0.98052978515625,-0.1860198974609375,-0.0140862576663494,0.0110856741666793,-0.0060312608256936
1768725263558,-0.09716796875,-0.96270751953125,-0.190185546875,-0.0031795480754226,0.006229932885617,0.0057545583695173
1768725263569,-0.0860137939453125,-0.9608917236328124,-0.1939239501953125,0.0055974321439862,-0.0150489909574389,0.0088922949507832
1768725263579,-0.0967559814453125,-0.9766082763671876,-0.1899566650390625,0.0010386328212916,-0.011512579396367,0.0046341666020452
1768725263589,-0.1051483154296875,-0.9875640869140624,-0.18408203125,-0.0015158712631091,0.0078408792614936,-0.0104273408651351
1768725263599,-0.1089935302734375,-0.9815216064453124,-0.1854095458984375,0.0063023706898093,0.0125759793445467,-0.0089306440204381
1768725263609,-0.0949859619140625,-0.9723052978515624,-0.1888427734375,0.0111147025600075,0.0014037522487342,-0.0053087454289197
1768725263619,-0.0995941162109375,-0.9789581298828124,-0.1861114501953125,0.0056307213380932,0.0130798490718007,-0.0089418292045593
1768725263629,-0.1038665771484375,-0.97637939453125,-0.182159423828125,-0.0008468852029182,0.0295898504555225,-0.0071372715756297
1768725263639,-0.0977783203125,-0.9671783447265624,-0.1805877685546875,0.001097488682717,0.0241532735526561,0.0021795309148728
1768725263649,-0.0893707275390625,-0.9616851806640624,-0.181884765625,0.0011108045000582,0.0051574776880443,0.0117168435826897
1768725263659,-0.0872650146484375,-0.9650421142578124,-0.1810302734375,-0.0010799118317663,-0.0057739997282624,0.0170905701816082
1768725263669,-0.0927886962890625,-0.9737396240234376,-0.18231201171875,-0.0040738373063504,-0.0005443501286208,0.0151608437299728
1768725263679,-0.0976409912109375,-0.97723388671875,-0.1836700439453125,-0.008076568134129,0.0038674424868077,0.0145128965377807
1768725263689,-0.0979766845703125,-0.9780426025390624,-0.180999755859375,-0.0139088910073041,0.0007065366371534,0.0157949421554803
1768725263699,-0.1003570556640625,-0.9774627685546876,-0.1800384521484375,-0.0185419917106628,-0.0065843993797898,0.0175390467047691
1768725263709,-0.0996246337890625,-0.9779052734375,-0.1827545166015625,-0.0173113457858562,-0.0124305710196495,0.0154601829126477
1768725263719,-0.1019439697265625,-0.9780120849609376,-0.185272216796875,-0.0179473087191581,-0.0146878659725189,0.0123165873810648
1768725263729,-0.1009063720703125,-0.9791107177734376,-0.189422607421875,-0.009966081008315,-0.0156644470989704,0.011976501904428
1768725263739,-0.100799560546875,-0.978729248046875,-0.195648193359375,-0.0015246596885845,-0.0118846222758293,0.0104033723473548
1768725263750,-0.1005859375,-0.9771270751953124,-0.1979217529296875,0.0043872916139662,0.003771036164835,0.0105290738865733
1768725263759,-0.1032257080078125,-0.9808197021484376,-0.1932373046875,0.0127131324261426,0.0038456046022474,0.0075617795810103
1768725263769,-0.1048431396484375,-0.9827880859375,-0.191192626953125,0.0160410180687904,0.0113786216825246,0.0052091432735323
1768725263779,-0.1009521484375,-0.978485107421875,-0.187896728515625,0.0188317447900772,0.0133432354778051,0.0053902380168437
1768725263790,-0.1005706787109375,-0.977294921875,-0.1825714111328125,0.0139605570584535,0.0160197131335735,0.0053998255170881
1768725263800,-0.1016693115234375,-0.97705078125,-0.17608642578125,0.0026956517249345,0.0125943552702665,0.003312173532322
1768725263810,-0.1033935546875,-0.9770050048828124,-0.1692352294921875,-0.0141248740255832,-0.0021398498211055,-0.0004817658336833
1768725263820,-0.10302734375,-0.9759063720703124,-0.16650390625,-0.023993482813239,-0.016300942748785,-0.001203748746775
1768725263830,-0.1010284423828125,-0.9752197265625,-0.17193603515625,-0.0316609889268875,-0.0159616563469171,-1.3315805063029984e-06
1768725263840,-0.101898193359375,-0.975189208984375,-0.179473876953125,-0.0323840379714965,-0.0096038915216922,-0.0013619405217468
1768725263850,-0.10101318359375,-0.9763946533203124,-0.18438720703125,-0.0308292843401432,0.0003701793903019,-0.0036093820817768
1768725263860,-0.10235595703125,-0.976898193359375,-0.1889495849609375,-0.0278089940547943,0.017186177894473,-0.0052040829323232
1768725263870,-0.099517822265625,-0.9715728759765624,-0.1884307861328125,-0.025320803746581,0.0134002277627587,-0.0014527543680742
1768725263880,-0.0983734130859375,-0.9763946533203124,-0.1885833740234375,-0.0234129149466753,-0.0047793090343475,-0.0027872642967849
1768725263890,-0.1043853759765625,-0.9793243408203124,-0.1923065185546875,-0.0197598561644554,0.0003912183747161,-0.0082874912768602
1768725263900,-0.1024627685546875,-0.9712066650390624,-0.1941375732421875,-0.010095776990056,0.0095002949237823,-0.0079173119738698
1768725263910,-0.1008148193359375,-0.9703216552734376,-0.193939208984375,-0.0035209653433412,0.0061050304211676,-0.0065662898123264
1768725263920,-0.098724365234375,-0.975616455078125,-0.1910858154296875,-0.0006079996819607,0.0100696785375475,-0.0072882729582488
1768725263930,-0.0978546142578125,-0.975799560546875,-0.187103271484375,-0.0050402986817061,0.0147304767742753,-0.0045566684566438
1768725263940,-0.0991058349609375,-0.9723052978515624,-0.1827239990234375,-0.0097682084888219,0.0120228407904505,-0.0023214775137603
1768725263950,-0.09808349609375,-0.972686767578125,-0.1808013916015625,-0.0127743845805525,0.002968359272927,0.0014335796004161
1768725263960,-0.096771240234375,-0.9726104736328124,-0.1814727783203125,-0.0146109005436301,-0.0031609057914465,0.0025121597573161
1768725263970,-0.09765625,-0.97344970703125,-0.1825103759765625,-0.0187254846096038,-0.0044823666103184,0.0038187066093087
1768725263981,-0.096893310546875,-0.975341796875,-0.1841888427734375,-0.0193337500095367,0.0002117213007295,0.0041057956404984
1768725263991,-0.09906005859375,-0.9754486083984376,-0.1865081787109375,-0.0172453001141548,0.0019619506783783,0.0010881676571443
1768725264001,-0.1003265380859375,-0.97662353515625,-0.190216064453125,-0.0160202458500862,0.0023270701058208,0.0017105482984334
1768725264010,-0.1014404296875,-0.9789276123046876,-0.1905975341796875,-0.0197577252984046,0.0103399893268942,0.0006064017652533
1768725264021,-0.1041412353515625,-0.9793701171875,-0.1866912841796875,-0.0176487676799297,0.0071260863915085,-0.0019337212434038
1768725264031,-0.10345458984375,-0.9773406982421876,-0.1892852783203125,-0.0148090394213795,-0.0038370825350284,-0.0013880395563319
1768725264041,-0.1013641357421875,-0.9763946533203124,-0.192596435546875,-0.0109455920755863,-0.0043524042703211,-0.0011808456620201
1768725264051,-0.103546142578125,-0.9779510498046876,-0.1945648193359375,-0.0038203045260161,0.0057257963344454,-0.0051247207447886
1768725264061,-0.101348876953125,-0.9775390625,-0.1965484619140625,0.0028224179986864,0.0165827050805091,-0.004561994690448
1768725264071,-0.0989532470703125,-0.9751434326171876,-0.1966400146484375,0.0076169068925082,0.0180948469787836,-0.0033249566331505
1768725264081,-0.100067138671875,-0.9733734130859376,-0.1937255859375,0.0048389635048806,0.0183156244456768,-0.0023534353822469
1768725264091,-0.1009674072265625,-0.97540283203125,-0.1854248046875,0.0037172401789575,0.0129269836470484,-0.0041348240338265
1768725264101,-0.1018524169921875,-0.976043701171875,-0.183319091796875,0.0063702813349664,0.0004535363405011,-0.0040360204875469
1768725264111,-0.1000823974609375,-0.9739837646484376,-0.1870574951171875,0.0137730697169899,-0.0004817658336833,-0.0047409594990313
1768725264121,-0.0988311767578125,-0.97344970703125,-0.190765380859375,0.0126311061903834,0.0086858998984098,-0.0054861116223037
1768725264131,-0.1012420654296875,-0.9743804931640624,-0.1847991943359375,0.0035654399544,0.0114883445203304,-0.0049364352598786
1768725264141,-0.1006317138671875,-0.97564697265625,-0.1772613525390625,-0.0018431737553328,0.0001736380945658,-0.0016996293561533
1768725264151,-0.0997314453125,-0.9735107421875,-0.1769256591796875,-0.0090952273458242,-0.013130716048181,-0.0003651193692348
1768725264161,-0.1002655029296875,-0.9726715087890624,-0.1796875,-0.0175923090428113,-0.009236641228199,-0.0026703516487032
1768725264171,-0.1008758544921875,-0.9734649658203124,-0.1799163818359375,-0.020692229270935,-0.0008205199264921,-0.0014354437589645
1768725264181,-0.09832763671875,-0.9750213623046876,-0.1845703125,-0.0159858912229537,0.0025342640001326,-0.0010804444318637
1768725264191,-0.0997161865234375,-0.97552490234375,-0.1888427734375,-0.0160838942974805,0.0045667886734008,-0.0022575615439563
1768725264202,-0.1012420654296875,-0.9763031005859376,-0.1897430419921875,-0.01675820723176,-0.00061492389068,-0.002757170703262
1768725264211,-0.102386474609375,-0.977020263671875,-0.1873626708984375,-0.0143568348139524,0.0031912659760564,-0.0040362868458032
1768725264222,-0.09844970703125,-0.9742889404296876,-0.1894378662109375,-0.0126265790313482,0.0103333313018083,-0.0034277546219527
1768725264231,-0.0989227294921875,-0.9759674072265624,-0.192474365234375,-0.0094859134405851,0.0133003592491149,-0.0034202977549284
1768725264242,-0.0986785888671875,-0.974945068359375,-0.194854736328125,-0.0047851679846644,0.0041896849870681,-0.0013414341956377
1768725264252,-0.098297119140625,-0.9740447998046876,-0.1949462890625,0.0007193197961896,0.0016591493040323,-0.0033646377269178
1768725264262,-0.098846435546875,-0.97564697265625,-0.19488525390625,0.0066901268437504,0.0061449776403605,-0.0007390272221527
1768725264272,-0.0998382568359375,-0.975311279296875,-0.1932830810546875,0.0127871679142117,0.0034940673504024,-0.0026916568167507
1768725264282,-0.0996246337890625,-0.9746856689453124,-0.192474365234375,0.0152726965025067,0.000239684493863,-0.0036874127108603
1768725264292,-0.10089111328125,-0.9765777587890624,-0.1895294189453125,0.0132303182035684,0.0056642773561179,-0.0055974321439862
1768725264302,-0.0974273681640625,-0.975433349609375,-0.18695068359375,0.0117011312395334,0.0130617395043373,-0.0061891861259937
1768725264312,-0.0977783203125,-0.9750518798828124,-0.1856536865234375,0.010040383785963,0.0078446073457598,-0.0052059474401175
1768725264322,-0.09893798828125,-0.97503662109375,-0.1846923828125,0.0108766164630651,0.0049819755367934,-0.0053598778322339
1768725264332,-0.0990447998046875,-0.974609375,-0.1844329833984375,0.0078664449974894,0.0134636107832193,-0.0048610679805278
1768725264342,-0.1013946533203125,-0.9775543212890624,-0.18194580078125,-0.0013265205780044,0.0177816599607467,-0.006605704780668
1768725264352,-0.10174560546875,-0.9766387939453124,-0.1763153076171875,-0.0097881825640797,0.0063961138948798,-0.00389194348827
1768725264362,-0.1002349853515625,-0.9770660400390624,-0.174652099609375,-0.015661783516407,-0.0031180288642644,-0.0023222763556987
1768725264372,-0.09783935546875,-0.97576904296875,-0.178680419921875,-0.0177212059497833,-0.0062533686868846,-0.0056965015828609
1768725264382,-0.101409912109375,-0.9776763916015624,-0.1851959228515625,-0.0163771081715822,-0.0069535137154161,-0.0079897493124008
1768725264392,-0.1008758544921875,-0.97808837890625,-0.1887054443359375,-0.0097975032404065,-0.0062413844279944,-0.0105253448709845
1768725264402,-0.1000213623046875,-0.9712982177734376,-0.1942291259765625,0.0027899276465177,0.0021971079986542,-0.0020754013676196
1768725264412,-0.0920257568359375,-0.95391845703125,-0.19744873046875,0.0113123096525669,0.0044341632165014,0.0045793056488037
1768725264422,-0.091033935546875,-0.9701080322265624,-0.1921234130859375,0.0118494685739278,0.0082097267732024,0.0027430558111518
1768725264432,-0.1035003662109375,-0.979095458984375,-0.1863861083984375,0.0049042110331356,0.0138295292854309,-0.0063630905933678
1768725264442,-0.107421875,-0.9876861572265624,-0.181854248046875,0.0051375040784478,0.0246744528412818,-0.0115701034665107
1768725264453,-0.1003570556640625,-0.9686279296875,-0.1821136474609375,0.0041145840659737,0.0085202511399984,-0.0049617355689406
1768725264462,-0.0936126708984375,-0.9746856689453124,-0.17816162109375,0.0047353669069707,-0.0089189261198043,-0.0043326965533196
1768725264473,-0.100006103515625,-0.9779510498046876,-0.183441162109375,0.0002817624481394,0.0087551418691873,-0.0046333675272762
1768725264483,-0.0989990234375,-0.970489501953125,-0.184326171875,0.0031683626584708,0.01353897806257,0.0005267732776701
1768725264493,-0.09490966796875,-0.9624481201171876,-0.1851043701171875,0.0081796329468488,0.0034586472902446,0.0100851245224475
1768725264503,-0.09210205078125,-0.9629974365234376,-0.18408203125,0.0092507563531398,-0.0061140852048993,0.0144857317209243
1768725264513,-0.0976409912109375,-0.9760284423828124,-0.1830902099609375,0.0014602112350985,-0.0057649449445307,0.0081431474536657
1768725264523,-0.101837158203125,-0.9831695556640624,-0.1815185546875,-0.0076978672295808,-0.0012610068079084,0.0035851474385708
1768725264533,-0.101287841796875,-0.98028564453125,-0.1802215576171875,-0.0152774900197982,-0.008566590026021,0.0052400357089936
1768725264543,-0.0996856689453125,-0.978057861328125,-0.18084716796875,-0.0161195807158947,-0.0181571654975414,0.0071724252775311
1768725264553,-0.0970306396484375,-0.9766387939453124,-0.187408447265625,-0.0128891672939062,-0.021386781707406,0.0088318409398198
1768725264563,-0.097564697265625,-0.9759521484375,-0.196258544921875,-0.0030897995457053,-0.0084555363282561,0.0103807356208562
1768725264573,-0.1003875732421875,-0.974609375,-0.198974609375,0.0055340486578643,0.0029063075780868,0.0093303844332695
1768725264583,-0.101165771484375,-0.9745025634765624,-0.1987762451171875,0.0140582947060465,0.0016618125373497,0.0061175473965704
1768725264593,-0.10076904296875,-0.9774169921875,-0.19757080078125,0.0217058286070823,-0.0023148194886744,0.0057231332175433
1768725264603,-0.10137939453125,-0.9792633056640624,-0.1929779052734375,0.0276910159736871,-0.0048429584130644,0.0044919536449015
1768725264613,-0.1021728515625,-0.979248046875,-0.1895599365234375,0.0305115692317485,-0.0059481700882315,0.0012665993999689
1768725264624,-0.1008758544921875,-0.981475830078125,-0.183929443359375,0.0297384541481733,0.0006282397080212,0.0009102684562094
1768725264633,-0.0978851318359375,-0.977508544921875,-0.1800994873046875,0.0290534887462854,0.0038733014371246,0.0027997812721878
1768725264643,-0.0983734130859375,-0.9762115478515624,-0.1766357421875,0.0225234180688858,-0.0017126789316534,0.0035779569298028
1768725264653,-0.0996856689453125,-0.977630615234375,-0.17156982421875,0.0052586779929697,-5.352953667170368e-05,0.0014450311427935
1768725264663,-0.1043548583984375,-0.9786529541015624,-0.164642333984375,-0.0115011278539896,-0.0019760655704885,-0.0052842441946268
1768725264673,-0.10308837890625,-0.9791107177734376,-0.1649169921875,-0.025430791079998,0.0037835529074072,-0.0049947584047913
1768725264684,-0.099517822265625,-0.9773406982421876,-0.16729736328125,-0.0360549390316009,-0.002068477217108,-0.0058688079006969
1768725264694,-0.1000518798828125,-0.9780731201171876,-0.17431640625,-0.0374011695384979,-0.00688480399549,-0.0076477997936308
1768725264704,-0.096099853515625,-0.9781341552734376,-0.1826324462890625,-0.0333909802138805,0.002479403046891,-0.0100294649600982
1768725264714,-0.099822998046875,-0.9721832275390624,-0.1896820068359375,-0.0324958898127079,0.0144114298745989,-0.0074845477938652
1768725264724,-0.0964508056640625,-0.9710540771484376,-0.19134521484375,-0.0314537957310676,0.0070395334623754,-0.0046882289461791
1768725264734,-0.0999908447265625,-0.977691650390625,-0.1895751953125,-0.0319486111402511,0.0044988780282437,-0.0095391767099499
1768725264744,-0.10247802734375,-0.9745025634765624,-0.18914794921875,-0.0239239744842052,0.0090073430910706,-0.0066850669682025
1768725264754,-0.0960693359375,-0.9662322998046876,-0.1918792724609375,-0.0152135742828249,0.0030045784078538,-0.0013970943400636
1768725264764,-0.094024658203125,-0.97125244140625,-0.193634033203125,-0.0054259244352579,0.000129163308884,-0.0017558221006765
1768725264774,-0.0977630615234375,-0.97515869140625,-0.1940460205078125,-0.0016000272007659,0.0075335502624511,-0.0018437063554301
1768725264784,-0.09857177734375,-0.9745941162109376,-0.1919708251953125,0.0011382350930944,0.006687197368592,0.0016002934426069
1768725264794,-0.097991943359375,-0.9749755859375,-0.1880645751953125,0.0011496866354718,0.0020506340079009,0.0018865832826122
1768725264804,-0.0988922119140625,-0.9738616943359376,-0.183319091796875,0.0001403485948685,-0.0037012612447142,0.0031419973820447
1768725264814,-0.098968505859375,-0.973388671875,-0.1826171875,-0.0049177934415638,-0.0018250643042847,0.0041822283528745
1768725264824,-0.1004638671875,-0.9743499755859376,-0.1806640625,-0.0089538134634494,0.0069479211233556,0.0035366779193282
1768725264834,-0.0992584228515625,-0.9740447998046876,-0.1812591552734375,-0.0131967617198824,0.0112702315673232,0.0007313040550798
1768725264844,-0.1000823974609375,-0.9765472412109376,-0.1821746826171875,-0.0176370497792959,0.0079988045617938,-0.0004886900424025
1768725264854,-0.10009765625,-0.9781646728515624,-0.1815338134765625,-0.0181305333971977,0.0024876587558537,-0.0017528926255181
1768725264864,-0.103057861328125,-0.9788665771484376,-0.1853790283203125,-0.0182429198175668,5.699164830730297e-05,-0.0012668657582253
1768725264874,-0.10198974609375,-0.97747802734375,-0.1865081787109375,-0.0169720593839883,0.0005800364888273,-0.002895388752222
1768725264885,-0.10357666015625,-0.978485107421875,-0.1909942626953125,-0.0134604154154658,0.0035057852510362,-0.0064288708381354
1768725264895,-0.1025848388671875,-0.9790802001953124,-0.194915771484375,-0.0043622576631605,0.0125781092792749,-0.0076914755627512
1768725264905,-0.100341796875,-0.97552490234375,-0.196868896484375,0.0001986718125408,0.0180636886507272,-0.0071854749694466
1768725264915,-0.099334716796875,-0.97479248046875,-0.194183349609375,0.0045681199990212,0.0151613755151629,-0.0042956788092851
1768725264925,-0.101104736328125,-0.9767913818359376,-0.1888275146484375,0.007709052413702,0.0056150089949369,-0.0038016624748706
1768725264935,-0.09912109375,-0.9749298095703124,-0.188873291015625,0.0124414898455142,-0.0040272320620715,-0.0015701997326686
1768725264945,-0.095611572265625,-0.97357177734375,-0.191650390625,0.0189073774963617,-0.0059265987947583,0.0001283643650822
1768725264955,-0.099609375,-0.973388671875,-0.1958465576171875,0.0234227683395147,0.0012250541476532,-0.0002593918761704
1768725264965,-0.1006927490234375,-0.9761962890625,-0.19207763671875,0.0263122972100973,0.0118097877129912,-0.0030719563364982
1768725264975,-0.1019439697265625,-0.9773101806640624,-0.1878204345703125,0.0253628809005022,0.007865379564464,-0.0033808830194175
1768725264985,-0.09991455078125,-0.9775238037109376,-0.1861114501953125,0.0268883388489484,-0.0027174896094948,-0.0049761165864765
1768725264995,-0.0986785888671875,-0.9721527099609376,-0.1839447021484375,0.0246512833982706,-0.0032392027787864,0.0002455434587318
1768725265005,-0.0952301025390625,-0.967132568359375,-0.184539794921875,0.0255823247134685,-0.0061092916876077,0.0045894253998994
1768725265015,-0.0974273681640625,-0.9705810546875,-0.1853790283203125,0.0282705202698707,-0.0074294204823672,0.0010687265312299
1768725265025,-0.0997314453125,-0.976226806640625,-0.1849517822265625,0.0273085869848728,-0.0002458097587805,-0.0011896340874955
1768725265035,-0.1019744873046875,-0.9763641357421876,-0.18145751953125,0.0246113371104002,0.007415572181344,0.0013568805297836
1768725265045,-0.1000213623046875,-0.9755859375,-0.1768035888671875,0.0190131049603223,-0.0011909656459465,0.0015590144321322
1768725265055,-0.0987701416015625,-0.977691650390625,-0.173828125,0.0133941024541854,-0.0144050382077693,-0.0013805826893076
1768725265065,-0.09735107421875,-0.9756927490234376,-0.1760711669921875,0.014240188524127,-0.0182953830808401,-0.0004524710529949
1768725265075,-0.0980682373046875,-0.9762115478515624,-0.1809234619140625,0.0151576474308967,-0.0077886809594929,8.335694292327389e-05
1768725265085,-0.0995941162109375,-0.97601318359375,-0.18634033203125,0.018599784001708,-0.0027318706270307,-0.0027068369090557
1768725265095,-0.1000823974609375,-0.977081298828125,-0.186798095703125,0.0255759339779615,-0.0039097866974771,-0.0029814087320119
1768725265105,-0.09991455078125,-0.97869873046875,-0.186981201171875,0.0274231024086475,-0.001064199139364,-0.0067998492158949
1768725265116,-0.1010284423828125,-0.9796295166015624,-0.1855926513671875,0.0259557012468576,0.0035329493694007,-0.0097098853439092
1768725265125,-0.1034698486328125,-0.97796630859375,-0.18121337890625,0.0233820211142301,0.0029057750944048,-0.0121104586869478
1768725265136,-0.1027984619140625,-0.9794921875,-0.1767578125,0.0172743275761604,0.0014721954939886,-0.0169531498104333
1768725265146,-0.1021270751953125,-0.977325439453125,-0.1742706298828125,0.0078941415995359,0.001882588607259,-0.0168551467359066
1768725265156,-0.099884033203125,-0.9769439697265624,-0.1703033447265625,0.0010175938950851,0.0024841965641826,-0.0181063003838062
1768725265166,-0.1002044677734375,-0.9774932861328124,-0.168975830078125,-0.0107959220185875,0.0041457428596913,-0.0201172530651092
1768725265176,-0.09771728515625,-0.976348876953125,-0.168243408203125,-0.0217740051448345,0.001889779116027,-0.020167052745819
1768725265186,-0.0989227294921875,-0.9751739501953124,-0.1708984375,-0.0254097525030374,-0.0017912421608343,-0.0174247957766056
1768725265196,-0.0971527099609375,-0.9733123779296876,-0.17242431640625,-0.0320444852113723,-0.0034378746058791,-0.0119336247444152
1768725265206,-0.0965118408203125,-0.9745330810546876,-0.1743927001953125,-0.0364498868584632,-0.0086315711960196,-0.0137730697169899
1768725265216,-0.0981597900390625,-0.97906494140625,-0.1767578125,-0.0369676053524017,-0.0118145812302827,-0.0145049067214131
1768725265226,-0.1003265380859375,-0.980194091796875,-0.18212890625,-0.0370554886758327,-0.0055457665584981,-0.0160428825765848
1768725265236,-0.0941925048828125,-0.9669647216796876,-0.1859283447265625,-0.0254891142249107,0.0003339604008942,-0.0036626453511416
1768725265246,-0.082672119140625,-0.9595794677734376,-0.1876068115234375,-0.0146527122706174,-0.0088313082233071,0.0012777847005054
1768725265256,-0.0885772705078125,-0.9708709716796876,-0.19140625,-0.009949835948646,-0.0067660268396139,0.0036810212768614
1768725265266,-0.094818115234375,-0.983489990234375,-0.188446044921875,-0.0114904744550585,-0.0027632960118353,-0.0049699912779033
1768725265276,-0.10015869140625,-0.981719970703125,-0.189910888671875,-0.0054980958811938,0.0087586045265197,-0.0063505740836262
1768725265286,-0.094757080078125,-0.9716339111328124,-0.1916046142578125,0.0040780985727906,0.0070658987388014,4.6072687837295234e-05
1768725265296,-0.0941619873046875,-0.973297119140625,-0.188507080078125,0.0066773439757525,0.0041084587574005,0.0061734737828373
1768725265306,-0.0969390869140625,-0.974700927734375,-0.18408203125,0.0088257156312465,0.0061412495560944,0.0072296834550797
1768725265316,-0.0965728759765625,-0.970306396484375,-0.1811370849609375,0.0101932492107152,0.0026538399979472,0.0157067906111478
1768725265326,-0.0933380126953125,-0.96197509765625,-0.178131103515625,0.0131677333265542,-0.0077830883674323,0.0245045442134141
1768725265336,-0.092315673828125,-0.964263916015625,-0.1791839599609375,0.0137144802138209,-0.0215281955897808,0.0314519330859184
1768725265347,-0.096710205078125,-0.97222900390625,-0.17791748046875,0.0080406162887811,-0.0236749686300754,0.0247796475887298
1768725265357,-0.1020050048828125,-0.9795989990234376,-0.177764892578125,0.0037715686485171,-0.019834691658616,0.0218943804502487
1768725265367,-0.104522705078125,-0.9818572998046876,-0.1801605224609375,-0.0023339942563325,-0.0064637581817805,0.0190184321254491
1768725265377,-0.10614013671875,-0.9787139892578124,-0.1815185546875,-0.0052685313858091,0.0009816411184147,0.0173515602946281
1768725265387,-0.1076507568359375,-0.98077392578125,-0.1833953857421875,-0.0045233792625367,0.0004857605672441,0.0140678817406296
1768725265397,-0.1051483154296875,-0.9772491455078124,-0.183349609375,-0.0040610544383525,-0.0071670990437269,0.0080707091838121
1768725265407,-0.1023101806640625,-0.977630615234375,-0.1832733154296875,-0.0039718383923172,-0.0094294548034667,0.0066411248408257
1768725265417,-0.1007537841796875,-0.977691650390625,-0.1829986572265625,-0.0012104066554456,-0.0088134650141,0.0030072415247559
1768725265427,-0.1020050048828125,-0.9784088134765624,-0.1859588623046875,0.0040719732642173,-0.0112278871238231,0.0014932344201952
1768725265437,-0.1033782958984375,-0.9790191650390624,-0.186981201171875,0.0110382698476314,-0.001292698434554,4.28768944402691e-05
1768725265447,-0.100067138671875,-0.9775543212890624,-0.1864166259765625,0.0150543171912431,0.0102204130962491,0.0011030812747776
1768725265457,-0.1006011962890625,-0.97784423828125,-0.1842193603515625,0.0174309220165014,0.0194618478417396,9.853696246864274e-05
1768725265467,-0.10125732421875,-0.9799957275390624,-0.1811981201171875,0.01281273458153,0.0187893994152545,-0.0016061523929238
1768725265477,-0.1000518798828125,-0.9802398681640624,-0.1750335693359375,0.0051478901877999,0.0121069969609379,0.0008886968716979
1768725265487,-0.0972900390625,-0.97705078125,-0.1715850830078125,-0.0009283779654651,-0.0014748586108908,0.0025033713318407
1768725265497,-0.0985565185546875,-0.976959228515625,-0.1718597412109375,-0.008838765323162,-0.0091673992574214,0.0022644859272986
1768725265507,-0.097137451171875,-0.977874755859375,-0.172760009765625,-0.0159033332020044,-0.0108188251033425,0.0018791264155879
1768725265517,-0.09722900390625,-0.977020263671875,-0.17608642578125,-0.0186871346086263,-0.0078693749383091,0.0047289752401411
1768725265527,-0.09613037109375,-0.9789886474609376,-0.17877197265625,-0.022650983184576,-0.0045084655284881,0.0023425165563821
1768725265537,-0.0979766845703125,-0.9807281494140624,-0.1820831298828125,-0.0225292779505252,0.0046975496225059,3.1425301131093875e-05
1768725265548,-0.0983734130859375,-0.9732818603515624,-0.1876068115234375,-0.0182080324739217,0.0042275018058717,0.008141815662384
1768725265557,-0.093841552734375,-0.9715423583984376,-0.1898651123046875,-0.011461978778243,-0.0068818745203316,0.0089969569817185
1768725265568,-0.1012115478515625,-0.980987548828125,-0.1905364990234375,-0.0061644189991056,-0.0019129485590383,0.0038133803755044
1768725265577,-0.1057281494140625,-0.9809112548828124,-0.1899261474609375,0.0028277444653213,0.0092124063521623,-0.0011395666515454
1768725265588,-0.10125732421875,-0.96990966796875,-0.1883697509765625,0.0171329136937856,-0.0053204633295536,0.003344930242747
1768725265598,-0.0942535400390625,-0.9673004150390624,-0.18994140625,0.0298553667962551,-0.020159862935543,0.0066416575573384
1768725265608,-0.0955810546875,-0.974761962890625,-0.1877288818359375,0.0337835289537906,-0.0150987915694713,0.0064347297884523
1768725265618,-0.100311279296875,-0.977508544921875,-0.1837921142578125,0.0324660651385784,-0.0058656120672822,0.008501342497766
1768725265628,-0.0970916748046875,-0.973175048828125,-0.178985595703125,0.0305264834314584,-0.0087594026699662,0.0109381349757313
1768725265638,-0.09698486328125,-0.9723663330078124,-0.1756591796875,0.0252880454063415,-0.0099232047796249,0.0139685459434986
1768725265648,-0.101287841796875,-0.9746856689453124,-0.1725921630859375,0.0164319705218076,-0.0021473066881299,0.0098387822508811
1768725265658,-0.102996826171875,-0.977874755859375,-0.172088623046875,0.0092494245618581,0.0068051754496991,0.0063492422923445
1768725265668,-0.102783203125,-0.980133056640625,-0.172393798828125,0.0071194283664226,0.0028834044933319,0.003319896524772
1768725265678,-0.1013946533203125,-0.9797515869140624,-0.1736907958984375,0.0004258394474163,-0.0001949433935806,0.0026615632232278
1768725265688,-0.100830078125,-0.9766693115234376,-0.1733245849609375,-0.0056866477243602,-0.0022003035992383,0.0019473034190014
1768725265698,-0.103912353515625,-0.9777679443359376,-0.1735687255859375,-0.0066778762266039,7.190534961409867e-05,0.0012397015234455
1768725265708,-0.1043701171875,-0.976837158203125,-0.1777496337890625,-0.0078683095052838,-0.0022583606187254,0.0010937602492049
1768725265718,-0.1038818359375,-0.9765625,-0.1779327392578125,-0.0067085027694702,-0.0039103194139897,-0.0002604571636766
1768725265728,-0.105926513671875,-0.9807281494140624,-0.1793365478515625,-0.0040346891619265,0.0018194715958088,-0.0008777778712101
1768725265738,-0.106109619140625,-0.979034423828125,-0.181549072265625,-0.000843156769406,0.0030863373540341,-0.0006692523602396
1768725265748,-0.103240966796875,-0.9768829345703124,-0.1775360107421875,-0.0018415758386254,-0.0022663499694317,-0.0001414138532709
1768725265758,-0.1005859375,-0.9771728515625,-0.17474365234375,-0.0013235911028459,-0.0072336778976023,0.0005797701887786
1768725265768,-0.1000823974609375,-0.976348876953125,-0.1729736328125,-0.0020426444243639,-0.0182045698165893,0.0022562299855053
1768725265778,-0.09539794921875,-0.9718170166015624,-0.1763763427734375,-0.0001645833544898,-0.0201257746666669,0.0085146585479378
1768725265789,-0.0955963134765625,-0.9707183837890624,-0.1818389892578125,0.0028887307271361,-0.0095892436802387,0.0104989800602197
1768725265799,-0.1004486083984375,-0.9764556884765624,-0.1781158447265625,-0.0038650457281619,0.0030991204548627,0.0113930031657218
1768725265809,-0.0991058349609375,-0.978302001953125,-0.172027587890625,-0.0089053446426987,0.0017275925492867,0.0123064676299691
