timestamp_ms,acc_x,acc_y,acc_z,gyro_x,gyro_y,gyro_z
1769239625129,-0.1823883056640625,-0.972320556640625,-0.0941314697265625,-0.0787976086139679,-0.0057433731853961,-0.0087820403277874
1769239625144,-0.18817138671875,-0.97088623046875,-0.0912628173828125,-0.1048063039779663,-0.0027931232471019,-0.0073034530505537
1769239625147,-0.17388916015625,-0.970550537109375,-0.1044158935546875,-0.1190044209361076,-0.0033774208277463,0.0022471752017736
1769239625156,-0.1605682373046875,-0.9760589599609376,-0.1138458251953125,-0.1319716125726699,-0.0004263720766175,0.0066754794679582
1769239625167,-0.1703033447265625,-0.9780731201171876,-0.1171875,-0.1431494355201721,0.0063404538668692,0.0060874535702168
1769239625177,-0.18310546875,-0.9760894775390624,-0.1205902099609375,-0.1478147655725479,0.0082715116441249,0.0042381547391414
1769239625187,-0.184234619140625,-0.976409912109375,-0.130035400390625,-0.1482049077749252,0.0036019254475831,0.0048517468385398
1769239625197,-0.181365966796875,-0.977386474609375,-0.13983154296875,-0.1417765766382217,0.0014564828015863,0.0050898334011435
1769239625207,-0.1832427978515625,-0.9736328125,-0.14483642578125,-0.1269768625497818,-0.0084507428109645,0.0064296699129045
1769239625217,-0.1837158203125,-0.9711456298828124,-0.1524200439453125,-0.1145337671041488,-0.0142151545733213,0.0021198762115091
1769239625227,-0.186859130859375,-0.9762115478515624,-0.152374267578125,-0.1039322540163993,-0.0130835780873894,-0.0018274611793458
1769239625237,-0.192352294921875,-0.9748382568359376,-0.14935302734375,-0.0916018187999725,-0.0077982684597373,-0.0016903083305805
1769239625247,-0.18670654296875,-0.97314453125,-0.1496734619140625,-0.0754153952002525,-0.0059052933938801,-0.0016831178218126
1769239625257,-0.1810302734375,-0.9730072021484376,-0.1547088623046875,-0.0586518608033657,-0.0107293436303734,-0.0040796962566673
1769239625267,-0.183807373046875,-0.9727020263671876,-0.154937744140625,-0.0443791821599006,-0.0124625284224748,-0.0084893582388758
1769239625277,-0.1902313232421875,-0.9718780517578124,-0.1490631103515625,-0.0359167233109474,-0.0107732852920889,-0.0127133978530764
1769239625287,-0.1898345947265625,-0.97222900390625,-0.149383544921875,-0.0226331409066915,-0.0100023001432418,-0.0049729207530617
1769239625297,-0.171051025390625,-0.9709014892578124,-0.15460205078125,-0.0019350528018549,-0.0126111330464482,0.0089663304388523
1769239625307,-0.1609954833984375,-0.974273681640625,-0.1591796875,0.0216720066964626,-0.0135538922622799,0.0199212431907653
1769239625317,-0.1646728515625,-0.976104736328125,-0.1602020263671875,0.0443972907960414,-0.0161273051053285,0.0244845710694789
1769239625328,-0.17535400390625,-0.9729156494140624,-0.1533660888671875,0.0594872944056987,-0.016246348619461,0.0221178196370601
1769239625338,-0.1872711181640625,-0.9722900390625,-0.1439361572265625,0.0672232434153556,-0.0167885664850473,0.0170386377722024
1769239625348,-0.185699462890625,-0.9715118408203124,-0.1402587890625,0.0770444497466087,-0.0186730194836854,0.0131618743762373
1769239625358,-0.1818084716796875,-0.9739837646484376,-0.1402130126953125,0.0875562131404876,-0.0140833286568522,0.0066698868758976
1769239625368,-0.1811370849609375,-0.97515869140625,-0.137603759765625,0.0986940860748291,-0.0088755171746015,0.0072632390074431
1769239625378,-0.17999267578125,-0.9748077392578124,-0.1364593505859375,0.111780859529972,-0.0118553275242447,0.0021321268286556
1769239625388,-0.181640625,-0.9728240966796876,-0.13543701171875,0.1213256269693374,-0.0148053113371133,-7.057376933516935e-05
1769239625398,-0.1861724853515625,-0.973297119140625,-0.13037109375,0.1243717521429061,-0.0189814139157533,-0.0047966195270419
1769239625408,-0.18603515625,-0.9736480712890624,-0.1246185302734375,0.1276706159114837,-0.0174160078167915,-0.0056957025080919
1769239625418,-0.181732177734375,-0.972686767578125,-0.118743896484375,0.1263358294963836,-0.0176695417612791,-0.007710117381066
1769239625428,-0.1799774169921875,-0.9746551513671876,-0.118682861328125,0.1244101002812385,-0.0150617733597755,-0.0084589980542659
1769239625439,-0.1806488037109375,-0.9713134765625,-0.1155853271484375,0.1224763840436935,-0.012026036158204,-0.0065609635785222
1769239625448,-0.1815948486328125,-0.970977783203125,-0.1122283935546875,0.1138996705412864,-0.0140622891485691,-0.0065095648169517
1769239625458,-0.1858673095703125,-0.973480224609375,-0.1070404052734375,0.1002203449606895,-0.0123163210228085,-0.0098459729924798
1769239625468,-0.1887969970703125,-0.9748077392578124,-0.10247802734375,0.081420823931694,-0.01008858717978,-0.0093937683850526
1769239625478,-0.1864471435546875,-0.9753570556640624,-0.0986175537109375,0.0589746348559856,-0.002650377806276,-0.0082470113411545
1769239625488,-0.1858367919921875,-0.9725494384765624,-0.0947418212890625,0.0399213172495365,0.0030277478508651,-0.0064576328732073
1769239625498,-0.185760498046875,-0.9721832275390624,-0.0955352783203125,0.019645607098937,0.0058576227165758,-0.0086837690323591
1769239625508,-0.1881561279296875,-0.9727020263671876,-0.097381591796875,0.0001456749159842,0.0022767363116145,-0.0076230322010815
1769239625518,-0.1851806640625,-0.9752044677734376,-0.1009368896484375,-0.0248299818485975,-0.0066525763832032,-0.0011904330458492
1769239625529,-0.180816650390625,-0.98834228515625,-0.1009674072265625,-0.0532946474850177,-0.0133131425827741,0.0097889807075262
1769239625538,-0.1717987060546875,-0.9965362548828124,-0.1024017333984375,-0.0732995122671127,-0.008535430766642,0.022145515307784
1769239625549,-0.1715240478515625,-0.99102783203125,-0.104888916015625,-0.0980890169739723,-0.0034304177388548,0.0233727004379034
1769239625559,-0.1733856201171875,-0.9955902099609376,-0.1062469482421875,-0.1020781621336937,0.0251357126981019,0.0213862489908933
1769239625569,-0.1741180419921875,-0.97198486328125,-0.1098175048828125,-0.0895125716924667,0.0483145341277122,0.0112377405166625
1769239625579,-0.190673828125,-0.958984375,-0.1127471923828125,-0.0874491557478904,0.0456236787140369,0.0048573394306004
1769239625589,-0.1893463134765625,-0.9670257568359376,-0.1182861328125,-0.0742470696568489,0.047380831092596,-0.0003877562412526
1769239625599,-0.18316650390625,-0.9535675048828124,-0.1262664794921875,-0.0698480606079101,0.0338389240205287,-0.0061431135982275
1769239625609,-0.1829986572265625,-0.96270751953125,-0.12359619140625,-0.0593847632408142,0.0272838193923234,-0.0079263662919402
1769239625619,-0.1793212890625,-0.9565277099609376,-0.128814697265625,-0.0392379499971866,0.0196530632674694,-0.0143949184566736
1769239625629,-0.1912078857421875,-0.94549560546875,-0.1314544677734375,-0.0183750130236148,0.0129056787118315,-0.0279120579361915
1769239625639,-0.1973114013671875,-0.9409027099609376,-0.12890625,-0.009801497682929,0.0032565132714807,-0.0356943495571613
1769239625649,-0.1907501220703125,-0.9598541259765624,-0.129791259765625,-0.0128683941438794,-0.0151390051469206,-0.0271392092108726
1769239625659,-0.1751708984375,-0.97735595703125,-0.135223388671875,-0.0164351668208837,-0.0253066886216402,-0.0124137923121452
1769239625669,-0.166229248046875,-0.9846038818359376,-0.1363983154296875,-0.0209412351250648,-0.0200599953532218,-0.0050014164298772
1769239625679,-0.1729736328125,-0.9847259521484376,-0.1309814453125,-0.0252763275057077,-0.0094715319573879,-0.003540406236425
1769239625689,-0.1804656982421875,-0.9816131591796876,-0.12872314453125,-0.0283717196434736,0.0041755703277885,-0.0037329527549445
1769239625699,-0.18255615234375,-0.977386474609375,-0.1304931640625,-0.0245769824832677,0.0161454137414693,-0.0059758671559393
1769239625709,-0.180572509765625,-0.9777679443359376,-0.135345458984375,-0.0167286470532417,0.0201358944177627,-0.0049987533129751
1769239625719,-0.1823577880859375,-0.978363037109375,-0.1374359130859375,-0.0085181202739477,0.019008046016097,-0.0106632970273494
1769239625729,-0.1890411376953125,-0.9767303466796876,-0.1363067626953125,0.0008460862445645,0.0151920020580291,-0.0118563929572701
1769239625740,-0.1915740966796875,-0.97662353515625,-0.133544921875,0.0075772260315716,0.0071159661747515,-0.0157731045037508
1769239625750,-0.188720703125,-0.978546142578125,-0.135650634765625,0.0208954289555549,-0.0005060005933046,-0.0105879297479987
1769239625760,-0.184814453125,-0.97821044921875,-0.1379852294921875,0.0351726338267326,-0.0101165501400828,-0.0086400937288999
1769239625770,-0.1820220947265625,-0.980438232421875,-0.13604736328125,0.0484724603593349,-0.016709204763174,-0.0070206252858042
1769239625780,-0.181610107421875,-0.9813690185546876,-0.1294097900390625,0.0557349026203155,-0.01769963465631,-0.0043524042703211
1769239625790,-0.1761322021484375,-0.9825592041015624,-0.125823974609375,0.0638005509972572,-0.0199500061571598,0.0013944311067461
1769239625800,-0.1685028076171875,-0.9838409423828124,-0.1246337890625,0.0675817057490348,-0.0194956697523593,0.0080004017800092
1769239625810,-0.1692047119140625,-0.98114013671875,-0.121246337890625,0.0639699250459671,-0.0210155360400676,0.0118004670366644
1769239625820,-0.170989990234375,-0.9786376953125,-0.115203857421875,0.0564747266471385,-0.024278974160552,0.0162175856530666
1769239625830,-0.1729888916015625,-0.979888916015625,-0.113311767578125,0.0446329824626445,-0.0236957427114248,0.0159898847341537
1769239625841,-0.1747589111328125,-0.9720458984375,-0.1084747314453125,0.0377574972808361,-0.016710003837943,0.0125200524926185
1769239625850,-0.181884765625,-0.96136474609375,-0.1042022705078125,0.0247985571622848,-0.0168109387159347,0.0097346529364585
1769239625860,-0.1862335205078125,-0.9654388427734376,-0.10284423828125,0.0124809043481946,-0.0114023238420486,0.0064970478415489
1769239625870,-0.1840362548828125,-0.9669342041015624,-0.102020263671875,-0.0033566481433808,-0.0155893461778759,0.006255499087274
1769239625880,-0.1799774169921875,-0.9714202880859376,-0.103485107421875,-0.015824768692255,-0.0151744252070784,0.0045593315735459
1769239625890,-0.17791748046875,-0.973724365234375,-0.1043701171875,-0.029529396444559,-0.0148870702832937,0.0036240296903997
1769239625900,-0.179351806640625,-0.9750518798828124,-0.1035614013671875,-0.0463659018278121,-0.0111378720030188,0.005281847435981
1769239625910,-0.1798248291015625,-0.9744110107421876,-0.103790283203125,-0.0635153278708458,-0.0070451265200972,0.0042197788134217
1769239625920,-0.179473876953125,-0.9740142822265624,-0.1069793701171875,-0.0796077400445938,-0.0020471718162298,0.004176901653409
1769239625930,-0.1775970458984375,-0.9753570556640624,-0.1099090576171875,-0.0912263169884681,0.0016117451013997,0.0050541469827294
1769239625940,-0.178466796875,-0.977294921875,-0.1146697998046875,-0.1004941165447235,0.0024301344528794,0.0075697689317166
1769239625951,-0.1778717041015625,-0.977203369140625,-0.118408203125,-0.1068745180964469,0.0037622477393597,0.0074946680106222
1769239625961,-0.180694580078125,-0.97650146484375,-0.1230316162109375,-0.1095326170325279,0.0078227696940302,0.0070288809947669
1769239625971,-0.18292236328125,-0.9742279052734376,-0.1263427734375,-0.103841446340084,0.00758015550673,0.0061822622083127
1769239625981,-0.18438720703125,-0.9759521484375,-0.1338958740234375,-0.0949739143252372,0.0052597429603338,0.0052853096276521
1769239625991,-0.1854095458984375,-0.97808837890625,-0.138519287109375,-0.0801361128687858,0.001619201968424,0.0058584217913448
1769239626001,-0.185577392578125,-0.974212646484375,-0.1447906494140625,-0.0643627420067787,-0.0031696942169219,0.0013350426452234
1769239626011,-0.1876678466796875,-0.9731292724609376,-0.1452484130859375,-0.0478668585419654,-0.0041675809770822,-0.0030330740846693
1769239626021,-0.1876983642578125,-0.9727020263671876,-0.145294189453125,-0.0268414672464132,-0.0048445560969412,-0.0033957967534661
1769239626031,-0.185302734375,-0.97088623046875,-0.146881103515625,-0.0079069249331951,-0.0055281897075474,-0.0039015309885144
1769239626041,-0.1823577880859375,-0.969970703125,-0.147003173828125,0.0102169513702392,-0.0092417011037468,-0.0006964165950194
1769239626051,-0.1804962158203125,-0.9727325439453124,-0.1454925537109375,0.0255421120673418,-0.0118055269122123,-0.0001126517163356
1769239626061,-0.1816558837890625,-0.9739837646484376,-0.1422882080078125,0.0352666452527046,-0.0145549746230244,0.0028479844331741
1769239626072,-0.1806182861328125,-0.9716949462890624,-0.13671875,0.0438609309494495,-0.0147611033171415,0.0044493433088064
1769239626081,-0.179443359375,-0.974945068359375,-0.1356658935546875,0.0516293719410896,-0.0160836279392242,0.0046488139778375
1769239626091,-0.1782684326171875,-0.9756622314453124,-0.132080078125,0.054501324892044,-0.0107676927000284,0.0069638998247683
1769239626101,-0.178466796875,-0.9745635986328124,-0.1254425048828125,0.0538065060973167,-0.005804359447211,0.0066256783902645
1769239626111,-0.180572509765625,-0.972412109375,-0.122222900390625,0.0547644458711147,-0.0054384414106607,0.0068278121761977
1769239626122,-0.1825408935546875,-0.9723968505859376,-0.1212158203125,0.0514504089951515,-0.0040996703319251,0.0062158177606761
1769239626131,-0.181854248046875,-0.972808837890625,-0.118377685546875,0.044736310839653,-0.0018021611031144,0.0057801245711743
1769239626142,-0.1829071044921875,-0.9710693359375,-0.1155548095703125,0.0406289175152778,-0.0042488072067499,0.0030567762441933
1769239626152,-0.18365478515625,-0.972625732421875,-0.116485595703125,0.0311217010021209,-0.0071388697251677,0.003835484618321
1769239626162,-0.1861724853515625,-0.9716339111328124,-0.114501953125,0.0230070482939481,-0.0042189797386527,0.0022389194928109
1769239626173,-0.184356689453125,-0.9708251953125,-0.112823486328125,0.0129445604979991,-0.0060842577368021,0.0008135957177728
1769239626182,-0.18310546875,-0.973907470703125,-0.1153106689453125,0.0033609091769903,-0.0055364454165101,0.0038240330759435
1769239626192,-0.1815338134765625,-0.97406005859375,-0.1157989501953125,-0.0058387145400047,-0.0025382589083164,0.0044570663012564
1769239626202,-0.180877685546875,-0.9707794189453124,-0.1142120361328125,-0.0129877040162682,-4.101268132217229e-05,0.0004386226355563
1769239626212,-0.1850433349609375,-0.969146728515625,-0.110992431640625,-0.0262358654290437,0.0054514906369149,-0.0001773665280779
1769239626222,-0.182373046875,-0.973388671875,-0.1114501953125,-0.0361116640269756,0.0046402919106185,-0.0011222560424357
1769239626232,-0.1804962158203125,-0.975311279296875,-0.112396240234375,-0.0487899109721183,0.006330067757517,-0.0003262372338213
1769239626242,-0.1828765869140625,-0.9761962890625,-0.1152191162109375,-0.053392119705677,0.0084701841697096,0.0008314388687722
1769239626252,-0.1822662353515625,-0.9734039306640624,-0.1200714111328125,-0.0556981489062309,0.0077058565802872,-0.0005709817050956
1769239626262,-0.184295654296875,-0.9698333740234376,-0.1218414306640625,-0.0569900497794151,0.008903213776648,-0.0024791366886347
1769239626273,-0.186676025390625,-0.9687042236328124,-0.123291015625,-0.0553359612822532,0.010971425101161,-0.0051526841707527
1769239626282,-0.1875152587890625,-0.9684906005859376,-0.126068115234375,-0.056900568306446,0.0093639409169554,-0.0054078148677945
1769239626292,-0.1810760498046875,-0.9793701171875,-0.128936767578125,-0.0611395202577114,0.0022562299855053,0.0041068606078624
1769239626302,-0.1706390380859375,-0.9927215576171876,-0.1302490234375,-0.0654399916529655,-0.0002066612942144,0.0168258510529994
1769239626312,-0.1677703857421875,-0.9884796142578124,-0.1360931396484375,-0.0643616765737533,-0.0055755940265953,0.0220810677856206
1769239626322,-0.176361083984375,-0.9879608154296876,-0.1373138427734375,-0.0659161657094955,-0.0003025351034011,0.0220413859933614
1769239626332,-0.1772003173828125,-0.9859771728515624,-0.134521484375,-0.040314931422472,0.0281956847757101,0.0130550814792513
1769239626342,-0.18524169921875,-0.9616241455078124,-0.1337890625,-0.0264995172619819,0.0390507280826568,0.0018082864116877
1769239626352,-0.194732666015625,-0.970733642578125,-0.130889892578125,-0.0085069350898265,0.0431693084537982,-0.0003241066879127
1769239626362,-0.186309814453125,-0.9599761962890624,-0.1392822265625,0.0136966370046138,0.0468420721590518,-0.0129445604979991
1769239626373,-0.188079833984375,-0.9608154296875,-0.1385955810546875,0.0282180551439523,0.0280529391020536,-0.0128311095759272
1769239626382,-0.1833648681640625,-0.96307373046875,-0.1358184814453125,0.0502029843628406,0.025915753096342,-0.0152268894016742
1769239626393,-0.1885528564453125,-0.9506988525390624,-0.1329345703125,0.0712403580546379,0.0215122159570455,-0.0234501976519823
1769239626403,-0.19854736328125,-0.9410400390625,-0.1275787353515625,0.0815712884068489,0.0161059983074665,-0.0363287143409252
1769239626413,-0.198638916015625,-0.94891357421875,-0.1270751953125,0.076956033706665,-0.0051747881807386,-0.0375162176787853
1769239626423,-0.1864013671875,-0.965057373046875,-0.1266632080078125,0.0614162236452102,-0.0262670237571001,-0.0230390056967735
1769239626433,-0.1722412109375,-0.9807281494140624,-0.1290283203125,0.0503427982330322,-0.027867317199707,-0.0113772908225655
1769239626443,-0.172027587890625,-0.9832916259765624,-0.125579833984375,0.0367705300450325,-0.0172032210975885,-0.0057316552847623
1769239626453,-0.1779327392578125,-0.9819793701171876,-0.11944580078125,0.0214704051613807,0.0009624664089642,-0.0072954632341861
1769239626463,-0.1856536865234375,-0.9794769287109376,-0.117645263671875,0.0117634488269686,0.0139933135360479,-0.0076296902261674
1769239626473,-0.1850128173828125,-0.9770050048828124,-0.1196746826171875,0.0062584285624325,0.0219052992761135,-0.0067907944321632
1769239626483,-0.182373046875,-0.977081298828125,-0.1201019287109375,0.0020415792241692,0.0246089398860931,-0.0098118847236037
1769239626493,-0.184722900390625,-0.9768524169921876,-0.1202545166015625,-0.0023363912478089,0.0219385884702205,-0.013317403383553
1769239626503,-0.1876983642578125,-0.9757232666015624,-0.118408203125,-0.011111507192254,0.0168189276009798,-0.0147070409730076
1769239626513,-0.1904144287109375,-0.977752685546875,-0.1139373779296875,-0.0180362574756145,0.0156338214874267,-0.0131770549342036
1769239626523,-0.1873016357421875,-0.979034423828125,-0.1124267578125,-0.0237673800438642,0.0095825865864753,-0.012884372845292
1769239626533,-0.1843719482421875,-0.982208251953125,-0.115753173828125,-0.0247849747538566,0.0014199974248185,-0.0090070767328143
1769239626543,-0.178955078125,-0.9824066162109376,-0.1214599609375,-0.0206674616783857,-0.0046730488538742,-0.0085756452754139
1769239626553,-0.176849365234375,-0.9821319580078124,-0.122161865234375,-0.0207119360566139,-0.0040269657038152,-0.0040674461051821
1769239626563,-0.1725006103515625,-0.9802093505859376,-0.121002197265625,-0.0212767925113439,0.0009038768475875,0.0011752529535442
1769239626573,-0.166107177734375,-0.981231689453125,-0.1230926513671875,-0.0223388615995645,0.000736364047043,0.0066384617239236
1769239626583,-0.16607666015625,-0.9770050048828124,-0.12384033203125,-0.0215534958988428,-0.0004495415778364,0.0105365300551056
1769239626594,-0.1732940673828125,-0.972137451171875,-0.124176025390625,-0.0294926445931196,-0.0066405921243131,0.0139208752661943
1769239626604,-0.1763458251953125,-0.9765472412109376,-0.1223297119140625,-0.0368970297276973,-0.0047609331086277,0.0163970831781625
1769239626614,-0.1759796142578125,-0.9714202880859376,-0.1241455078125,-0.0363718569278717,0.0023880566004663,0.0114047210663557
1769239626624,-0.1833038330078125,-0.9602813720703124,-0.12091064453125,-0.0403990894556045,0.0045609297230839,0.0062214103527367
1769239626634,-0.1853485107421875,-0.9675750732421876,-0.1186676025390625,-0.0431549288332462,0.003327886108309,0.0081468764692544
1769239626644,-0.179046630859375,-0.9700469970703124,-0.123291015625,-0.0434763692319393,-0.0013566142879426,0.0061076935380697
1769239626654,-0.1798095703125,-0.96990966796875,-0.1286468505859375,-0.0403815098106861,0.0010335728293284,0.0025068335235118
1769239626664,-0.1822967529296875,-0.9710845947265624,-0.1287689208984375,-0.0386885404586792,0.0012508867075666,-0.0023289343807846
1769239626674,-0.18475341796875,-0.9732818603515624,-0.129913330078125,-0.0364091396331787,0.0017965685110539,-0.0057202037423849
1769239626684,-0.1836700439453125,-0.9705963134765624,-0.1303253173828125,-0.0346605069935321,0.0023382555227726,-0.0082760397344827
1769239626694,-0.183013916015625,-0.97320556640625,-0.132293701171875,-0.0350352153182029,0.0014519554097205,-0.0063718790188431
1769239626704,-0.1796875,-0.977325439453125,-0.134063720703125,-0.0338554345071315,-0.0016346483025699,-0.0060355220921337
1769239626714,-0.1780853271484375,-0.9772186279296876,-0.1358795166015625,-0.0336969755589962,-0.0006676545017398,-0.001701493631117
1769239626724,-0.1774444580078125,-0.97613525390625,-0.13507080078125,-0.0291938371956348,0.0033228259999305,-0.0014823154779151
1769239626734,-0.17803955078125,-0.9779815673828124,-0.1364898681640625,-0.021231785416603,0.0054147392511367,0.0009422263829037
1769239626744,-0.1790008544921875,-0.9756622314453124,-0.139129638671875,-0.0134327178820967,0.0059883841313421,0.0031515848822891
1769239626754,-0.1832122802734375,-0.9741058349609376,-0.137908935546875,-0.0053340452723205,0.0051217912696301,0.002707635750994
1769239626764,-0.18292236328125,-0.9765167236328124,-0.138427734375,0.0029963224660605,0.0011329087428748,0.001807487453334
1769239626774,-0.1808013916015625,-0.9751434326171876,-0.1375885009765625,0.0103296032175421,0.0030016489326953,0.0020439762156456
1769239626784,-0.18145751953125,-0.974822998046875,-0.1335296630859375,0.0158796310424804,0.0078829564154148,-0.0006122607155703
1769239626794,-0.184906005859375,-0.97210693359375,-0.131103515625,0.0212533567100763,0.0070483218878507,-0.0006271744496189
1769239626804,-0.184661865234375,-0.9703216552734376,-0.130767822265625,0.0273485332727432,-0.0011179950088262,-0.0029206888284534
1769239626815,-0.1841888427734375,-0.9717864990234376,-0.131683349609375,0.02905242331326,-0.0041875545866787,-0.0003866909828502
1769239626825,-0.180328369140625,-0.9723052978515624,-0.13153076171875,0.0312396790832281,-0.0038211036007851,-0.0021305289119482
1769239626835,-0.180572509765625,-0.9766082763671876,-0.1312255859375,0.0306055787950754,-0.004056526813656,-0.0011185276089236
1769239626845,-0.180419921875,-0.9750213623046876,-0.1282501220703125,0.030675621703267,-0.0001416801678715,0.002911900402978
1769239626855,-0.18035888671875,-0.9747467041015624,-0.1262054443359375,0.0289549529552459,0.0038075214251875,0.0016495619202032
1769239626865,-0.1797027587890625,-0.9739837646484376,-0.12286376953125,0.0253538265824317,0.0039595877751708,0.0022232069168239
1769239626877,-0.1809234619140625,-0.97174072265625,-0.1210479736328125,0.0201284382492303,0.0052506881766021,0.0005073322099633
1769239626885,-0.1838531494140625,-0.9718475341796876,-0.119720458984375,0.0147800110280513,0.0075074508786201,-0.0016567525453865
1769239626895,-0.183990478515625,-0.972900390625,-0.1189117431640625,0.0080928141251206,0.008748217485845,-0.0012807141756638
1769239626905,-0.1836700439453125,-0.9716644287109376,-0.1184844970703125,0.0019246664596721,0.0094885770231485,-0.0020668793004006
1769239626915,-0.18182373046875,-0.9711456298828124,-0.119903564453125,-0.0025222797412425,0.0085080005228519,-0.0036892769858241
1769239626925,-0.183502197265625,-0.9696197509765624,-0.1185455322265625,-0.006811034400016,0.0082592610269784,-0.0039774309843778
1769239626935,-0.1832733154296875,-0.97198486328125,-0.1200103759765625,-0.0117330886423587,0.0055457665584981,-0.0039734365418553
1769239626945,-0.183074951171875,-0.97216796875,-0.121612548828125,-0.0158553961664438,0.0041223070584237,-0.0027057717088609
1769239626955,-0.1816253662109375,-0.9707794189453124,-0.1231536865234375,-0.0209660027176141,0.0055462992750108,-8.468852320220321e-05
1769239626965,-0.1807403564453125,-0.974365234375,-0.1230010986328125,-0.0249546188861131,0.0055457665584981,-0.0011491540353745
1769239626975,-0.1796875,-0.9735565185546876,-0.1231689453125,-0.0307736247777938,0.0070129018276929,-0.0012072109384462
1769239626985,-0.1806488037109375,-0.9740447998046876,-0.1236419677734375,-0.0352828912436962,0.0082824304699897,0.0011009507579728
1769239626995,-0.1788482666015625,-0.9747314453125,-0.122802734375,-0.0379580333828926,0.009867544285953,0.001015197020024
1769239627006,-0.1794281005859375,-0.974365234375,-0.1261138916015625,-0.0402803122997283,0.0074576498009264,0.0046173888258636
1769239627016,-0.177703857421875,-0.9773712158203124,-0.1294097900390625,-0.0378597639501094,0.0035878105554729,0.0059873186983168
1769239627026,-0.176971435546875,-0.975738525390625,-0.1292877197265625,-0.0381361991167068,0.0068672271445393,0.003891411004588
1769239627036,-0.180877685546875,-0.9735260009765624,-0.1276702880859375,-0.0349364131689071,0.005069060716778,-0.0032724924385547
1769239627046,-0.1850738525390625,-0.9731292724609376,-0.1282501220703125,-0.0361505486071109,0.0147485863417387,-0.0062456452287733
1769239627056,-0.1767730712890625,-0.9773406982421876,-0.12689208984375,-0.034418161958456,0.0109274825081229,-0.0029625003226101
1769239627066,-0.179351806640625,-0.9714202880859376,-0.1309967041015625,-0.0308969300240278,0.0109605053439736,-0.0030668962281197
1769239627076,-0.182037353515625,-0.9741058349609376,-0.13604736328125,-0.0225599035620689,0.0116654448211193,-0.0011563445441424
1769239627086,-0.17840576171875,-0.9701690673828124,-0.13580322265625,-0.0161265060305595,0.0126156602054834,-0.0066997143439948
1769239627096,-0.18377685546875,-0.9710693359375,-0.1366119384765625,-0.007790545001626,0.0155920088291168,-0.0055976980365812
1769239627106,-0.182647705078125,-0.9711761474609376,-0.1370697021484375,-0.0017012272728607,0.0127272466197609,-0.0040799626149237
1769239627116,-0.178009033203125,-0.9759521484375,-0.1374664306640625,-0.0011185276089236,0.0045654568821191,0.0056259278208017
1769239627126,-0.1727447509765625,-0.9863433837890624,-0.137908935546875,-0.0070661650970578,-0.006948453374207,0.0183289404958486
1769239627136,-0.168548583984375,-0.9889678955078124,-0.137603759765625,-0.0061974423006176,-0.0031513185240328,0.0209766551852226
1769239627146,-0.1755523681640625,-0.97967529296875,-0.135955810546875,-0.0107530457898974,0.0015286544803529,0.0159004032611846
1769239627156,-0.1794891357421875,-0.984527587890625,-0.1305389404296875,0.0070251524448394,0.0294511001557111,0.0057172742672264
1769239627166,-0.1867523193359375,-0.9545135498046876,-0.1330413818359375,0.0231889430433511,0.0454724095761776,-0.0102300010621547
1769239627176,-0.2003173828125,-0.95953369140625,-0.1272735595703125,0.0241940189152956,0.0429075211286544,-0.0121091268956661
1769239627186,-0.1868438720703125,-0.97296142578125,-0.12811279296875,0.0306588429957628,0.0428870134055614,-0.0143999783322215
1769239627197,-0.180389404296875,-0.9612579345703124,-0.13214111328125,0.0362352356314659,0.0334232039749622,-0.0163611304014921
1769239627206,-0.18218994140625,-0.9634857177734376,-0.1273345947265625,0.0450905114412307,0.0293024946004152,-0.0213577523827552
1769239627216,-0.1851806640625,-0.9537200927734376,-0.1236114501953125,0.0537689551711082,0.0258803330361843,-0.026095250621438
1769239627227,-0.1941680908203125,-0.946685791015625,-0.1186370849609375,0.0588132478296756,0.0173121448606252,-0.029522206634283
1769239627236,-0.1902618408203125,-0.953216552734375,-0.1207275390625,0.0533572323620319,-0.003711647586897,-0.0278404187411069
1769239627247,-0.1815643310546875,-0.9707794189453124,-0.1272125244140625,0.0380571037530899,-0.0215500332415103,-0.014208230189979
1769239627257,-0.1705322265625,-0.9857330322265624,-0.1291351318359375,0.020508736371994,-0.0293887816369533,-0.0009030779474414
1769239627267,-0.166595458984375,-0.9884490966796876,-0.1268310546875,0.0065708174370229,-0.0218309964984655,0.0050536142662167
1769239627277,-0.1746673583984375,-0.98388671875,-0.1226959228515625,-0.0046237800270318,-0.0029007149860262,0.0060528325848281
1769239627287,-0.181884765625,-0.9779052734375,-0.1207275390625,-0.0135693382471799,0.0123541383072733,0.0059412461705505
1769239627297,-0.184967041015625,-0.977752685546875,-0.123626708984375,-0.0181667525321245,0.0201502759009599,0.0018812569323927
1769239627307,-0.1840972900390625,-0.9770660400390624,-0.1282958984375,-0.0201619938015937,0.0213532261550426,-0.001817074837163
1769239627317,-0.1841583251953125,-0.977813720703125,-0.1289825439453125,-0.0235727038234472,0.0213159415870904,-0.0058509646914899
1769239627327,-0.1903228759765625,-0.971954345703125,-0.1253662109375,-0.0265463888645172,0.0210525542497634,-0.0119064608588814
1769239627337,-0.1925506591796875,-0.9738311767578124,-0.1239471435546875,-0.0264342706650495,0.0165877658873796,-0.0152846807613968
1769239627347,-0.1883697509765625,-0.973846435546875,-0.1253662109375,-0.0254824571311473,0.0091112069785594,-0.0140468431636691
1769239627357,-0.184326171875,-0.975341796875,-0.127899169921875,-0.0192895419895648,0.0049918289296329,-0.0146119659766554
1769239627367,-0.18133544921875,-0.9776458740234376,-0.1287689208984375,-0.0146210202947258,0.0003965446958318,-0.0129501530900597
1769239627377,-0.1750030517578125,-0.97808837890625,-0.1285552978515625,-0.0081575289368629,-4.713794987765141e-05,-0.008641424588859
1769239627387,-0.1685943603515625,-0.980621337890625,-0.1277313232421875,-0.0032186964526772,0.0028338697738945,-0.0032101743854582
1769239627397,-0.168792724609375,-0.980560302734375,-0.12615966796875,-0.0017326525412499,0.0062214103527367,0.0010572749888524
1769239627408,-0.1679229736328125,-0.976287841796875,-0.12542724609375,-0.0012144014472141,0.0062890546396374,0.0017606157343834
1769239627417,-0.171173095703125,-0.976226806640625,-0.1277618408203125,-0.0020626182667911,0.0008548747282475,0.0080360881984233
1769239627427,-0.16998291015625,-0.9766387939453124,-0.1253662109375,-0.0094504933804273,-0.0002194444678025,0.0122920861467719
1769239627438,-0.1707916259765625,-0.9779815673828124,-0.12310791015625,-0.0103439837694168,0.001521463971585,0.0082539347931742
1769239627448,-0.180419921875,-0.9614410400390624,-0.126434326171875,-0.0127088706940412,0.0022458436433225,-0.0011494202772155
1769239627458,-0.1870574951171875,-0.9668426513671876,-0.122161865234375,-0.0189417339861392,-0.0007672567153349,0.0022122878581285
1769239627468,-0.180023193359375,-0.972015380859375,-0.1218414306640625,-0.0245769824832677,-0.0012740562669932,0.0044072652235627
1769239627478,-0.177001953125,-0.9736785888671876,-0.125640869140625,-0.0256608892232179,-0.0005771070136688,0.0031606396660208
1769239627488,-0.178619384765625,-0.970855712890625,-0.12786865234375,-0.0302444547414779,0.0019169433508068,-0.0004538026405498
1769239627498,-0.1829071044921875,-0.9668121337890624,-0.12359619140625,-0.0332322567701339,-0.000303334032651,-0.0077436733990907
1769239627508,-0.1854400634765625,-0.9705352783203124,-0.12823486328125,-0.0344783477485179,-0.0014769891276955,-0.0086747147142887
1769239627518,-0.1806793212890625,-0.973388671875,-0.1317596435546875,-0.0365572124719619,-0.0025627599097788,-0.0093660708516836
1769239627528,-0.1784210205078125,-0.9767608642578124,-0.132049560546875,-0.0383479222655296,0.0005701828049495,-0.0073018549010157
1769239627538,-0.1764984130859375,-0.9778594970703124,-0.13128662109375,-0.0391958728432655,0.0023755396250635,-0.0048147290945053
1769239627548,-0.175750732421875,-0.978485107421875,-0.135162353515625,-0.0387798845767974,0.0085303708910942,-0.0006274407496675
1769239627558,-0.177581787109375,-0.97637939453125,-0.135101318359375,-0.0342431925237178,0.0118025969713926,-0.0003265035338699
1769239627568,-0.178680419921875,-0.9744110107421876,-0.1357574462890625,-0.0295975729823112,0.0124846324324607,0.0026224146131426
1769239627578,-0.1811065673828125,-0.9734954833984376,-0.137115478515625,-0.0238539334386587,0.0082448804751038,-0.0002870887692552
1769239627588,-0.1829833984375,-0.974334716796875,-0.1394805908203125,-0.0153659069910645,0.0054174023680388,0.0015323829138651
1769239627598,-0.181060791015625,-0.9735565185546876,-0.140869140625,-0.0059614861384034,0.0017006946727633,-0.0009073389810509
1769239627610,-0.180938720703125,-0.970489501953125,-0.140472412109375,0.0038855520542711,0.001594168250449,-0.0041364217177033
1769239627618,-0.1823883056640625,-0.970703125,-0.1381988525390625,0.0141501734033226,0.0014125406742095,-0.0044871601276099
1769239627628,-0.179656982421875,-0.9705047607421876,-0.13818359375,0.0231862794607877,-7.430219557136297e-05,-0.0045074000954627
1769239627639,-0.177734375,-0.9738616943359376,-0.133941650390625,0.0239234417676925,0.0005435511702671,-0.003754524514079
1769239627649,-0.1759185791015625,-0.9755706787109376,-0.129852294921875,0.0276617221534252,0.0023148194886744,-0.0008106662426143
1769239627659,-0.1753082275390625,-0.97576904296875,-0.132293701171875,0.0305480547249317,-0.0042629218660295,0.0004327636852394
1769239627669,-0.1770172119140625,-0.9744720458984376,-0.1321258544921875,0.030674822628498,-0.0032690302468836,0.0007984156836755
1769239627679,-0.176788330078125,-0.9768524169921876,-0.1287841796875,0.0314673781394958,0.0005025385180488,0.0011251855175942
1769239627689,-0.1744232177734375,-0.9768218994140624,-0.1259918212890625,0.0254638139158487,0.0008061388507485,0.0019411781104281
1769239627699,-0.177642822265625,-0.976226806640625,-0.1240081787109375,0.0183747466653585,0.0039952741935849,0.0017646105261519
1769239627709,-0.1794891357421875,-0.9744415283203124,-0.119232177734375,0.0118902148678898,0.0062866578809916,0.0010436928132548
1769239627719,-0.18255615234375,-0.9732666015625,-0.1194305419921875,0.0012996225850656,0.006442186422646,-0.0007693872321397
1769239627729,-0.1827545166015625,-0.972686767578125,-0.1192626953125,-0.0079708406701684,0.0056946375407278,-0.0037292244378477
1769239627739,-0.18212890625,-0.972076416015625,-0.1184539794921875,-0.018228804692626,0.0082342280074954,-0.0035159052349627
1769239627749,-0.181549072265625,-0.9712982177734376,-0.11834716796875,-0.0254646129906177,0.0089410310611128,-0.0003728425363078
1769239627759,-0.1784820556640625,-0.9681396484375,-0.1203460693359375,-0.0324841737747192,0.0089412974193692,-0.0036501286085695
1769239627769,-0.1810455322265625,-0.9686431884765624,-0.1244354248046875,-0.0365108735859394,0.0048751826398074,0.0009387642494402
1769239627779,-0.1793365478515625,-0.969268798828125,-0.1245880126953125,-0.0418297387659549,0.0062040998600423,-0.0010700580896809
1769239627789,-0.18115234375,-0.971588134765625,-0.1271820068359375,-0.0428236313164234,0.007179882377386,0.001400023815222
1769239627799,-0.178375244140625,-0.9742584228515624,-0.131256103515625,-0.0449887812137603,0.0080643184483051,0.0017960357945412
1769239627809,-0.1768341064453125,-0.972381591796875,-0.13067626953125,-0.0459499135613441,0.0125922244042158,-0.0023039006628096
1769239627819,-0.1802825927734375,-0.9746551513671876,-0.13140869140625,-0.0414417162537574,0.0110286828130483,-0.00201121927239
1769239627829,-0.179443359375,-0.97430419921875,-0.13543701171875,-0.0376746729016304,0.0055755940265953,-0.0014327806420624
1769239627840,-0.17962646484375,-0.9742279052734376,-0.13726806640625,-0.0340871289372444,0.0035084483679383,-0.0013462279457598
1769239627849,-0.17974853515625,-0.9746551513671876,-0.1362152099609375,-0.0309123750776052,0.0038280277512967,-0.0011840413790196
1769239627860,-0.1799468994140625,-0.9736328125,-0.13739013671875,-0.0236147809773683,-9.800432599149644e-05,-0.0021299961954355
1769239627870,-0.18206787109375,-0.9731292724609376,-0.139404296875,-0.0195201709866523,0.0012780509423464,-0.0012412993237376
1769239627880,-0.17706298828125,-0.9739532470703124,-0.138336181640625,-0.0123810358345508,0.0037558560725301,0.0021867216564714
1769239627890,-0.175994873046875,-0.9766082763671876,-0.1374969482421875,-0.0075516593642532,0.0035830168053507,0.0053241914138197
1769239627900,-0.1734619140625,-0.973968505859375,-0.1371002197265625,-0.0036280243657529,0.0049380334094166,0.0061116884462535
1769239627910,-0.1764068603515625,-0.9765167236328124,-0.13616943359375,0.0015342470724135,0.0041223070584237,0.0078241005539894
1769239627920,-0.1772003173828125,-0.9732666015625,-0.1356048583984375,0.0053380401805043,0.0067633637227118,0.0037111148703843
1769239627930,-0.178924560546875,-0.97332763671875,-0.1344146728515625,0.0099719399586319,0.0089349057525396,0.0034216293133795
1769239627940,-0.1787872314453125,-0.9729156494140624,-0.133697509765625,0.0137906465679407,0.0110041815787553,0.0018551580142229
1769239627950,-0.1792755126953125,-0.9724273681640624,-0.1346282958984375,0.0176825914531946,0.009158344939351,0.0020200076978653
1769239627960,-0.1807403564453125,-0.97344970703125,-0.136077880859375,0.0236030630767345,0.0057090185582637,0.0018053569365292
1769239627970,-0.1771240234375,-0.9725494384765624,-0.136871337890625,0.0283304415643215,0.0043755737133324,8.069378236541525e-05
1769239627980,-0.1829376220703125,-0.973052978515625,-0.13433837890625,0.0269959308207035,0.0042064627632498,-0.0001235706731677
1769239627990,-0.18316650390625,-0.972991943359375,-0.1294097900390625,0.0256057605147361,0.0030266826506704,-0.0009885653853416
1769239628000,-0.182830810546875,-0.9719085693359376,-0.1297760009765625,0.022620890289545,1.5712650565546937e-05,-0.0007699198904447
1769239628010,-0.1815185546875,-0.9688873291015624,-0.12933349609375,0.0202232468873262,-0.0020005665719509,-0.0018485001055523
1769239628020,-0.1810150146484375,-0.974578857421875,-0.1297149658203125,0.0145200863480567,-0.0051380367949604,0.0035462651867419
1769239628030,-0.1773834228515625,-0.9842529296875,-0.124420166015625,-0.0035201662685722,-0.0050155310891568,0.0139272669330239
1769239628040,-0.1686553955078125,-0.99053955078125,-0.12237548828125,-0.012107528746128,0.0027270768769085,0.016015451401472
1769239628050,-0.1745758056640625,-0.9814453125,-0.1230926513671875,-0.0290303193032741,0.0071833445690572,0.0115645108744502
1769239628060,-0.177947998046875,-0.9835052490234376,-0.1215667724609375,-0.0244382303208112,0.0337526388466358,0.0005941512063145
1769239628071,-0.186614990234375,-0.9533843994140624,-0.1224365234375,-0.0196006000041961,0.0439852997660636,-0.0162964146584272
1769239628081,-0.199737548828125,-0.958465576171875,-0.12017822265625,-0.0286537483334541,0.0399282425642013,-0.0136985015124082
1769239628091,-0.183746337890625,-0.974517822265625,-0.1253814697265625,-0.0295815933495759,0.0350344181060791,-0.0088105360046029
1769239628101,-0.1747894287109375,-0.966766357421875,-0.1314239501953125,-0.0255098864436149,0.0325821787118911,-0.009198292158544
1769239628111,-0.1779632568359375,-0.9608306884765624,-0.1324462890625,-0.0086451536044478,0.0263812728226184,-0.0122590633109211
1769239628121,-0.1847381591796875,-0.9515380859375,-0.134368896484375,0.00776844099164,0.0164593998342752,-0.0234568566083908
1769239628131,-0.1920013427734375,-0.9490203857421876,-0.1337738037109375,0.02251329831779,0.012518455274403,-0.0282779764384031
1769239628141,-0.1855926513671875,-0.95867919921875,-0.1358489990234375,0.0200754404067993,-0.0182282719761133,-0.0221606958657503
1769239628151,-0.1754302978515625,-0.9787139892578124,-0.138763427734375,0.0139544317498803,-0.031636755913496,-0.0130111398175358
1769239628161,-0.1696014404296875,-0.9848785400390624,-0.1397247314453125,0.0077681746333837,-0.0272784922271966,-0.0053585465066134
1769239628171,-0.168304443359375,-0.987274169921875,-0.13433837890625,0.006246977020055,-0.0187688935548067,-0.0019848539959639
1769239628181,-0.1737060546875,-0.9827117919921876,-0.135894775390625,0.0056962352246046,-0.0071982578374445,-0.0065114288590848
1769239628191,-0.1790771484375,-0.9804229736328124,-0.132843017578125,0.0036674391012638,0.0076299565844237,-0.0103386575356125
1769239628201,-0.182525634765625,-0.9779815673828124,-0.1299896240234375,-0.0015954998089,0.0170636717230081,-0.0112294852733612
1769239628211,-0.1824951171875,-0.9781494140625,-0.1323699951171875,-0.0051071438938379,0.0127181923016905,-0.0127794444561004
1769239628221,-0.186065673828125,-0.97283935546875,-0.1332244873046875,-0.0089311767369508,0.0153400739654898,-0.0149888033047318
1769239628232,-0.1904144287109375,-0.9696807861328124,-0.130523681640625,-0.0122822327539324,0.0153358131647109,-0.0165949556976556
1769239628242,-0.1884765625,-0.9688568115234376,-0.1290435791015625,-0.012490757741034,0.0087229181081056,-0.0145373977720737
1769239628251,-0.182586669921875,-0.9713592529296876,-0.1301422119140625,-0.0103024384006857,0.0008183894096873,-0.0103157544508576
1769239628262,-0.17791748046875,-0.9742279052734376,-0.130584716796875,-0.0083048017695546,-0.0071569788269698,-0.0065258098766207
1769239628271,-0.1741943359375,-0.9767608642578124,-0.13232421875,-0.0036424053832888,-0.011027617380023,-0.0053817159496247
1769239628282,-0.170806884765625,-0.9787139892578124,-0.1309356689453125,-0.0044344295747578,-0.0048133973032236,-0.000647680775728
1769239628292,-0.1675567626953125,-0.9833221435546876,-0.1297607421875,-0.0008322378271259,0.0042541334405541,0.0006370281334966
1769239628302,-0.1648101806640625,-0.9844512939453124,-0.1282958984375,0.000253799255006,0.0087863011285662,0.0056392434053123
1769239628312,-0.163726806640625,-0.982879638671875,-0.12872314453125,0.0002615224220789,0.0096214683726429,0.0082824304699897
1769239628322,-0.1698455810546875,-0.97930908203125,-0.1284942626953125,-0.0002239718451164,0.0060970410704612,0.0100539652630686
1769239628332,-0.1722564697265625,-0.9768218994140624,-0.127655029296875,-0.0067670922726392,0.0026367958635091,0.0117762321606278
1769239628342,-0.1747894287109375,-0.977813720703125,-0.1263275146484375,-0.0102126896381378,0.0022045646328479,0.0107354689389467
1769239628352,-0.1792449951171875,-0.9604949951171876,-0.12750244140625,-0.0111447963863611,-0.0013038836186751,0.0039792954921722
1769239628362,-0.1841278076171875,-0.9627532958984376,-0.12725830078125,-0.0142359277233481,-0.0086329029873013,0.0048874332569539
1769239628372,-0.180023193359375,-0.969696044921875,-0.127166748046875,-0.0227055791765451,-0.0115373460575938,0.0070094401016831
1769239628382,-0.1768035888671875,-0.968841552734375,-0.1254119873046875,-0.0286609400063753,-0.005298891570419,0.0026109630707651
1769239628392,-0.1776580810546875,-0.9714202880859376,-0.1260986328125,-0.0307869408279657,-0.0018130800453945,0.0001033306471072
1769239628402,-0.1781158447265625,-0.9702606201171876,-0.1269989013671875,-0.0360669232904911,-0.0018535600975155,-0.0037009948864579
1769239628412,-0.1800384521484375,-0.9716339111328124,-0.1294403076171875,-0.0371273942291736,-0.0015832493081688,-0.0058983690105378
1769239628422,-0.1821746826171875,-0.9727935791015624,-0.1329345703125,-0.0388161055743694,-0.0035920715890824,-0.0046615973114967
1769239628432,-0.1770477294921875,-0.97662353515625,-0.1343841552734375,-0.0411133468151092,-0.0047934236936271,-0.0017355820164084
1769239628442,-0.17559814453125,-0.9782867431640624,-0.134490966796875,-0.039941556751728,-0.0026383937802165,0.0002135855174856
1769239628452,-0.1769561767578125,-0.9767913818359376,-0.136505126953125,-0.0406132079660892,0.0004636563535314,0.0009462211164645
1769239628463,-0.178009033203125,-0.976806640625,-0.1404876708984375,-0.032140627503395,0.0009643306257203,0.0018429075134918
1769239628473,-0.179840087890625,-0.9752655029296876,-0.1416015625,-0.0274342875927686,-0.0011688614031299,0.0014186658663675
1769239628482,-0.180938720703125,-0.9739837646484376,-0.1408843994140625,-0.019653595983982,-0.00037657096982,-8.016114588826895e-05
1769239628492,-0.183258056640625,-0.9724273681640624,-0.14013671875,-0.0127685256302356,0.0010487528052181,-0.0003624562232289
1769239628503,-0.179534912109375,-0.9739532470703124,-0.1424407958984375,-0.0037744981236755,0.0003251719754189,-0.0004332963144406
1769239628513,-0.1785430908203125,-0.97210693359375,-0.1411285400390625,0.0064539043232798,-9.321063407696784e-05,-0.0029270802624523
1769239628523,-0.17987060546875,-0.972747802734375,-0.14288330078125,0.0169891025871038,-0.0052765212021768,-0.0048357676714658
1769239628533,-0.1793975830078125,-0.9712371826171876,-0.141387939453125,0.0239892229437828,-0.0077780280262231,-0.0027507790364325
1769239628543,-0.1782073974609375,-0.9718780517578124,-0.139617919921875,0.0291890446096658,-0.0100430464372038,0.0017001620726659
1769239628553,-0.175140380859375,-0.97418212890625,-0.1387176513671875,0.0294124837964773,-0.011418835259974,0.0058419099077582
1769239628563,-0.1728515625,-0.972869873046875,-0.13543701171875,0.0319227799773216,-0.0112190982326865,0.0088992193341255
1769239628573,-0.1722564697265625,-0.97564697265625,-0.1329193115234375,0.0323643311858177,-0.0092006884515285,0.0071292822249233
1769239628583,-0.1750946044921875,-0.9744720458984376,-0.1288604736328125,0.0284758489578962,-0.0087335705757141,0.0087881656363606
1769239628593,-0.1781768798828125,-0.9744720458984376,-0.12542724609375,0.0214645452797412,-0.0028112328145653,0.0044943504035472
1769239628603,-0.177764892578125,-0.9753570556640624,-0.122039794921875,0.0143001098185777,-0.0020570256747305,0.0061207432299852
1769239628613,-0.1793975830078125,-0.973175048828125,-0.1230010986328125,0.008152469061315,-0.0010205233702436,0.0036770266015082
1769239628623,-0.1816253662109375,-0.971435546875,-0.1221771240234375,0.0010327738709747,-0.0033172334078699,0.0021816615480929
1769239628633,-0.1830902099609375,-0.9720306396484376,-0.1225433349609375,-0.0059098205529153,-0.0030708911363035,-0.0010753844399005
1769239628643,-0.18109130859375,-0.9710235595703124,-0.122589111328125,-0.0138787971809506,0.00121892883908,-0.0019038938917219
1769239628653,-0.180938720703125,-0.9718170166015624,-0.123016357421875,-0.0195787604898214,0.0005033374181948,-0.0025672873016446
1769239628663,-0.17919921875,-0.9706878662109376,-0.1243743896484375,-0.0259623583406209,0.0007632619817741,-0.0042898198589682
1769239628673,-0.1798858642578125,-0.9737091064453124,-0.124755859375,-0.0326783172786235,-0.000908670539502,-0.0023776702582836
1769239628684,-0.17919921875,-0.9741668701171876,-0.1251373291015625,-0.0368189997971057,0.0017568873008713,0.0016136092599481
1769239628694,-0.1763153076171875,-0.972808837890625,-0.1280975341796875,-0.04212561622262,0.0004644552827812,0.0005640574963763
1769239628703,-0.1770172119140625,-0.9726715087890624,-0.131103515625,-0.0445211306214332,-0.0009898969437927,0.0023952471092343
1769239628714,-0.177947998046875,-0.9707183837890624,-0.1306304931640625,-0.0506101809442043,-0.0003752393822651,0.0025835325941443
1769239628724,-0.17816162109375,-0.972320556640625,-0.131561279296875,-0.0499587729573249,0.0017379788914695,0.0048749162815511
1769239628734,-0.178466796875,-0.9736328125,-0.1328582763671875,-0.0521857067942619,0.0010695254895836,0.0002902845444623
1769239628744,-0.177337646484375,-0.973175048828125,-0.1363525390625,-0.0497494451701641,-0.0037063213530927,0.0013443636707961
1769239628754,-0.17962646484375,-0.975494384765625,-0.1370086669921875,-0.0473448783159256,-0.0022596921771764,0.0004615258076228
1769239628764,-0.1782989501953125,-0.97393798828125,-0.138427734375,-0.0433996729552745,-0.0037412086967378,0.0029372002463787
1769239628774,-0.1775665283203125,-0.976104736328125,-0.1424560546875,-0.0402065403759479,-0.0059175440110266,0.0053212619386613
1769239628784,-0.1781158447265625,-0.97265625,-0.141937255859375,-0.0299062337726354,-0.0033965955954045,0.0036099147982895
1769239628794,-0.1801300048828125,-0.97259521484375,-0.1443634033203125,-0.0173582173883914,-0.00154649768956,0.0054584150202572
1769239628804,-0.1796417236328125,-0.975616455078125,-0.148040771484375,-0.0082419505342841,-0.0060522998683154,0.0034719631075859
1769239628814,-0.1793670654296875,-0.975830078125,-0.1466827392578125,0.0014791196445003,-0.0050418963655829,0.0029020465444773
1769239628824,-0.1775360107421875,-0.9752349853515624,-0.143798828125,0.0096366479992866,-0.0021963089238852,0.0018120148451998
1769239628834,-0.18072509765625,-0.974029541015625,-0.142547607421875,0.0137781305238604,0.0007233145297504,-5.326322207110934e-05
1769239628844,-0.1801605224609375,-0.9714202880859376,-0.14019775390625,0.020961208269,0.0029771476984024,-0.0028405275661498
1769239628854,-0.179779052734375,-0.972381591796875,-0.139739990234375,0.0247887037694454,0.0006064017652533,-0.0010753844399005
1769239628864,-0.1803131103515625,-0.9687957763671876,-0.1403656005859375,0.0307621732354164,-0.0055984971113502,0.000541686953511
1769239628874,-0.1775970458984375,-0.969207763671875,-0.140472412109375,0.030756315216422,-0.012532303109765,0.0049558766186237
1769239628884,-0.175994873046875,-0.976593017578125,-0.1374359130859375,0.0200203135609626,-0.0199827626347541,0.0146985184401273
1769239628895,-0.172515869140625,-0.9874267578125,-0.1340484619140625,0.0162719134241342,-0.0153794884681701,0.0234568566083908
1769239628905,-0.172607421875,-0.9791259765625,-0.13372802734375,0.0088890986517071,-0.0117440074682235,0.0201137904077768
1769239628914,-0.178009033203125,-0.9838409423828124,-0.1280975341796875,0.0060906494036316,0.0061862566508352,0.0182176195085048
1769239628925,-0.1790618896484375,-0.9716033935546876,-0.127716064453125,0.0153909400105476,0.0287775862962007,0.0035659726709127
1769239628935,-0.1935882568359375,-0.9582977294921876,-0.121612548828125,0.0086922915652394,0.0285363029688596,-0.0041713090613484
1769239628945,-0.1903228759765625,-0.973846435546875,-0.1219024658203125,0.0038136467337608,0.0330255925655365,-0.0040352218784391
1769239628955,-0.1803741455078125,-0.9641876220703124,-0.12384033203125,0.0006378270918503,0.0329680703580379,-0.0098238689824938
1769239628965,-0.1823577880859375,-0.9611053466796876,-0.1254119873046875,0.0061574946157634,0.0222312696278095,-0.0140023678541183
1769239628975,-0.1830902099609375,-0.957427978515625,-0.1284027099609375,0.0120537336915731,0.011969044804573,-0.0184141602367162
1769239628985,-0.18768310546875,-0.951507568359375,-0.124298095703125,0.015631690621376,0.009263539686799,-0.026992468163371
1769239628995,-0.1921234130859375,-0.9495697021484376,-0.1260833740234375,0.0101013695821166,-0.0012229235144332,-0.0305632352828979
1769239629005,-0.187774658203125,-0.96441650390625,-0.12750244140625,-0.0016343819443136,-0.0188666321337223,-0.0246411636471748
1769239629015,-0.1761932373046875,-0.9807586669921876,-0.1314544677734375,-0.016683105379343,-0.032565664499998,-0.0086174570024013
1769239629025,-0.1675262451171875,-0.98651123046875,-0.1365203857421875,-0.029953371733427,-0.0300124939531087,0.0004130562883801
1769239629035,-0.1680450439453125,-0.9833526611328124,-0.1327056884765625,-0.0408009588718414,-0.0147597715258598,0.0025694177020341
1769239629045,-0.174591064453125,-0.9810028076171876,-0.1292877197265625,-0.0488993674516677,0.0023995081428438,0.003352120751515
1769239629055,-0.17755126953125,-0.97637939453125,-0.1317138671875,-0.0516173876821994,0.0151097103953361,0.000146473859786
1769239629065,-0.183990478515625,-0.9750518798828124,-0.1364593505859375,-0.0541897341609001,0.0215913113206625,-0.0048876996152102
1769239629075,-0.1869964599609375,-0.9739990234375,-0.1368865966796875,-0.0556416921317577,0.022544989362359,-0.0125520108267664
1769239629085,-0.18865966796875,-0.973724365234375,-0.1380462646484375,-0.0538805425167083,0.0213609486818313,-0.0155315557494759
1769239629096,-0.186309814453125,-0.972442626953125,-0.14019775390625,-0.0458348654210567,0.0143531067296862,-0.0148346060886979
1769239629107,-0.182891845703125,-0.9734954833984376,-0.1448516845703125,-0.0353281646966934,0.0031742216087877,-0.0121466778218746
1769239629115,-0.1813507080078125,-0.9758148193359376,-0.14776611328125,-0.0195601191371679,-0.0063308663666248,-0.0072797508910298
1769239629126,-0.177520751953125,-0.9759521484375,-0.14886474609375,-0.0040077911689877,-0.0148894675076007,-0.0033425334841012
1769239629136,-0.1744842529296875,-0.9777984619140624,-0.1492919921875,0.0098752677440643,-0.0191422682255506,-0.0006024070316925
1769239629146,-0.1732177734375,-0.97991943359375,-0.14581298828125,0.0186945926398038,-0.0168804470449686,0.003589941188693
1769239629156,-0.169921875,-0.981903076171875,-0.14166259765625,0.0264047086238861,-0.0111708957701921,0.0055787898600101
1769239629166,-0.1676788330078125,-0.979248046875,-0.139862060546875,0.0336583629250526,-0.0106342686340212,0.0079516666010022
1769239629176,-0.1681671142578125,-0.97802734375,-0.139892578125,0.0338397212326526,-0.0116089852526783,0.0128875691443681
1769239629186,-0.1670379638671875,-0.9770050048828124,-0.136688232421875,0.0293445736169815,-0.0135741317644715,0.016056464985013
1769239629196,-0.1722869873046875,-0.97991943359375,-0.132904052734375,0.0214227344840765,-0.0092776538804173,0.0143392579630017
1769239629206,-0.1769866943359375,-0.966400146484375,-0.12939453125,0.0168250519782304,-0.0050043459050357,0.0080802971497178
1769239629216,-0.1853179931640625,-0.96356201171875,-0.1264495849609375,0.011567173525691,-0.0062680160626769,0.005175853613764
1769239629226,-0.1840667724609375,-0.9636993408203124,-0.127960205078125,0.0050922301597893,-0.0102398544549942,0.0049505499191582
1769239629236,-0.1813507080078125,-0.9686126708984376,-0.12652587890625,-0.0025662221014499,-0.0127576068043708,0.0065822689794003
1769239629246,-0.1768341064453125,-0.969268798828125,-0.126129150390625,-0.0092893717810511,-0.0150926662608981,0.0043556001037359
1769239629256,-0.17901611328125,-0.9707794189453124,-0.126983642578125,-0.0210906378924846,-0.0168833751231431,0.0031308121979236
1769239629266,-0.1799774169921875,-0.9698486328125,-0.1260528564453125,-0.028662271797657,-0.0168628692626953,0.0034426683560013
1769239629276,-0.18145751953125,-0.9715576171875,-0.1291656494140625,-0.0362370982766151,-0.0159776341170072,0.0033228259999305
1769239629286,-0.179962158203125,-0.9740447998046876,-0.1326751708984375,-0.0405817814171314,-0.013194365426898,0.0036003275308758
1769239629296,-0.177642822265625,-0.9756011962890624,-0.1348724365234375,-0.0435128547251224,-0.0082550002261996,0.0032967270817607
1769239629306,-0.1780548095703125,-0.9761810302734376,-0.134979248046875,-0.0469866842031478,-0.0022359900176525,0.0031878037843853
1769239629316,-0.178558349609375,-0.9773101806640624,-0.13555908203125,-0.0440742522478103,-0.0001778991572791,-0.0008314388687722
1769239629326,-0.1812591552734375,-0.978515625,-0.139678955078125,-0.0404656678438186,-0.0006045375484973,0.0014165353495627
1769239629337,-0.18310546875,-0.974212646484375,-0.1419525146484375,-0.0346125699579715,-0.0013670006301254,-0.0013968279818072
1769239629347,-0.184844970703125,-0.974029541015625,-0.14410400390625,-0.025438779965043,-0.0033646377269178,0.0008090683259069
1769239629357,-0.182220458984375,-0.97174072265625,-0.144927978515625,-0.0169520862400531,-0.0088928276672959,-0.0020245350897312
1769239629367,-0.18145751953125,-0.9692840576171876,-0.14361572265625,-0.0095642106607556,-0.0094425035640597,0.0007339671719819
1769239629377,-0.1790771484375,-0.9710845947265624,-0.1436614990234375,-0.000318780366797,-0.0077263629063963,0.0006442186422646
1769239629387,-0.180633544921875,-0.971893310546875,-0.1436004638671875,0.00734180258587,-0.0067284763790667,-0.0036426717415452
1769239629397,-0.1832275390625,-0.974212646484375,-0.14068603515625,0.0120340259745717,-0.0040450752712786,-0.0048490837216377
1769239629407,-0.185516357421875,-0.973388671875,-0.140869140625,0.0184112321585416,-0.0071889371611177,-0.0104827350005507
1769239629417,-0.1831817626953125,-0.976043701171875,-0.1459808349609375,0.0260081645101308,-0.0185803417116403,0.000516653235536
1769239629427,-0.168182373046875,-0.9707183837890624,-0.1453094482421875,0.034518826752901,-0.0125440210103988,0.0031880701426416
1769239629437,-0.1619110107421875,-0.97979736328125,-0.144744873046875,0.0412875190377235,-0.0170615408569574,0.0133967651054263
1769239629447,-0.1718902587890625,-0.964813232421875,-0.1387939453125,0.0439304411411285,-0.0149254202842712,0.01312006264925
1769239629457,-0.182525634765625,-0.9709930419921876,-0.137420654296875,0.0455515049397945,-0.0180178824812173,0.0113187013193964
1769239629467,-0.183746337890625,-0.9716339111328124,-0.13232421875,0.0395684465765953,-0.0147256832569837,0.007105313707143
1769239629477,-0.186279296875,-0.9699859619140624,-0.1275634765625,0.0344384014606475,-0.0089780483394861,0.0079860212281346
1769239629487,-0.17901611328125,-0.9701080322265624,-0.1285400390625,0.0325350388884544,-0.0072139706462621,0.0102427834644913
1769239629497,-0.1750640869140625,-0.9701995849609376,-0.1283416748046875,0.0265463888645172,-0.0034306840971112,0.0081322286278009
1769239629507,-0.1809539794921875,-0.9709320068359376,-0.1256103515625,0.0202546715736389,-0.0025715483352541,0.0036639769095927
1769239629517,-0.1879425048828125,-0.96978759765625,-0.1225433349609375,0.0091889705508947,0.0002114549861289,-0.0031854070257395
1769239629527,-0.19073486328125,-0.972686767578125,-0.1195526123046875,-0.0048333709128201,-0.0003755057114176,-0.0095620797947049
1769239629537,-0.1923065185546875,-0.9732818603515624,-0.120391845703125,-0.0153352804481983,0.0022900521289557,-0.0114760939031839
1769239629548,-0.1847686767578125,-0.9742279052734376,-0.1244049072265625,-0.0194701049476861,0.0001781654718797,-0.0081063956022262
1769239629558,-0.1779632568359375,-0.97247314453125,-0.1320343017578125,-0.0235708393156528,-0.0049438923597335,-0.00215929094702
1769239629568,-0.1760711669921875,-0.9747161865234376,-0.13446044921875,-0.0254230685532093,-0.0078454064205288,0.0043939496390521
1769239629578,-0.1800994873046875,-0.9720916748046876,-0.1315765380859375,-0.0276638511568307,-0.0074446005746722,0.0014921691035851
1769239629588,-0.182373046875,-0.969451904296875,-0.1310272216796875,-0.0316617898643016,-0.0047801076434552,0.0017134778900071
1769239629598,-0.1803131103515625,-0.970550537109375,-0.1314239501953125,-0.0341846011579036,-0.0038951393216848,0.0022011026740074
1769239629608,-0.1760406494140625,-0.97296142578125,-0.1330718994140625,-0.0355555973947048,-0.00059042283101,0.0073439329862594
1769239629618,-0.1715087890625,-0.97698974609375,-0.1320953369140625,-0.0385593771934509,0.0054538873955607,0.0100209424272179
1769239629628,-0.1759033203125,-0.977081298828125,-0.1297149658203125,-0.0431519970297813,0.0127895651385188,0.011757057160139
1769239629638,-0.1804046630859375,-0.9754486083984376,-0.129425048828125,-0.0435014031827449,0.0147648314014077,0.0145504465326666
1769239629648,-0.181549072265625,-0.972900390625,-0.1337890625,-0.0411655455827713,0.0105176223441958,0.0136265959590673
1769239629658,-0.1826934814453125,-0.967803955078125,-0.1360931396484375,-0.0359537415206432,0.0069921296089887,0.0090808467939496
1769239629668,-0.1818695068359375,-0.968719482421875,-0.1402740478515625,-0.0292108822613954,0.0003901530872099,0.0124327009543776
1769239629678,-0.18072509765625,-0.9775848388671876,-0.14263916015625,-0.0314889512956142,-0.0075420723296701,0.0188645012676715
1769239629688,-0.1759490966796875,-0.9862823486328124,-0.1438751220703125,-0.0299294032156467,-0.0139839928597211,0.0265349373221397
1769239629698,-0.17462158203125,-0.984649658203125,-0.147918701171875,-0.0271661076694726,-0.0121112577617168,0.0261746123433113
1769239629708,-0.17864990234375,-0.9830169677734376,-0.1465911865234375,-0.0260241441428661,-0.0090725906193256,0.0220914538949728
1769239629718,-0.179840087890625,-0.9837493896484376,-0.1439666748046875,-0.008510397747159,0.0255604870617389,0.01592836715281
1769239629728,-0.1826629638671875,-0.964630126953125,-0.1378326416015625,0.0050514838658273,0.0332343876361846,0.0057124802842736
1769239629739,-0.19464111328125,-0.9640960693359376,-0.1378021240234375,0.0160929504781961,0.0303704217076301,-0.0015323829138651
1769239629748,-0.19097900390625,-0.9641876220703124,-0.1431427001953125,0.0307840108871459,0.0312271621078252,-0.0121053988113999
1769239629758,-0.191009521484375,-0.9539337158203124,-0.141021728515625,0.0392259657382965,0.017860222607851,-0.0193920731544494
1769239629769,-0.1873016357421875,-0.959503173828125,-0.1370697021484375,0.0462133027613163,0.0169688630849123,-0.0236922800540924
1769239629779,-0.1873626708984375,-0.9512481689453124,-0.13043212890625,0.0538975857198238,0.0158695112913846,-0.029822077602148
1769239629789,-0.192840576171875,-0.9479522705078124,-0.1284637451171875,0.0573146864771842,0.0144188869744539,-0.0337497070431709
1769239629799,-0.190521240234375,-0.9498748779296876,-0.1281280517578125,0.0480335727334022,0.0007350324303843,-0.0356607921421527
1769239629809,-0.183197021484375,-0.966949462890625,-0.1315155029296875,0.0315704420208931,-0.0184839349240064,-0.0222003776580095
1769239629819,-0.174102783203125,-0.978424072265625,-0.135406494140625,0.0166729856282472,-0.027204455807805,-0.0084944181144237
1769239629829,-0.1699676513671875,-0.9808197021484376,-0.1345367431640625,0.0024695491883903,-0.0232677720487117,0.0004926847759634
1769239629839,-0.1761474609375,-0.9811553955078124,-0.1291046142578125,-0.0134697360917925,-0.006270679179579,0.0048717204481363
1769239629849,-0.1795501708984375,-0.9783477783203124,-0.1261138916015625,-0.026020148769021,0.0087000150233507,0.0049076732248067
1769239629859,-0.179718017578125,-0.97802734375,-0.12823486328125,-0.0332921780645847,0.0204235166311264,0.0043950146064162
1769239629869,-0.181365966796875,-0.9792327880859376,-0.1318817138671875,-0.0377745442092418,0.0229990594089031,0.0022042985074222
1769239629879,-0.1827545166015625,-0.9759368896484376,-0.132965087890625,-0.0396350286900997,0.0217577591538429,-0.00509436102584
1769239629889,-0.1878814697265625,-0.97503662109375,-0.1339263916015625,-0.0387934669852256,0.0154191702604293,-0.0105354655534029
1769239629899,-0.190826416015625,-0.9738311767578124,-0.1352996826171875,-0.0353542603552341,0.0105274757370352,-0.0123517410829663
1769239629910,-0.188323974609375,-0.975006103515625,-0.138519287109375,-0.0298353936523199,0.0024764735717326,-0.0083564668893814
1769239629919,-0.1829833984375,-0.97784423828125,-0.1397247314453125,-0.0204884968698024,-0.0060805291868746,-0.0091293165460228
1769239629929,-0.17889404296875,-0.979400634765625,-0.1410369873046875,-0.0078725703060626,-0.0079972064122557,-0.0034221620298922
1769239629939,-0.1738128662109375,-0.980194091796875,-0.143829345703125,0.004381965380162,-0.0097799263894557,-0.0011350392596796
1769239629949,-0.170501708984375,-0.9810791015625,-0.1434173583984375,0.0122366929426789,-0.0060602892190217,0.0019899138715118
1769239629960,-0.1721954345703125,-0.9792022705078124,-0.1375579833984375,0.0201971475034952,-0.0063958475366234,0.0025728798937052
1769239629970,-0.173248291015625,-0.9757843017578124,-0.1380462646484375,0.0202743783593177,-0.0111698303371667,0.0065380604937672
1769239629980,-0.17547607421875,-0.9714813232421876,-0.137420654296875,0.0174365136772394,-0.0168407652527093,0.0074296868406236
1769239629990,-0.175872802734375,-0.9766082763671876,-0.1318817138671875,0.004153998568654,-0.0155792254954576,0.0100422473624348
1769239630000,-0.17413330078125,-0.9723052978515624,-0.12823486328125,0.0009310410823673,-0.0066216834820806,0.0078592542558908
1769239630010,-0.1812286376953125,-0.959869384765625,-0.1281280517578125,-0.0053383065387606,-0.0045595979318022,0.0056903762742877
1769239630020,-0.186065673828125,-0.964813232421875,-0.1281585693359375,-0.010471548885107,0.0022011026740074,0.0047769118100404
1769239630030,-0.181793212890625,-0.963714599609375,-0.128143310546875,-0.0179102905094623,-0.0016154735349118,0.0093503585085272
1769239630040,-0.1758270263671875,-0.970184326171875,-0.128997802734375,-0.0261447839438915,-0.0064637581817805,0.0110880713909864
1769239630050,-0.17718505859375,-0.9691162109375,-0.1302642822265625,-0.0334831252694129,-0.0054333810694515,0.0082896212115883
1769239630060,-0.183074951171875,-0.969696044921875,-0.1302337646484375,-0.0401732511818409,-0.0045979474671185,0.0045052696950733
1769239630070,-0.1851959228515625,-0.9707794189453124,-0.130279541015625,-0.0444148704409599,-0.0008101335843093,0.0011166634503751
1769239630080,-0.187347412109375,-0.972076416015625,-0.1320037841796875,-0.0506147071719169,0.0015709986910223,-0.0023955134674906
1769239630090,-0.185821533203125,-0.9754791259765624,-0.1363983154296875,-0.0562166683375835,0.0009227853151969,0.0008639294537715
1769239630100,-0.179107666015625,-0.9766387939453124,-0.1399078369140625,-0.0554075986146926,0.0019409117521718,-0.0011667308863252
1769239630110,-0.178436279296875,-0.975799560546875,-0.1449737548828125,-0.052848033607006,0.0021787320729345,-0.001686047296971
1769239630120,-0.1804351806640625,-0.975006103515625,-0.145599365234375,-0.0458322018384933,0.0029822078067809,0.0009672601008787
1769239630130,-0.1807098388671875,-0.9745941162109376,-0.1483001708984375,-0.0366496220231056,0.0051159323193132,-0.0018367822049185
1769239630142,-0.1816558837890625,-0.972686767578125,-0.1466064453125,-0.028162395581603,0.0074613783508539,-0.0010631339391693
1769239630151,-0.179718017578125,-0.9718017578125,-0.149169921875,-0.0159440785646438,0.0042290999554097,-0.0004617921367753
1769239630160,-0.1804962158203125,-0.970947265625,-0.1508636474609375,2.2370553779182956e-05,0.0010815097484737,-0.0004612595075741
1769239630171,-0.1828460693359375,-0.9698028564453124,-0.151519775390625,0.014954182319343,-0.0015954998089,-2.8762138754245825e-05
1769239630181,-0.18060302734375,-0.9683837890625,-0.149810791015625,0.027303259819746,-0.0024479776620864,0.0005592638044618
1769239630191,-0.180511474609375,-0.9669952392578124,-0.1445770263671875,0.0361217856407165,-0.001088966615498,0.0012934972764924
1769239630201,-0.181640625,-0.968536376953125,-0.14105224609375,0.040397223085165,-0.0067407269962131,0.00013102752564
1769239630211,-0.1809539794921875,-0.9731292724609376,-0.141815185546875,0.0416569001972675,-0.0075418059714138,0.003123088972643
1769239630221,-0.1795196533203125,-0.9736328125,-0.13848876953125,0.0431448072195053,-0.0084331659600138,0.0037752971984446
1769239630231,-0.18048095703125,-0.972381591796875,-0.1356353759765625,0.0394291654229164,-0.0098044276237487,0.0028365328907966
1769239630241,-0.1796112060546875,-0.97296142578125,-0.13177490234375,0.0314071923494339,-0.0016948357224464,0.0040892837569117
1769239630251,-0.1816558837890625,-0.9734039306640624,-0.127410888671875,0.0259144213050603,0.0051678642630577,0.003981692250818
1769239630261,-0.1829071044921875,-0.973968505859375,-0.1260833740234375,0.0176759324967861,0.0080941449850797,0.0037310887128114
1769239630271,-0.1819610595703125,-0.9736785888671876,-0.1274871826171875,0.0118353543803095,0.0097873834893107,0.0013701963471248
1769239630281,-0.184967041015625,-0.9718017578125,-0.1276397705078125,0.0029955236241221,0.0068144965916872,-0.0009837717516347
1769239630291,-0.185791015625,-0.971282958984375,-0.1266326904296875,-0.0039143143221735,0.0052983588539063,-0.0001153148768935
1769239630301,-0.1838531494140625,-0.969146728515625,-0.1267852783203125,-0.0136950397863984,0.0046386937610805,-0.0008828379213809
1769239630311,-0.183074951171875,-0.9689788818359376,-0.1235198974609375,-0.0232121124863624,0.0064565679058432,0.0005613943794742
1769239630321,-0.1842193603515625,-0.96807861328125,-0.1250457763671875,-0.0319435521960258,0.0044695832766592,-0.0009062737226486
1769239630331,-0.1854705810546875,-0.9680633544921876,-0.1305694580078125,-0.0363558754324913,-0.0016370450612157,0.0014357101172208
1769239630342,-0.1833953857421875,-0.9681396484375,-0.1337127685546875,-0.0415250733494758,-0.0046432213857769,0.002011751756072
1769239630351,-0.1817169189453125,-0.9710845947265624,-0.1345062255859375,-0.0470743030309677,0.0009201221400871,0.0018354506464675
1769239630361,-0.180419921875,-0.971099853515625,-0.1312103271484375,-0.0526395104825496,0.0102592958137393,0.0022919164039194
1769239630372,-0.1812591552734375,-0.9735870361328124,-0.130889892578125,-0.056183110922575,0.0141610922291874,0.0020229371730238
1769239630382,-0.1813812255859375,-0.973236083984375,-0.13507080078125,-0.0584862120449543,0.0119946114718914,0.0036195022985339
1769239630392,-0.1793365478515625,-0.9752655029296876,-0.139312744140625,-0.0571953803300857,0.0123006086796522,0.0074169035069644
1769239630402,-0.1798553466796875,-0.973968505859375,-0.139678955078125,-0.0546536594629287,0.0144836017861962,0.0010735202813521
1769239630412,-0.18450927734375,-0.96966552734375,-0.1421661376953125,-0.0464617758989334,0.0143147567287087,0.0007504787645302
1769239630422,-0.1873016357421875,-0.970123291015625,-0.1440582275390625,-0.0391370169818401,0.0145624307915568,-0.0030391993932425
1769239630432,-0.184478759765625,-0.9675750732421876,-0.1474609375,-0.0294625516980886,0.0110441287979483,-0.0014788532862439
1769239630442,-0.18060302734375,-0.9748992919921876,-0.152130126953125,-0.024680845439434,0.002683401107788,0.0040900828316807
1769239630452,-0.1767730712890625,-0.9847564697265624,-0.1509246826171875,-0.0280223134905099,-0.006745786871761,0.0150290168821811
1769239630462,-0.172271728515625,-0.989410400390625,-0.1504364013671875,-0.0260499771684408,-0.0041002025827765,0.0179222747683525
1769239630472,-0.175506591796875,-0.98101806640625,-0.147796630859375,-0.0278643872588872,-0.0008077367674559,0.0142953163012862
1769239630482,-0.17578125,-0.986663818359375,-0.14630126953125,-0.016472715884447,0.0206618681550025,0.0119613213464617
1769239630492,-0.1775360107421875,-0.9687042236328124,-0.149169921875,0.0098603535443544,0.0389234311878681,-0.0017933726776391
1769239630502,-0.19091796875,-0.961273193359375,-0.1452484130859375,0.0162058677524328,0.0317137204110622,-0.004586495924741
1769239630512,-0.1869964599609375,-0.9730377197265624,-0.14727783203125,0.0298553667962551,0.0362243168056011,-0.0087921600788831
1769239630522,-0.183197021484375,-0.9546356201171876,-0.1459197998046875,0.0357691831886768,0.0288665350526571,-0.0147954579442739
1769239630532,-0.186370849609375,-0.96343994140625,-0.14013671875,0.0441088713705539,0.0236280970275402,-0.0162777733057737
1769239630542,-0.1852264404296875,-0.9573822021484376,-0.1366119384765625,0.0541423298418521,0.0242081340402364,-0.0218158159404993
1769239630552,-0.1938018798828125,-0.94580078125,-0.1328125,0.0594609305262565,0.0241527408361434,-0.0304066408425569
1769239630562,-0.1930999755859375,-0.944549560546875,-0.1292572021484375,0.0583171024918556,0.0147962570190429,-0.0341553054749965
1769239630572,-0.187408447265625,-0.9581298828125,-0.1334228515625,0.0460742861032485,-0.0053236591629683,-0.0264462549239397
1769239630582,-0.17742919921875,-0.9709320068359376,-0.1375579833984375,0.0309041198343038,-0.0203521437942981,-0.014822888188064
1769239630593,-0.17181396484375,-0.978668212890625,-0.1392669677734375,0.0145030422136187,-0.0187667626887559,-0.004939364735037
1769239630603,-0.177001953125,-0.979278564453125,-0.13385009765625,-0.0006636597099713,-0.003506850451231,-0.003704457078129
1769239630613,-0.1856536865234375,-0.9787139892578124,-0.12982177734375,-0.0135536259040236,0.0097775291651487,-0.0044493433088064
1769239630623,-0.1854705810546875,-0.9777374267578124,-0.1312255859375,-0.0231945347040891,0.0211907718330621,-0.0007270429632626
1769239630633,-0.1817626953125,-0.978057861328125,-0.135284423828125,-0.0272438712418079,0.0259234756231308,-0.0026277410797774
1769239630643,-0.1850128173828125,-0.9796295166015624,-0.1407318115234375,-0.0278063304722309,0.0203087329864501,-0.0080097233876585
1769239630653,-0.1894989013671875,-0.9756927490234376,-0.1381988525390625,-0.030164560303092,0.0218355245888233,-0.0123237781226634
1769239630663,-0.1937713623046875,-0.975921630859375,-0.13543701171875,-0.0295419134199619,0.0190352108329534,-0.0153227634727954
1769239630673,-0.1905517578125,-0.9748687744140624,-0.13629150390625,-0.0213039573282003,0.0106220180168747,-0.0126542765647172
1769239630683,-0.187408447265625,-0.9766845703125,-0.139617919921875,-0.0201715808361768,-0.0006261091912165,-0.0103128245100378
1769239630693,-0.1798858642578125,-0.9784088134765624,-0.140716552734375,-0.0129536157473921,-0.0040261670947074,-0.0086518116295337
1769239630703,-0.174163818359375,-0.9789581298828124,-0.14044189453125,-0.0093578156083822,-0.0041995388455688,-0.0058885156176984
1769239630713,-0.173431396484375,-0.9781494140625,-0.13848876953125,-0.005593969952315,-0.0017137441318482,-0.0027867318131029
1769239630723,-0.1707305908203125,-0.978668212890625,-0.137786865234375,-0.0039776973426342,0.0024170849937945,0.0008652610122226
1769239630733,-0.168731689453125,-0.97503662109375,-0.1370849609375,-0.0045052696950733,0.0035880769137293,0.0039830235764384
1769239630743,-0.16900634765625,-0.972015380859375,-0.13897705078125,-0.0077980021014809,-0.0025840650778263,0.0059753344394266
1769239630753,-0.1716156005859375,-0.9721527099609376,-0.1373443603515625,-0.0150164999067783,-0.0037910097744315,0.010064885020256
1769239630763,-0.1760406494140625,-0.9754638671875,-0.1366424560546875,-0.0231244936585426,-0.0023371900897473,0.0109173627570271
1769239630773,-0.1744537353515625,-0.965118408203125,-0.1363525390625,-0.0259535703808069,0.0035097799263894,0.0049870354123413
1769239630783,-0.18310546875,-0.9571075439453124,-0.133636474609375,-0.030967503786087,0.0055465656332671,0.0015281217638403
1769239630793,-0.18487548828125,-0.9655303955078124,-0.133758544921875,-0.0367311164736747,0.0025635587517172,0.0039310920983552
1769239630804,-0.1801300048828125,-0.96881103515625,-0.137939453125,-0.0387524552643299,0.002412823960185,0.0041795647703111
1769239630814,-0.1788482666015625,-0.9701995849609376,-0.1410064697265625,-0.0373582914471626,0.0032916669733822,0.0019020296167582
1769239630824,-0.180419921875,-0.9704437255859376,-0.14166259765625,-0.0389564521610736,0.0008303736103698,-0.0033260218333452
1769239630834,-0.1839599609375,-0.97015380859375,-0.1420745849609375,-0.0363382995128631,-0.0012104066554456,-0.0073804184794425
1769239630844,-0.1832427978515625,-0.9717254638671876,-0.1446075439453125,-0.0352509319782257,-0.0011163970921188,-0.0066224825568497
1769239630854,-0.1803741455078125,-0.97442626953125,-0.1441192626953125,-0.0351460017263889,-0.0006996124284341,-0.0075175710953772
1769239630864,-0.179534912109375,-0.978485107421875,-0.1463165283203125,-0.0352101847529411,-0.0021467742044478,-0.0078501999378204
1769239630874,-0.1779022216796875,-0.9766693115234376,-0.1460418701171875,-0.0320356972515583,0.0017787253018468,-0.0045976811088621
1769239630884,-0.1772918701171875,-0.9758453369140624,-0.14776611328125,-0.0256339907646179,0.0052562812343239,-0.005092762876302
1769239630894,-0.1772003173828125,-0.974853515625,-0.1509552001953125,-0.019871974363923,0.0055465656332671,-0.0043665189296007
1769239630904,-0.1787567138671875,-0.9741363525390624,-0.1495819091796875,-0.0139576271176338,0.008757272735238,-0.0026144252624362
1769239630914,-0.1796112060546875,-0.97564697265625,-0.1483306884765625,-0.0062674833461642,0.0085756452754139,-0.0001997370854951
1769239630924,-0.1797943115234375,-0.973388671875,-0.1502532958984375,0.0028828717768192,0.0069692260585725,0.002323341788724
1769239630934,-0.1807861328125,-0.9711761474609376,-0.1508941650390625,0.0101831285282969,0.0050805122591555,0.0022181468084454
1769239630944,-0.1812591552734375,-0.9682159423828124,-0.14874267578125,0.0179387871176004,0.0020516992080956,0.0015427692560479
1769239630954,-0.181182861328125,-0.9664306640625,-0.1465911865234375,0.0212070178240537,0.0030767500866204,-0.0016309198690578
1769239630964,-0.1851348876953125,-0.967437744140625,-0.14141845703125,0.0211209971457719,0.0018591526895761,-0.002975549781695
1769239630975,-0.1832733154296875,-0.970367431640625,-0.1396484375,0.0175212025642395,0.0017901768442243,-0.0037649108562618
1769239630984,-0.1804351806640625,-0.972991943359375,-0.137176513671875,0.0146577721461653,0.0030266826506704,-0.0012181298807263
1769239630994,-0.1804351806640625,-0.9751129150390624,-0.1381683349609375,0.0135669410228729,0.0012218583142384,-0.0033814155030995
1769239631004,-0.1798095703125,-0.9751739501953124,-0.1389312744140625,0.0101042995229363,0.0012058793799951,-0.0012002866715192
1769239631015,-0.1790008544921875,-0.9725494384765624,-0.1380615234375,0.0070682959631085,0.0042067291215062,0.0015829829499125
1769239631025,-0.1772918701171875,-0.9708099365234376,-0.1349945068359375,0.0026133600622415,0.0039944751188158,0.0015725966077297
1769239631035,-0.17919921875,-0.970855712890625,-0.1366119384765625,-8.229167724493891e-05,0.0057492321357131,0.0024168186355382
1769239631045,-0.179779052734375,-0.970245361328125,-0.1348724365234375,-0.0068672271445393,0.0091689974069595,0.0049755838699638
1769239631055,-0.1782989501953125,-0.9695892333984376,-0.133758544921875,-0.0133205987513065,0.0082744415849447,0.0021097562275826
1769239631065,-0.18048095703125,-0.9700469970703124,-0.1336669921875,-0.0226051770150661,0.0106939235702157,0.0014764565275982
1769239631075,-0.1854095458984375,-0.969390869140625,-0.1313934326171875,-0.0285834409296512,0.0103312004357576,-0.002348375506699
1769239631085,-0.1861419677734375,-0.9693450927734376,-0.134124755859375,-0.0356056652963161,0.0104915229603648,-0.0016021577175706
1769239631095,-0.183563232421875,-0.9682464599609376,-0.1358184814453125,-0.0348091125488281,0.0084888255223631,-0.0034242924302816
1769239631105,-0.1826171875,-0.9696044921875,-0.1431427001953125,-0.0345481224358081,0.0014271880500018,-0.0007544735562987
1769239631115,-0.180023193359375,-0.9727783203125,-0.1455841064453125,-0.0328484922647476,0.0032906017731875,0.0009254484903067
1769239631125,-0.1798095703125,-0.97259521484375,-0.1429595947265625,-0.0352884829044342,0.0030642331112176,-0.0009936253773048
1769239631135,-0.1797637939453125,-0.970611572265625,-0.141693115234375,-0.0350898094475269,0.0098654134199023,-0.0025004418566823
1769239631145,-0.1797332763671875,-0.97259521484375,-0.1433258056640625,-0.0347688980400562,0.0127482861280441,-0.0021321268286556
1769239631155,-0.17572021484375,-0.9723358154296876,-0.145843505859375,-0.034166757017374,0.0114635769277811,0.0001262338337255
1769239631165,-0.17474365234375,-0.974700927734375,-0.1476287841796875,-0.0287181977182626,0.0083199813961982,0.0029462550301104
1769239631176,-0.1729278564453125,-0.9728851318359376,-0.1505889892578125,-0.0224547088146209,0.0067548416554927,0.0061098239384591
1769239631185,-0.176910400390625,-0.9709320068359376,-0.1484832763671875,-0.016335031017661,0.0077785607427358,0.0063343285582959
1769239631195,-0.1789703369140625,-0.9696807861328124,-0.145904541015625,-0.0127610685303807,0.0110611729323863,0.0012623383663594
1769239631205,-0.18194580078125,-0.969451904296875,-0.1444091796875,-0.0118159130215644,0.0105056380853056,0.0005944175645709
1769239631215,-0.185302734375,-0.9685821533203124,-0.14593505859375,-0.0124758444726467,0.0062171495519578,0.0034935346338897
1769239631225,-0.17926025390625,-0.9750823974609376,-0.1493988037109375,-0.0172817856073379,-0.0031870049424469,0.009875800460577
1769239631235,-0.170928955078125,-0.98931884765625,-0.1501617431640625,-0.0228107739239931,-0.0030173615086823,0.0237737726420164
1769239631246,-0.1684112548828125,-0.9808807373046876,-0.1508026123046875,-0.0230850782245397,0.0023909860756248,0.0191971305757761
1769239631256,-0.1812286376953125,-0.97991943359375,-0.148162841796875,-0.0242715179920196,0.0121709126979112,0.0150109073147177
1769239631266,-0.1791229248046875,-0.9772491455078124,-0.1483001708984375,-0.0018679412314668,0.0414382554590702,0.0006455502589233
1769239631276,-0.1928863525390625,-0.9517974853515624,-0.149444580078125,0.0115152420476078,0.044867604970932,-0.0138388499617576
1769239631286,-0.1971435546875,-0.9647369384765624,-0.14739990234375,0.0136244660243391,0.0381993167102336,-0.0114952689036726
1769239631296,-0.1810760498046875,-0.969329833984375,-0.15087890625,0.0208847746253013,0.0377990454435348,-0.013504889793694
1769239631306,-0.1813201904296875,-0.96124267578125,-0.149505615234375,0.030756315216422,0.0298843961209058,-0.0126356342807412
1769239631316,-0.177459716796875,-0.9599456787109376,-0.1475677490234375,0.0428763590753078,0.0245261155068874,-0.01500238571316
1769239631326,-0.183502197265625,-0.9513397216796876,-0.1442413330078125,0.0565628781914711,0.0198472086340188,-0.019677298143506
1769239631336,-0.1891937255859375,-0.946075439453125,-0.141204833984375,0.0633273050189018,0.0094851143658161,-0.023157250136137
1769239631346,-0.187347412109375,-0.95489501953125,-0.1407318115234375,0.0567069537937641,-0.0077205039560794,-0.0201766416430473
1769239631356,-0.1791839599609375,-0.97259521484375,-0.14093017578125,0.0418840683996677,-0.0217151492834091,-0.0104422541335225
1769239631366,-0.170166015625,-0.984771728515625,-0.1416015625,0.0246510170400142,-0.0241833664476871,-0.0005941512063145
1769239631376,-0.1700897216796875,-0.9853973388671876,-0.1389923095703125,0.0118609201163053,-0.0159217081964015,0.0025268071331083
1769239631386,-0.176666259765625,-0.9815521240234376,-0.1355743408203125,-0.0009598032338544,-0.0007278419216163,0.0007321029552258
1769239631396,-0.1825714111328125,-0.977813720703125,-0.1316680908203125,-0.0137408459559082,0.0163267757743597,-0.0027494474779814
1769239631407,-0.18255615234375,-0.9757843017578124,-0.1361236572265625,-0.0213745310902595,0.0196440089493989,-0.0022778017446398
1769239631416,-0.1835174560546875,-0.9770355224609376,-0.14178466796875,-0.0287701282650232,0.021092502400279,-0.0031457259319722
1769239631427,-0.1851654052734375,-0.9732208251953124,-0.141387939453125,-0.030866302549839,0.0188964586704969,-0.0063553676009178
1769239631437,-0.1909332275390625,-0.9681243896484376,-0.1404876708984375,-0.0308236926794052,0.0160825625061988,-0.0103503754362463
1769239631447,-0.1929779052734375,-0.9687347412109376,-0.1407623291015625,-0.0311193037778139,0.0114097809419035,-0.0145315388217568
1769239631457,-0.1885986328125,-0.971649169921875,-0.1436920166015625,-0.0243697874248027,0.0004527373821474,-0.0103639578446745
1769239631467,-0.180511474609375,-0.9759368896484376,-0.146484375,-0.0182064343243837,-0.006719421595335,-0.0102806007489562
1769239631477,-0.17852783203125,-0.9785003662109376,-0.1481170654296875,-0.0122239096090197,-0.0066941217519342,-0.0124686537310481
1769239631487,-0.177764892578125,-0.9796905517578124,-0.1450347900390625,-0.0088595375418663,-0.0027670243289321,-0.0131040839478373
1769239631497,-0.1747894287109375,-0.977813720703125,-0.1412506103515625,-0.0109434612095355,0.0061010355129837,-0.0175643470138311
1769239631507,-0.171234130859375,-0.9800262451171876,-0.1396026611328125,-0.0050799795426428,0.0081793665885925,-0.0092877745628356
1769239631517,-0.1620330810546875,-0.97711181640625,-0.146514892578125,-0.002274605911225,0.0085516767576336,-0.0015086807543411
1769239631527,-0.1591949462890625,-0.9694366455078124,-0.1488494873046875,0.0012029499048367,0.0042863576672971,0.009630256332457
1769239631537,-0.16204833984375,-0.9693756103515624,-0.1467742919921875,-0.0017140104901045,-0.0009408948244526,0.0172785893082618
1769239631547,-0.1687774658203125,-0.969818115234375,-0.1433258056640625,-0.0027542412281036,0.0031947279348969,0.0136689404025673
1769239631557,-0.1825714111328125,-0.95672607421875,-0.1387481689453125,-0.0122787700966,-0.0014410364674404,0.010389257222414
1769239631567,-0.1868743896484375,-0.963287353515625,-0.1344146728515625,-0.021473066881299,-0.0030197582673281,0.0126319052651524
1769239631577,-0.177978515625,-0.966949462890625,-0.1384429931640625,-0.0259602274745702,-0.0073649720288813,0.0142636243253946
1769239631587,-0.177215576171875,-0.969268798828125,-0.14105224609375,-0.0274856872856616,0.0001888181141111,0.0083133233711123
1769239631597,-0.1806793212890625,-0.9671173095703124,-0.138031005859375,-0.0308585800230503,0.006728742737323,-0.0016168050933629
1769239631607,-0.187744140625,-0.9700164794921876,-0.1365203857421875,-0.0371143445372581,0.0060142166912555,-0.0077801588922739
1769239631617,-0.188446044921875,-0.9723663330078124,-0.1377716064453125,-0.0420342683792114,0.0046221823431551,-0.0142465801909565
1769239631627,-0.1852569580078125,-0.974822998046875,-0.1429595947265625,-0.0451341867446899,0.0011334413429722,-0.0138851888477802
1769239631637,-0.180755615234375,-0.97625732421875,-0.1457366943359375,-0.0451200753450393,0.0031917984597384,-0.0099783316254615
1769239631648,-0.1767425537109375,-0.9750823974609376,-0.1477508544921875,-0.0475768409669399,0.0014522217679768,-0.0062744072638452
1769239631658,-0.1753692626953125,-0.9727783203125,-0.14947509765625,-0.0467262268066406,-6.657902849838138e-05,-0.0037851508241146
1769239631668,-0.1792755126953125,-0.9734954833984376,-0.1500091552734375,-0.047486025840044,0.0008548747282475,-0.0039183087646961
1769239631678,-0.184783935546875,-0.97235107421875,-0.1492156982421875,-0.0431916788220405,0.0016397082945331,-0.0048879659734666
1769239631688,-0.18359375,-0.97308349609375,-0.1513214111328125,-0.0399247780442237,0.0058751995675265,-0.0030719563364982
1769239631698,-0.17791748046875,-0.9708404541015624,-0.153564453125,-0.0340280085802078,0.0038962047547101,-0.0001209075126098
1769239631708,-0.1741485595703125,-0.972076416015625,-0.1557464599609375,-0.0251405071467161,0.0037081853952258,0.0027249464765191
1769239631718,-0.1721649169921875,-0.9708251953125,-0.1557159423828125,-0.016840498894453,0.0037848844658583,0.0043324301950633
1769239631728,-0.1768035888671875,-0.9704742431640624,-0.15386962890625,-0.0092832464724779,0.005363340023905,0.0007169229793362
1769239631738,-0.1810760498046875,-0.96728515625,-0.1532440185546875,-0.0069276806898415,0.0054325824603438,-0.0002266350056743
1769239631748,-0.180999755859375,-0.96990966796875,-0.1537628173828125,0.0006482133758254,0.0010194580536335,0.0004122573300264
1769239631758,-0.178619384765625,-0.972198486328125,-0.1543426513671875,0.0076589849777519,-0.0020114856306463,-0.0017848504940047
1769239631768,-0.1768035888671875,-0.9718017578125,-0.1541290283203125,0.0144215496256947,-0.0018471685471013,-0.0024495755787938
1769239631778,-0.1748199462890625,-0.9743499755859376,-0.1515350341796875,0.016515327617526,-0.0013318468118086,0.0005850964807905
1769239631788,-0.17608642578125,-0.97259521484375,-0.1518402099609375,0.0237788334488868,-0.0010239854454994,0.0003573962021619
1769239631798,-0.1753387451171875,-0.9727783203125,-0.152069091796875,0.0281538739800453,-0.0032282839529216,0.0052578789182007
1769239631808,-0.1758270263671875,-0.9713592529296876,-0.1482391357421875,0.0279099289327859,-0.0041196439415216,0.00394201092422
1769239631818,-0.179473876953125,-0.969268798828125,-0.144317626953125,0.0259330626577138,-0.0007014766451902,0.0042477417737245
1769239631828,-0.180145263671875,-0.9677581787109376,-0.1423187255859375,0.0207119360566139,0.0031515848822891,0.0041555967181921
1769239631838,-0.1803131103515625,-0.968170166015625,-0.1411590576171875,0.015793077647686,0.0006042712484486,0.000801345158834
1769239631848,-0.181793212890625,-0.9657135009765624,-0.1400146484375,0.0124750453978776,-0.0010452907299622,-0.0001789644302334
1769239631859,-0.179718017578125,-0.9662017822265624,-0.1414337158203125,0.0033321471419185,0.0026178872212767,-0.0066515109501779
1769239631869,-0.1806488037109375,-0.969512939453125,-0.1386871337890625,-0.0045225801877677,0.0071359402500092,-0.0043087285012006
1769239631879,-0.1795806884765625,-0.970916748046875,-0.1375579833984375,-0.0118015315383672,0.0085072014480829,-0.0029089709278196
1769239631889,-0.1772918701171875,-0.9733428955078124,-0.140472412109375,-0.0184304062277078,0.0082454131916165,-0.0043798345141112
1769239631899,-0.1783294677734375,-0.97149658203125,-0.1407470703125,-0.0251831170171499,0.0114566525444388,-0.0024296017363667
1769239631909,-0.17913818359375,-0.96990966796875,-0.1440887451171875,-0.0293168760836124,0.0075061195529997,0.001251153065823
1769239631919,-0.1789703369140625,-0.9700164794921876,-0.146697998046875,-0.0321866981685161,0.0045955507084727,-0.0003832288784906
1769239631929,-0.17926025390625,-0.9710540771484376,-0.1445465087890625,-0.0343268141150474,0.0074629760347306,-0.0034999263007193
1769239631939,-0.1807098388671875,-0.97125244140625,-0.144989013671875,-0.0368147380650043,0.0099719399586319,-0.0024578312877565
1769239631949,-0.1809539794921875,-0.9722900390625,-0.1489105224609375,-0.0311475321650505,0.0081487400457263,-0.0042139198631048
1769239631959,-0.179901123046875,-0.9716644287109376,-0.15484619140625,-0.0219798665493726,0.0023915185593068,-0.0070789484307169
1769239631969,-0.1791534423828125,-0.9722137451171876,-0.156219482421875,-0.0161419510841369,-0.0005169195355847,-0.0069311428815126
1769239631979,-0.1787567138671875,-0.972381591796875,-0.15460205078125,-0.0083388900384306,-0.000982972793281,-0.0029470541048794
1769239631989,-0.17681884765625,-0.97198486328125,-0.155120849609375,-0.002951847622171,0.0038197718095034,-0.0054626758210361
1769239631999,-0.177337646484375,-0.970703125,-0.151611328125,0.0005885586142539,0.0066824038513004,-0.0052229915745556
1769239632009,-0.180328369140625,-0.9733428955078124,-0.1521453857421875,0.0087218526750803,0.0076792249456048,-0.005722067784518
1769239632019,-0.1778411865234375,-0.9716644287109376,-0.1524810791015625,0.0141262048855423,0.0067583038471639,-0.0049596047028899
1769239632029,-0.1768646240234375,-0.9702606201171876,-0.1544647216796875,0.021198496222496,-0.0003557983145583,0.0008937568636611
1769239632039,-0.1739959716796875,-0.972625732421875,-0.15313720703125,0.0171544849872589,-0.0058134142309427,0.0107802096754312
1769239632050,-0.1708221435546875,-0.9840087890625,-0.1483001708984375,0.0092510227113962,-0.0076102488674223,0.0219186153262853
1769239632059,-0.167633056640625,-0.980499267578125,-0.1473846435546875,0.0098180100321769,-0.0018668759148567,0.0178556963801383
1769239632069,-0.176239013671875,-0.9766387939453124,-0.1479949951171875,0.004824049770832,0.0015813850332051,0.0111671667546033
1769239632080,-0.177001953125,-0.9783172607421876,-0.1419525146484375,0.0155930742621421,0.0323249176144599,-0.0013374395202845
1769239632090,-0.18695068359375,-0.949798583984375,-0.1435394287109375,0.0221116933971643,0.03633963316679,-0.0164000112563371
1769239632100,-0.1956329345703125,-0.9663238525390624,-0.141021728515625,0.0139435119926929,0.0280667878687381,-0.0101016359403729
1769239632110,-0.1781768798828125,-0.9747161865234376,-0.1412200927734375,0.0113040534779429,0.0321928225457668,-0.0067258132621645
1769239632120,-0.17474365234375,-0.96514892578125,-0.1436309814453125,0.0106278769671916,0.0289943665266037,-0.0070608388632535
1769239632130,-0.1736297607421875,-0.9606170654296876,-0.1402587890625,0.0183507781475782,0.0263732839375734,-0.0125482827425003
1769239632140,-0.1832275390625,-0.948516845703125,-0.141082763671875,0.0244323723018169,0.0247458256781101,-0.0205963551998138
1769239632150,-0.191375732421875,-0.9464569091796876,-0.1395416259765625,0.0255136154592037,0.0142479119822382,-0.0244488846510648
1769239632160,-0.1884613037109375,-0.9573516845703124,-0.140777587890625,0.0206384323537349,-0.0062544336542487,-0.0213865153491497
1769239632170,-0.18084716796875,-0.973541259765625,-0.146636962890625,0.0088403634727001,-0.0236563272774219,-0.0119770346209406
1769239632180,-0.1729888916015625,-0.980804443359375,-0.1503753662109375,-0.0045350971631705,-0.0281964838504791,-0.0030826090369373
1769239632190,-0.171905517578125,-0.9809112548828124,-0.147705078125,-0.0133464317768812,-0.0200999416410923,-0.0018085526535287
1769239632200,-0.1778411865234375,-0.98077392578125,-0.143890380859375,-0.0249532870948314,-0.0051585431210696,-0.0052126049995422
1769239632210,-0.18316650390625,-0.97918701171875,-0.140533447265625,-0.0333220027387142,0.0096036251634359,-0.0044852960854768
1769239632220,-0.1848602294921875,-0.9781951904296876,-0.141876220703125,-0.0368970297276973,0.015247662551701,-0.0109200254082679
1769239632230,-0.184844970703125,-0.9762115478515624,-0.14898681640625,-0.0377849303185939,0.0133853135630488,-0.0156607180833816
1769239632240,-0.1862640380859375,-0.9703521728515624,-0.1527862548828125,-0.0296127535402774,0.0116119151934981,-0.0193872805684804
1769239632250,-0.185638427734375,-0.9648895263671876,-0.1533203125,-0.0221998449414968,0.0071694958023726,-0.01814891025424
1769239632260,-0.1836700439453125,-0.9646453857421876,-0.15228271484375,-0.0119213741272687,0.0013270531781017,-0.0132204638794064
1769239632270,-0.1788177490234375,-0.971466064453125,-0.1523284912109375,-0.0043273703195154,-0.0040575922466814,-0.0094875115901231
1769239632281,-0.174835205078125,-0.97491455078125,-0.1523284912109375,0.0063854614272713,-0.0094912396743893,-0.0056064864620566
1769239632291,-0.1709747314453125,-0.977142333984375,-0.1499481201171875,0.0111602423712611,-0.0104286726564168,-0.0031393342651426
1769239632301,-0.1674957275390625,-0.979034423828125,-0.1472015380859375,0.0157707072794437,-0.0073396717198193,0.0007163903210312
1769239632311,-0.1668243408203125,-0.9803314208984376,-0.1421966552734375,0.0167699251323938,-0.0026865969412028,0.0043036681599915
1769239632321,-0.1632080078125,-0.97943115234375,-0.140411376953125,0.0155528606846928,0.0014314490836113,0.0078291613608598
1769239632331,-0.1649627685546875,-0.9775848388671876,-0.142333984375,0.0131022194400429,0.0031739552505314,0.0090025495737791
1769239632341,-0.1707000732421875,-0.9740142822265624,-0.1439361572265625,0.0120777022093534,-0.0022354573011398,0.0126084694638848
1769239632351,-0.173583984375,-0.97406005859375,-0.143280029296875,-0.0006215817993506,-0.0028149613644927,0.0157019980251789
1769239632361,-0.173492431640625,-0.9760284423828124,-0.139312744140625,-0.0033587787766009,0.0021648835390806,0.0106113655492663
1769239632371,-0.178497314453125,-0.963623046875,-0.140625,-0.0121687818318605,-0.0019563580863177,0.0069346050731837
1769239632381,-0.1832275390625,-0.967559814453125,-0.1395263671875,-0.0200187154114246,-0.0082629900425672,0.0075306207872927
1769239632391,-0.1796875,-0.9700927734375,-0.1387176513671875,-0.0289019551128149,-0.0113112442195415,0.0087466202676296
1769239632401,-0.1785888671875,-0.9687042236328124,-0.1392059326171875,-0.035574771463871,-0.005086104851216,0.0051958272233605
1769239632411,-0.1795806884765625,-0.9655914306640624,-0.1402740478515625,-0.0419730171561241,-0.0050371028482913,0.0015246596885845
1769239632421,-0.17938232421875,-0.968292236328125,-0.1434173583984375,-0.0458124950528144,-0.007693872321397,-0.0023289343807846
1769239632431,-0.18017578125,-0.96722412109375,-0.144683837890625,-0.04856513813138,-0.0093905720859766,-0.0013017531018704
1769239632443,-0.1772918701171875,-0.9671783447265624,-0.1483306884765625,-0.0522858425974845,-0.0078030619770288,-0.0004655205411836
1769239632451,-0.1773529052734375,-0.9724884033203124,-0.151214599609375,-0.0515279062092304,-0.0113498596474528,0.0019507654942572
1769239632461,-0.178466796875,-0.97161865234375,-0.1525421142578125,-0.052497562021017,-0.0108992531895637,0.0023307986557483
1769239632471,-0.177154541015625,-0.97509765625,-0.1519775390625,-0.0522682629525661,-0.0047124633565545,0.0055311191827058
1769239632481,-0.17388916015625,-0.97491455078125,-0.151214599609375,-0.0484074801206588,-0.0014879080699756,0.007088269572705
1769239632492,-0.1748046875,-0.971923828125,-0.1556396484375,-0.0426545180380344,-0.0019821908790618,0.0086254458874464
1769239632502,-0.1816558837890625,-0.972869873046875,-0.158050537109375,-0.0347665026783943,-0.0028626318089663,0.0027113643009215
1769239632512,-0.1856536865234375,-0.9729461669921876,-0.15838623046875,-0.0267615728080272,-0.0017110810149461,0.0007917577750049
1769239632522,-0.1829071044921875,-0.97369384765625,-0.160186767578125,-0.0130827790126204,-0.0009731190511956,0.0017558221006765
1769239632532,-0.1775970458984375,-0.9703826904296876,-0.16412353515625,0.0044277715496718,-0.0039513320662081,0.0028855351265519
1769239632542,-0.1774444580078125,-0.970947265625,-0.16351318359375,0.0194770283997058,-0.0055079497396945,-0.0003320961841382
1769239632552,-0.1818695068359375,-0.96844482421875,-0.1614227294921875,0.0290023572742939,-0.006738063879311,-0.0013318468118086
1769239632562,-0.1803741455078125,-0.970855712890625,-0.1580352783203125,0.0358296371996402,-0.0116385463625192,-0.0010298443958163
1769239632572,-0.1780853271484375,-0.9703826904296876,-0.1522369384765625,0.0393109209835529,-0.0101554319262504,-0.0016234630020335
1769239632582,-0.1771087646484375,-0.973358154296875,-0.1505584716796875,0.0403250530362129,-0.011512579396367,0.0003549993562046
1769239632592,-0.1759185791015625,-0.9738616943359376,-0.1508636474609375,0.0393940098583698,-0.0118260327726602,0.0008924252470023
1769239632602,-0.1743621826171875,-0.971343994140625,-0.146942138671875,0.0384664312005043,-0.0113365435972809,0.0049918289296329
1769239632612,-0.1737060546875,-0.970062255859375,-0.144256591796875,0.0375303328037261,-0.010301106609404,0.0087026776745915
1769239632622,-0.1736907958984375,-0.971893310546875,-0.1407012939453125,0.0291094165295362,-0.0096675409004092,0.0107509149238467
1769239632632,-0.1793365478515625,-0.97186279296875,-0.1342926025390625,0.0202557370066642,-0.009131446480751,0.007358846720308
1769239632642,-0.182830810546875,-0.970977783203125,-0.13372802734375,0.0066981161944568,-0.0072222263552248,0.0084387585520744
1769239632652,-0.1818695068359375,-0.9705810546875,-0.1319427490234375,-0.008143413811922,-0.0028322718571871,0.0061670821160078
1769239632662,-0.1807403564453125,-0.9696197509765624,-0.13250732421875,-0.0204911604523658,-0.001170192961581,0.0058408449403941
1769239632672,-0.181549072265625,-0.9679718017578124,-0.1323089599609375,-0.0337603613734245,0.002437058603391,0.0026064356788992
1769239632683,-0.1830291748046875,-0.968017578125,-0.134918212890625,-0.0424555800855159,0.0030317425262182,-0.0002495381922926
1769239632693,-0.182708740234375,-0.967437744140625,-0.1381988525390625,-0.0493102930486202,0.0054291202686727,0.0009291769238188
1769239632703,-0.182159423828125,-0.968780517578125,-0.141357421875,-0.0561551488935947,0.0045508095063269,-0.0018756643403321
1769239632713,-0.1823272705078125,-0.9715118408203124,-0.1447906494140625,-0.0600481554865837,0.0019281286513432,0.0005427522119134
1769239632722,-0.1824188232421875,-0.9691619873046876,-0.14715576171875,-0.0621557831764221,-0.000786431482993,-0.0009800433181226
1769239632733,-0.18218994140625,-0.9717864990234376,-0.149993896484375,-0.0625973343849182,-0.0054951664060354,0.0002330265997443
1769239632743,-0.180023193359375,-0.97259521484375,-0.1542205810546875,-0.0576217509806156,-0.0069002504460513,0.0014610101934522
1769239632753,-0.176849365234375,-0.97296142578125,-0.1579742431640625,-0.051105260848999,-0.009319731965661,0.0046562706120312
1769239632763,-0.1739044189453125,-0.9734344482421876,-0.1600494384765625,-0.0442332401871681,-0.007096791639924,0.0055785235017538
1769239632773,-0.174835205078125,-0.972686767578125,-0.1591033935546875,-0.0343244187533855,-0.0049367016181349,0.0050371028482913
1769239632783,-0.1753692626953125,-0.97149658203125,-0.1604156494140625,-0.0260877925902605,-0.0054821171797811,0.0060770674608647
1769239632793,-0.1779022216796875,-0.973052978515625,-0.1584625244140625,-0.0179257374256849,-0.0062949135899543,0.0060198092833161
1769239632803,-0.1788787841796875,-0.972076416015625,-0.1581268310546875,-0.0112233599647879,-0.0054821171797811,0.0025363946333527
1769239632813,-0.176422119140625,-0.9718780517578124,-0.1592559814453125,-0.0029142971616238,-0.0033055155072361,0.0025028388481587
1769239632823,-0.177001953125,-0.9721527099609376,-0.15777587890625,0.0054365769028663,-0.0013169331941753,0.0022346584592014
1769239632833,-0.176666259765625,-0.972686767578125,-0.15728759765625,0.0123051358386874,0.0012468920322135,0.0013606089632958
1769239632843,-0.180816650390625,-0.9696197509765624,-0.154876708984375,0.0168884359300136,0.0037350833881646,0.0013731258222833
1769239632853,-0.1795654296875,-0.967620849609375,-0.1563873291015625,0.0208959598094224,-0.0024210796691477,0.0030613036360591
1769239632863,-0.176422119140625,-0.9735870361328124,-0.1589508056640625,0.017593640834093,-0.0147981205955147,0.0114529244601726
1769239632873,-0.1702423095703125,-0.982177734375,-0.157684326171875,0.0174961686134338,-0.0178024321794509,0.0228672325611114
1769239632883,-0.169586181640625,-0.9754180908203124,-0.15557861328125,0.0109591744840145,-0.0132963638752698,0.0217961091548204
1769239632894,-0.177581787109375,-0.9788970947265624,-0.1503143310546875,0.0067660268396139,-0.0027630296535789,0.0213534925132989
1769239632904,-0.1753692626953125,-0.974273681640625,-0.1490478515625,0.0196759663522243,0.0230352785438299,0.0106630306690931
1769239632914,-0.1866302490234375,-0.9568634033203124,-0.1442413330078125,0.0201830323785543,0.0297632217407226,0.0022855247370898
1769239632924,-0.1919708251953125,-0.9656829833984376,-0.1429901123046875,0.0196032617241144,0.0312348846346139,-0.0014756575692445
1769239632934,-0.184967041015625,-0.96209716796875,-0.1463165283203125,0.0215303264558315,0.0362637303769588,-0.0157829578965902
1769239632944,-0.1907958984375,-0.9574432373046876,-0.142974853515625,0.0222147572785615,0.0263431910425424,-0.019471701234579
1769239632954,-0.1820220947265625,-0.9630279541015624,-0.146453857421875,0.0315842926502227,0.0172737948596477,-0.0208648014813661
1769239632964,-0.1876373291015625,-0.948699951171875,-0.1467742919921875,0.0444303154945373,0.0150697631761431,-0.0290454998612403
1769239632974,-0.1961669921875,-0.9430999755859376,-0.1480712890625,0.0526115447282791,0.0067436564713716,-0.0384222231805324
1769239632984,-0.1931304931640625,-0.9522857666015624,-0.1474151611328125,0.0463358052074909,-0.0129693280905485,-0.0355521366000175
1769239632994,-0.1826324462890625,-0.9716949462890624,-0.148193359375,0.031349666416645,-0.0301456525921821,-0.0192139074206352
1769239633004,-0.170684814453125,-0.9828948974609376,-0.148529052734375,0.0143115613609552,-0.0317387543618679,-0.0075764269568026
1769239633014,-0.16705322265625,-0.984588623046875,-0.1467437744140625,0.002315352205187,-0.0188389346003532,-0.0034208304714411
1769239633024,-0.175689697265625,-0.98162841796875,-0.1434173583984375,-0.0081024011597037,-0.0052626724354922,-0.0029129656031727
1769239633034,-0.1807708740234375,-0.9798431396484376,-0.1424102783203125,-0.0185766145586967,0.0065503111109137,0.0014487595763057
1769239633044,-0.177764892578125,-0.9716796875,-0.14361572265625,-0.0223199520260095,0.0163528751581907,2.50337143370416e-05
1769239633054,-0.17657470703125,-0.97430419921875,-0.144622802734375,-0.0246241204440593,0.0186431929469108,-0.0025097629986703
1769239633064,-0.18365478515625,-0.97198486328125,-0.1451873779296875,-0.0257216077297925,0.015434349887073,-0.0084273070096969
1769239633074,-0.18756103515625,-0.96954345703125,-0.1457672119140625,-0.0304708238691091,0.0090624708682298,-0.0077604511752724
1769239633085,-0.187286376953125,-0.970672607421875,-0.1421356201171875,-0.0330210663378238,0.0053004892542958,-0.0088856369256973
1769239633094,-0.181915283203125,-0.972930908203125,-0.1436767578125,-0.0322367660701274,-0.0009267800487577,-0.0065577677451074
1769239633104,-0.178802490234375,-0.9746246337890624,-0.145263671875,-0.0283160600811243,-0.0018639464396983,-0.0045899581164121
1769239633115,-0.1759490966796875,-0.977386474609375,-0.1478729248046875,-0.0232448689639568,-0.0099003016948699,0.0005347627447918
1769239633125,-0.170654296875,-0.97967529296875,-0.1493682861328125,-0.0182823352515697,-0.0071274181827902,0.008356999605894
1769239633135,-0.1650390625,-0.9810333251953124,-0.1495819091796875,-0.0161360930651426,-0.0053468286059796,0.0113432016223669
1769239633145,-0.1658172607421875,-0.9773406982421876,-0.1472320556640625,-0.0163779072463512,-0.0037891454994678,0.0155603177845478
1769239633155,-0.167572021484375,-0.9749298095703124,-0.1484527587890625,-0.0209652036428451,-0.0053335125558078,0.016359532251954
1769239633165,-0.170440673828125,-0.9691619873046876,-0.145904541015625,-0.0287128705531358,-0.0087388968095183,0.0165246482938528
1769239633176,-0.1750030517578125,-0.972198486328125,-0.1469573974609375,-0.0387966632843017,-0.009948237799108,0.0209154020994901
1769239633185,-0.1735687255859375,-0.96630859375,-0.1481781005859375,-0.0397506095468997,-0.0058546932414174,0.0169957615435123
1769239633195,-0.1822662353515625,-0.9590301513671876,-0.1476593017578125,-0.0396020039916038,-0.0076880133710801,0.0153310196474194
1769239633205,-0.185150146484375,-0.961090087890625,-0.1471710205078125,-0.0423626378178596,-0.008527441881597,0.0132436333224177
1769239633215,-0.1820831298828125,-0.96630859375,-0.149993896484375,-0.0425791516900062,-0.0107961883768439,0.010758638381958
1769239633225,-0.1808624267578125,-0.96826171875,-0.1534881591796875,-0.0417913906276226,-0.0118148475885391,0.009116000495851
1769239633235,-0.18023681640625,-0.9714202880859376,-0.1561737060546875,-0.0395921505987644,-0.0130739901214838,0.0062618907541036
1769239633245,-0.18084716796875,-0.972412109375,-0.15643310546875,-0.0369191356003284,-0.0118854213505983,-7.323692989302799e-05
1769239633255,-0.183074951171875,-0.969482421875,-0.1567535400390625,-0.0336993746459484,-0.0111570470035076,-0.0026399914640933
1769239633265,-0.183929443359375,-0.9705963134765624,-0.1598968505859375,-0.0291709341108798,-0.0104947192594408,-0.0030397321097552
1769239633275,-0.1823272705078125,-0.9731903076171876,-0.1628875732421875,-0.02136867120862,-0.0080829598009586,-0.0039622508920729
1769239633285,-0.18011474609375,-0.97381591796875,-0.16168212890625,-0.0178911164402961,-0.0096483658999204,-0.0001909486454678
1769239633295,-0.178863525390625,-0.97222900390625,-0.15972900390625,-0.0112228272482752,-0.0079330243170261,0.0018114821286872
1769239633305,-0.1781158447265625,-0.9711761474609376,-0.1642608642578125,-7.057376933516935e-05,-0.0090827103704214,0.006581203546375
1769239633315,-0.17791748046875,-0.96978759765625,-0.16448974609375,0.0076848175376653,-0.0061734737828373,0.0057913102209568
1769239633325,-0.1787872314453125,-0.9719085693359376,-0.160430908203125,0.0181510411202907,-0.008315454237163,0.0073455306701362
1769239633336,-0.1826629638671875,-0.97210693359375,-0.159393310546875,0.0246757846325635,-0.0083902888000011,0.0070512513630092
1769239633346,-0.182769775390625,-0.9694671630859376,-0.1572723388671875,0.0281480140984058,-0.0114036556333303,0.0051449607126414
1769239633356,-0.1844635009765625,-0.970672607421875,-0.1541595458984375,0.0288084782660007,-0.0091615403071045,0.0038493329193443
1769239633366,-0.1823577880859375,-0.9691619873046876,-0.1514129638671875,0.0304500516504049,-0.0065958509221673,0.0046634613536298
1769239633376,-0.183685302734375,-0.968048095703125,-0.1500701904296875,0.0308942664414644,-0.004938299767673,0.0028360001742839
1769239633386,-0.1829986572265625,-0.9682159423828124,-0.14910888671875,0.0335033647716045,-0.0055684032849967,0.0035204326268285
1769239633396,-0.182098388671875,-0.9702301025390624,-0.14996337890625,0.0313848219811916,-0.0089359702542424,0.0026234800461679
1769239633406,-0.1805877685546875,-0.9729156494140624,-0.1473236083984375,0.0304785463958978,-0.0094600804150104,0.0044480115175247
1769239633416,-0.179718017578125,-0.972412109375,-0.147003173828125,0.0229876078665256,-0.0107509149238467,0.0069207567721605
1769239633426,-0.1779632568359375,-0.96978759765625,-0.143035888671875,0.0155893461778759,-0.0088547440245747,0.0078986696898937
1769239633436,-0.1800079345703125,-0.970794677734375,-0.1402587890625,0.0075212996453046,-0.0103495763614773,0.0106017775833606
1769239633446,-0.1811981201171875,-0.9728546142578124,-0.140899658203125,-6.631271389778703e-05,-0.008250206708908,0.0101849930360913
1769239633456,-0.181884765625,-0.9717254638671876,-0.14105224609375,-0.006247776094824,-0.0059295282699167,0.0065718824043869
1769239633466,-0.18292236328125,-0.969970703125,-0.138580322265625,-0.0144921233877539,-0.0031894017010927,0.0083239758387207
1769239633477,-0.183135986328125,-0.96942138671875,-0.1405487060546875,-0.0221377927809953,-0.0020285297650843,0.0076661752536892
1769239633486,-0.182281494140625,-0.96893310546875,-0.1411590576171875,-0.030606111511588,-0.0035036546178162,0.0060733389109373
1769239633496,-0.18206787109375,-0.9698028564453124,-0.14215087890625,-0.036333505064249,-0.0012807141756638,0.0062208781018853
1769239633506,-0.182037353515625,-0.9698028564453124,-0.1409149169921875,-0.0427956655621528,0.0019726033788174,0.0056421728804707
1769239633517,-0.1828460693359375,-0.9691162109375,-0.14227294921875,-0.0485305190086364,0.0002796319022309,0.0044799693860113
1769239633527,-0.183929443359375,-0.9692230224609376,-0.1471710205078125,-0.05085439234972,-0.0036298886407166,0.0086502134799957
1769239633536,-0.1836090087890625,-0.96649169921875,-0.15155029296875,-0.0498565062880516,-0.0075274249538779,0.0113357454538345
1769239633546,-0.1815185546875,-0.9656829833984376,-0.155364990234375,-0.0470258332788944,-0.0101437140256166,0.0095982989296317
1769239633557,-0.181884765625,-0.966217041015625,-0.1567535400390625,-0.044627122581005,-0.008046475239098,0.0062981094233691
1769239633567,-0.1832122802734375,-0.9686279296875,-0.15704345703125,-0.0424633026123046,-0.0027419906109571,0.0084179854020476
1769239633577,-0.1816864013671875,-0.972320556640625,-0.15716552734375,-0.0394046641886234,-0.0011275823926553,0.0056227319873869
1769239633587,-0.1809539794921875,-0.9746856689453124,-0.155426025390625,-0.0369170047342777,-0.0002998719282913,0.0049193911254405
1769239633597,-0.1815185546875,-0.972747802734375,-0.1570281982421875,-0.0348559841513633,0.0008183894096873,0.0045303031802177
1769239633607,-0.1834259033203125,-0.9714202880859376,-0.15911865234375,-0.0268318802118301,6.524744821945205e-05,0.0037103160284459
1769239633617,-0.1834259033203125,-0.967987060546875,-0.157623291015625,-0.019727099686861,0.0030700920615345,0.0029859361238777
1769239633627,-0.1850433349609375,-0.9659423828125,-0.15765380859375,-0.0137144802138209,0.00413029640913,0.0004945489927195
1769239633637,-0.1854705810546875,-0.96453857421875,-0.157806396484375,-0.0092150699347257,0.0019371833186596,-0.0010370349045842
1769239633647,-0.1825408935546875,-0.9688262939453124,-0.1583709716796875,-0.0107455886900424,-0.0047377636656165,0.0046131275594234
1769239633657,-0.17718505859375,-0.977996826171875,-0.1590728759765625,-0.0205572061240673,-0.0136252650991082,0.0146953230723738
1769239633667,-0.1713714599609375,-0.98388671875,-0.1607818603515625,-0.0223599001765251,-0.0195068567991256,0.0228296816349029
1769239633677,-0.1743927001953125,-0.9815826416015624,-0.1612396240234375,-0.0293357837945222,-0.0153797548264265,0.0233149100095033
1769239633687,-0.178619384765625,-0.9818115234375,-0.1575775146484375,-0.032415997236967,-0.0025134913157671,0.0201814342290163
1769239633697,-0.17864990234375,-0.9769439697265624,-0.1595458984375,-0.0197313595563173,0.0202868953347206,0.0171012226492166
1769239633707,-0.1852264404296875,-0.96087646484375,-0.152557373046875,-0.0144441863521933,0.0293616168200969,0.0077117155306041
1769239633717,-0.1929473876953125,-0.9703826904296876,-0.150177001953125,-0.0046256445348262,0.0365122035145759,0.0029193572700023
1769239633727,-0.1906585693359375,-0.95751953125,-0.151947021484375,0.0066475165076553,0.0439197868108749,-0.0130958287045359
1769239633737,-0.1940460205078125,-0.958251953125,-0.150390625,0.0115591846406459,0.0344282798469066,-0.0133938360959291
1769239633748,-0.1866912841796875,-0.9636077880859376,-0.155426025390625,0.0282324366271495,0.0230845473706722,-0.0106904609128832
1769239633758,-0.186920166015625,-0.947784423828125,-0.160858154296875,0.0519082061946392,0.0162649899721145,-0.0195300262421369
1769239633768,-0.1985626220703125,-0.9328460693359376,-0.1611175537109375,0.0690155550837516,0.0095817875117063,-0.0331148095428943
1769239633778,-0.202911376953125,-0.939453125,-0.153167724609375,0.0640460923314094,-0.0069862706586718,-0.0349305532872676
1769239633788,-0.189727783203125,-0.960296630859375,-0.152618408203125,0.0539780147373676,-0.0234778951853513,-0.02415007725358
1769239633798,-0.1751251220703125,-0.9737548828125,-0.1557769775390625,0.0373409800231456,-0.028995431959629,-0.0119314938783645
1769239633808,-0.170379638671875,-0.978424072265625,-0.151947021484375,0.0213476326316595,-0.0212445687502622,-0.0009867012267932
1769239633818,-0.17401123046875,-0.9815216064453124,-0.1476593017578125,0.0037254961207509,-0.0077820229344069,0.001259408891201
1769239633828,-0.18011474609375,-0.9799041748046876,-0.1432952880859375,-0.0117253651842474,0.0103567671030759,0.0030282805673778
1769239633838,-0.1803436279296875,-0.9752960205078124,-0.1432952880859375,-0.0185028444975614,0.0214778613299131,0.0025284050498157
1769239633848,-0.182952880859375,-0.97503662109375,-0.1485595703125,-0.0217966418713331,0.0237825606018304,0.0001414138532709
1769239633858,-0.188812255859375,-0.9695892333984376,-0.14849853515625,-0.0232488643378019,0.0192919392138719,-0.0080390181392431
1769239633868,-0.192474365234375,-0.96783447265625,-0.150238037109375,-0.0249050837010145,0.0139360558241605,-0.0141099598258733
1769239633878,-0.192108154296875,-0.9715118408203124,-0.1514739990234375,-0.0262196194380521,0.0054847802966833,-0.0140865240246057
1769239633888,-0.187469482421875,-0.9743804931640624,-0.15216064453125,-0.0261280070990324,7.190534688561456e-06,-0.0146857351064682
1769239633898,-0.1841888427734375,-0.97607421875,-0.15155029296875,-0.0208791829645633,-0.0034487936645746,-0.0140252718701958
1769239633908,-0.181365966796875,-0.9757843017578124,-0.1553192138671875,-0.0166863016784191,-0.0066520436666905,-0.0080845579504966
1769239633918,-0.1763763427734375,-0.9770050048828124,-0.154388427734375,-0.008692025206983,-0.0045904908329248,-0.0054677361622452
1769239633928,-0.172149658203125,-0.9785308837890624,-0.1560821533203125,-0.0011499529937282,-0.0070368703454732,0.0028748824261128
1769239633938,-0.16729736328125,-0.97637939453125,-0.157989501953125,0.0025808694772422,-0.009572465904057,0.008044078014791
1769239633949,-0.1678619384765625,-0.97113037109375,-0.154022216796875,0.0038727687206119,-0.0102430498227477,0.0127312410622835
1769239633959,-0.1733245849609375,-0.966796875,-0.1517333984375,-1.810949470382184e-05,-0.0153161054477095,0.0179800651967525
1769239633969,-0.1766204833984375,-0.969970703125,-0.1518402099609375,-0.0144092990085482,-0.0208546817302703,0.0209193956106901
1769239633979,-0.1794586181640625,-0.9708099365234376,-0.146881103515625,-0.0188722237944602,-0.0151240918785333,0.0200669188052415
1769239633989,-0.1837921142578125,-0.9568634033203124,-0.146026611328125,-0.0223244801163673,-0.0104518420994281,0.0122532043606042
1769239633999,-0.1900482177734375,-0.9630279541015624,-0.1453704833984375,-0.0296897180378437,-0.0038796931039541,0.0107109677046537
1769239634009,-0.1854400634765625,-0.9653472900390624,-0.1454315185546875,-0.0350959338247776,-0.0037699707318097,0.010293916799128
1769239634019,-0.1804962158203125,-0.9696044921875,-0.1508026123046875,-0.035928439348936,-0.0026652915403246,0.0104108294472098
1769239634029,-0.181610107421875,-0.968994140625,-0.1541900634765625,-0.0353188402950763,0.0020844561513513,0.003967311233282
1769239634039,-0.185272216796875,-0.9687347412109376,-0.152191162109375,-0.0348674356937408,0.002757170703262,-0.0002916161320172
1769239634049,-0.18804931640625,-0.96783447265625,-0.154754638671875,-0.0343015156686306,0.0033356093335896,-0.0040298951789736
1769239634059,-0.187957763671875,-0.9686126708984376,-0.156402587890625,-0.0371609516441822,0.0017278589075431,-0.0056674731895327
1769239634069,-0.1875,-0.96966552734375,-0.157470703125,-0.0361284427344799,0.0018698053900152,-0.0060014333575963
1769239634079,-0.18450927734375,-0.9714813232421876,-0.1616973876953125,-0.0355915501713752,-0.0033952640369534,-0.004595817066729
1769239634089,-0.182586669921875,-0.97186279296875,-0.1629180908203125,-0.0322388969361782,-0.0046283076517283,-0.0037119139451533
1769239634099,-0.180633544921875,-0.9728851318359376,-0.1631622314453125,-0.0252249296754598,-0.0035670378711074,0.0002346244873479
1769239634109,-0.178985595703125,-0.97137451171875,-0.1658935546875,-0.014095845632255,-0.0004295678809285,0.0032370723783969
1769239634120,-0.18115234375,-0.967437744140625,-0.1660003662109375,-0.0053779873996973,-0.0035728968214243,0.0037326866295188
1769239634129,-0.181427001953125,-0.9692535400390624,-0.166351318359375,0.0050490871071815,-0.0060009006410837,0.0035768917296081
1769239634139,-0.1846160888671875,-0.96893310546875,-0.1642303466796875,0.0124630611389875,-0.0043540019541978,0.0030000510159879
1769239634149,-0.1840667724609375,-0.96728515625,-0.16131591796875,0.0182197503745555,-0.0019177423091605,0.0016724651213735
1769239634159,-0.184722900390625,-0.969085693359375,-0.1568756103515625,0.023021163418889,0.0001933454914251,-0.0013845774810761
1769239634170,-0.1854705810546875,-0.9706268310546876,-0.154998779296875,0.0272657088935375,0.0014021543320268,-5.965480886516161e-05
1769239634180,-0.184814453125,-0.967071533203125,-0.154510498046875,0.0295674800872802,-0.0020980383269488,0.0003504719934426
1769239634190,-0.1829376220703125,-0.96856689453125,-0.156524658203125,0.0310599151998758,-0.0062251389026641,0.0015715312911197
1769239634200,-0.1833648681640625,-0.9701385498046876,-0.1570587158203125,0.0305057112127542,-0.0067772124893963,0.003255448071286
1769239634210,-0.182403564453125,-0.9668731689453124,-0.1555938720703125,0.0313414111733436,-0.0093370424583554,0.0007153250626288
1769239634220,-0.18389892578125,-0.9702911376953124,-0.152069091796875,0.0282862335443496,-0.0050301784649491,0.0029132319614291
1769239634230,-0.181671142578125,-0.970428466796875,-0.1485137939453125,0.022945262491703,-0.0016426377696916,0.0036602485924959
1769239634240,-0.181243896484375,-0.96966552734375,-0.14813232421875,0.0169582106173038,0.0014596786350011,0.001775263226591
1769239634250,-0.182525634765625,-0.9696197509765624,-0.144927978515625,0.0090227900072932,0.0046615973114967,0.0016295883106067
1769239634260,-0.183013916015625,-0.9691314697265624,-0.143951416015625,0.0024953819811344,0.0072033181786537,0.0002681803307496
1769239634270,-0.1866302490234375,-0.9654693603515624,-0.1423797607421875,-0.0060642841272056,0.0045585329644382,-0.0023537017405033
1769239634280,-0.186798095703125,-0.961395263671875,-0.14178466796875,-0.0160705782473087,0.0039444076828658,-0.0024735440965741
1769239634290,-0.1874847412109375,-0.9630889892578124,-0.1453857421875,-0.02339693531394,0.0031840754672884,-0.0046400255523622
1769239634300,-0.1882781982421875,-0.965057373046875,-0.14556884765625,-0.033094834536314,0.0030032468494027,-0.0059127500280737
1769239634310,-0.1869354248046875,-0.9664306640625,-0.148193359375,-0.0371702723205089,0.0049492185935378,-0.0051079429686069
1769239634320,-0.18341064453125,-0.968353271484375,-0.149169921875,-0.0420566387474536,0.0048181908205151,-0.0047116647474467
1769239634330,-0.1820526123046875,-0.9721221923828124,-0.1548614501953125,-0.0409636795520782,0.0044125914573669,-0.0002540655550546
1769239634340,-0.1798095703125,-0.9716339111328124,-0.1579742431640625,-0.0376176834106445,0.0034788872580975,-0.0009957558941096
1769239634350,-0.1822357177734375,-0.9700469970703124,-0.158233642578125,-0.03395476937294,0.0042381547391414,-0.0005190501105971
1769239634360,-0.1831817626953125,-0.9694671630859376,-0.1580810546875,-0.0320428870618343,0.0054187336936593,-2.1305288555595325e-06
1769239634370,-0.1841888427734375,-0.9729766845703124,-0.1588287353515625,-0.0289054177701473,0.0037571876309812,0.0013033510185778
1769239634381,-0.184478759765625,-0.9732513427734376,-0.1614837646484375,-0.0230648387223482,0.0010229201288893,0.0001667138858465
1769239634391,-0.1842041015625,-0.9706878662109376,-0.1620635986328125,-0.015737684443593,0.0014788532862439,-0.0007214503129944
1769239634401,-0.18359375,-0.970062255859375,-0.1618499755859375,-0.0070935958065092,0.0076605826616287,-0.0014636733103543
1769239634411,-0.1823272705078125,-0.9684906005859376,-0.162261962890625,0.0018205369124189,0.0103881927207112,-0.0015073491958901
1769239634421,-0.1846771240234375,-0.9669036865234376,-0.1620635986328125,0.0105932559818029,0.0115567874163389,-0.0039814258925616
1769239634431,-0.18194580078125,-0.9684295654296876,-0.1636505126953125,0.0188551805913448,0.0009914948605,0.0021481057628989
