timestamp_ms,acc_x,acc_y,acc_z,gyro_x,gyro_y,gyro_z
1769250975765,-0.026153564453125,-0.0661773681640625,-0.9874420166015624,0.013105415739119,0.03984035551548,0.0133144734427332
1769250975778,-0.0332183837890625,-0.0418548583984375,-0.982269287109375,0.0055441688746213,0.0518248490989208,0.0006391586503013
1769250975783,-0.045867919921875,-0.0423583984375,-0.985321044921875,0.021541777998209,0.027793813496828,-0.0032157669775187
1769250975793,-0.0475616455078125,-0.0551300048828125,-0.993255615234375,0.0288934335112571,-0.0064765415154397,-0.0045303031802177
1769250975803,-0.0421295166015625,-0.071746826171875,-0.992919921875,0.0240006744861602,-0.0227588415145874,-0.0036450685001909
1769250975813,-0.0423126220703125,-0.0660400390625,-0.99017333984375,0.0144740138202905,-0.0283112656325101,-0.0054839812219142
1769250975823,-0.0411834716796875,-0.0694427490234375,-0.9774322509765624,-0.0162628591060638,-0.0346176326274871,0.0077521954663097
1769250975833,-0.0287933349609375,-0.0743255615234375,-0.9755096435546876,-0.0343893989920616,0.0049873017705976,0.0209396369755268
1769250975843,-0.0296173095703125,-0.0503692626953125,-0.979522705078125,-0.0444193966686725,0.0151358097791671,0.0149437952786684
1769250975853,-0.0416107177734375,-0.0499267578125,-0.9860076904296876,-0.0306207593530416,0.0213076844811439,0.0147613687440752
1769250975863,-0.0419921875,-0.046173095703125,-1.0062408447265625,-0.0177073571830987,0.0230155698955059,0.0132007570937275
1769250975873,-0.042388916015625,-0.059814453125,-1.009063720703125,-0.0083625921979546,0.0022375879343599,0.0154290236532688
1769250975883,-0.0427093505859375,-0.0706634521484375,-1.000335693359375,-0.0038794267456978,-0.0205497499555349,0.0252430383116006
1769250975893,-0.0368804931640625,-0.073944091796875,-0.999298095703125,-0.0092302495613694,-0.023658724501729,0.0323283784091472
1769250975903,-0.03497314453125,-0.07135009765625,-0.9942169189453124,-0.0182599630206823,-0.0088499505072832,0.0329448990523815
1769250975913,-0.03546142578125,-0.0665283203125,-0.9959259033203124,-0.0230363439768552,0.0044416198506951,0.0334016308188438
1769250975924,-0.041473388671875,-0.0621490478515625,-1.0042877197265625,-0.013096360489726,-0.0009776464430615,0.0273631811141967
1769250975934,-0.050537109375,-0.058197021484375,-1.0065460205078125,0.0041151163168251,-0.0140412505716085,0.022863769903779
1769250975944,-0.05194091796875,-0.0560150146484375,-1.0061187744140625,0.0175800584256649,-0.021551365032792,0.0185803417116403
1769250975954,-0.0512237548828125,-0.056671142578125,-1.0034332275390625,0.0192440021783113,-0.0229338109493255,0.0155014619231224
1769250975964,-0.0464324951171875,-0.0536041259765625,-0.99212646484375,0.009638512507081,-0.0133272567763924,0.0101948464289307
1769250975974,-0.048675537109375,-0.0565185546875,-0.987152099609375,-0.0042613241821527,0.0129778506234288,0.0020026972051709
1769250975984,-0.0494537353515625,-0.063232421875,-0.9859161376953124,-0.0161613933742046,0.0285610705614089,0.0011289139511063
1769250975994,-0.048583984375,-0.0633392333984375,-0.9890594482421876,-0.0096299899742007,0.0204573385417461,0.000421578384703
1769250976004,-0.048828125,-0.0641632080078125,-0.995513916015625,0.0117927435785532,0.0018796591321006,0.0003368898760527
1769250976014,-0.0475921630859375,-0.061370849609375,-1.0000152587890625,0.0170138701796531,-0.0236507337540388,-0.0027976506389677
1769250976024,-0.0464019775390625,-0.0646820068359375,-0.99359130859375,0.01161031704396,-0.017634654417634,-0.0037481328472495
1769250976034,-0.04541015625,-0.0525054931640625,-0.989898681640625,0.0071492558345198,0.0009254484903067,-0.0090608727186918
1769250976044,-0.0460052490234375,-0.052459716796875,-0.9808197021484376,-0.0001917476038215,-0.0023635553661733,-0.0144910579547286
1769250976054,-0.04620361328125,-0.0617828369140625,-0.97998046875,-0.0074906731024384,-0.0024391892366111,-0.0147493854165077
1769250976064,-0.0446929931640625,-0.0662841796875,-0.9842987060546876,-0.0084896245971322,-0.0102307992056012,-0.0148748196661472
1769250976074,-0.0428466796875,-0.06402587890625,-0.98968505859375,-0.0064568337984383,-0.012760535813868,-0.010243316181004
1769250976084,-0.0434112548828125,-0.05780029296875,-0.994537353515625,-0.0077343522571027,-0.0056778592988848,-0.0064866612665355
1769250976094,-0.0437164306640625,-0.0595245361328125,-0.99713134765625,-0.0024413196370005,-0.0013773868558928,-0.0022642195690423
1769250976104,-0.042694091796875,-0.0584869384765625,-1.0000457763671875,-0.0012554140994325,0.0032229574862867,-0.0018551580142229
1769250976114,-0.0453948974609375,-0.0591278076171875,-0.998779296875,0.0038975363131612,0.0035936695057898,-0.0026442527305334
1769250976124,-0.045867919921875,-0.062469482421875,-0.998199462890625,0.0058765313588082,0.0009233179152943,0.0030530479270964
1769250976134,-0.0390472412109375,-0.059661865234375,-0.9986724853515624,0.0069425944238901,0.0113333482295274,0.0070919981226325
1769250976144,-0.0391387939453125,-0.0635528564453125,-0.997802734375,0.004905276466161,0.0152183678001165,0.0096957702189683
1769250976155,-0.0420379638671875,-0.059661865234375,-0.998626708984375,0.0080035980790853,0.0158585924655199,0.0095580853521823
1769250976165,-0.04541015625,-0.0621490478515625,-1.0001068115234375,0.0089205242693424,0.0136500317603349,0.0078848209232091
1769250976175,-0.047515869140625,-0.0627288818359375,-0.99896240234375,0.0154143758118152,0.0019278622930869,0.0090265180915594
1769250976185,-0.0437164306640625,-0.06561279296875,-0.9980926513671876,0.0149344746023416,-0.0117717050015926,0.0083069317042827
1769250976195,-0.044464111328125,-0.06500244140625,-0.9918212890625,0.0170799177139997,-0.02286297082901,0.0068581723608076
1769250976205,-0.044342041015625,-0.063751220703125,-0.9907379150390624,0.009882990270853,-0.0136774629354476,0.0104422541335225
1769250976215,-0.040313720703125,-0.0620269775390625,-0.989715576171875,-0.0048498827964067,-0.0009992180857807,0.0152636412531137
1769250976225,-0.0411834716796875,-0.063323974609375,-0.985076904296875,-0.0164825692772865,0.0166474189609289,0.0162018723785877
1769250976235,-0.0426788330078125,-0.0672607421875,-0.987701416015625,-0.0201659891754388,0.0214211363345384,0.019144132733345
1769250976245,-0.0423431396484375,-0.0622100830078125,-0.9936370849609376,-0.0169326439499855,0.0188501197844743,0.0258907191455364
1769250976256,-0.04217529296875,-0.0601654052734375,-0.9960479736328124,-0.0088451569899916,0.0098544945940375,0.0261802040040493
1769250976265,-0.0439605712890625,-0.0657501220703125,-0.9966888427734376,-0.0004154531343374,-0.0074256919324398,0.0346570461988449
1769250976275,-0.04058837890625,-0.080078125,-0.9980316162109376,0.00509436102584,-0.022056033834815,0.0409951023757457
1769250976285,-0.0348968505859375,-0.075531005859375,-0.9990234375,0.0052791843190789,-0.0029819414485245,0.0413631536066532
1769250976295,-0.0438995361328125,-0.0498199462890625,-0.9991302490234376,0.0182450506836175,0.0055873119272291,0.0296609569340944
1769250976305,-0.058135986328125,-0.0489959716796875,-1.0005035400390625,0.0325001515448093,-0.0055806539021432,0.0241258423775434
1769250976315,-0.0571136474609375,-0.0486297607421875,-0.999114990234375,0.0302817393094301,-0.0045505431480705,0.0162785723805427
1769250976325,-0.0545654296875,-0.063385009765625,-0.9978485107421876,0.0202629268169403,-0.003637877991423,0.0104600973427295
1769250976335,-0.054412841796875,-0.07257080078125,-0.9899749755859376,0.0096824551001191,-0.0076262280344963,0.0076110479421913
1769250976345,-0.0493316650390625,-0.079132080078125,-0.9786224365234376,-0.0058469702489674,-0.013979997485876,0.01098767016083
1769250976355,-0.042999267578125,-0.0830841064453125,-0.98248291015625,-0.0136745329946279,0.0131967617198824,0.0075732311233878
1769250976366,-0.053314208984375,-0.056060791015625,-0.98065185546875,-0.0146180912852287,0.0192008595913648,-0.0031678301747888
1769250976376,-0.0577850341796875,-0.0476226806640625,-0.984954833984375,-0.0086882971227169,0.0048770466819405,-0.0108593059703707
1769250976386,-0.0557708740234375,-0.052764892578125,-0.9931182861328124,0.0041156490333378,-0.0113655729219317,-0.0115378787741065
1769250976396,-0.0514068603515625,-0.0612030029296875,-0.99603271484375,0.0014564828015863,-0.0229260884225368,-0.0123536055907607
1769250976406,-0.047393798828125,-0.071563720703125,-0.9858245849609376,-0.0136383138597011,-0.0256912484765052,-0.0033782199025154
1769250976416,-0.0395050048828125,-0.0738983154296875,-0.9779205322265624,-0.0324708558619022,-0.0161371584981679,0.0023473100736737
1769250976426,-0.0365753173828125,-0.0761871337890625,-0.986907958984375,-0.0420973859727382,-0.0061036986298859,-0.0011265170760452
1769250976436,-0.0417327880859375,-0.0731201171875,-0.995025634765625,-0.0475390218198299,0.0065100970678031,0.0018405106384307
1769250976446,-0.042205810546875,-0.063995361328125,-1.001129150390625,-0.0448172725737094,0.0061987736262381,0.0062325960025191
1769250976456,-0.0399169921875,-0.0604705810546875,-1.0029449462890625,-0.0320407561957836,-0.0007728493656031,0.0135022262111306
1769250976466,-0.039581298828125,-0.05853271484375,-1.0081024169921875,-0.0164628624916076,-0.0041558630764484,0.0109791476279497
1769250976477,-0.0449981689453125,-0.061737060546875,-1.00616455078125,-0.007930627092719,0.0093407714739441,0.007497064769268
1769250976486,-0.048065185546875,-0.06256103515625,-1.00592041015625,-0.0023116238880902,0.0234179738909006,0.0070536485873162
1769250976496,-0.04541015625,-0.064971923828125,-1.0052642822265625,0.0041414815932512,0.0211705323308706,0.0088038779795169
1769250976506,-0.0453948974609375,-0.0675811767578125,-1.003692626953125,0.0104752779006958,0.0243016108870506,0.0020825918763875
1769250976516,-0.05059814453125,-0.0674896240234375,-0.9972381591796876,0.0173675380647182,0.0172873772680759,-0.0006013417732901
1769250976526,-0.046478271484375,-0.0639190673828125,-0.9974822998046876,0.0361811742186546,0.0025638251099735,-0.0019688750617206
1769250976536,-0.0498504638671875,-0.06829833984375,-1.0002288818359375,0.0351603850722312,-0.0085117295384407,-0.0045817024074494
1769250976546,-0.04583740234375,-0.0648193359375,-0.9942626953125,0.022196115925908,0.015442606061697,-0.0009544769418425
1769250976557,-0.0442352294921875,-0.0515899658203125,-0.98748779296875,0.0115445367991924,0.0266028493642807,-0.0127757163718342
1769250976566,-0.0489044189453125,-0.058563232421875,-0.979339599609375,0.009811352007091,0.0111471936106681,-0.0156913455575704
1769250976577,-0.042755126953125,-0.0631103515625,-0.9814605712890624,0.0061665493994951,0.0005203816690482,-0.0097319893538951
1769250976586,-0.037445068359375,-0.06396484375,-0.981231689453125,-0.0058413776569068,0.0090004187077283,-0.0110185630619525
1769250976597,-0.038818359375,-0.0666046142578125,-0.979156494140625,-0.0226392652839422,0.0237189121544361,-0.0059590893797576
1769250976607,-0.0380859375,-0.0625457763671875,-0.9803466796875,-0.0293690748512744,0.030731813982129,-0.0056629455648362
1769250976617,-0.040618896484375,-0.062957763671875,-0.988128662109375,-0.0278566647320985,0.0272670406848192,-0.0059870523400604
1769250976627,-0.0431671142578125,-0.062286376953125,-0.99407958984375,-0.0258971117436885,0.0160868242383003,-0.0026487798895686
1769250976637,-0.041656494140625,-0.0626983642578125,-0.996673583984375,-0.0243045408278703,0.0077372817322611,-0.0043862261809408
1769250976647,-0.04150390625,-0.066680908203125,-0.995574951171875,-0.025030517950654,-0.0006474144756793,-0.0001712412631604
1769250976657,-0.038238525390625,-0.0673980712890625,-0.992889404296875,-0.0310929380357265,-0.0116891469806432,0.0012724583502858
1769250976667,-0.03857421875,-0.071502685546875,-0.990081787109375,-0.0324319750070571,-0.0241796374320983,0.0043558664619922
1769250976677,-0.040069580078125,-0.0684661865234375,-0.9959564208984376,-0.031362984329462,-0.0201673191040754,0.0128987543284893
1769250976687,-0.0400848388671875,-0.0665283203125,-1.0019989013671875,-0.0288164671510458,-0.004324440844357,0.0177007000893354
1769250976697,-0.0424041748046875,-0.0641632080078125,-1.0024566650390625,-0.0235039945691823,0.0052610747516155,0.0216970387846231
1769250976707,-0.0490570068359375,-0.0625762939453125,-1.00311279296875,-0.0108806109055876,0.0058925100602209,0.0267546493560075
1769250976717,-0.0505523681640625,-0.0596771240234375,-1.0046844482421875,0.0014764565275982,0.0072384718805551,0.0300327334553003
1769250976727,-0.0521087646484375,-0.05157470703125,-1.0062103271484375,0.0092265214771032,8.974852971732616e-05,0.0302252806723117
1769250976737,-0.0556640625,-0.052490234375,-0.9975738525390624,0.0112848784774541,-0.0048727858811616,0.0238781683146953
1769250976747,-0.057159423828125,-0.0584716796875,-0.988555908203125,0.0051878378726542,-0.0123240444809198,0.0190743580460548
1769250976757,-0.053070068359375,-0.0612640380859375,-0.981414794921875,-0.0102558331564068,-0.0134521592408418,0.0158045291900634
1769250976767,-0.05303955078125,-0.060791015625,-0.975250244140625,-0.0273866169154644,-0.0075750951655209,0.0071748220361769
1769250976778,-0.0570068359375,-0.0604400634765625,-0.9770965576171876,-0.0422044433653354,-0.0124731808900833,0.0024610271211713
1769250976787,-0.0543975830078125,-0.0625,-0.9791107177734376,-0.0570180118083953,-0.0257623549550771,0.0004103931132704
1769250976798,-0.0450439453125,-0.0727691650390625,-0.9796295166015624,-0.076547771692276,-0.0282769110053777,0.0048751826398074
1769250976808,-0.036468505859375,-0.06964111328125,-0.9845123291015624,-0.0960865840315818,0.0057231332175433,-0.002372610149905
1769250976818,-0.0444183349609375,-0.04779052734375,-0.987548828125,-0.0941930785775184,0.0393809601664543,-0.017716147005558
1769250976828,-0.0578155517578125,-0.045654296875,-0.995208740234375,-0.0748484060168266,0.0206610690802335,-0.0243269111961126
1769250976838,-0.054779052734375,-0.04913330078125,-1.00457763671875,-0.0550315603613853,-0.0041010016575455,-0.023321034386754
1769250976848,-0.0455322265625,-0.05010986328125,-1.0156707763671875,-0.0373108871281147,-0.0061598913744091,-0.0242930892854928
1769250976858,-0.0436248779296875,-0.07537841796875,-1.0198211669921875,-0.0204964857548475,-0.0111836781725287,-0.0141419181600213
1769250976868,-0.0356292724609375,-0.0749664306640625,-1.0085906982421875,-0.0207287147641181,-0.0170357078313827,0.0048480182886123
1769250976878,-0.022735595703125,-0.083404541015625,-1.001434326171875,-0.0160431489348411,0.0212080832570791,0.0219332613050937
1769250976888,-0.0241546630859375,-0.0558929443359375,-1.0030059814453125,0.0002439455565763,0.0400363653898239,0.0215095523744821
1769250976898,-0.03521728515625,-0.044586181640625,-1.0066375732421875,0.0280902236700058,0.0236155800521373,0.0181398559361696
1769250976908,-0.042877197265625,-0.045806884765625,-1.0112762451171875,0.0522235222160816,0.0022242721170186,0.0144425891339778
1769250976918,-0.0490875244140625,-0.061187744140625,-1.0117645263671875,0.0651616901159286,-0.0249958969652652,0.0228288825601339
1769250976928,-0.0469818115234375,-0.066650390625,-1.00250244140625,0.0517737157642841,-0.0381537787616252,0.0361641310155391
1769250976938,-0.0416717529296875,-0.0697784423828125,-0.9877471923828124,0.0308439321815967,-0.0246419627219438,0.0407311841845512
1769250976948,-0.0437469482421875,-0.0695343017578125,-0.98358154296875,0.0017358483746647,0.0102100269868969,0.0465121082961559
1769250976958,-0.042327880859375,-0.060577392578125,-0.9829559326171876,-0.0236115865409374,0.0287480242550373,0.0429109819233417
1769250976968,-0.04571533203125,-0.0576324462890625,-0.9843902587890624,-0.0341917909681797,0.0265557114034891,0.0351169742643833
1769250976978,-0.0515289306640625,-0.0526580810546875,-0.9893798828125,-0.0354269668459892,0.0181435830891132,0.0256313271820545
1769250976989,-0.0591278076171875,-0.0521697998046875,-0.9904022216796876,-0.0317129231989383,0.0100662158802151,0.0146431252360343
1769250976999,-0.060516357421875,-0.0469818115234375,-0.990631103515625,-0.0318974778056144,0.0120063293725252,0.0025276062078773
1769250977009,-0.0616912841796875,-0.048858642578125,-0.991241455078125,-0.0401412956416606,0.0239327624440193,-0.0082579301670193
1769250977019,-0.054840087890625,-0.053375244140625,-0.989105224609375,-0.052188903093338,0.0315587259829044,-0.0118529312312603
1769250977029,-0.0507659912109375,-0.05859375,-0.987945556640625,-0.0543207637965679,0.0354938134551048,-0.0202765092253685
1769250977039,-0.0471343994140625,-0.0631866455078125,-0.9900360107421876,-0.0470745675265789,0.0169677976518869,-0.0231513921171426
1769250977049,-0.0425567626953125,-0.061798095703125,-0.992095947265625,-0.0314378179609775,-0.003531884169206,-0.0193393435329198
1769250977059,-0.03680419921875,-0.06103515625,-0.9964752197265624,-0.0266739558428525,-0.0190977938473224,-0.0118151139467954
1769250977069,-0.0308685302734375,-0.061676025390625,-0.996551513671875,-0.0263554416596889,0.014413827098906,-0.0111008547246456
1769250977079,-0.0276947021484375,-0.0516357421875,-1.001373291015625,-0.0195840876549482,0.0417860634624958,-0.0114846155047416
1769250977089,-0.0310821533203125,-0.0522918701171875,-0.9949951171875,-0.0084486119449138,0.0289743933826684,-0.0047465520910918
1769250977099,-0.029693603515625,-0.0580291748046875,-0.99371337890625,0.0121045997366309,0.012517656199634,0.0029427930712699
1769250977109,-0.03094482421875,-0.06231689453125,-1.0024261474609375,0.0287312474101781,0.0191989950835704,0.005421130452305
1769250977119,-0.03790283203125,-0.0601959228515625,-1.0067138671875,0.0415812656283378,0.0203028749674558,0.0097508979961276
1769250977129,-0.0422821044921875,-0.0521392822265625,-1.0048370361328125,0.0523087456822395,0.0136814573779702,0.0141925178468227
1769250977139,-0.0433349609375,-0.0486297607421875,-1.0048370361328125,0.0616732165217399,0.0154085168614983,0.0142835984006524
1769250977149,-0.042144775390625,-0.0496826171875,-1.0011138916015625,0.0652394592761993,0.0107969874516129,0.0197329577058553
1769250977159,-0.037841796875,-0.05108642578125,-0.9950714111328124,0.0634727180004119,0.0080214412882924,0.0220126248896121
1769250977169,-0.0404510498046875,-0.0542755126953125,-0.98736572265625,0.0509840883314609,0.014666561037302,0.0188650339841842
1769250977179,-0.042449951171875,-0.056793212890625,-0.97900390625,0.0326700620353221,0.0101082939654588,0.0138388499617576
1769250977190,-0.041748046875,-0.0563812255859375,-0.9746246337890624,0.0147355366498231,-0.0013422331539914,0.0134510938078165
1769250977200,-0.041015625,-0.05596923828125,-0.975860595703125,3.968110104324296e-05,-0.0084432857111096,0.0137520311400294
1769250977210,-0.0432891845703125,-0.0556182861328125,-0.9783477783203124,-0.0184975173324346,-0.0050906324759125,0.0132412370294332
1769250977220,-0.045196533203125,-0.0556793212890625,-0.97991943359375,-0.0319629944860935,-0.0044972798787057,0.0132473623380064
1769250977230,-0.0483245849609375,-0.055938720703125,-0.984283447265625,-0.0375870577991008,-0.0025808694772422,0.0133158052340149
1769250977240,-0.051055908203125,-0.055755615234375,-0.9912567138671876,-0.038657646626234,-0.0087562073022127,0.024017984047532
1769250977250,-0.0424957275390625,-0.0482330322265625,-0.9948577880859376,-0.0411168113350868,0.0025928535033017,0.0246363710612058
1769250977260,-0.0420989990234375,-0.0530853271484375,-0.9952545166015624,-0.0454673506319522,0.0163054708391428,0.0204203203320503
1769250977270,-0.045745849609375,-0.052001953125,-0.9921722412109376,-0.0425637066364288,0.0139328595250844,0.0192682370543479
1769250977280,-0.0471649169921875,-0.0530548095703125,-0.9962005615234376,-0.0292492322623729,0.0019819245208054,0.0125754466280341
1769250977290,-0.049957275390625,-0.05511474609375,-1.000518798828125,-0.0122737102210521,-0.0159400850534439,0.0048054079525172
1769250977300,-0.051025390625,-0.05322265625,-1.00323486328125,0.0055207330733537,-0.0212850477546453,0.0060624200850725
1769250977310,-0.0462493896484375,-0.0493927001953125,-1.0037841796875,0.0182972475886344,-0.0196189749985933,0.0089578088372945
1769250977320,-0.040008544921875,-0.060577392578125,-1.002471923828125,0.0251514259725809,-0.0185680910944938,0.0126249818131327
1769250977330,-0.0374908447265625,-0.0743255615234375,-1.0002288818359375,0.0254249330610036,-0.0007491472060792,0.0212054196745157
1769250977340,-0.0366973876953125,-0.0475006103515625,-0.9975128173828124,0.0157539285719394,0.0240787044167518,0.0111117735505104
1769250977350,-0.0469818115234375,-0.03265380859375,-0.9942779541015624,0.0358362942934036,0.0317038670182228,-0.001089232857339
1769250977360,-0.05242919921875,-0.0400238037109375,-1.00140380859375,0.0538951903581619,0.0185558404773473,-0.0089495526626706
1769250977370,-0.0492095947265625,-0.0546722412109375,-1.0058135986328125,0.0649318620562553,0.0174461025744676,-0.0074230288155376
1769250977380,-0.0455322265625,-0.05926513671875,-1.0067291259765625,0.0749983415007591,0.0243218503892421,-0.0146314073354005
1769250977390,-0.0472564697265625,-0.0560302734375,-0.9949188232421876,0.0635408908128738,0.0113466642796993,-0.0086795082315802
1769250977401,-0.0359039306640625,-0.0738983154296875,-0.9850921630859376,0.0497073680162429,0.0213513616472482,0.0014567491598427
1769250977411,-0.0297088623046875,-0.0552978515625,-0.9801788330078124,0.0446952991187572,0.040042757987976,-0.0040607880800962
1769250977421,-0.04022216796875,-0.046295166015625,-0.975067138671875,0.049566488713026,0.0334133505821228,-0.0144915906712412
1769250977431,-0.0499420166015625,-0.04608154296875,-0.980865478515625,0.0536365956068038,0.0069236862473189,-0.0155448708683252
1769250977441,-0.0495452880859375,-0.0493316650390625,-0.9847259521484376,0.0532637536525726,-0.014420217834413,-0.0164359640330076
1769250977451,-0.04833984375,-0.0631561279296875,-0.9830780029296876,0.0393854901194572,-0.0264121666550636,-0.0098310587927699
1769250977461,-0.042999267578125,-0.0693206787109375,-0.978668212890625,0.0061556305736303,-0.0220746751874685,-5.965480886516161e-05
1769250977471,-0.0402984619140625,-0.071807861328125,-0.9721221923828124,-0.0233838856220245,-0.0159302297979593,0.0052115400321781
1769250977481,-0.0384979248046875,-0.069244384765625,-0.977081298828125,-0.0419008433818817,-0.0058160773478448,0.0052823801524937
1769250977491,-0.042938232421875,-0.066864013671875,-0.9916839599609376,-0.0503643713891506,0.0114183034747838,0.0066946544684469
1769250977501,-0.0459747314453125,-0.06121826171875,-1.0031280517578125,-0.0451467037200927,0.0155368819832801,0.0073758908547461
1769250977511,-0.044830322265625,-0.057952880859375,-1.0055999755859375,-0.0374778658151626,0.0029116340447217,0.0139320604503154
1769250977521,-0.04351806640625,-0.0576171875,-1.0054473876953125,-0.0255386494100093,-0.0035052525345236,0.0080544641241431
1769250977531,-0.048065185546875,-0.062591552734375,-0.9990692138671876,-0.0240787044167518,-0.0023662187159061,0.0161014720797538
1769250977541,-0.0434722900390625,-0.055450439453125,-0.99267578125,-0.0291115455329418,0.0009201221400871,0.0134284570813179
1769250977551,-0.04437255859375,-0.0649871826171875,-0.988677978515625,-0.0294769313186407,-0.0003613909648265,0.0099208075553178
1769250977561,-0.0473480224609375,-0.067779541015625,-0.9901123046875,-0.0215708054602146,-0.0119858225807547,0.0098840557038784
1769250977571,-0.047393798828125,-0.06671142578125,-0.9945526123046876,-0.0083966804668307,-0.0218935813754796,0.0074294204823672
1769250977581,-0.0509033203125,-0.069854736328125,-0.9994659423828124,-0.0010370349045842,-0.0316729731857776,0.0065111625008285
1769250977591,-0.0493621826171875,-0.070281982421875,-0.9966278076171876,-0.0040421457961201,-0.0416100285947322,0.0006018743733875
1769250977602,-0.045196533203125,-0.06634521484375,-0.9970703125,-0.0016168050933629,-0.0219226088374853,0.0014793860027566
1769250977612,-0.0417327880859375,-0.04315185546875,-0.9947662353515624,-0.0029145635198801,0.004800081718713,-0.0062341936863958
1769250977622,-0.0475921630859375,-0.054107666015625,-0.9905853271484376,-0.0050834417343139,0.0144500453025102,-0.0093061504885554
1769250977632,-0.0460205078125,-0.06402587890625,-0.9915313720703124,-0.0002439455565763,0.0221567004919052,-0.0100451773032546
1769250977642,-0.0463714599609375,-0.0670318603515625,-0.9994659423828124,0.0071945297531783,0.0199529360979795,-0.0150428656488657
1769250977652,-0.049896240234375,-0.06402587890625,-0.999237060546875,0.0110566457733511,0.0109535818919539,-0.0119349565356969
1769250977662,-0.04388427734375,-0.054840087890625,-0.9981536865234376,0.0075969332829117,0.0065926550887525,-0.0079186428338289
1769250977672,-0.041046142578125,-0.0567169189453125,-0.9927520751953124,0.0013432984706014,0.0118721053004264,-0.0137698743492364
1769250977682,-0.043548583984375,-0.0619964599609375,-0.9858856201171876,-0.0084187844768166,0.0085615301504731,-0.0075564533472061
1769250977692,-0.0407257080078125,-0.0580902099609375,-0.98114013671875,-0.012702745385468,0.0002671150432433,-0.0104917893186211
1769250977702,-0.04345703125,-0.0657196044921875,-0.9873504638671876,-0.0126928919926285,-0.0079476712271571,-0.0085492795333266
1769250977712,-0.0451507568359375,-0.064666748046875,-0.9925537109375,-0.0156761649996042,-0.0052176653407514,-0.0050269826315343
1769250977722,-0.0439453125,-0.0598297119140625,-0.9985504150390624,-0.0251804534345865,0.0158972069621086,0.0010378338629379
1769250977732,-0.036224365234375,-0.057037353515625,-1.00030517578125,-0.0329827181994915,0.0226017162203788,0.0075162393040955
1769250977742,-0.036956787109375,-0.05841064453125,-0.998260498046875,-0.034798726439476,0.0308567155152559,0.0048498827964067
1769250977752,-0.042510986328125,-0.0656585693359375,-0.999298095703125,-0.0347715616226196,0.0239191818982362,0.0116262957453727
1769250977763,-0.0400848388671875,-0.0581207275390625,-0.9943084716796876,-0.0367883741855621,0.028719263151288,0.0176833886653184
1769250977772,-0.036712646484375,-0.0562744140625,-0.994720458984375,-0.0336407832801342,0.0518386960029602,0.0239583291113376
1769250977782,-0.0352325439453125,-0.0590667724609375,-1.002838134765625,-0.0256054941564798,0.042294193059206,0.0234017297625541
1769250977792,-0.0398406982421875,-0.0556640625,-1.0014495849609375,-0.011648666113615,0.0196669120341539,0.0223681554198265
1769250977802,-0.04010009765625,-0.0543060302734375,-1.0052032470703125,0.0038482677191495,0.0123541383072733,0.0179233402013778
1769250977813,-0.0430908203125,-0.0635223388671875,-1.0076446533203125,0.0126209864392876,0.0125970179215073,0.0160229094326496
1769250977823,-0.0424652099609375,-0.0582122802734375,-1.003326416015625,0.0227079764008522,0.0217883866280317,0.0187041796743869
1769250977833,-0.0395965576171875,-0.05499267578125,-1.002685546875,0.0339433178305625,0.0161139890551567,0.0213612150400877
1769250977843,-0.0376129150390625,-0.0624237060546875,-0.998870849609375,0.0403974913060665,-0.0002519350382499,0.0248851105570793
1769250977853,-0.0370941162109375,-0.076690673828125,-0.9922027587890624,0.0307371392846107,0.0154031906276941,0.0350394770503044
1769250977863,-0.0328826904296875,-0.064666748046875,-0.9900665283203124,0.0142124919220805,0.0476841665804386,0.0318689830601215
1769250977873,-0.0424346923828125,-0.0449066162109375,-0.988555908203125,0.0191284213215112,0.0540877357125282,0.0180695485323667
1769250977883,-0.05474853515625,-0.042724609375,-0.9913482666015624,0.0350533239543437,0.0282457526773214,0.0045377602800726
1769250977893,-0.058502197265625,-0.04669189453125,-0.991180419921875,0.0342482514679431,0.0053415023721754,-0.0052048820070922
1769250977904,-0.05462646484375,-0.0619659423828125,-0.9920654296875,0.0288004893809556,0.0044392230920493,-0.0145824048668146
1769250977913,-0.055419921875,-0.0742034912109375,-0.9891815185546876,0.0160908196121454,0.0061114220879971,-0.015925969928503
1769250977923,-0.0463714599609375,-0.0778045654296875,-0.9770660400390624,-0.012467854656279,0.0030051108915358,-0.0119613213464617
1769250977933,-0.0380401611328125,-0.074737548828125,-0.9709930419921876,-0.0277112554758787,0.0303752161562442,-0.0119938123971223
1769250977943,-0.0396728515625,-0.0498809814453125,-0.9738311767578124,-0.0314527302980423,0.0365351065993309,-0.017928933724761
1769250977953,-0.0427703857421875,-0.0465850830078125,-0.983123779296875,-0.0195790268480777,0.0179734081029891,-0.0277583934366703
1769250977963,-0.045928955078125,-0.0534820556640625,-0.9931793212890624,-0.0031446604989469,-0.0065836003050208,-0.0300625618547201
1769250977973,-0.0462188720703125,-0.063079833984375,-0.9994964599609376,0.0014229270163923,-0.0169768519699573,-0.0320146568119525
1769250977983,-0.047454833984375,-0.07305908203125,-0.9937744140625,-0.0103343967348337,-0.0205702558159828,-0.0291027575731277
1769250977993,-0.0438995361328125,-0.0750732421875,-0.985565185546875,-0.0278185810893774,-0.0226379334926605,-0.0189113728702068
1769250978003,-0.034027099609375,-0.0708465576171875,-0.9822845458984376,-0.0508623830974102,-0.011125355027616,-0.0075657744891941
1769250978013,-0.030731201171875,-0.0669708251953125,-0.9856414794921876,-0.0638729855418205,0.00684245955199,0.000532099569682
1769250978024,-0.0309906005859375,-0.0638275146484375,-0.9913330078125,-0.0710504725575447,0.0086113316938281,-0.0028407939244061
1769250978034,-0.03765869140625,-0.0630340576171875,-0.99713134765625,-0.0617674924433231,0.0054831821471452,-0.0080185113474726
1769250978044,-0.043548583984375,-0.0582733154296875,-1.006561279296875,-0.0435994081199169,-0.0060230051167309,-0.0112505238503217
1769250978054,-0.0477294921875,-0.058135986328125,-1.0144500732421875,-0.0260204151272773,-0.0137893157079815,-0.0135176731273531
1769250978064,-0.0499114990234375,-0.0590057373046875,-1.01361083984375,-0.0180951133370399,-0.0137706734240055,-0.013979997485876
1769250978074,-0.0433197021484375,-0.05841064453125,-1.0057830810546875,-0.0168740544468164,-0.0098963063210248,-0.0087117329239845
1769250978084,-0.037261962890625,-0.0580291748046875,-0.9969940185546876,-0.018907643854618,-0.0028056402225047,-0.0147307431325316
1769250978094,-0.0418243408203125,-0.0637969970703125,-0.990142822265625,-0.012949620373547,2.4767397917457856e-05,-0.0138036962598562
1769250978104,-0.04266357421875,-0.06085205078125,-0.9917449951171876,-0.0028519791085273,0.0068949242122471,-0.0140766706317663
1769250978114,-0.04022216796875,-0.059326171875,-1.0025177001953125,-0.003269829088822,0.0101442467421293,-0.005861883983016
1769250978124,-0.0341033935546875,-0.06103515625,-1.0082550048828125,0.0085932221263647,0.0204631965607404,-0.0083993440493941
1769250978134,-0.037750244140625,-0.049468994140625,-1.004638671875,0.0252374466508626,0.0078416774049401,-0.0150820137932896
1769250978144,-0.042510986328125,-0.0537567138671875,-0.996490478515625,0.0434976778924465,-0.0144641604274511,-0.0179829951375722
1769250978154,-0.0384521484375,-0.0614776611328125,-0.997894287109375,0.0502722263336181,-0.0123562682420015,-0.0168522167950868
1769250978164,-0.03521728515625,-0.063934326171875,-0.9948883056640624,0.0461573749780654,-0.0075298217125236,-0.0122058000415563
1769250978174,-0.0352630615234375,-0.0596923828125,-0.9872894287109376,0.0344549119472503,0.0007041397620923,-0.0100987069308757
1769250978184,-0.036834716796875,-0.0580902099609375,-0.9831695556640624,0.0226621683686971,0.0053239255212247,-0.0083759082481265
1769250978194,-0.0343017578125,-0.0574493408203125,-0.98052978515625,0.0071388697251677,0.0121970111504197,6.01874417043291e-05
1769250978204,-0.0345916748046875,-0.0589599609375,-0.9819793701171876,-0.00458729499951,0.0169928316026926,-0.000532632227987
1769250978214,-0.0368499755859375,-0.0589599609375,-0.9825592041015624,-0.0186301432549953,0.0107450559735298,0.0012045477051287
1769250978225,-0.0352325439453125,-0.0557708740234375,-0.9809722900390624,-0.0361446887254715,0.0041926144622266,0.0024189492687582
1769250978235,-0.03900146484375,-0.06304931640625,-0.976837158203125,-0.050485011190176,0.0004902879591099,0.0028168254066258
1769250978245,-0.040740966796875,-0.0649566650390625,-0.97894287109375,-0.0613544359803199,-0.0124358972534537,0.0075380774214863
1769250978255,-0.039154052734375,-0.061279296875,-0.984344482421875,-0.0605160742998123,-0.0231750942766666,0.0063084959983825
1769250978265,-0.0396728515625,-0.0655364990234375,-0.9917755126953124,-0.0593818351626396,-0.0250014904886484,0.0090859066694974
1769250978275,-0.03857421875,-0.0590057373046875,-0.9958648681640624,-0.0654061734676361,-0.0193132441490888,0.0159597918391227
1769250978285,-0.037933349609375,-0.054412841796875,-0.998321533203125,-0.0697282180190086,0.0004245078889653,0.0204434897750616
1769250978295,-0.0364227294921875,-0.0532989501953125,-0.99920654296875,-0.0676067396998405,0.0088467551395297,0.0239769723266363
1769250978305,-0.032745361328125,-0.052276611328125,-1.0027618408203125,-0.058171160519123,0.0096318544819951,0.0209817141294479
1769250978315,-0.040740966796875,-0.0562744140625,-1.0088348388671875,-0.0453965105116367,0.0115003287792205,0.0209241900593042
1769250978325,-0.0386810302734375,-0.0542449951171875,-1.008880615234375,-0.037323135882616,0.0154671072959899,0.0175473019480705
1769250978335,-0.0412139892578125,-0.0597991943359375,-1.00836181640625,-0.0272055212408304,0.0142889246344566,0.0146383307874202
1769250978345,-0.0434112548828125,-0.0593414306640625,-1.0036773681640625,-0.0180951133370399,0.011356784030795,0.014095046557486
1769250978355,-0.0408782958984375,-0.0557098388671875,-1.0025482177734375,-0.0103298695757985,0.0148319425061345,0.0158804301172494
1769250978365,-0.0384979248046875,-0.0580291748046875,-1.0009002685546875,-0.0103732785210013,0.0261663571000099,0.0220341961830854
1769250978375,-0.036285400390625,-0.0684814453125,-0.99359130859375,-0.0168221239000558,0.0353420116007328,0.0304641649127006
1769250978385,-0.0321807861328125,-0.067413330078125,-0.9909515380859376,-0.0234579220414161,0.0518741160631179,0.0238169152289628
1769250978395,-0.0401611328125,-0.0448760986328125,-0.9956207275390624,-0.0142923863604664,0.0657561123371124,0.011536281555891
1769250978405,-0.0512847900390625,-0.0356903076171875,-0.9990386962890624,-0.0026692864485085,0.0409753955900669,1.944107498275116e-05
1769250978415,-0.057464599609375,-0.03961181640625,-0.9967498779296876,0.0033691651187837,0.0297142192721366,-0.0046466835774481
1769250978425,-0.0440673828125,-0.0472259521484375,-1.003753662109375,0.0071559138596057,0.0211268570274114,-0.0130034163594245
1769250978436,-0.042938232421875,-0.0668792724609375,-0.9997406005859376,0.0064706825651228,0.0132433669641613,-0.0061865230090916
1769250978446,-0.0367584228515625,-0.069671630859375,-0.9889984130859376,-0.0099317263811826,0.0086491480469703,-0.0042322957888245
1769250978456,-0.03289794921875,-0.075164794921875,-0.9821624755859376,-0.0162841640412807,0.0325017496943473,0.001528920722194
1769250978466,-0.0305328369140625,-0.052215576171875,-0.9893951416015624,-0.0117860855534672,0.0404331758618354,-0.0039017973467707
1769250978476,-0.0387115478515625,-0.048126220703125,-0.99591064453125,0.0100995060056447,0.0126484176144003,-0.0127743845805525
1769250978486,-0.04656982421875,-0.047149658203125,-1.00506591796875,0.0378957167267799,-0.0225364677608013,-0.020566526800394
1769250978496,-0.045684814453125,-0.0494537353515625,-1.008514404296875,0.0460889302194118,-0.0372831895947456,-0.019274627789855
1769250978506,-0.0416107177734375,-0.058380126953125,-0.9954376220703124,0.0266188271343708,-0.0277978088706731,-0.0186469219624996
1769250978516,-0.041961669921875,-0.0627288818359375,-0.9837646484375,-0.0004021373169962,-0.0090187946334481,-0.0140838613733649
1769250978526,-0.03741455078125,-0.06195068359375,-0.979583740234375,-0.0226605720818042,0.0021137509029358,-0.006548979319632
1769250978536,-0.0343017578125,-0.060211181640625,-0.9835357666015624,-0.0341566391289234,0.0100630205124616,-0.0024895230308175
1769250978546,-0.0335693359375,-0.0601959228515625,-0.99725341796875,-0.0379444509744644,0.0158085245639085,0.001684981980361
1769250978556,-0.0347442626953125,-0.0567626953125,-1.0034942626953125,-0.0337590277194976,0.0101937819272279,0.0011472897604107
1769250978566,-0.0379486083984375,-0.0566253662109375,-1.0042572021484375,-0.0274276286363601,-0.00773381954059,-0.0029617014806717
1769250978576,-0.0424957275390625,-0.05255126953125,-1.000335693359375,-0.0179680809378623,-0.0104774078354239,-0.004790760576725
1769250978586,-0.040130615234375,-0.050750732421875,-1.0009002685546875,-0.0149025162681937,-0.0027925907634198,-0.0021371867042034
1769250978596,-0.0338134765625,-0.054656982421875,-0.9991302490234376,-0.0098459729924798,0.0038144455756992,-0.0053630736656486
1769250978606,-0.0368804931640625,-0.0618743896484375,-1.0000762939453125,-0.0022240057587623,0.0015100123127922,0.0020383833907544
1769250978616,-0.0353546142578125,-0.05413818359375,-0.999603271484375,0.0122231105342507,-0.0033459956757724,0.0040261670947074
1769250978626,-0.03594970703125,-0.056671142578125,-1.0015716552734375,0.0253359824419021,0.0009494169498793,0.0047047403641045
1769250978636,-0.0350494384765625,-0.0541229248046875,-1.0010986328125,0.0210416354238986,0.0016247945604845,0.0059588230215013
1769250978647,-0.0316009521484375,-0.057830810546875,-0.9983978271484376,0.0250611454248428,0.0177419781684875,0.0049577406607568
1769250978657,-0.0353240966796875,-0.04815673828125,-0.9983367919921876,0.0321542061865329,0.0164578035473823,-0.0015209312550723
1769250978667,-0.0399322509765625,-0.0476226806640625,-0.9913330078125,0.0424321442842483,-0.001243962557055,-0.0025888588279485
1769250978677,-0.0379486083984375,-0.05487060546875,-0.9913482666015624,0.0521841086447238,-0.0123152555897831,8.495483780279756e-05
1769250978687,-0.034210205078125,-0.057861328125,-0.9935150146484376,0.0463275499641895,-0.0040008667856454,0.0036482643336057
1769250978697,-0.033111572265625,-0.057647705078125,-0.9876861572265624,0.0298646874725818,0.0073521886952221,0.0014375743921846
1769250978707,-0.0375518798828125,-0.0583343505859375,-0.9811553955078124,0.012956278398633,0.0115759624168276,-0.0004633900243788
1769250978717,-0.0389404296875,-0.056854248046875,-0.978759765625,0.0023614249657839,0.0070523167960345,0.0029851372819393
1769250978727,-0.032867431640625,-0.0535430908203125,-0.984405517578125,-0.0011736550368368,-0.0048370994627475,0.0093487603589892
1769250978737,-0.03436279296875,-0.059234619140625,-0.99261474609375,-0.0080808298662304,-0.0064517739228904,0.0107671599835157
1769250978747,-0.0383148193359375,-0.058929443359375,-0.99163818359375,-0.0185116324573755,-0.0072459285147488,0.011297395452857
1769250978757,-0.0395050048828125,-0.0582122802734375,-0.9901123046875,-0.0284018144011497,-0.003500991500914,0.0147453900426626
1769250978767,-0.0370025634765625,-0.05975341796875,-0.9929046630859376,-0.0338820666074752,0.0015678029740229,0.0136582879349589
1769250978777,-0.0381622314453125,-0.0605010986328125,-0.994476318359375,-0.0365071445703506,-0.0058094197884202,0.0175507646054029
1769250978787,-0.0358123779296875,-0.0572052001953125,-0.9952545166015624,-0.0349720977246761,-0.0150726931169629,0.015598933212459
1769250978797,-0.0378570556640625,-0.060577392578125,-0.9973907470703124,-0.0327795185148716,-0.0141698811203241,0.0177648831158876
1769250978807,-0.0389556884765625,-0.05548095703125,-0.997955322265625,-0.0383412651717662,-0.0044615939259529,0.0192171037197113
1769250978817,-0.039459228515625,-0.0554656982421875,-0.9960479736328124,-0.0433490723371505,0.0016133430181071,0.0259493086487054
1769250978828,-0.0377044677734375,-0.0511932373046875,-0.9937744140625,-0.0396771058440208,-0.003499659942463,0.0208895690739154
1769250978837,-0.037139892578125,-0.0537109375,-0.9971466064453124,-0.0360693223774433,0.0052831787616014,0.0199207104742527
1769250978847,-0.03912353515625,-0.05438232421875,-1.0018768310546875,-0.0352360196411609,0.0140593601390719,0.0127520142123103
1769250978858,-0.0445709228515625,-0.0529937744140625,-1.00518798828125,-0.0269549190998077,0.0153403403237462,0.0106345349922776
1769250978868,-0.042816162109375,-0.055023193359375,-1.005706787109375,-0.0195161774754524,0.0141192814335227,0.0124425552785396
1769250978878,-0.0381622314453125,-0.054901123046875,-1.0056915283203125,-0.0123898237943649,0.0170756559818983,0.0203907582908868
1769250978888,-0.035003662109375,-0.059600830078125,-1.00079345703125,-0.0020522319246083,0.0129512185230851,0.0229463279247283
1769250978898,-0.0318145751953125,-0.0745849609375,-1.00140380859375,0.0064288708381354,-0.0064800037071108,0.0269961971789598
1769250978908,-0.027984619140625,-0.0697784423828125,-0.9989776611328124,0.0049920952878892,0.0028565065003931,0.0266305450350046
1769250978918,-0.0330963134765625,-0.0433807373046875,-0.99835205078125,0.010671286843717,0.0205899626016616,0.0135858496651053
1769250978928,-0.0499725341796875,-0.037994384765625,-0.996978759765625,0.0236326251178979,0.0078352857381105,0.002895388752222
1769250978938,-0.0519866943359375,-0.044158935546875,-0.9959869384765624,0.0259980447590351,0.0035864789970219,-0.0009470200748182
1769250978948,-0.0462493896484375,-0.0458831787109375,-0.99725341796875,0.0106830047443509,0.0070512513630092,-0.0037151097785681
1769250978958,-0.0399017333984375,-0.0621185302734375,-0.990875244140625,-0.000341150938766,0.0115306880325078,-0.0006924218614585
1769250978968,-0.0387115478515625,-0.0659332275390625,-0.9813232421875,-0.0118928784504532,0.0083103943616151,0.0058512310497462
1769250978978,-0.0317230224609375,-0.0740814208984375,-0.9804229736328124,-0.0126121984794735,0.0182517077773809,0.0069071743637323
1769250978988,-0.0335693359375,-0.0534210205078125,-0.986297607421875,-0.0068704229779541,0.0255093537271022,-0.0012628709664568
1769250978998,-0.041748046875,-0.0417327880859375,-0.990478515625,0.0008583368035033,0.0166274458169937,-0.005061337724328
1769250979008,-0.043609619140625,-0.0406646728515625,-0.994476318359375,0.0068792114034295,-0.0010226538870483,-0.0075327511876821
1769250979018,-0.03875732421875,-0.0510406494140625,-0.994384765625,0.0044408212415874,-0.0087349023669958,-0.0029068402945995
1769250979028,-0.03717041015625,-0.0637969970703125,-0.9907379150390624,-0.0100180134177207,-0.0166618004441261,0.0031563783995807
1769250979038,-0.0380096435546875,-0.0666961669921875,-0.982025146484375,-0.0257045645266771,-0.0270465314388275,0.010898720473051
1769250979048,-0.034881591796875,-0.0622406005859375,-0.9822235107421876,-0.0422374680638313,-0.0128761176019907,0.0157334227114915
1769250979059,-0.034912109375,-0.062347412109375,-0.992340087890625,-0.0598841048777103,0.015532087534666,0.0180602259933948
1769250979069,-0.035125732421875,-0.052001953125,-0.99853515625,-0.0682853162288665,0.0252835191786289,0.0190961956977844
1769250979079,-0.0373992919921875,-0.048675537109375,-1.0009765625,-0.059213787317276,0.0178817957639694,0.022408902645111
1769250979089,-0.03668212890625,-0.049285888671875,-1.003570556640625,-0.0433780997991561,0.0046914243139326,0.0218099579215049
1769250979099,-0.0400848388671875,-0.0509185791015625,-1.00311279296875,-0.0278390888124704,-0.0023473100736737,0.0188317447900772
1769250979109,-0.04278564453125,-0.0525665283203125,-1.001953125,-0.019694609567523,0.0065774749964475,0.0191097781062126
1769250979119,-0.043701171875,-0.0564422607421875,-1.0041046142578125,-0.011617774143815,0.0149387354031205,0.0160593930631876
1769250979129,-0.04296875,-0.0573883056640625,-1.002716064453125,-0.0078464718535542,0.0206919629126787,0.0140633545815944
1769250979139,-0.03973388671875,-0.056549072265625,-1.00128173828125,-0.0005704491049982,0.0113501260057091,0.0145363323390483
1769250979149,-0.0374908447265625,-0.0556640625,-0.9979248046875,0.008200405165553,-0.0061785336583852,0.0125328358262777
1769250979159,-0.0357208251953125,-0.056976318359375,-0.99261474609375,0.0054229949600994,-0.0062267370522022,0.0190746244043111
1769250979169,-0.0260772705078125,-0.0505523681640625,-0.9961700439453124,0.0031989889685064,0.0132641401141881,0.0114617124199867
1769250979179,-0.0355072021484375,-0.04486083984375,-0.98931884765625,0.0120659843087196,0.0105423890054225,0.0005992112564854
1769250979189,-0.0418853759765625,-0.0521087646484375,-0.9850311279296876,0.022143917158246,-0.0127773145213723,0.0001949433935806
1769250979199,-0.043548583984375,-0.05596923828125,-0.990692138671875,0.0291938371956348,-0.0234171748161315,-0.0013057478936389
1769250979209,-0.042388916015625,-0.0565948486328125,-0.99658203125,0.0264609027653932,-0.0229684319347143,0.0036408074665814
1769250979219,-0.03631591796875,-0.0577239990234375,-0.9906768798828124,0.009500028565526,-0.0085538066923618,0.0070360717363655
1769250979229,-0.0374298095703125,-0.05230712890625,-0.9809722900390624,-0.0098536955192685,0.005355617031455,-0.0004450142150744
1769250979239,-0.0392608642578125,-0.047088623046875,-0.9800872802734376,-0.0213252622634172,0.0100744720548391,0.0003909520455636
1769250979249,-0.037689208984375,-0.0475921630859375,-0.987701416015625,-0.0238816309720277,0.0094624776393175,-0.0002657834847923
1769250979260,-0.03717041015625,-0.051971435546875,-0.9941558837890624,-0.0197550617158412,-0.0029760824982076,0.0007371630053967
1769250979269,-0.0407257080078125,-0.053314208984375,-0.9991607666015624,-0.0158668477088212,-0.0069761504419147,0.0017078851815313
1769250979280,-0.043243408203125,-0.0550384521484375,-0.998321533203125,-0.0189073774963617,-0.0093546193093061,0.0024999093730002
1769250979290,-0.0415191650390625,-0.0544281005859375,-0.994140625,-0.0201737117022275,-0.0181917864829301,0.0041121868416666
1769250979300,-0.034423828125,-0.051605224609375,-0.99261474609375,-0.0264510475099086,-0.0235985368490219,0.0106318714097142
1769250979310,-0.0318603515625,-0.050933837890625,-0.9906768798828124,-0.0263727512210607,-0.0208640024065971,0.006548979319632
1769250979320,-0.0402679443359375,-0.057159423828125,-0.9952850341796876,-0.0267368052154779,-0.0100315948948264,0.0011470235185697
1769250979330,-0.0445709228515625,-0.05401611328125,-1.0009765625,-0.0271035227924585,0.0035675705876201,0.0017925737192854
1769250979340,-0.0435791015625,-0.053558349609375,-1.0042572021484375,-0.0195574555546045,-0.0045180525630712,-0.000110521184979
1769250979350,-0.04376220703125,-0.0525054931640625,-1.0044708251953125,-0.0133275231346488,-0.0118438759818673,0.0030053772497922
1769250979360,-0.0389862060546875,-0.0474853515625,-0.998199462890625,-0.0151041178032755,-0.0063923853449523,0.0051526841707527
1769250979370,-0.0345458984375,-0.0484161376953125,-0.9928741455078124,-0.0206895656883716,0.011060107499361,0.0047289752401411
1769250979380,-0.035675048828125,-0.05291748046875,-0.9924468994140624,-0.029870280995965,0.0234848205000162,0.0041915490292012
1769250979390,-0.03900146484375,-0.0479888916015625,-0.989471435546875,-0.0320045389235019,0.0261410567909479,0.0033507891930639
1769250979400,-0.03924560546875,-0.0479736328125,-0.9924774169921876,-0.0269983280450105,0.0243966858834028,0.0081636542454361
1769250979410,-0.0355224609375,-0.052215576171875,-0.999359130859375,-0.0185092352330684,0.0164010766893625,0.0147358030080795
1769250979420,-0.0342254638671875,-0.0646514892578125,-0.9983673095703124,-0.0210392381995916,0.024460069835186,0.0176133476197719
1769250979430,-0.03424072265625,-0.0562896728515625,-0.9991455078125,-0.0206578746438026,0.0389410071074962,0.009212139993906
1769250979440,-0.0418853759765625,-0.0333251953125,-1.0013275146484375,-0.0036197684239596,0.0399189218878746,0.0007342335302382
1769250979450,-0.04736328125,-0.0254058837890625,-1.00311279296875,0.0190234929323196,0.0134862475097179,-0.0073402044363319
1769250979460,-0.0483856201171875,-0.0517120361328125,-1.0012969970703125,0.0314916148781776,-0.013358948752284,-0.0105983158573508
1769250979470,-0.0415191650390625,-0.057708740234375,-1.0030364990234375,0.0437898263335228,-0.0035489285364747,-0.0207955595105886
1769250979481,-0.0483245849609375,-0.0478668212890625,-0.99859619140625,0.0411716699600219,-0.0036594495177268,-0.0276755690574646
1769250979491,-0.042236328125,-0.0665435791015625,-0.9902801513671876,0.0281008761376142,-0.0039838226512074,-0.0068658953532576
1769250979501,-0.0231475830078125,-0.0509796142578125,-0.987060546875,0.024794029071927,0.0212261918932199,-0.0095008267089724
1769250979511,-0.0335235595703125,-0.04107666015625,-0.9817962646484376,0.0250965654850006,0.0178607553243637,-0.018630675971508
1769250979521,-0.0451507568359375,-0.033935546875,-0.9774169921875,0.0281852986663579,-0.0007970841252245,-0.0206682607531547
1769250979531,-0.0486907958984375,-0.0420989990234375,-0.986602783203125,0.029014341533184,-0.0042850263416767,-0.0161262396723032
1769250979541,-0.042266845703125,-0.0495452880859375,-0.9919281005859376,0.0199129879474639,-0.0067564398050308,-0.0173939038068056
1769250979551,-0.044525146484375,-0.05963134765625,-0.9857330322265624,-0.0033835461363196,-0.0084440847858786,-0.0110816797241568
1769250979561,-0.0390472412109375,-0.056488037109375,-0.978363037109375,-0.0254696737974882,-0.0066307382658123,-0.0048464206047356
1769250979571,-0.03570556640625,-0.0563201904296875,-0.9792022705078124,-0.0398789718747139,-0.0052195293828845,-0.0087950890883803
1769250979581,-0.0372467041015625,-0.054473876953125,-0.989593505859375,-0.0354235060513019,-0.0067915935069322,-0.005479454062879
1769250979591,-0.03717041015625,-0.0518951416015625,-1.0021820068359375,-0.0277738403528928,-0.0052490904927253,-0.0025963156949728
1769250979601,-0.03765869140625,-0.048736572265625,-1.0066070556640625,-0.0207984894514083,-0.0037185717374086,0.0023236081469804
1769250979611,-0.0379486083984375,-0.0401611328125,-1.0012969970703125,-0.0119392173364758,0.0001909486454678,0.0060885190032422
1769250979621,-0.0348968505859375,-0.0404205322265625,-1.0008087158203125,-0.0070664314553141,0.0145067712292075,-0.002322010230273
1769250979631,-0.03900146484375,-0.048492431640625,-1.0010986328125,0.0044370926916599,0.017859423533082,-0.0057273940183222
1769250979641,-0.0388641357421875,-0.0531005859375,-1.0011138916015625,0.0186354704201221,0.0060307281091809,-0.0075442027300596
1769250979651,-0.0408172607421875,-0.0560455322265625,-1.003143310546875,0.0357358939945697,-0.0030831415206193,-0.000972852751147
1769250979661,-0.03863525390625,-0.0592803955078125,-1.003082275390625,0.0441970229148864,-0.0111663676798343,0.0022311962675303
1769250979674,-0.0356597900390625,-0.0550994873046875,-0.9940338134765624,0.0381809398531913,-0.0104089649394154,0.0028261465486139
1769250979681,-0.030487060546875,-0.049591064453125,-0.9871368408203124,0.025483788922429,0.0151730934157967,0.010432400740683
1769250979691,-0.027008056640625,-0.0436553955078125,-0.986968994140625,0.0220605619251728,0.0248949639499187,0.0032309470698237
1769250979702,-0.038299560546875,-0.0482330322265625,-0.9790496826171876,0.0296282004565,0.0051385695114731,0.0006348976166918
1769250979712,-0.0429840087890625,-0.0434417724609375,-0.9826507568359376,0.0329068154096603,-0.0157105196267366,0.0003973436250817
1769250979722,-0.0377349853515625,-0.0499420166015625,-0.9832763671875,0.0198642518371343,-0.0126414932310581,0.0036479979753494
1769250979732,-0.0309600830078125,-0.0552520751953125,-0.981964111328125,0.0021371867042034,-0.0028663603588938,0.0038205708842724
1769250979742,-0.033660888671875,-0.05517578125,-0.97857666015625,-0.0128337731584906,0.0063830646686255,0.0016988303977996
1769250979752,-0.0415496826171875,-0.05218505859375,-0.97784423828125,-0.0164351668208837,0.0002737729519139,-0.0031427964568138
1769250979762,-0.0459442138671875,-0.0516204833984375,-0.9845123291015624,-0.0133983632549643,-0.0176125485450029,-0.0059194080531597
1769250979772,-0.0467376708984375,-0.0548248291015625,-0.9952392578125,-0.0064914552494883,-0.0408568866550922,-0.0039683762006461
1769250979782,-0.0452117919921875,-0.0514678955078125,-0.9972686767578124,-0.0137989027425646,-0.0342336036264896,0.0038996667135506
1769250979792,-0.0393829345703125,-0.0470123291015625,-0.9939117431640624,-0.0335438437759876,-0.0170152019709348,0.0063026370480656
1769250979802,-0.0370635986328125,-0.0500335693359375,-0.9842529296875,-0.0538318045437336,0.0028732845094054,0.00945102609694
1769250979812,-0.0352783203125,-0.0518646240234375,-0.9837493896484376,-0.0617304742336273,0.0223108977079391,0.0110622383654117
1769250979822,-0.037689208984375,-0.052337646484375,-0.99188232421875,-0.0605546906590461,0.0229833461344242,0.0070770843885838
1769250979832,-0.0398406982421875,-0.0554046630859375,-1.0021820068359375,-0.0417152233421802,0.0054696002043783,0.0115786250680685
1769250979842,-0.03790283203125,-0.0516357421875,-1.0147705078125,-0.0231793541461229,-0.0063340622000396,0.0099764680489897
1769250979852,-0.040771484375,-0.0507049560546875,-1.0157012939453125,-0.0123133910819888,-0.0007675230153836,0.0082661854103207
1769250979863,-0.0397186279296875,-0.049713134765625,-1.0111541748046875,-0.0024074974935501,-0.0087008131667971,0.0080267675220966
1769250979872,-0.0373382568359375,-0.04998779296875,-1.005279541015625,0.0031571774743497,-0.0070459251292049,0.0081058628857135
1769250979883,-0.035797119140625,-0.0549163818359375,-1.0007476806640625,0.0013994910987094,0.0037007285282015,0.0064376592636108
1769250979893,-0.034515380859375,-0.05157470703125,-0.9984283447265624,0.0031246868893504,0.0116044580936431,0.0075545888394117
1769250979903,-0.0341339111328125,-0.0558929443359375,-0.998626708984375,0.0112305497750639,0.0148937283083796,0.005346295889467
1769250979913,-0.0354766845703125,-0.05291748046875,-1.0043792724609375,0.0223218165338039,0.0164000112563371,0.0094086816534399
1769250979923,-0.036163330078125,-0.053192138671875,-1.006927490234375,0.0385484583675861,0.0033718282356858,0.0072736255824565
1769250979933,-0.039520263671875,-0.07159423828125,-1.0053863525390625,0.0467877462506294,-0.0122034028172492,0.0128617361187934
1769250979943,-0.0359954833984375,-0.06463623046875,-1.0011444091796875,0.0458361990749836,-0.000924116873648,0.0080355554819107
1769250979953,-0.0432891845703125,-0.040374755859375,-0.9991302490234376,0.041812427341938,0.0267778187990188,-0.0025869945529848
1769250979963,-0.0534820556640625,-0.03497314453125,-1.000701904296875,0.0565197356045246,0.0273474678397178,-0.0084856301546096
1769250979973,-0.0554962158203125,-0.0440216064453125,-1.0004119873046875,0.0675137937068939,-0.0033430662006139,-0.0176887158304452
1769250979983,-0.0478363037109375,-0.0597381591796875,-0.9950103759765624,0.0620971918106079,-0.0128508172929286,-0.0146327381953597
1769250979993,-0.038360595703125,-0.0589599609375,-0.98876953125,0.0442327074706554,0.0025662221014499,-0.0158189106732606
1769250980003,-0.033447265625,-0.07049560546875,-0.975677490234375,0.0187726225703954,0.0088443579152226,-0.0160625893622636
1769250980013,-0.03143310546875,-0.07049560546875,-0.9707183837890624,0.0046046054922044,0.0302796084433794,-0.0135805234313011
1769250980023,-0.03570556640625,-0.0451507568359375,-0.97564697265625,-0.0013701963471248,0.0419104322791099,-0.0178793985396623
1769250980033,-0.0412445068359375,-0.0443115234375,-0.983856201171875,0.0046996804885566,0.0143533730879426,-0.0212224647402763
1769250980043,-0.0425872802734375,-0.0475921630859375,-0.98858642578125,0.0108899315819144,-0.0157813597470521,-0.0197385512292385
1769250980053,-0.0443115234375,-0.0533599853515625,-0.985198974609375,-0.0004508731653913,-0.0308780204504728,-0.0174117479473352
1769250980064,-0.0431365966796875,-0.05889892578125,-0.9744873046875,-0.0251468978822231,-0.0322945564985275,-0.0193859487771987
1769250980073,-0.0448150634765625,-0.068450927734375,-0.970306396484375,-0.0518062077462673,-0.0252779256552457,-0.011860653758049
1769250980083,-0.039581298828125,-0.0652923583984375,-0.9725799560546876,-0.0688629522919654,-0.0166663285344839,-0.0030716899782419
1769250980094,-0.0341796875,-0.062042236328125,-0.9859619140625,-0.082079954445362,0.0009166600648313,0.0037207023706287
1769250980104,-0.03350830078125,-0.0624542236328125,-0.9951324462890624,-0.0847697481513023,0.0127394972369074,0.0094315847381949
1769250980114,-0.036834716796875,-0.0576171875,-1.0060272216796875,-0.0802434384822845,0.0107056414708495,0.0085985483601689
1769250980124,-0.037750244140625,-0.053253173828125,-1.0068511962890625,-0.0681926384568214,0.0013755226973444,0.005918875336647
1769250980134,-0.0384521484375,-0.0488128662109375,-1.00836181640625,-0.0491784662008285,-0.0103618269786238,0.0056320531293749
1769250980144,-0.0399932861328125,-0.0463714599609375,-1.0099334716796875,-0.0352517291903495,-0.0196064580231905,0.0086379628628492
1769250980154,-0.0383148193359375,-0.048309326171875,-1.00335693359375,-0.0284691918641328,-0.0139797311276197,0.006818757392466
1769250980164,-0.040283203125,-0.057525634765625,-1.001556396484375,-0.0186756830662488,-0.002568086143583,0.0088968221098184
1769250980174,-0.04241943359375,-0.0577545166015625,-1.002532958984375,-0.0036823528353124,-0.0054179350845515,0.015711585059762
1769250980184,-0.0395050048828125,-0.054443359375,-1.0026397705078125,0.0016895093722268,-0.0082366243004798,0.009517871774733
1769250980194,-0.0388031005859375,-0.05535888671875,-1.0048675537109375,0.0074541876092553,0.0059071574360132,0.0103125581517815
1769250980204,-0.0374298095703125,-0.0476531982421875,-1.0081329345703125,0.0174354501068592,0.0200267042964696,0.0073125078342854
1769250980214,-0.041046142578125,-0.0474700927734375,-0.9980316162109376,0.024040887132287,0.0122896889224648,0.0027827369049191
1769250980224,-0.04168701171875,-0.0451202392578125,-0.9893646240234376,0.0310117118060588,-0.004097273107618,-0.0007773766992613
1769250980234,-0.0423583984375,-0.0545806884765625,-0.98663330078125,0.032772060483694,-0.0119978068396449,-0.0077095851302146
1769250980244,-0.0411529541015625,-0.058837890625,-0.9873046875,0.0275749024003744,-0.0187917966395616,-0.0107125658541917
1769250980254,-0.0396270751953125,-0.0544586181640625,-0.9840850830078124,0.0163475479930639,-0.0226235538721084,-0.0117573235183954
1769250980264,-0.043182373046875,-0.053192138671875,-0.98333740234375,0.0067995828576385,-0.0230177007615566,-0.008674181997776
1769250980275,-0.0425567626953125,-0.0528717041015625,-0.984130859375,-0.0022186795249581,-0.0268638376146554,-0.006264021154493
1769250980284,-0.0441741943359375,-0.0518035888671875,-0.9855804443359376,-0.0076272934675216,-0.0293895807117223,-0.005575327668339
1769250980294,-0.0420074462890625,-0.05120849609375,-0.99127197265625,-0.0189353413879871,-0.0160095933824777,0.0022572954185307
1769250980304,-0.036651611328125,-0.048828125,-0.9930572509765624,-0.0330913737416267,0.0030650321859866,0.0060954429209232
1769250980315,-0.0337982177734375,-0.053009033203125,-0.9908905029296876,-0.0426433347165584,0.0137413786724209,0.0044232443906366
1769250980325,-0.0362701416015625,-0.05682373046875,-0.991455078125,-0.0442119352519512,0.007824633270502,0.004776379559189
1769250980335,-0.040130615234375,-0.05499267578125,-0.9940185546875,-0.0375865250825881,-0.010170079767704,0.0048024784773588
1769250980345,-0.0425567626953125,-0.0561370849609375,-0.9982757568359376,-0.0247146673500537,-0.0241343639791011,0.0042125880718231
1769250980355,-0.04534912109375,-0.05322265625,-1.0039520263671875,-0.017829330638051,-0.0305115692317485,0.0101399859413504
1769250980365,-0.0422210693359375,-0.0448150634765625,-1.00189208984375,-0.0175291933119297,-0.0226259492337703,0.0060546966269612
1769250980375,-0.0460052490234375,-0.048583984375,-0.9995574951171876,-0.019464511424303,-0.0046514770947396,-0.0006695187184959
1769250980385,-0.047027587890625,-0.052215576171875,-0.999725341796875,-0.018663166090846,0.0065883942879736,-0.0009422263829037
1769250980395,-0.0438232421875,-0.05126953125,-1.00238037109375,-0.0125442873686552,0.001947037060745,-0.0023691481910645
1769250980405,-0.043487548828125,-0.0532379150390625,-1.0011444091796875,-0.0019158780341967,-0.0020644825417548,-0.0025361282750964
1769250980415,-0.04132080078125,-0.0517120361328125,-1.0004425048828125,0.0025065671652555,-0.0084667215123772,0.0024953819811344
1769250980425,-0.0369873046875,-0.04974365234375,-0.995361328125,7.456851108145202e-06,0.0077303578145802,0.0048959553241729
1769250980435,-0.038330078125,-0.056915283203125,-0.9940643310546876,-0.0011709919199347,0.0185981858521699,0.0070033147931098
1769250980445,-0.0368499755859375,-0.0684967041015625,-0.9918060302734376,-0.0086092008277773,0.0138630848377943,0.0186043102294206
1769250980455,-0.0318450927734375,-0.05712890625,-0.993499755859375,-0.0118579911068081,0.0290585495531559,0.0171371754258871
1769250980465,-0.039703369140625,-0.0363922119140625,-0.999725341796875,0.0050930292345583,0.0353526659309864,0.005151352379471
1769250980475,-0.0528564453125,-0.0356597900390625,-1.0050048828125,0.034103374928236,0.0026852653827518,-0.002454369328916
1769250980485,-0.056121826171875,-0.0416412353515625,-1.00445556640625,0.0469371490180492,-0.0218507032841444,-0.010105631314218
1769250980495,-0.0546417236328125,-0.0532073974609375,-0.9979705810546876,0.0404941625893116,-0.0273725017905235,-0.0159254372119903
1769250980505,-0.0485076904296875,-0.0634002685546875,-0.9944915771484376,0.0242701862007379,-0.0059995693154633,-0.0133429700508713
1769250980515,-0.0395660400390625,-0.068817138671875,-0.9867706298828124,0.0007360977469943,0.0103405220434069,-0.0070717576891183
1769250980526,-0.0341796875,-0.060546875,-0.9853363037109376,-0.0047593349590897,0.0313880145549774,-0.0078187743201851
1769250980536,-0.0417022705078125,-0.0430908203125,-0.98541259765625,0.0049497513100504,0.0365889035165309,-0.0156479347497224
1769250980546,-0.04754638671875,-0.0455169677734375,-0.995086669921875,0.0185957886278629,0.0241008084267377,-0.0206940937787294
1769250980556,-0.0494842529296875,-0.0524444580078125,-0.9990234375,0.0311182383447885,-0.0053364420309662,-0.027898209169507
1769250980566,-0.05120849609375,-0.0545654296875,-0.995849609375,0.0267751552164554,-0.0248004216700792,-0.0232448689639568
1769250980576,-0.0452117919921875,-0.054168701171875,-0.983856201171875,0.0047390949912369,-0.0273634474724531,-0.0220930520445108
1769250980586,-0.0419769287109375,-0.06048583984375,-0.9723663330078124,-0.0250006914138793,-0.0070563117042183,-0.0163036063313484
1769250980596,-0.0399322509765625,-0.0598297119140625,-0.9736175537109376,-0.0459419265389442,0.0052384380251169,-0.0099658146500587
1769250980606,-0.036834716796875,-0.05755615234375,-0.986358642578125,-0.0516695864498615,0.0057870489545166,-0.0062773367390036
1769250980616,-0.0362396240234375,-0.06060791015625,-1.00140380859375,-0.0420079044997692,-0.0085364961996674,-0.0019869843963533
1769250980626,-0.039520263671875,-0.0599517822265625,-1.0076446533203125,-0.030067354440689,-0.0256547629833221,-0.0009653958841226
1769250980636,-0.0436859130859375,-0.05352783203125,-1.005340576171875,-0.0284122005105018,-0.0307432655245065,-0.002135588787496
1769250980646,-0.0441741943359375,-0.0467529296875,-0.9985809326171876,-0.0294316578656435,-0.0163669884204864,-0.0020490360911935
1769250980656,-0.0439300537109375,-0.0497589111328125,-0.9969940185546876,-0.0281245782971382,0.0033212280832231,-0.0024594292044639
1769250980666,-0.0437774658203125,-0.0527191162109375,-0.9964752197265624,-0.0300529729574918,0.0213345829397439,0.0006029396899975
1769250980676,-0.0424041748046875,-0.0564727783203125,-0.9998016357421876,-0.0179744735360145,0.0225577726960182,0.0002737729519139
1769250980686,-0.0417938232421875,-0.0590667724609375,-1.0035400390625,-0.001006941194646,0.0129690617322921,0.0021012341603636
1769250980696,-0.043182373046875,-0.053741455078125,-1.00396728515625,0.0032008532434701,0.0007677893154323,-0.0001344896299997
1769250980706,-0.0415191650390625,-0.054901123046875,-0.9998931884765624,0.0068611018359661,0.0038397456519305,0.0033308155834674
1769250980716,-0.03472900390625,-0.0479888916015625,-1.001708984375,0.0141983767971396,0.0139357894659042,0.0017323862994089
1769250980726,-0.04083251953125,-0.0410003662109375,-0.9950714111328124,0.0214110165834426,0.0084137246012687,-0.0067167584784328
1769250980737,-0.045196533203125,-0.046356201171875,-0.98736572265625,0.02424968034029,-0.0065050371922552,-0.0118939438834786
1769250980747,-0.042205810546875,-0.052520751953125,-0.9886322021484376,0.0307443309575319,-0.0143858632072806,-0.0148103712126612
1769250980757,-0.0420989990234375,-0.0599365234375,-0.9922637939453124,0.027224164456129,-0.0153949353843927,-0.0141352601349353
1769250980767,-0.0452423095703125,-0.05218505859375,-0.9912567138671876,0.0222557708621025,-0.0054408381693065,-0.0125751802697777
1769250980777,-0.0451507568359375,-0.0491180419921875,-0.99267578125,0.0195310898125171,-0.0058150123804807,-0.0118521321564912
1769250980787,-0.0420989990234375,-0.0506134033203125,-0.99249267578125,0.0194658432155847,-0.0064091635867953,-0.0067383302375674
1769250980797,-0.038543701171875,-0.05438232421875,-0.996368408203125,0.0122643895447254,0.0020501012913882,0.0006623281515203
1769250980807,-0.036041259765625,-0.0522918701171875,-0.992767333984375,0.0013856426812708,0.0146015798673033,0.0043169842101633
1769250980817,-0.0361328125,-0.057281494140625,-0.9876861572265624,-0.0154852159321308,0.018200309947133,0.0083237094804644
1769250980827,-0.033294677734375,-0.056243896484375,-0.9830780029296876,-0.0256062932312488,0.0192306861281394,0.0105794072151184
1769250980837,-0.0377044677734375,-0.061798095703125,-0.987152099609375,-0.0251242611557245,0.0161344949156045,0.0104140248149633
1769250980847,-0.04132080078125,-0.0563812255859375,-0.9930572509765624,-0.0200472120195627,-0.0014410364674404,0.0164567381143569
1769250980857,-0.044036865234375,-0.0505523681640625,-1.00018310546875,-0.0125333685427904,-0.0140732079744338,0.0126697225496172
1769250980867,-0.05023193359375,-0.0526123046875,-1.0035400390625,-0.00581288151443,-0.0216807946562767,0.0139983734115958
1769250980877,-0.048095703125,-0.048553466796875,-1.002471923828125,-0.0040274984203279,-0.0222874619066715,0.0155451372265815
1769250980887,-0.043670654296875,-0.0494384765625,-0.9984893798828124,-0.0082222437486052,-0.0052392366342246,0.0132907712832093
1769250980897,-0.0443572998046875,-0.0528106689453125,-0.9974517822265624,-0.0154308881610631,0.0130806481465697,0.0101844603195786
1769250980907,-0.0437164306640625,-0.052459716796875,-0.993621826171875,-0.0175180081278085,0.0193462669849395,0.0068864016793668
1769250980918,-0.0417938232421875,-0.05181884765625,-0.995208740234375,-0.0158514007925987,0.0224312730133533,0.0087934918701648
1769250980928,-0.0405120849609375,-0.049591064453125,-0.99798583984375,-0.0120436130091547,0.0238701794296503,0.0048418929800391
1769250980938,-0.0418853759765625,-0.0533294677734375,-0.9971923828125,0.0006191849242895,0.0205737184733152,0.0076925405301153
1769250980948,-0.039703369140625,-0.0637664794921875,-1.0006256103515625,0.008273109793663,0.0079577919095754,0.0105639612302184
1769250980958,-0.0359649658203125,-0.0727691650390625,-0.99786376953125,0.0092488918453454,0.0083199813961982,0.0157760344445705
1769250980968,-0.0343170166015625,-0.047882080078125,-1.0009002685546875,0.0100851245224475,0.0237300973385572,0.0121219102293252
1769250980978,-0.04473876953125,-0.0341949462890625,-1.000579833984375,0.0325635373592376,0.0126433568075299,-0.0022924491204321
1769250980988,-0.0576934814453125,-0.0439910888671875,-0.9988250732421876,0.0542302168905735,-0.0029995182994753,-0.0095434375107288
1769250980998,-0.056854248046875,-0.0416107177734375,-1.001007080078125,0.0433687791228294,-0.004798483569175,-0.0242209173738956
1769250981008,-0.0544586181640625,-0.0656585693359375,-0.9940948486328124,0.0300495121628046,-9.00148443179205e-05,-0.0238187797367572
1769250981018,-0.044464111328125,-0.0666961669921875,-0.987274169921875,0.0136465700343251,-0.00696523161605,-0.0194237660616636
1769250981028,-0.0362548828125,-0.0685272216796875,-0.9792938232421876,-0.0026298714801669,0.006983074825257,-0.0170889720320701
1769250981038,-0.035552978515625,-0.0596466064453125,-0.9778289794921876,-0.007129015866667,0.0273717027157545,-0.0099136168137192
1769250981048,-0.03692626953125,-0.04364013671875,-0.9818878173828124,-0.0020162791479378,0.0172713976353406,-0.00687708100304
1769250981058,-0.040863037109375,-0.0445098876953125,-0.98809814453125,0.0097104180604219,0.0021441110875457,-0.0131754567846655
1769250981068,-0.0496826171875,-0.0530548095703125,-0.9958953857421876,0.0147925280034542,0.0006093312404118,-0.010398312471807
1769250981078,-0.046600341796875,-0.05194091796875,-0.9980926513671876,0.0092547507956624,-0.0116191050037741,-0.0093692671507596
1769250981088,-0.04815673828125,-0.0599822998046875,-0.9909210205078124,0.0039990027435123,-0.0205433573573827,-0.0085008097812533
1769250981098,-0.046051025390625,-0.0628662109375,-0.988861083984375,-0.0050919638015329,-0.0150218261405825,-0.0052331113256514
1769250981108,-0.0413360595703125,-0.0614776611328125,-0.9926300048828124,-0.012124041095376,-0.0109463911503553,0.0011145329335704
1769250981118,-0.0355224609375,-0.062469482421875,-0.9984130859375,-0.0141858598217368,-0.0039566583000123,0.008436094969511
1769250981129,-0.032501220703125,-0.0618743896484375,-1.00201416015625,-0.0216288622468709,0.0038828889373689,0.0075082499533891
1769250981138,-0.0389251708984375,-0.062469482421875,-0.9963226318359376,-0.0296071600168943,0.0105072353035211,0.0116430735215544
1769250981149,-0.0418243408203125,-0.0538787841796875,-0.9954071044921876,-0.0337949804961681,0.0140034332871437,0.0153975980356335
1769250981159,-0.04168701171875,-0.051727294921875,-0.996337890625,-0.0313161127269268,0.0056565538980066,0.0105517106130719
1769250981169,-0.046600341796875,-0.055450439453125,-0.994354248046875,-0.0259445160627365,-0.0036775590851902,0.0075900088995695
1769250981179,-0.0470428466796875,-0.055267333984375,-0.999176025390625,-0.0199489407241344,-0.0089564770460128,0.0059787966310977
1769250981189,-0.0448455810546875,-0.058197021484375,-1.00341796875,-0.0062035676091909,0.0001768338988767,0.0114534571766853
1769250981199,-0.043731689453125,-0.0553131103515625,-1.0084381103515625,3.5952674807049334e-05,0.0038671761285513,0.0047681233845651
1769250981209,-0.0472259521484375,-0.0564727783203125,-1.002288818359375,0.0008767126128077,0.0132300518453121,0.0081372885033488
1769250981219,-0.0408172607421875,-0.0526275634765625,-1.0030517578125,0.014306235127151,0.0260070990771055,0.0058046258054673
1769250981229,-0.0430755615234375,-0.0448760986328125,-1.0029296875,0.0336146838963031,0.018116420134902,-0.0062600262463092
1769250981239,-0.0482330322265625,-0.0469970703125,-0.9967498779296876,0.0448998287320137,-0.0070991883985698,-0.0108539788052439
1769250981249,-0.0424041748046875,-0.0491943359375,-0.993316650390625,0.0457531064748764,-0.0173893757164478,-0.0134460339322686
1769250981261,-0.0377349853515625,-0.055328369140625,-0.9853973388671876,0.0367140732705593,-0.0151685662567615,-0.0136412438005208
1769250981269,-0.038604736328125,-0.058441162109375,-0.975311279296875,0.0199385546147823,-0.0077466028742492,-0.0150050483644008
1769250981279,-0.0405426025390625,-0.056976318359375,-0.9705352783203124,0.0015403723809868,-0.0009166600648313,-0.0162902902811765
1769250981289,-0.0388946533203125,-0.055206298828125,-0.9722900390625,-0.014928882010281,0.0034471957478672,-0.0134428385645151
1769250981299,-0.035491943359375,-0.0592498779296875,-0.9821014404296876,-0.0294178090989589,0.0117669105529785,-0.0128662642091512
1769250981309,-0.0335693359375,-0.062469482421875,-0.9916229248046876,-0.0367657393217086,0.0110073769465088,-0.0066773439757525
1769250981319,-0.0312957763671875,-0.0601348876953125,-0.9937896728515624,-0.0428531914949417,0.0169741902500391,0.001055943313986
1769250981329,-0.0291595458984375,-0.0611572265625,-0.99578857421875,-0.0482796467840671,0.0229292847216129,0.0062696137465536
1769250981340,-0.031158447265625,-0.0599365234375,-0.99560546875,-0.0470055900514125,0.0214301906526088,0.0151179665699601
1769250981350,-0.03533935546875,-0.0562286376953125,-1.0005035400390625,-0.0290367119014263,0.0166349038481712,0.0249002892524003
1769250981360,-0.0391693115234375,-0.058074951171875,-1.0091552734375,-0.0045489454641938,0.0012767193838953,0.0304314084351062
1769250981370,-0.0447845458984375,-0.0620269775390625,-1.0157623291015625,0.0162570010870695,-0.021950040012598,0.0340674221515655
1769250981380,-0.048492431640625,-0.0547637939453125,-1.0153961181640625,0.0264132320880889,-0.0388280898332595,0.0359010100364685
1769250981390,-0.0498504638671875,-0.04913330078125,-1.00439453125,0.0162524729967117,-0.0195476021617651,0.0353183113038539
1769250981400,-0.055023193359375,-0.0544891357421875,-0.9896697998046876,-0.0047388286329805,-0.0018141453620046,0.0317560657858848
1769250981410,-0.053192138671875,-0.058258056640625,-0.9850311279296876,-0.0247207917273044,0.0105407917872071,0.0278894212096929
1769250981420,-0.05413818359375,-0.058013916015625,-0.9833526611328124,-0.0434976778924465,0.0204317718744277,0.0181289371103048
1769250981430,-0.0564117431640625,-0.056976318359375,-0.98638916015625,-0.0518485493957996,0.0154620464891195,0.010072873905301
1769250981440,-0.055633544921875,-0.050384521484375,-0.9911651611328124,-0.0524472296237945,0.0044954158365726,0.0022868562955409
1769250981450,-0.05426025390625,-0.0614166259765625,-0.991607666015625,-0.0511750355362892,0.002290318487212,0.0018000305863097
1769250981460,-0.04443359375,-0.07073974609375,-0.99322509765625,-0.0609123520553112,0.0057249972596764,0.0033326798584312
1769250981470,-0.036773681640625,-0.0496673583984375,-0.99444580078125,-0.0623406060039997,0.029200229793787,-0.0152580486610531
1769250981480,-0.0520172119140625,-0.0348052978515625,-0.9997711181640624,-0.0370877124369144,0.0289118085056543,-0.0348096452653408
1769250981491,-0.0606689453125,-0.0412750244140625,-1.009735107421875,-0.0026053704787045,0.00299286050722,-0.0451834574341774
1769250981500,-0.0568084716796875,-0.0474700927734375,-1.01593017578125,0.0130335101857781,-0.0084816357120871,-0.0469328872859478
1769250981510,-0.0454559326171875,-0.0547943115234375,-1.0136871337890625,0.0167656634002923,-0.0072587118484079,-0.0503246895968914
1769250981520,-0.0406646728515625,-0.063079833984375,-1.009429931640625,0.0184975173324346,0.0086661921814084,-0.0472079925239086
1769250981530,-0.0361785888671875,-0.0666656494140625,-0.9995269775390624,0.0192466657608747,0.0251306537538766,-0.04506840929389
1769250981540,-0.0296783447265625,-0.0587005615234375,-0.99322509765625,0.0327078774571418,0.0406752564013004,-0.0381138287484645
1769250981550,-0.0272216796875,-0.042144775390625,-0.9985809326171876,0.0512948781251907,0.0348735600709915,-0.0387162379920482
1769250981561,-0.031219482421875,-0.04437255859375,-0.99810791015625,0.0678935647010803,0.0181100275367498,-0.0340458527207374
1769250981571,-0.0307159423828125,-0.0522918701171875,-1.00018310546875,0.0776338055729866,0.0033726270776242,-0.0245482195168733
1769250981581,-0.0301666259765625,-0.06103515625,-0.9970703125,0.0659097731113433,0.0039422772824764,-0.0160386208444833
1769250981591,-0.0302734375,-0.0662689208984375,-0.9840545654296876,0.0399074703454971,0.011488078162074,-0.0045614624395966
1769250981601,-0.0325164794921875,-0.06787109375,-0.9749298095703124,0.0104965828359127,0.0171185322105884,0.0085114631801843
1769250981611,-0.030120849609375,-0.0617218017578125,-0.974822998046875,-0.0104883275926113,0.0197422802448272,0.0144939878955483
1769250981621,-0.0308380126953125,-0.0629119873046875,-0.9833526611328124,-0.0177784636616706,0.0134971663355827,0.0197731722146272
1769250981631,-0.0338897705078125,-0.0595855712890625,-0.994232177734375,-0.0198139175772666,0.0085932221263647,0.02573305927217
1769250981641,-0.0387420654296875,-0.0588531494140625,-0.9964752197265624,-0.0219023693352937,0.0030333404429256,0.0278004724532365
1769250981651,-0.0431060791015625,-0.053466796875,-0.9959259033203124,-0.0226927958428859,0.0051247207447886,0.0269730277359485
1769250981661,-0.04718017578125,-0.047149658203125,-0.99127197265625,-0.0247221235185861,0.0063439160585403,0.0274281613528728
1769250981671,-0.0442962646484375,-0.043731689453125,-0.989044189453125,-0.0298897214233875,0.0119173796847462,0.0279293693602085
1769250981681,-0.04296875,-0.0525970458984375,-0.9897918701171876,-0.037160150706768,0.0136521626263856,0.0238712448626756
1769250981691,-0.0456085205078125,-0.060150146484375,-0.986968994140625,-0.0344328097999095,0.0097772628068923,0.0189633052796125
1769250981701,-0.0497283935546875,-0.058502197265625,-0.9871368408203124,-0.0387561842799186,0.0033097765408456,0.0141821317374706
1769250981711,-0.045135498046875,-0.0548553466796875,-0.987457275390625,-0.0483624711632728,0.0031268175225704,0.0104177538305521
1769250981721,-0.0430450439453125,-0.0527496337890625,-0.9919891357421876,-0.044867604970932,0.0150183644145727,0.0017286578658968
1769250981731,-0.0478973388671875,-0.0428619384765625,-0.9918365478515624,-0.0350490622222423,0.0150761548429727,-0.0083767063915729
1769250981741,-0.0506134033203125,-0.045013427734375,-0.99151611328125,-0.0284918285906314,0.0044658547267317,-0.0100007019937038
1769250981751,-0.0446929931640625,-0.0538787841796875,-0.9950408935546876,-0.0230629742145538,0.002160090021789,-0.0101519702002406
1769250981762,-0.0406646728515625,-0.0591888427734375,-0.998565673828125,-0.0187723562121391,-0.0015094797126948,-0.0105029745027422
1769250981772,-0.039459228515625,-0.053802490234375,-0.99847412109375,-0.0132311172783374,-0.0059396480210125,-0.0155198378488421
1769250981782,-0.04071044921875,-0.0515594482421875,-0.9972991943359376,-0.0029798108153045,-0.0045151230879127,-0.0168242529034614
1769250981792,-0.0414276123046875,-0.050689697265625,-0.9991455078125,0.0074824173934757,-0.0082832295447587,-0.0158577933907508
1769250981802,-0.0390167236328125,-0.0531768798828125,-1.0001678466796875,0.0166178587824106,-0.0124124614521861,-0.0134289897978305
1769250981812,-0.037139892578125,-0.0522918701171875,-0.99981689453125,0.0175944399088621,-0.0075303544290363,-0.0064602959901094
1769250981822,-0.0346527099609375,-0.0543975830078125,-0.99639892578125,0.0138870533555746,-0.0016050871927291,-0.0020599551498889
1769250981832,-0.0331573486328125,-0.0559234619140625,-0.9949188232421876,0.0086427563801407,0.0076736323535442,0.0051755872555077
1769250981842,-0.0325469970703125,-0.0546417236328125,-0.9956207275390624,0.0012373046483844,0.0182623602449893,0.0101162837818264
1769250981852,-0.0318603515625,-0.0556182861328125,-0.995086669921875,0.0029257487040013,0.0083143888041377,0.0132894404232501
1769250981862,-0.033050537109375,-0.0576324462890625,-0.9990081787109376,0.0086664585396647,-0.0079529974609613,0.0137887829914689
1769250981872,-0.035400390625,-0.0539398193359375,-0.99481201171875,0.0005816344055347,0.0033606430515646,0.0159225072711706
1769250981882,-0.0416412353515625,-0.05194091796875,-0.986724853515625,-0.0102843288332223,-0.0012399677652865,0.0226419288665056
1769250981892,-0.035888671875,-0.048919677734375,-0.983856201171875,-0.0146750826388597,-0.0041651837527751,0.021148694679141
1769250981902,-0.0393218994140625,-0.0539093017578125,-0.986114501953125,-0.0188162978738546,-0.0028740833513438,0.0192980635911226
1769250981912,-0.043731689453125,-0.0487060546875,-0.9898681640625,-0.0192602463066577,-0.0088901640847325,0.0177020318806171
1769250981922,-0.04815673828125,-0.0477447509765625,-0.9944610595703124,-0.0129722580313682,-0.0179430469870567,0.0144258104264736
1769250981932,-0.0450897216796875,-0.0470428466796875,-1.0002593994140625,-0.0148196928203105,-0.0143283391371369,0.0232232976704835
1769250981942,-0.0394439697265625,-0.0458526611328125,-0.996246337890625,-0.0276769008487463,0.0039510657079517,0.0182642247527837
1769250981952,-0.044097900390625,-0.0653533935546875,-0.987152099609375,-0.0484349094331264,0.0209119394421577,0.0223617646843194
1769250981963,-0.03656005859375,-0.0605926513671875,-0.98486328125,-0.0596806406974792,0.0348285548388958,0.0185185559093952
1769250981973,-0.0395050048828125,-0.0413055419921875,-0.993621826171875,-0.0598260499536991,0.0323504842817783,0.0024562333710491
1769250981983,-0.049072265625,-0.0323944091796875,-0.9998321533203124,-0.0360962189733982,0.0077801588922739,-0.0001438106992281
1769250981993,-0.051849365234375,-0.044036865234375,-1.0069427490234375,-0.0090973582118749,-0.0167893655598163,-0.0027134947013109
1769250982003,-0.0470428466796875,-0.055908203125,-1.0079345703125,-0.0056642773561179,-0.0073215626180171,-0.0044895568862557
1769250982013,-0.0417633056640625,-0.0486602783203125,-0.9976043701171876,-0.0228893365710973,0.0237828269600868,-0.0083285039290785
1769250982023,-0.03997802734375,-0.0622100830078125,-0.9915313720703124,-0.0276563949882984,0.0266923308372497,-0.0114768929779529
1769250982033,-0.027679443359375,-0.0613250732421875,-0.998199462890625,-0.0130502879619598,0.0240323655307292,-0.0084608625620603
1769250982043,-0.02960205078125,-0.0391998291015625,-1.00518798828125,0.0086052063852548,0.0207731891423463,-0.0125461518764495
1769250982053,-0.038482666015625,-0.03900146484375,-1.0041961669921875,0.025145299732685,0.0046706520952284,-0.0154607156291604
1769250982063,-0.041656494140625,-0.0467681884765625,-0.9997711181640624,0.036159336566925,-0.006434463430196,-0.0150809483602643
1769250982073,-0.0425872802734375,-0.052337646484375,-0.99652099609375,0.0314122512936592,0.0084739122539758,-0.0173496957868337
1769250982083,-0.044921875,-0.0524444580078125,-0.9898681640625,0.0089873699471354,0.0323022790253162,-0.0159486066550016
1769250982093,-0.0444488525390625,-0.0574798583984375,-0.9848175048828124,-0.0058831889182329,0.0388374105095863,-0.0117503991350531
1769250982103,-0.0386962890625,-0.0600433349609375,-0.992340087890625,-0.0032860743813216,0.0237290319055318,-0.0087412940338253
1769250982113,-0.03570556640625,-0.0589447021484375,-0.999847412109375,0.0035017905756831,0.005077582783997,0.0008924252470023
1769250982123,-0.03192138671875,-0.0536346435546875,-1.0025787353515625,0.0074475300498306,-0.000859135761857,0.0023872575256973
1769250982133,-0.03131103515625,-0.053985595703125,-1.000823974609375,0.0075529911555349,0.0146303419023752,0.0087277116253972
1769250982143,-0.03082275390625,-0.0437469482421875,-0.9961700439453124,-0.0052682650275528,0.0449616163969039,0.012826582416892
1769250982153,-0.0353546142578125,-0.04412841796875,-0.9911956787109376,-0.0136188734322786,0.0678312480449676,0.0067593692801892
1769250982164,-0.039825439453125,-0.04644775390625,-0.9894256591796876,-0.0155315557494759,0.0549290291965007,0.0063290023244917
1769250982174,-0.0373992919921875,-0.0522003173828125,-0.99383544921875,-0.0035364115610718,0.0388153046369552,0.0047846352681517
1769250982184,-0.0400238037109375,-0.0634765625,-1.0000152587890625,0.0078627169132232,0.0198812969028949,0.0102638229727745
1769250982194,-0.0428314208984375,-0.0616302490234375,-0.9977874755859376,0.0166910961270332,-0.0035007251426577,0.0086946878582239
1769250982204,-0.0446014404296875,-0.05938720703125,-0.9918212890625,0.0129277827218174,-0.0018250643042847,0.0142340632155537
1769250982214,-0.035186767578125,-0.0524444580078125,-0.992034912109375,0.0037041907198727,0.0192421376705169,0.0148234209045767
1769250982224,-0.0333251953125,-0.048004150390625,-0.988861083984375,0.002264752285555,0.027304857969284,0.0080579267814755
1769250982234,-0.0391998291015625,-0.0494384765625,-0.9865875244140624,0.0104031059890985,0.0150953298434615,0.0069638998247683
1769250982244,-0.0404510498046875,-0.043975830078125,-0.988037109375,0.017985925078392,3.435477628954686e-05,-0.0053694653324782
1769250982254,-0.043731689453125,-0.0562744140625,-0.99310302734375,0.0225780140608549,-0.0148966573178768,-0.0049430932849645
1769250982264,-0.037872314453125,-0.057769775390625,-0.9920654296875,0.0177270658314228,-0.0126026105135679,-0.000663127109874
1769250982274,-0.035064697265625,-0.050537109375,-0.9875946044921876,0.00561687303707,0.0035507925786077,0.0006913566030561
1769250982284,-0.0394287109375,-0.051025390625,-0.9842987060546876,-0.0051441621035337,0.0031814121175557,-0.0050701261498034
1769250982294,-0.0428314208984375,-0.05194091796875,-0.9828338623046876,-0.008569786325097,-0.0126923592761158,-0.0044205812737345
1769250982304,-0.0389404296875,-0.0500030517578125,-0.986114501953125,-0.0102891223505139,-0.0193981993943452,-0.0053114085458219
1769250982314,-0.0411834716796875,-0.0546875,-0.989837646484375,-0.0125919580459594,-0.021336980164051,-0.0070781493559479
1769250982324,-0.0384674072265625,-0.0537872314453125,-0.9917144775390624,-0.0111961951479315,-0.0247367713600397,-0.0076017268002033
1769250982334,-0.0357208251953125,-0.0532684326171875,-0.9949951171875,-0.0131003558635711,-0.013963752426207,-0.002577407285571
1769250982344,-0.031494140625,-0.05224609375,-0.9951171875,-0.0111940652132034,-0.0005294363945722,-0.0047055394388735
1769250982354,-0.036956787109375,-0.055023193359375,-0.99542236328125,-0.0067508472129702,0.0077063892967998,-0.0071399346925318
1769250982364,-0.0400543212890625,-0.0550384521484375,-0.99713134765625,0.0004000068001914,0.0010013486025854,-0.00528264651075
1769250982374,-0.0377197265625,-0.0475921630859375,-0.9970855712890624,0.0114760939031839,-0.0112361432984471,-0.0091191958636045
1769250982385,-0.0413360595703125,-0.0482635498046875,-0.99908447265625,0.0221489779651165,-0.0092566153034567,-0.0127096697688102
1769250982395,-0.041595458984375,-0.0477447509765625,-1.001129150390625,0.0252611488103866,-0.0013872405979782,-0.0113943349570035
1769250982405,-0.041168212890625,-0.0503387451171875,-0.996124267578125,0.0250654052942991,-0.0045694517903029,-0.0135179394856095
1769250982415,-0.0387115478515625,-0.052703857421875,-0.9931488037109376,0.0280891582369804,-0.0117029948160052,-0.0164697878062725
1769250982425,-0.0368194580078125,-0.047637939453125,-0.994476318359375,0.0326751209795475,-0.0103391902521252,-0.0145456530153751
1769250982435,-0.03289794921875,-0.051727294921875,-0.997161865234375,0.0369154065847396,-0.0153009258210659,-0.017247961834073
1769250982445,-0.0354156494140625,-0.068572998046875,-0.9944915771484376,0.0339696854352951,-0.0179521031677722,-0.0088078724220395
1769250982455,-0.0294036865234375,-0.05877685546875,-0.990478515625,0.01554034370929,0.0079798959195613,-0.0028671592008322
1769250982465,-0.0279693603515625,-0.0399932861328125,-0.9851531982421876,-0.0048235175199806,0.0363148637115955,-0.0163091979920864
1769250982475,-0.041259765625,-0.0404510498046875,-0.9852142333984376,0.0039071235805749,0.022791065275669,-0.0180714111775159
1769250982485,-0.0431976318359375,-0.0455780029296875,-0.9918212890625,0.0220248755067586,-0.0071151675656437,-0.0159621890634298
1769250982495,-0.0382843017578125,-0.054840087890625,-0.9928741455078124,0.0119277657940983,0.0033816818613559,-0.0157307591289281
1769250982505,-0.03802490234375,-0.058746337890625,-0.9910125732421876,-0.003345729317516,0.0305800139904022,-0.0204994156956672
1769250982515,-0.0380859375,-0.063568115234375,-0.9853057861328124,-0.0164562053978443,0.0250022895634174,-0.0149302138015627
1769250982526,-0.029205322265625,-0.065826416015625,-0.9848480224609376,-0.0152932023629546,0.0261149574071168,-0.011355984956026
1769250982535,-0.0334014892578125,-0.0432891845703125,-0.99053955078125,-0.0061649517156183,0.0210171341896057,-0.0191305503249168
1769250982545,-0.04364013671875,-0.0437164306640625,-0.99200439453125,0.0120233735069632,-0.0035507925786077,-0.0204741153866052
1769250982555,-0.044464111328125,-0.050872802734375,-0.99749755859375,0.0292375143617391,-0.0283722523599863,-0.0225628335028886
1769250982566,-0.04461669921875,-0.054718017578125,-0.9984130859375,0.0328093469142913,-0.0380776114761829,-0.0245167948305606
1769250982575,-0.0421905517578125,-0.05853271484375,-0.9924468994140624,0.0170919019728899,-0.0378150232136249,-0.0192032549530267
1769250982585,-0.0384979248046875,-0.0644073486328125,-0.98724365234375,-0.0082760397344827,-0.0147355366498231,-0.0114840827882289
1769250982596,-0.0309906005859375,-0.0632476806640625,-0.9868316650390624,-0.037081055343151,0.0134460339322686,-0.0086637958884239
1769250982606,-0.032501220703125,-0.06292724609375,-0.9882354736328124,-0.0446753241121768,0.0162876266986131,-0.0082512721419334
1769250982616,-0.0302886962890625,-0.06256103515625,-0.99993896484375,-0.0309488605707883,-0.0022327941842377,-0.0021475730463862
1769250982626,-0.029693603515625,-0.061279296875,-1.0110931396484375,-0.013130716048181,-0.0110949957743287,0.0004154531343374
1769250982636,-0.033233642578125,-0.052581787109375,-1.0072174072265625,-0.0107980528846383,-0.0120675815269351,0.0004287689225748
1769250982646,-0.035919189453125,-0.047882080078125,-0.99749755859375,-0.0141845280304551,0.0032085764687508,0.0011592740193009
1769250982656,-0.041168212890625,-0.046356201171875,-0.994171142578125,-0.0190256219357252,0.020935108885169,-0.0022343921009451
1769250982666,-0.04302978515625,-0.0517120361328125,-0.99267578125,-0.0162679199129343,0.0151794850826263,-0.0043494747951626
1769250982676,-0.044189453125,-0.057647705078125,-0.99859619140625,0.0004892227007076,0.005796636454761,-0.0063638896681368
1769250982686,-0.0453033447265625,-0.0616912841796875,-1.0048065185546875,0.0158972069621086,-0.0043334956280887,0.0017944378778338
1769250982696,-0.038787841796875,-0.059234619140625,-1.0048828125,0.0185611676424741,-0.0070014502853155,0.0091796498745679
1769250982706,-0.0275726318359375,-0.0525665283203125,-0.9968719482421876,0.0149403335526585,-0.0007419566973112,0.0107988519594073
1769250982716,-0.0271148681640625,-0.0526275634765625,-0.9902496337890624,0.0144934551790356,0.0028674255590885,0.0066587016917765
1769250982726,-0.03411865234375,-0.0526885986328125,-0.982940673828125,0.0144412573426961,0.006148706190288,0.0005800364888273
1769250982736,-0.038360595703125,-0.0483245849609375,-0.9817962646484376,0.0124561367556452,0.002372077666223,-0.002470081904903
1769250982746,-0.04034423828125,-0.056671142578125,-0.9880523681640624,0.0131142036989331,-0.0089412974193692,-0.0046312371268868
1769250982756,-0.0380859375,-0.059661865234375,-0.9932861328125,0.0062666842713952,-0.0119786318391561,-0.0005952165229246
1769250982767,-0.0366668701171875,-0.0554046630859375,-0.99188232421875,0.0007041397620923,-0.0083125242963433,0.0020335898734629
1769250982777,-0.03729248046875,-0.055450439453125,-0.990631103515625,-0.0091037498787045,0.0065553709864616,0.0081934817135334
1769250982786,-0.035430908203125,-0.0518951416015625,-0.9920501708984376,-0.0168588757514953,0.0118364198133349,0.011378888040781
1769250982797,-0.0349273681640625,-0.0594635009765625,-0.9915924072265624,-0.0141693484038114,0.0054520233534276,0.0158982723951339
1769250982807,-0.0350494384765625,-0.0629119873046875,-0.9956512451171876,-0.0091088097542524,-0.0062930495478212,0.0207026153802871
1769250982817,-0.0318603515625,-0.058807373046875,-0.997589111328125,-0.0093732615932822,-0.0214408431202173,0.0183044392615556
1769250982827,-0.0405731201171875,-0.0626983642578125,-0.9956512451171876,-0.003476756857708,-0.0285032801330089,0.0173574183136224
1769250982837,-0.0415496826171875,-0.058135986328125,-0.9979400634765624,-0.004792624618858,-0.0262342672795057,0.0144606987014412
1769250982847,-0.0462188720703125,-0.0554046630859375,-1.0000152587890625,-0.0158556625247001,-0.0105929896235466,0.0122654549777507
1769250982857,-0.0457763671875,-0.050537109375,-0.991790771484375,-0.0236696433275938,-0.0087032103911042,0.0081330277025699
1769250982867,-0.0460205078125,-0.0557098388671875,-0.9918670654296876,-0.0185968540608882,-0.016146745532751,0.0052855759859085
1769250982877,-0.0472412109375,-0.05419921875,-0.997039794921875,-0.0190575812011957,-0.0182770080864429,0.0048791775479912
1769250982887,-0.044891357421875,-0.050933837890625,-0.9974365234375,-0.0183398593217134,-0.0145464520901441,-0.0019339876016601
1769250982897,-0.0458831787109375,-0.0552215576171875,-0.998016357421875,-0.0208245888352394,-0.0084185181185603,0.0010085391113534
1769250982907,-0.0382537841796875,-0.0487060546875,-0.992706298828125,-0.0249844454228878,-0.0084741786122322,-0.0060661481693387
1769250982917,-0.0371551513671875,-0.0547637939453125,-0.9902191162109376,-0.0217566937208175,-0.0048144627362489,-0.0029499835800379
1769250982927,-0.035919189453125,-0.0576934814453125,-0.993408203125,-0.0175044257193803,-0.0066589680500328,-0.0051148673519492
1769250982937,-0.033905029296875,-0.0737457275390625,-0.99371337890625,-0.0181406550109386,-0.0025222797412425,0.0013635384384542
1769250982947,-0.031341552734375,-0.0605316162109375,-0.996185302734375,-0.0211942344903945,0.0105786081403493,-0.0074600465595722
1769250982957,-0.0439453125,-0.0382232666015625,-1.0014495849609375,-0.0128654651343822,0.0150812147185206,-0.0201004743576049
1769250982968,-0.053985595703125,-0.038818359375,-1.006561279296875,0.0163574013859033,-0.0038128476589918,-0.023609722033143
1769250982977,-0.0537261962890625,-0.048431396484375,-1.0088043212890625,0.0369060859084129,-0.0081537999212741,-0.0269264224916696
1769250982987,-0.0487823486328125,-0.0555419921875,-1.004058837890625,0.0247167982161045,-0.0061013018712401,-0.0242435541003942
1769250982998,-0.038970947265625,-0.065826416015625,-0.995025634765625,0.0143025061115622,0.0113842142745852,-0.0232794899493455
1769250983009,-0.03277587890625,-0.0700836181640625,-0.988006591796875,0.0118657145649194,0.0185273457318544,-0.0162759087979793
1769250983018,-0.0271759033203125,-0.06402587890625,-0.990386962890625,0.0169872399419546,0.0318237096071243,-0.0061612231656908
1769250983028,-0.0307769775390625,-0.04229736328125,-0.9950103759765624,0.0264015141874551,0.0312876142561435,-0.0121101923286914
1769250983038,-0.0373077392578125,-0.0458526611328125,-0.9941864013671876,0.0433133840560913,-0.0002151834196411,-0.0144540406763553
1769250983048,-0.04071044921875,-0.0520172119140625,-0.996917724609375,0.0556097328662872,-0.0220717471092939,-0.016917198896408
1769250983058,-0.0406341552734375,-0.0588226318359375,-0.9929351806640624,0.0450356528162956,-0.0271794237196445,-0.0173651408404111
1769250983068,-0.0432891845703125,-0.0648651123046875,-0.980499267578125,0.0188935305923223,-0.0247665997594594,-0.0131845111027359
1769250983078,-0.0428619384765625,-0.06695556640625,-0.97271728515625,-0.011003915220499,-0.0065817362628877,-0.0058171427808701
1769250983088,-0.0414276123046875,-0.0681304931640625,-0.974761962890625,-0.0287845097482204,-0.0041033984161913,0.0001419464824721
1769250983098,-0.0393218994140625,-0.0656280517578125,-0.9848175048828124,-0.0351521298289299,-0.0128473555669188,0.0034123081713914
1769250983108,-0.03680419921875,-0.064056396484375,-1.0000152587890625,-0.0364533476531505,-0.0032828785479068,0.0102326637133955
1769250983118,-0.0361328125,-0.05950927734375,-1.002471923828125,-0.0475392900407314,0.0093045523390173,0.0154940048232674
1769250983128,-0.0368194580078125,-0.05694580078125,-0.9951934814453124,-0.0538552403450012,0.0206136647611856,0.0161933507770299
1769250983138,-0.0438232421875,-0.0530242919921875,-0.99310302734375,-0.0527923740446567,0.0181473121047019,0.0131166009232401
1769250983148,-0.044769287109375,-0.0516510009765625,-0.994384765625,-0.0403458252549171,0.0054887747392058,0.0174538251012563
1769250983158,-0.040313720703125,-0.053009033203125,-1.00018310546875,-0.0303453896194696,0.0012903015594929,0.0160087943077087
1769250983168,-0.0471954345703125,-0.0643157958984375,-1.0045318603515625,-0.0202197842299938,0.002166481455788,0.0182538386434316
1769250983178,-0.0462646484375,-0.0604705810546875,-1.0030670166015625,-0.0078371502459049,-0.0075652417726814,0.0212341826409101
1769250983188,-0.0429534912109375,-0.0568695068359375,-1.0007476806640625,-0.0041310954838991,-0.0157659128308296,0.0175241325050592
1769250983199,-0.0411529541015625,-0.0580596923828125,-1.0005035400390625,-0.0012972257100045,-0.0086384955793619,0.0202163215726614
1769250983208,-0.0362701416015625,-0.0453033447265625,-0.99871826171875,0.0066384617239236,0.0045026065781712,0.0102704809978604
1769250983219,-0.0438690185546875,-0.051055908203125,-0.9922332763671876,0.0204197876155376,-0.0030205573420971,-0.0012029499048367
1769250983229,-0.0474090576171875,-0.0556488037109375,-0.992645263671875,0.029558690264821,-0.0151760233566164,-0.0097887152805924
1769250983239,-0.0460968017578125,-0.0575103759765625,-0.9941558837890624,0.0246595405042171,-0.0120958108454942,-0.0117410784587264
1769250983249,-0.0421295166015625,-0.0569000244140625,-0.9904327392578124,0.0117919445037841,0.0014642059104517,-0.009223592467606
1769250983259,-0.039520263671875,-0.0560760498046875,-0.9864044189453124,0.0009914948605,0.0079087894409894,-0.0105453189462423
1769250983269,-0.04168701171875,-0.0563507080078125,-0.985107421875,-0.0036173716653138,0.0093879094347357,-0.0095847165212035
1769250983279,-0.037811279296875,-0.0538330078125,-0.9869537353515624,-0.0062339273281395,0.0008727178792469,-0.0076448703184723
1769250983289,-0.03509521484375,-0.05841064453125,-0.990966796875,-0.0051782503724098,-0.010954113677144,-0.0037353497464209
1769250983299,-0.0325775146484375,-0.060638427734375,-0.99090576171875,-0.0077804252505302,-0.0180149525403976,-0.0013198626693338
1769250983309,-0.03173828125,-0.0602264404296875,-0.989227294921875,-0.0140215428546071,-0.0206240527331829,0.0029270802624523
1769250983319,-0.03326416015625,-0.0597381591796875,-0.989288330078125,-0.0199912842363119,-0.009918144904077,0.0053207296878099
1769250983329,-0.0379486083984375,-0.0597991943359375,-0.9927520751953124,-0.0275314934551715,0.0027686222456395,0.0073362099938094
1769250983339,-0.0379791259765625,-0.0561981201171875,-0.9938507080078124,-0.0278529357165098,0.0036581179592758,0.0143565684556961
1769250983349,-0.04010009765625,-0.0562744140625,-0.9987030029296876,-0.0217194110155105,0.0050416300073266,0.018388595432043
1769250983359,-0.0399627685546875,-0.0530548095703125,-1.001861572265625,-0.019270634278655,0.0056680059060454,0.0195579882711172
1769250983369,-0.044281005859375,-0.0536651611328125,-0.9998321533203124,-0.0178953763097524,0.0055140750482678,0.0201524067670106
1769250983379,-0.0441131591796875,-0.0533447265625,-0.9964752197265624,-0.0181220117956399,0.0002332929143449,0.019115637987852
1769250983389,-0.0431365966796875,-0.0553131103515625,-0.993560791015625,-0.0189164336770772,0.0079330243170261,0.0164111983031034
1769250983400,-0.0443572998046875,-0.05224609375,-0.993988037109375,-0.0208850409835577,0.0098100202158093,0.0128899654373526
1769250983409,-0.0476531982421875,-0.0525054931640625,-0.9906158447265624,-0.0148766841739416,-0.0031156321056187,0.0105935223400592
1769250983419,-0.048370361328125,-0.07073974609375,-0.988800048828125,-0.0152644403278827,-0.0126129975542426,0.0139552298933267
1769250983429,-0.0406036376953125,-0.0681610107421875,-0.989898681640625,-0.0335510373115539,0.0096403770148754,0.015952069312334
1769250983439,-0.038330078125,-0.03680419921875,-0.9910125732421876,-0.0465834811329841,0.0231716316193342,-0.0013707289472222
1769250983450,-0.0518646240234375,-0.0331268310546875,-0.9936065673828124,-0.0303701553493738,0.0039481362327933,-0.0140343261882662
1769250983460,-0.05548095703125,-0.04376220703125,-0.996673583984375,-0.0142913209274411,-0.0095594162121415,-0.0180362574756145
1769250983470,-0.05133056640625,-0.046051025390625,-0.9967803955078124,-0.0259549021720886,-0.0118489358574152,-0.0258779358118772
1769250983480,-0.04901123046875,-0.069793701171875,-0.990325927734375,-0.0367324464023113,-0.0056839846074581,-0.0285637341439723
1769250983490,-0.044891357421875,-0.0687255859375,-0.988494873046875,-0.0460559092462062,-0.0008418252109549,-0.0256097558885812
1769250983500,-0.0351715087890625,-0.068756103515625,-0.9923095703125,-0.0470298267900943,0.0221487116068601,-0.0172527562826871
1769250983510,-0.037445068359375,-0.0506744384765625,-0.999298095703125,-0.0309038534760475,0.0322756469249725,-0.0232898760586977
1769250983520,-0.0474090576171875,-0.04351806640625,-1.003173828125,-0.0013662016717717,0.0126007469370961,-0.0281986147165298
1769250983530,-0.0469970703125,-0.0428619384765625,-1.012908935546875,0.0217058286070823,-0.0137581564486026,-0.0298572313040494
1769250983540,-0.044921875,-0.0449981689453125,-1.009002685546875,0.0323009490966796,-0.0212403070181608,-0.0272302888333797
1769250983550,-0.0440826416015625,-0.0531768798828125,-0.9983978271484376,0.0275522656738758,-0.0254108179360628,-0.0214331205934286
1769250983561,-0.0387725830078125,-0.058502197265625,-0.9879150390625,0.0174122788012027,-0.0210070144385099,-0.0160087943077087
1769250983570,-0.0368499755859375,-0.0634613037109375,-0.9839019775390624,0.0025262746494263,-0.0070003853179514,-0.0073612434789538
1769250983580,-0.032318115234375,-0.0583343505859375,-0.985382080078125,-0.009222793392837,0.0055132759734988,0.0088896313682198
1769250983590,-0.028839111328125,-0.0561065673828125,-0.99420166015625,-0.0210011564195156,0.0162996109575033,0.0110321445390582
1769250983600,-0.036163330078125,-0.0573272705078125,-0.9970703125,-0.0201438833028078,0.0131964953616261,0.0140947801992297
1769250983610,-0.0387115478515625,-0.0514678955078125,-1.0001068115234375,-0.0199100580066442,0.0011925635626539,0.0114081827923655
1769250983620,-0.047760009765625,-0.0505523681640625,-0.99700927734375,-0.0182048361748456,-0.0066706859506666,0.0029459886718541
1769250983631,-0.0513763427734375,-0.04632568359375,-0.9947357177734376,-0.0146298091858625,-0.0019566244445741,0.0020839234348386
1769250983640,-0.0485076904296875,-0.0493011474609375,-0.999053955078125,-0.0139682795852422,-0.0046032737009227,-2.210423735959921e-05
1769250983651,-0.0463104248046875,-0.054229736328125,-0.995849609375,-0.013733921572566,-0.0066579026170074,0.0031550468411296
1769250983661,-0.043548583984375,-0.053375244140625,-0.9929351806640624,-0.0119972741231322,-0.0033987262286245,0.0056544234976172
1769250983671,-0.04449462890625,-0.0525054931640625,-0.99261474609375,-0.0142489774152636,-0.0102265384048223,0.0085617965087294
1769250983681,-0.0397796630859375,-0.0527801513671875,-0.9930877685546876,-0.0178133510053157,-0.0007882956997491,0.005387042183429
1769250983691,-0.037017822265625,-0.055755615234375,-0.9997711181640624,-0.0073399380780756,0.0052102082408964,0.0017025588313117
1769250983701,-0.042633056640625,-0.0415802001953125,-1.0009765625,0.0067223510704934,0.0101149519905447,-0.0057870489545166
1769250983711,-0.047515869140625,-0.046600341796875,-0.9975433349609376,0.022888271138072,-0.0148750860244035,-0.003582750679925
1769250983721,-0.0359649658203125,-0.051422119140625,-1.0006866455078125,0.0263756811618804,-0.02886413782835,-0.0017041567480191
1769250983731,-0.0328369140625,-0.056304931640625,-0.9915924072265624,0.0213186051696538,-0.0027923244051635,-0.0043785031884908
1769250983741,-0.0447235107421875,-0.0568695068359375,-0.987945556640625,0.008674981072545,0.0118406806141138,-0.0007134608458727
1769250983751,-0.039764404296875,-0.0496826171875,-0.9826202392578124,0.006926349364221,0.0105178887024521,0.002895921235904
1769250983761,-0.039337158203125,-0.0499114990234375,-0.993194580078125,0.0120659843087196,0.0039928774349391,0.0062871905975043
1769250983771,-0.0396575927734375,-0.0532684326171875,-0.9971160888671876,0.0184501130133867,-0.0131458956748247,0.0039159120060503
1769250983781,-0.0426788330078125,-0.056304931640625,-0.9961700439453124,0.023298131301999,-0.0233756303787231,0.0114007266238331
1769250983791,-0.0352020263671875,-0.0547637939453125,-0.9972686767578124,0.0157973393797874,-0.01595925912261,0.0147240851074457
1769250983801,-0.037078857421875,-0.0574798583984375,-0.992034912109375,0.0005446164286695,0.0075982650741934,0.0172370430082082
1769250983811,-0.0378875732421875,-0.0551300048828125,-0.9881134033203124,-0.0103687513619661,0.018624285236001,0.0196386817842721
1769250983821,-0.038543701171875,-0.05462646484375,-0.9887847900390624,-0.0161504745483398,0.0147408628836274,0.0237695109099149
1769250983831,-0.0419158935546875,-0.05108642578125,-0.9931640625,-0.0174759291112422,0.0040195090696215,0.02592134475708
1769250983842,-0.0434722900390625,-0.0520782470703125,-0.9959259033203124,-0.0163454171270132,-0.0010338390711694,0.0243958868086338
1769250983852,-0.04833984375,-0.051910400390625,-0.9944000244140624,-0.0218341927975416,-0.0050797136500477,0.0211369767785072
1769250983862,-0.0501861572265625,-0.0504302978515625,-0.99114990234375,-0.0245929602533578,-0.0034940673504024,0.0151459295302629
1769250983872,-0.050384521484375,-0.0543670654296875,-0.993621826171875,-0.0300604309886693,0.0094377100467681,0.0135152759030461
1769250983882,-0.047271728515625,-0.05078125,-0.9971771240234376,-0.0292710699141025,0.0129757197573781,0.0145541755482554
1769250983892,-0.04534912109375,-0.048919677734375,-0.9986114501953124,-0.0155957378447055,0.0115852830931544,0.0177230704575777
1769250983902,-0.0440216064453125,-0.0649566650390625,-1.002044677734375,-0.0084898909553885,0.0083274384960532,0.0225836057215929
1769250983912,-0.036895751953125,-0.067535400390625,-1.002960205078125,-0.0164817720651626,0.0139035647734999,0.0231457985937595
1769250983922,-0.0379180908203125,-0.04254150390625,-1.000152587890625,-0.0126707879826426,0.0251740626990795,0.0120265688747167
1769250983932,-0.0454254150390625,-0.0309906005859375,-1.0039520263671875,0.0087586045265197,0.0210807844996452,0.0016463662032037
1769250983942,-0.0522003173828125,-0.05029296875,-1.0058441162109375,0.0307347420603036,0.0040735709480941,-0.0035774242132902
1769250983952,-0.055572509765625,-0.0460968017578125,-1.0000762939453125,0.025676067918539,-0.003613643348217,-0.0124699855223298
1769250983962,-0.053741455078125,-0.0639801025390625,-0.9954071044921876,0.0142582980915904,0.0080177122727036,-0.014486264437437
1769250983972,-0.04803466796875,-0.0630340576171875,-0.9902801513671876,0.0010170611785724,0.006033391226083,-0.0150529853999614
1769250983982,-0.0409698486328125,-0.073760986328125,-0.9847259521484376,-0.0058392467908561,0.0110001871362328,-0.0031055121216923
1769250983992,-0.0345306396484375,-0.05596923828125,-0.9842071533203124,-0.0070752198807895,0.0267402678728103,-0.0037177728954702
1769250984002,-0.0442352294921875,-0.04693603515625,-0.9844207763671876,-0.0003683151735458,0.0252771265804767,-0.0133272567763924
1769250984012,-0.049102783203125,-0.0466461181640625,-0.992950439453125,0.0082858931273221,0.0071151675656437,-0.0199619904160499
1769250984022,-0.046844482421875,-0.04888916015625,-0.9980010986328124,0.0210104770958423,-0.0144828027114272,-0.0231937356293201
1769250984033,-0.0465545654296875,-0.0555572509765625,-0.9965972900390624,0.0229114405810832,-0.0261130928993225,-0.0233359485864639
1769250984043,-0.0471038818359375,-0.0569915771484375,-0.98779296875,0.0081958780065178,-0.0174612812697887,-0.0160348936915397
1769250984052,-0.0447235107421875,-0.057586669921875,-0.9826202392578124,-0.014315023086965,0.0033760892692953,-0.0115557219833135
1769250984063,-0.0425872802734375,-0.060028076171875,-0.9874725341796876,-0.0232768263667821,0.0158053282648324,-0.0097032273188233
1769250984073,-0.04296875,-0.060302734375,-0.995330810546875,-0.0255828574299812,0.0109258843585848,-0.007252053823322
1769250984083,-0.0417327880859375,-0.0574188232421875,-1.000091552734375,-0.0239745751023292,-0.0075418059714138,-0.005069060716778
1769250984093,-0.0426788330078125,-0.0543365478515625,-1.0004730224609375,-0.0204008799046278,-0.0176469050347805,-0.0040168459527194
1769250984103,-0.04229736328125,-0.05242919921875,-0.9986419677734376,-0.0258920509368181,-0.0062190135940909,-0.0019342538435012
1769250984113,-0.0420379638671875,-0.048828125,-0.9910125732421876,-0.0337177515029907,0.0019118833588436,0.0031510521657764
1769250984123,-0.0392608642578125,-0.0481414794921875,-0.9873046875,-0.0391284935176372,0.0119706429541111,0.0002122539444826
1769250984133,-0.0417327880859375,-0.0570526123046875,-0.9922637939453124,-0.0406262576580047,0.0149483233690261,0.0021214741282165
1769250984143,-0.043182373046875,-0.055419921875,-0.994720458984375,-0.0265391990542411,0.0067756143398582,0.0020687435753643
1769250984153,-0.049468994140625,-0.0530853271484375,-1.002532958984375,-0.0138726718723773,-0.0060392501763999,-0.0010929612908512
1769250984163,-0.0474395751953125,-0.0529022216796875,-1.0070648193359375,-0.0138497687876224,-0.0099242692813277,0.002690591616556
1769250984173,-0.039459228515625,-0.05291748046875,-1.0062255859375,-0.0098656797781586,0.0059753344394266,0.0041121868416666
1769250984183,-0.0341949462890625,-0.0404205322265625,-0.995635986328125,-0.0053172674961388,0.0022490394767373,0.0041257692500948
1769250984193,-0.03363037109375,-0.045196533203125,-0.982696533203125,-0.0025662221014499,-0.0041800974868237,-0.0029467877466231
1769250984203,-0.0373077392578125,-0.05743408203125,-0.984222412109375,-0.0031537152826786,0.0014628743520006,-0.0005968143814243
1769250984213,-0.0420989990234375,-0.0570831298828125,-0.99041748046875,-0.0048120655119419,0.0060166134499013,-0.0025710156187415
1769250984223,-0.044677734375,-0.0539398193359375,-0.9938507080078124,-0.0053252568468451,0.0035515916533768,-0.0042450786568224
1769250984233,-0.0475006103515625,-0.0507659912109375,-0.9979705810546876,-0.0050781155005097,-0.0002966761530842,-0.0033678335603326
1769250984243,-0.045562744140625,-0.0494384765625,-0.997100830078125,-0.0047659929841756,-0.0017518273089081,-0.0029073730111122
1769250984253,-0.0414886474609375,-0.04998779296875,-0.9974365234375,-0.0080944113433361,-0.0019076223252341,0.0013582120882347
1769250984264,-0.0381622314453125,-0.0518646240234375,-0.99462890625,-0.0112784868106246,0.0052924999035894,0.0077039925381541
1769250984274,-0.0336761474609375,-0.051116943359375,-0.9905853271484376,-0.0198112558573484,0.0074384752660989,0.0114981979131698
1769250984284,-0.034423828125,-0.0516204833984375,-0.98980712890625,-0.0196181759238243,0.0053417682647705,0.0144452517852187
1769250984294,-0.03582763671875,-0.05206298828125,-0.997222900390625,-0.0200306996703147,0.0051910337060689,0.0191262904554605
1769250984304,-0.0401153564453125,-0.054229736328125,-1.0021209716796875,-0.0190557166934013,0.008485097438097,0.0136066228151321
1769250984314,-0.0471343994140625,-0.052703857421875,-1.00189208984375,-0.0184282753616571,0.0059665460139513,0.0165313053876161
1769250984324,-0.04541015625,-0.0467681884765625,-0.99908447265625,-0.0187776815146207,-0.0001179780374513,0.0080502033233642
1769250984334,-0.0524139404296875,-0.0506134033203125,-0.9959869384765624,-0.0160791017115116,-0.0023031015880405,0.0024090954102575
1769250984344,-0.0508575439453125,-0.0486602783203125,-0.9962615966796876,-0.0137552265077829,-0.0014386395923793,-2.210423735959921e-05
1769250984354,-0.04925537109375,-0.0503692626953125,-1.0016326904296875,-0.0119541315361857,0.008233961649239,-0.000901480030734
1769250984364,-0.0465850830078125,-0.04534912109375,-1.0048065185546875,-0.0104736797511577,0.0245918948203325,0.0044123250991106
1769250984374,-0.040924072265625,-0.0468292236328125,-1.0044708251953125,-0.0050685280002653,0.0249333120882511,0.0015198660548776
1769250984384,-0.0418243408203125,-0.0670928955078125,-0.9980316162109376,-0.0002631203096825,0.0033420007675886,0.006679474376142
1769250984394,-0.0303497314453125,-0.0631256103515625,-0.9954986572265624,-0.0097050918266177,0.0153118446469306,0.0059164785780012
1769250984404,-0.03466796875,-0.0434112548828125,-0.9959564208984376,-0.0177347883582115,0.0474095940589904,-0.0112390723079442
1769250984414,-0.047119140625,-0.0306854248046875,-0.9982757568359376,-0.0042187133803963,0.0450537614524364,-0.0193135105073452
1769250984424,-0.05133056640625,-0.0462799072265625,-1.002685546875,0.0202578678727149,0.0182479787617921,-0.0187859386205673
1769250984435,-0.0477447509765625,-0.0476837158203125,-1.0067596435546875,0.0181358605623245,-0.0036080505233258,-0.0219234079122543
1769250984444,-0.0424957275390625,-0.063201904296875,-1.0034637451171875,0.0186381321400403,0.0097202714532613,-0.0215902458876371
1769250984454,-0.0402374267578125,-0.06317138671875,-1.000823974609375,0.0137885166332125,0.0093293199315667,-0.0152178350836038
1769250984464,-0.0325469970703125,-0.0690765380859375,-0.9908294677734376,0.0149318110197782,0.0247418321669101,-0.0025662221014499
1769250984475,-0.0298004150390625,-0.05303955078125,-0.9919891357421876,0.0192221645265817,0.054374024271965,-0.0045582666061818
1769250984485,-0.0363006591796875,-0.038482666015625,-0.9908447265625,0.0281040724366903,0.058895006775856,-0.0093855122104287
1769250984495,-0.0395050048828125,-0.0399932861328125,-0.995086669921875,0.0377372577786445,0.0335752703249454,-0.0135613484308123
1769250984505,-0.0406646728515625,-0.0490570068359375,-0.9982757568359376,0.0511984713375568,0.0034786208998411,-0.0088089378550648
1769250984515,-0.03802490234375,-0.056854248046875,-0.997283935546875,0.0464050471782684,-0.0201846305280923,-0.0068877334706485
1769250984525,-0.042633056640625,-0.06396484375,-0.985687255859375,0.0235985368490219,-0.0202552042901515,-0.0004082625964656
1769250984535,-0.04010009765625,-0.0618743896484375,-0.97576904296875,-0.0038192393258213,-0.0022527680266648,0.0069476547650992
1769250984545,-0.037384033203125,-0.0599212646484375,-0.97894287109375,-0.0228720270097255,0.0122271049767732,0.0125083345919847
1769250984555,-0.033111572265625,-0.0526123046875,-0.983306884765625,-0.0363803766667842,0.0210746582597494,0.0211588144302368
1769250984565,-0.034271240234375,-0.0514984130859375,-0.992706298828125,-0.0427682362496852,0.0306151676923036,0.0182562358677387
1769250984576,-0.0369873046875,-0.054168701171875,-0.99627685546875,-0.0432449430227279,0.0340261422097682,0.0221428535878658
1769250984585,-0.0346527099609375,-0.0462799072265625,-0.9959564208984376,-0.0440335050225257,0.0293533615767955,0.0226922631263732
1769250984596,-0.0389556884765625,-0.0481414794921875,-0.9918365478515624,-0.0394664481282234,0.0170319806784391,0.0157981384545564
1769250984605,-0.0451202392578125,-0.052215576171875,-0.990509033203125,-0.0372544266283512,0.0034972631838172,0.0168964248150587
1769250984615,-0.040283203125,-0.05511474609375,-0.99200439453125,-0.0374823957681655,0.0042173820547759,0.0205337703227996
1769250984625,-0.04052734375,-0.0585479736328125,-0.992584228515625,-0.0377782694995403,0.0131906364113092,0.025672074407339
1769250984635,-0.041717529296875,-0.052490234375,-0.9916839599609376,-0.037429928779602,0.0002189118386013,0.0231146402657032
1769250984646,-0.038360595703125,-0.0546112060546875,-0.9965057373046876,-0.0332250632345676,0.0004226436722092,0.0215638820081949
1769250984655,-0.035369873046875,-0.0518951416015625,-0.998809814453125,-0.019080750644207,0.0086470181122422,0.0240275710821151
1769250984666,-0.035552978515625,-0.038909912109375,-0.99884033203125,-0.0073029203340411,0.0089378347620368,0.0134945036843419
1769250984675,-0.04339599609375,-0.0523529052734375,-0.9943695068359376,-4.420847471919842e-05,0.0008958873804658,0.0120231071487069
1769250984686,-0.0421600341796875,-0.0551910400390625,-0.9939117431640624,0.0043420176953077,0.0009648632840253,0.0095522264018654
1769250984696,-0.040557861328125,-0.05731201171875,-0.9979248046875,0.0086637958884239,0.0004745752958115,0.0085567366331815
1769250984706,-0.042694091796875,-0.05242919921875,-0.999053955078125,0.0072776200249791,0.0031140341889113,0.0120609235018491
1769250984716,-0.04132080078125,-0.0433807373046875,-0.99658203125,-0.0006665892433375,0.0081575289368629,0.0090883038938045
1769250984726,-0.043212890625,-0.0477752685546875,-0.9907684326171876,-0.0060538975521922,0.0072541842237114,0.0125509453937411
1769250984736,-0.0389404296875,-0.047637939453125,-0.991455078125,-0.0068885325454175,-0.0002207760553574,0.0115551892668008
1769250984746,-0.0382537841796875,-0.053070068359375,-0.99267578125,-0.0027891285717487,-0.0085474150255322,0.010024138726294
1769250984756,-0.038848876953125,-0.052276611328125,-0.995819091796875,0.0029217540286481,-0.0140870567411184,0.0110776843503117
1769250984766,-0.0417938232421875,-0.049346923828125,-0.999176025390625,0.0014969628537073,-0.0066560385748744,0.0101077612489461
1769250984776,-0.03973388671875,-0.0511474609375,-0.9976959228515624,-0.003401655703783,-0.0018620821647346,0.009573264978826
1769250984786,-0.0389862060546875,-0.049407958984375,-0.995849609375,-0.0073058498091995,0.0031835427507758,0.0077860178425908
1769250984796,-0.041412353515625,-0.0497283935546875,-0.99407958984375,-0.0114587834104895,0.0088257156312465,0.004137753508985
1769250984806,-0.044891357421875,-0.050384521484375,-0.99371337890625,-0.0115746306255459,0.0067266123369336,0.0010128001449629
1769250984816,-0.044219970703125,-0.0486602783203125,-0.9972381591796876,-0.0043140547350049,-0.001203482504934,0.0012796488590538
1769250984826,-0.0430908203125,-0.0502166748046875,-1.0017852783203125,-0.0001973402395378,0.0022253373172134,0.0009853695519268
1769250984836,-0.0446014404296875,-0.0467987060546875,-1.000579833984375,-0.0026043052785098,0.0133941024541854,-0.0030591732356697
1769250984847,-0.0443115234375,-0.0435638427734375,-0.99652099609375,-0.0005430185701698,0.0161217115819454,-0.0009755159262567
1769250984856,-0.03900146484375,-0.0457916259765625,-0.9970245361328124,0.0081793665885925,0.0023102923296391,-0.0029419939965009
1769250984866,-0.0366668701171875,-0.063812255859375,-0.998077392578125,0.0091839106753468,0.0004090615548193,-0.000663127109874
1769250984877,-0.0320892333984375,-0.049072265625,-0.9997100830078124,0.0049452236853539,0.0179470423609018,-0.0086938897147774
1769250984886,-0.0371856689453125,-0.031982421875,-1.004180908203125,0.005803560372442,0.0186421275138854,-0.0143349971622228
1769250984897,-0.040863037109375,-0.03289794921875,-1.0027923583984375,0.0193249620497226,0.008568188175559,-0.0155075872316956
1769250984907,-0.0401763916015625,-0.0504302978515625,-0.993988037109375,0.0233902782201766,0.0009683253592811,-0.016752615571022
1769250984917,-0.0359039306640625,-0.059844970703125,-0.988128662109375,0.0159978754818439,0.0258425157517194,-0.0175446383655071
1769250984927,-0.0363311767578125,-0.0508880615234375,-0.9885101318359376,0.012286227196455,0.0352602526545524,-0.0213223323225975
1769250984937,-0.035430908203125,-0.067474365234375,-0.989837646484375,0.0178493037819862,0.0148804122582077,-0.0138164795935153
1769250984947,-0.02825927734375,-0.061676025390625,-0.994903564453125,0.0299877263605594,0.0010868359822779,-0.0079431440681219
1769250984957,-0.03155517578125,-0.0393218994140625,-0.9936981201171876,0.0373689420521259,0.0002569950302131,-0.0059748017229139
1769250984967,-0.034576416015625,-0.0342254638671875,-0.9921417236328124,0.0357734449207782,0.0004396878939587,-0.0052229915745556
1769250984977,-0.0392303466796875,-0.043975830078125,-0.9891357421875,0.0301805399358272,0.0011526161106303,-0.008525843732059
1769250984987,-0.0425872802734375,-0.0511322021484375,-0.9852447509765624,0.0216078236699104,9.05474735191092e-06,-0.0071236896328628
1769250984997,-0.04254150390625,-0.05828857421875,-0.984771728515625,-0.0026061693206429,-0.0008676578872837,-0.0033854104112833
1769250985007,-0.03955078125,-0.0605621337890625,-0.9785919189453124,-0.0290090143680572,0.0097610177472233,0.0030692932195961
1769250985017,-0.035247802734375,-0.05902099609375,-0.981414794921875,-0.0525058172643184,0.0140985082834959,0.0065271416679024
1769250985027,-0.0311431884765625,-0.0556488037109375,-0.982269287109375,-0.0657055079936981,0.0159904174506664,0.0105232149362564
1769250985037,-0.033050537109375,-0.0527801513671875,-0.98876953125,-0.0632149204611778,0.0187260173261165,0.0100433127954602
1769250985047,-0.0378265380859375,-0.052520751953125,-0.9989166259765624,-0.0553460791707038,0.0182738117873668,0.0094310520216822
1769250985057,-0.041107177734375,-0.045989990234375,-1.005859375,-0.0408326499164104,0.0099604884162545,0.0073684342205524
1769250985067,-0.042816162109375,-0.0449981689453125,-1.007659912109375,-0.0281749125570058,0.0042173820547759,0.0102236093953251
1769250985079,-0.0396270751953125,-0.0455780029296875,-1.0075531005859375,-0.0188807472586631,0.006802512332797,0.0092558162286877
