timestamp_ms,acc_x,acc_y,acc_z,gyro_x,gyro_y,gyro_z
1770447413864,-0.1242523193359375,-0.9633026123046876,0.2199859619140625,0.0056618805974721,0.0129256518557667,0.007032343186438
1770447413871,-0.1351776123046875,-0.9536285400390624,0.2187042236328125,0.0004830974212381,0.0127371000126004,-0.0012338425731286
1770447413881,-0.1423187255859375,-0.956634521484375,0.2166900634765625,0.0004306331393308,0.0089535471051931,-0.0064203487709164
1770447413891,-0.1383819580078125,-0.9603424072265624,0.2162628173828125,-0.0020767329260706,0.006271744146943,-0.0089370356872677
1770447413901,-0.134613037109375,-0.96368408203125,0.2175140380859375,-0.005576126743108,0.0101663507521152,-0.0100904507562518
1770447413911,-0.1339263916015625,-0.964385986328125,0.2180633544921875,-0.0088962893933057,0.0098750013858079,-0.0106627643108367
1770447413921,-0.13238525390625,-0.965423583984375,0.2162933349609375,-0.0139048965647816,0.0050221891142427,-0.0094827180728316
1770447413931,-0.13189697265625,-0.9658050537109376,0.2156219482421875,-0.0158138498663902,0.0059628174640238,-0.0082757733762264
1770447413941,-0.1296844482421875,-0.9689788818359376,0.214019775390625,-0.0158250350505113,0.0037468012887984,-0.0019680759869515
1770447413951,-0.125335693359375,-0.9700775146484376,0.21435546875,-0.0138670792803168,0.0081884209066629,0.0030871361959725
1770447413961,-0.126495361328125,-0.968902587890625,0.2132110595703125,-0.0090683298185467,0.0097189396619796,0.0030740867368876
1770447413971,-0.1312408447265625,-0.96624755859375,0.21185302734375,-0.006433664355427,0.0068832063116133,0.004586495924741
1770447413981,-0.134033203125,-0.9630584716796876,0.2118682861328125,-0.0022634204942733,0.0043332292698323,0.0031915323343127
1770447413991,-0.136138916015625,-0.9639434814453124,0.213714599609375,-0.0018485001055523,0.0049822418950498,0.0004886900424025
1770447414001,-0.1364898681640625,-0.9622039794921876,0.213897705078125,0.000646349217277,0.004153199493885,0.0015092133544385
1770447414011,-0.1348876953125,-0.9644012451171876,0.214569091796875,0.0029065739363431,0.0045204497873783,0.0013813816476613
1770447414022,-0.1327362060546875,-0.96490478515625,0.2127227783203125,0.0043010050430893,0.0060970410704612,0.0001802960032364
1770447414032,-0.1337738037109375,-0.9637603759765624,0.212982177734375,0.0090920319780707,0.0045385588891804,-0.0032874059397727
1770447414042,-0.1339111328125,-0.9632110595703124,0.21337890625,0.0098478365689516,0.0066246129572391,-0.0032570459879934
1770447414052,-0.13323974609375,-0.963714599609375,0.212921142578125,0.0129347071051597,0.0053502907976508,-0.003196858568117
1770447414062,-0.131317138671875,-0.964263916015625,0.216522216796875,0.0116284266114234,0.006336991675198,-0.0041460092179477
1770447414072,-0.1287689208984375,-0.96331787109375,0.2176513671875,0.0117136472836136,0.0080320937559008,-0.0072557823732495
1770447414082,-0.1324920654296875,-0.9645233154296876,0.216461181640625,0.0100297313183546,0.0066461847163736,-0.0084779066964983
1770447414092,-0.13262939453125,-0.9638519287109376,0.216583251953125,0.0043034018017351,0.0025118936318904,-0.0055332495830953
1770447414102,-0.1306304931640625,-0.96368408203125,0.221343994140625,-0.0003659183275885,0.0022056300658732,-0.0044299019500613
1770447414112,-0.1288909912109375,-0.9636077880859376,0.2257080078125,-0.0063348612748086,0.0100137516856193,-0.0035755599383264
1770447414122,-0.12872314453125,-0.964874267578125,0.2221527099609375,-0.0071170316077768,0.0109314769506454,-0.0050381682813167
1770447414132,-0.1282958984375,-0.96685791015625,0.2158966064453125,-0.0035281558521091,0.0126252472400665,-0.0062267370522022
1770447414142,-0.1295928955078125,-0.9676055908203124,0.212921142578125,-0.0019904465880244,0.0034751589410007,-0.0073926686309278
1770447414152,-0.13165283203125,-0.96405029296875,0.2146759033203125,-0.004144677426666,0.0057990332134068,-0.0063846623525023
1770447414162,-0.1303253173828125,-0.9640655517578124,0.2171783447265625,-0.0061673484742641,0.0056214001961052,-0.0067159594036638
1770447414173,-0.132781982421875,-0.962554931640625,0.217864990234375,-0.0056059542112052,0.0092989597469568,-0.0068243504501879
1770447414182,-0.1329345703125,-0.9602813720703124,0.216705322265625,-0.0070800138637423,0.0044261738657951,-0.0058405785821378
1770447414192,-0.134002685546875,-0.9611663818359376,0.216278076171875,-0.0071649686433374,0.0032858080230653,-0.0062624234706163
1770447414202,-0.134246826171875,-0.96063232421875,0.2145233154296875,-0.0079125175252556,0.0033710293937474,-0.0043031354434788
1770447414212,-0.1316375732421875,-0.9667205810546876,0.21417236328125,-0.0046980823390185,0.0016969662392511,0.0012932310346513
1770447414222,-0.1273193359375,-0.9709930419921876,0.21368408203125,-0.0045675877481698,0.0037766287568956,0.006687996443361
1770447414232,-0.1284332275390625,-0.9668121337890624,0.2162628173828125,-0.0058504324406385,0.0065343319438397,0.005519401282072
1770447414243,-0.1308746337890625,-0.962738037109375,0.2182159423828125,-0.006844057701528,0.008860869333148,0.0043896883726119
1770447414252,-0.134552001953125,-0.9583892822265624,0.218109130859375,-0.0077777621336281,0.0077516627497971,0.0006293049664236
1770447414263,-0.1387481689453125,-0.9591064453125,0.2162628173828125,-0.0072150360792875,0.0007528756395913,-0.0080227730795741
1770447414273,-0.13702392578125,-0.96685791015625,0.2158966064453125,-0.0040314933285117,0.0041731735691428,-0.0041468082927167
1770447414283,-0.1279754638671875,-0.9732513427734376,0.2142486572265625,-0.0011241203173995,0.0082763060927391,0.0050552124157547
1770447414293,-0.1244049072265625,-0.97271728515625,0.2138519287109375,-0.0019294602097943,0.0096526276320219,0.0018018947448581
1770447414303,-0.1294097900390625,-0.9555511474609376,0.21484375,-0.0001390170073136,0.0081191789358854,-0.0055518918670713
1770447414313,-0.13934326171875,-0.9584808349609376,0.2144012451171875,0.0037180392537266,0.0019651465117931,-0.0098686097189784
1770447414323,-0.1346588134765625,-0.969482421875,0.2146453857421875,0.0075013255700469,-0.0006828344776295,-0.0059633501805365
1770447414333,-0.123443603515625,-0.964447021484375,0.2139129638671875,0.0061281998641788,0.0038035267498344,-0.0125402929261326
1770447414343,-0.12628173828125,-0.9532318115234376,0.21893310546875,0.0047931573353707,0.0093993609771132,-0.0184490475803613
1770447414353,-0.138397216796875,-0.95294189453125,0.2239532470703125,0.0014250575331971,0.0104688862338662,-0.0253469012677669
1770447414363,-0.141632080078125,-0.9496307373046876,0.2216644287109375,-0.0003941478498745,0.006351372692734,-0.0267783515155315
1770447414373,-0.13665771484375,-0.9571685791015624,0.2204437255859375,-0.0020026972051709,-0.0028035095892846,-0.0229007881134748
1770447414383,-0.1300506591796875,-0.9696502685546876,0.219146728515625,-0.0024881914723664,-0.0042868903838098,-0.0163227804005146
1770447414393,-0.1245269775390625,-0.9729766845703124,0.2177886962890625,-0.0076962690800428,-0.0047867656685411,-0.0092028193175792
1770447414403,-0.12237548828125,-0.9721221923828124,0.217315673828125,-0.0178202763199806,0.000171507577761,-0.0021214741282165
1770447414413,-0.12457275390625,-0.9709930419921876,0.218109130859375,-0.0265176277607679,0.0035673042293637,0.0038093857001513
1770447414423,-0.1265411376953125,-0.9709930419921876,0.220123291015625,-0.0352139137685298,0.0080118533223867,0.0084848310798406
1770447414433,-0.1260223388671875,-0.9703369140625,0.21966552734375,-0.0390150435268878,0.0126857012510299,0.0133698675781488
1770447414444,-0.1274261474609375,-0.9676666259765624,0.2177734375,-0.039485890418291,0.0090310452505946,0.0090456930920481
1770447414453,-0.1336669921875,-0.966796875,0.215087890625,-0.0365758538246154,0.0071881380863487,0.0058088870719075
1770447414463,-0.136688232421875,-0.9652557373046876,0.2148895263671875,-0.0348357446491718,0.0070286146365106,-0.0016397082945331
1770447414474,-0.1372528076171875,-0.9639129638671876,0.214813232421875,-0.0293938405811786,0.0050104712136089,-0.003785949666053
1770447414484,-0.1365509033203125,-0.9635009765625,0.21240234375,-0.0237447433173656,0.0032578448299318,-0.0088677937164902
1770447414494,-0.1351165771484375,-0.96295166015625,0.2083282470703125,-0.0115962019190192,0.0005962817813269,-0.0090827103704214
1770447414504,-0.131195068359375,-0.9617767333984376,0.2035980224609375,-0.000662594451569,-0.0002332929143449,-0.0075135761871933
1770447414514,-0.1302947998046875,-0.9656219482421876,0.2038116455078125,0.0076507292687892,0.0001965412811841,-0.0042328280396759
1770447414524,-0.126617431640625,-0.9674835205078124,0.2071990966796875,0.0121626565232872,-0.0036866138689219,-0.0014178669080138
1770447414534,-0.1252593994140625,-0.9665679931640624,0.2123565673828125,0.016895892098546,-0.0038192393258213,0.0012514194240793
1770447414544,-0.123382568359375,-0.9671783447265624,0.2129058837890625,0.0206450913101434,0.0008484831196255,0.0049289786256849
1770447414554,-0.123748779296875,-0.9669952392578124,0.2143096923828125,0.0208842419087886,0.0018935075495392,0.0071692294441163
1770447414564,-0.1243133544921875,-0.9656219482421876,0.2142791748046875,0.0195939410477876,0.0015595471486449,0.0078046596609056
1770447414574,-0.126800537109375,-0.963104248046875,0.216094970703125,0.0178927145898342,-0.0025331987999379,0.0033111080992966
1770447414584,-0.1317291259765625,-0.96307373046875,0.219635009765625,0.0136417765170335,-0.0002551308425609,0.002821619156748
1770447414594,-0.128143310546875,-0.9723358154296876,0.2198944091796875,0.008716526441276,0.0065753445960581,0.0153635097667574
1770447414604,-0.1222076416015625,-0.9662628173828124,0.2230377197265625,0.0030189594253897,0.0097455717623233,0.0098334560170769
1770447414614,-0.128631591796875,-0.9562835693359376,0.2212677001953125,-0.006818491499871,0.0116750318557024,-0.0005768407136201
1770447414624,-0.1370391845703125,-0.95635986328125,0.222686767578125,-0.0123275062069296,0.013480388559401,-0.0016112125013023
1770447414634,-0.1359710693359375,-0.9603424072265624,0.223114013671875,-0.0170559491962194,0.0110164321959018,-0.0033001892734318
1770447414644,-0.1337127685546875,-0.960906982421875,0.218994140625,-0.0206211227923631,0.0057095508091151,-0.0033955303952097
1770447414655,-0.1307373046875,-0.9638519287109376,0.2161407470703125,-0.0236470066010952,0.0048922267742455,-0.0032413334120064
1770447414664,-0.1302032470703125,-0.964263916015625,0.21539306640625,-0.0258177481591701,0.0018341189716011,-0.0022786005865782
1770447414674,-0.12896728515625,-0.96630859375,0.215423583984375,-0.0284862369298934,0.0047401604242622,0.0025907231029123
1770447414685,-0.1282501220703125,-0.9676666259765624,0.2148895263671875,-0.0291637443006038,0.0079063922166824,0.0060933125205338
1770447414694,-0.1267242431640625,-0.97064208984375,0.2135467529296875,-0.0261786077171564,0.0072525865398347,0.0091154677793383
1770447414705,-0.1268310546875,-0.9674072265625,0.2131805419921875,-0.0263586360961198,0.0065077003091573,0.010611898265779
1770447414715,-0.130950927734375,-0.9690704345703124,0.2147369384765625,-0.0255221370607614,0.008796420879662,0.0086973514407873
1770447414725,-0.13104248046875,-0.966339111328125,0.21380615234375,-0.0200107265263795,0.009441970847547,0.0066139604896306
1770447414735,-0.1338043212890625,-0.96435546875,0.207855224609375,-0.0149744218215346,0.0040658479556441,0.00369593501091
1770447414745,-0.1373443603515625,-0.96429443359375,0.2084197998046875,-0.0088422270491719,0.0057268617674708,0.0015931029338389
1770447414755,-0.1366424560546875,-0.96429443359375,0.2088165283203125,-0.0004743089957628,0.0055255265906453,-0.0004492752777878
1770447414765,-0.1356658935546875,-0.963714599609375,0.2078857421875,0.0059766662307083,0.0052275187335908,-0.0026868632994592
1770447414775,-0.1373748779296875,-0.962158203125,0.20513916015625,0.0125075355172157,0.0007965514669194,-0.0060240705497562
1770447414785,-0.134796142578125,-0.9611663818359376,0.206329345703125,0.0156756322830915,0.000557133287657,-0.0048616006970405
1770447414795,-0.1320648193359375,-0.964263916015625,0.210479736328125,0.0191910043358802,0.0006604639347642,-0.0041859564371407
1770447414805,-0.1283111572265625,-0.9651031494140624,0.21282958984375,0.0181206800043582,-0.0024170849937945,-0.0016093482263386
1770447414815,-0.1277008056640625,-0.9656982421875,0.2158203125,0.0172583498060703,-0.0029606360476464,-0.0014879080699756
1770447414825,-0.1286163330078125,-0.963043212890625,0.2169952392578125,0.0164546072483062,0.0013313142117112,-0.0033981935121119
1770447414836,-0.127777099609375,-0.964508056640625,0.21710205078125,0.0127032781019806,0.0030567762441933,-0.0040663806721568
1770447414845,-0.128173828125,-0.9642486572265624,0.2189178466796875,0.0070701600052416,0.0040011331439018,0.0001102548703784
1770447414855,-0.1286468505859375,-0.9626312255859376,0.2217254638671875,-5.965480886516161e-05,0.0047524110414087,-0.001285774167627
1770447414866,-0.127288818359375,-0.9633026123046876,0.2231292724609375,-0.0072637717239558,0.0067985174246132,-0.0005424859118647
1770447414875,-0.12933349609375,-0.96575927734375,0.2212982177734375,-0.0111072454601526,0.0053401705808937,0.0023790018167346
1770447414885,-0.129302978515625,-0.9654998779296876,0.2203216552734375,-0.0183883290737867,0.0046498794108629,0.0034378746058791
1770447414895,-0.129425048828125,-0.9658966064453124,0.2216949462890625,-0.0221580322831869,0.0071607073768973,0.001104412949644
1770447414905,-0.1301727294921875,-0.9651947021484376,0.2198638916015625,-0.0240390226244926,0.0071170316077768,0.0037739656399935
1770447414916,-0.1300506591796875,-0.9650115966796876,0.2146759033203125,-0.0223921239376068,0.0023222763556987,0.0015837819082662
1770447414926,-0.13311767578125,-0.96173095703125,0.2124176025390625,-0.0208285823464393,0.0021307952702045,0.0003150519623886
1770447414936,-0.1342315673828125,-0.962554931640625,0.21417236328125,-0.0199233740568161,0.0025182850658893,0.0006641923682764
1770447414946,-0.1329345703125,-0.9622039794921876,0.213958740234375,-0.020379839465022,0.0065721487626433,0.0015387744642794
1770447414956,-0.1320343017578125,-0.964324951171875,0.2136383056640625,-0.0184016432613134,0.0096004297956824,0.0016130766598507
1770447414966,-0.1334075927734375,-0.9674224853515624,0.210723876953125,-0.0122516062110662,0.0055577508173882,0.0039009982720017
1770447414976,-0.130950927734375,-0.9691619873046876,0.2101287841796875,-0.0099237374961376,0.0069266157224774,0.0064283381216228
1770447414986,-0.1300506591796875,-0.968414306640625,0.211700439453125,-0.0072073126211762,0.0059425774961709,0.0088084051385521
1770447414996,-0.1292724609375,-0.9653778076171876,0.2138214111328125,-0.0085311699658632,0.0037646444980055,0.0066349995322525
1770447415006,-0.133056640625,-0.9601898193359376,0.2142486572265625,-0.0065532405860722,0.0031744879670441,0.0023252058308571
1770447415016,-0.1373748779296875,-0.9592742919921876,0.21173095703125,-0.0053028864786028,0.0020000338554382,-0.0038788940291851
1770447415026,-0.1396484375,-0.9619140625,0.2095794677734375,-0.0037502634804695,0.0022381206508725,-0.0093937683850526
1770447415036,-0.1348114013671875,-0.9716033935546876,0.211578369140625,-0.0038237667176872,0.0071982578374445,0.0017840516520664
1770447415046,-0.1231842041015625,-0.9736785888671876,0.215057373046875,-0.0034144388046115,0.0058150123804807,0.008674181997776
1770447415056,-0.1217498779296875,-0.965118408203125,0.2138519287109375,-0.0024016385432332,0.0075015919283032,0.0020847225096076
1770447415066,-0.135101318359375,-0.956329345703125,0.2149810791015625,-4.207794336252846e-05,0.0070456587709486,-0.0078001325018703
1770447415076,-0.1404266357421875,-0.9610137939453124,0.2145233154296875,0.0052874400280416,-0.001219195080921,-0.0075932047329843
1770447415086,-0.130035400390625,-0.9722137451171876,0.21209716796875,0.0053356434218585,-0.0065998458303511,-0.0034075146540999
1770447415096,-0.119415283203125,-0.9608917236328124,0.2160491943359375,0.0013448963873088,0.0027995149139314,-0.0070656328462064
1770447415106,-0.12994384765625,-0.9547882080078124,0.220916748046875,-0.0018828548491001,0.0103288041427731,-0.014462562277913
1770447415116,-0.1396942138671875,-0.955047607421875,0.2210693359375,-0.0076113143004477,0.0081958780065178,-0.0167912300676107
1770447415127,-0.141143798828125,-0.9527587890625,0.22076416015625,-0.0111032510176301,0.001857821131125,-0.0205329712480306
1770447415136,-0.1373748779296875,-0.9633636474609376,0.2200469970703125,-0.0159294307231903,-0.007006776984781,-0.0147328730672597
1770447415146,-0.1289825439453125,-0.9714202880859376,0.2163238525390625,-0.0190956629812717,-0.0115706361830234,-0.00631222454831
1770447415157,-0.1207275390625,-0.9735107421875,0.2123870849609375,-0.0260134916752576,-0.0066435215994715,-0.0018724685069173
1770447415167,-0.1229095458984375,-0.9731903076171876,0.215057373046875,-0.032326515763998,0.0008468852029182,0.0049279131926596
1770447415177,-0.1247100830078125,-0.972198486328125,0.2143707275390625,-0.0393679104745388,0.004007258452475,0.012395417317748
1770447415187,-0.1240692138671875,-0.9716339111328124,0.2126312255859375,-0.0447581484913826,0.002182993106544,0.0189398694783449
1770447415197,-0.1273040771484375,-0.971923828125,0.2143096923828125,-0.0444705300033092,0.0023790018167346,0.0217534992843866
1770447415207,-0.1298675537109375,-0.96820068359375,0.2148284912109375,-0.0402536801993846,0.0061673484742641,0.0174229331314563
1770447415217,-0.1350860595703125,-0.966278076171875,0.212646484375,-0.0378059670329093,0.0050296462140977,0.0112518556416034
1770447415227,-0.1379547119140625,-0.9632415771484376,0.2111358642578125,-0.033510822802782,0.0030852721538394,0.0045580002479255
1770447415237,-0.138031005859375,-0.9637451171875,0.21014404296875,-0.0258763376623392,5.512743518920615e-05,0.0011845740955322
1770447415247,-0.1380767822265625,-0.9637908935546876,0.2079925537109375,-0.0203699860721826,-0.0033654365688562,-0.0048980857245624
1770447415257,-0.1354522705078125,-0.9646453857421876,0.2059326171875,-0.0141315311193466,-0.0055742622353136,-0.0031507858075201
1770447415267,-0.133575439453125,-0.9650421142578124,0.2071380615234375,-0.0054144728928804,-0.0023433153983205,-0.002919090911746
1770447415277,-0.1303558349609375,-0.9664764404296876,0.2040252685546875,0.0061138188466429,-0.0004929511342197,-0.0012897689593955
1770447415287,-0.12689208984375,-0.969940185546875,0.2009124755859375,0.0127903632819652,-0.005338572897017,0.0011345066595822
1770447415297,-0.1255340576171875,-0.9680328369140624,0.2045745849609375,0.0186093710362911,0.0013552826130762,0.0001802960032364
1770447415307,-0.1274261474609375,-0.9687957763671876,0.2079315185546875,0.0206243190914392,0.0014279870083555,0.0052075451239943
1770447415317,-0.1235198974609375,-0.9645538330078124,0.2117156982421875,0.0202544052153825,0.0005595301627181,0.0116638466715812
1770447415327,-0.12384033203125,-0.9673309326171876,0.213531494140625,0.0178967081010341,-0.0048996838741004,0.0105517106130719
1770447415337,-0.1263580322265625,-0.9652557373046876,0.2158203125,0.0150812147185206,-0.0018506306223571,0.0136228678748011
1770447415347,-0.1290283203125,-0.97161865234375,0.21661376953125,0.01010403316468,-0.0034626419655978,0.0199348255991935
1770447415357,-0.1264801025390625,-0.9696807861328124,0.21759033203125,0.0030224213842302,0.003860518336296,0.0180610250681638
1770447415368,-0.1307220458984375,-0.95843505859375,0.219818115234375,-0.0032898029312491,0.0087543427944183,0.0087436903268098
1770447415378,-0.1390380859375,-0.9553375244140624,0.218231201171875,-0.0090771177783608,0.0101642208173871,0.0048482846468687
1770447415388,-0.1387939453125,-0.9588775634765624,0.2180023193359375,-0.0147054428234696,0.0078041274100542,0.002755040070042
1770447415398,-0.133544921875,-0.963592529296875,0.2169189453125,-0.0159438122063875,0.0035374767612665,0.0002476739755365
1770447415408,-0.1308441162109375,-0.96478271484375,0.212493896484375,-0.0186029784381389,-0.000487092154799,-0.0016841830220073
1770447415418,-0.1325225830078125,-0.965362548828125,0.2114715576171875,-0.0210557505488395,-0.0001864212681539,0.0017299894243478
1770447415428,-0.132049560546875,-0.966033935546875,0.2110137939453125,-0.0219236742705106,-0.0001163801352959,0.0059588230215013
1770447415438,-0.1304473876953125,-0.9679718017578124,0.209381103515625,-0.0200679842382669,0.0018453042721375,0.0093056177720427
1770447415448,-0.1300201416015625,-0.969696044921875,0.2088470458984375,-0.0188903342932462,0.001267664716579,0.0117224361747503
1770447415458,-0.1302337646484375,-0.96917724609375,0.2066497802734375,-0.0149997221305966,0.0013286510948091,0.011659319512546
1770447415468,-0.131988525390625,-0.9667205810546876,0.207489013671875,-0.0115559883415699,0.0019771307706832,0.0092369075864553
1770447415478,-0.135284423828125,-0.9660797119140624,0.2085113525390625,-0.0048863678239285,0.0047295079566538,0.0084992125630378
1770447415488,-0.135162353515625,-0.9631500244140624,0.2061309814453125,-0.0024045680183917,0.0022306637838482,0.0049500176683068
1770447415498,-0.1374664306640625,-0.9624176025390624,0.206756591796875,0.0034775556996464,0.0014820491196587,0.0035513252951204
1770447415508,-0.1360931396484375,-0.9627532958984376,0.2076263427734375,0.0087167927995324,0.0018261295044794,0.0045231129042804
1770447415518,-0.13525390625,-0.964263916015625,0.2068023681640625,0.0151003897190094,0.0003962783666793,0.0006095975404605
1770447415528,-0.1341552734375,-0.964080810546875,0.2050323486328125,0.0222043711692094,-0.0027057717088609,-0.0007574030314572
1770447415538,-0.1348419189453125,-0.96258544921875,0.2057342529296875,0.0251940358430147,-0.0021896511316299,-0.0032485239207744
1770447415548,-0.135650634765625,-0.9621124267578124,0.210418701171875,0.0291126109659671,0.0034386736806482,-0.0042717102915048
1770447415558,-0.135009765625,-0.962738037109375,0.2119903564453125,0.0286271180957555,-0.000373907823814,-0.0034240260720252
1770447415568,-0.1304168701171875,-0.9659271240234376,0.2150726318359375,0.0254126824438571,-0.0021648835390806,-0.0034719631075859
1770447415578,-0.130615234375,-0.964141845703125,0.21875,0.0200072638690471,-0.000431165768532,-0.0030245520174503
1770447415588,-0.1305084228515625,-0.962799072265625,0.219268798828125,0.0134140755981206,-0.0033651704434305,-0.0030983216129243
1770447415599,-0.1318359375,-0.96197509765625,0.2210235595703125,0.0048682582564651,-7.163903501350433e-05,-0.0006354302167892
1770447415609,-0.1329345703125,-0.9642486572265624,0.2233734130859375,-0.0019859191961586,0.0048616006970405,-0.0008633967954665
1770447415619,-0.130767822265625,-0.9645843505859376,0.223236083984375,-0.0075250277295708,0.0119003355503082,-0.0021246699616312
1770447415629,-0.1318511962890625,-0.96380615234375,0.221282958984375,-0.0165092013776302,0.0055103464983403,0.0068541774526238
1770447415639,-0.1234588623046875,-0.9643402099609376,0.2215118408203125,-0.0221002418547868,0.0067460532300174,0.0073143718764185
1770447415649,-0.1276092529296875,-0.9682159423828124,0.218841552734375,-0.0251903086900711,0.0065899919718503,0.0073290192522108
1770447415659,-0.1322784423828125,-0.963623046875,0.21820068359375,-0.0281450860202312,0.0058557586744427,0.0085151912644505
1770447415669,-0.1342010498046875,-0.9640045166015624,0.214752197265625,-0.0286090075969696,0.0044538704678416,0.010038785636425
1770447415679,-0.133544921875,-0.9615936279296876,0.2144775390625,-0.0309733618050813,0.0010990865994244,0.0097820572555065
1770447415689,-0.13372802734375,-0.9638671875,0.2120819091796875,-0.0295115523040294,0.0037268276792019,0.0098462393507361
1770447415699,-0.13482666015625,-0.9656829833984376,0.210357666015625,-0.0272958036512136,0.0032695627305656,0.0101754060015082
1770447415709,-0.134979248046875,-0.9646148681640624,0.20867919921875,-0.0226472560316324,0.0051489556208252,0.0087775122374296
1770447415719,-0.1341400146484375,-0.9674530029296876,0.2078399658203125,-0.0192061848938465,0.0052432315424084,0.0105892606079578
1770447415729,-0.132537841796875,-0.9708251953125,0.2059173583984375,-0.0150489909574389,0.0067971860989928,0.0142186172306537
1770447415739,-0.1313323974609375,-0.971343994140625,0.206512451171875,-0.008289354853332,0.0066837351769208,0.0128098046407103
1770447415749,-0.1338043212890625,-0.967193603515625,0.205902099609375,-0.00300058349967,0.0065987803973257,0.0094174705445766
1770447415759,-0.1384429931640625,-0.9626312255859376,0.2073516845703125,0.0017979000695049,0.0029206888284534,0.0052493568509817
1770447415769,-0.143463134765625,-0.959564208984375,0.205718994140625,0.0042983419261872,-0.0037004624027758,-0.0025483788922429
1770447415779,-0.1419219970703125,-0.96209716796875,0.2061920166015625,0.0088014807552099,-0.0002564624010119,-0.0032093753106892
1770447415789,-0.1352996826171875,-0.97015380859375,0.20819091796875,0.0107874004170298,-0.0007872303831391,0.006229932885617
1770447415800,-0.1282806396484375,-0.9722747802734376,0.212860107421875,0.0126031432300806,0.0042136535048484,0.0127655966207385
1770447415809,-0.1269073486328125,-0.968780517578125,0.2123565673828125,0.0153499273583292,0.006663495209068,0.0129195265471935
1770447415819,-0.1315460205078125,-0.95916748046875,0.209716796875,0.018448781222105,0.0005198490689508,0.0018913770327344
1770447415830,-0.1410675048828125,-0.9566192626953124,0.2103729248046875,0.0218773353844881,-0.0091884387657046,-0.0093522230163216
1770447415840,-0.1398773193359375,-0.9666900634765624,0.2132720947265625,0.020878916606307,-0.0082073295488953,-0.0103557016700506
1770447415850,-0.131988525390625,-0.959197998046875,0.217498779296875,0.0177294630557298,0.0022764701861888,-0.0151081131771206
1770447415860,-0.1346435546875,-0.9547119140625,0.223175048828125,0.0103274723514914,0.0093080140650272,-0.0192669052630662
1770447415870,-0.1376190185546875,-0.9545135498046876,0.22332763671875,-0.0006492786924354,0.0086872316896915,-0.0213987659662961
1770447415880,-0.138916015625,-0.9522857666015624,0.2229461669921875,-0.0087519465014338,0.0046850331127643,-0.021253889426589
1770447415890,-0.1365509033203125,-0.9644012451171876,0.2215576171875,-0.0125173898413777,-0.0026964505668729,-0.0161528699100017
1770447415900,-0.1286163330078125,-0.97381591796875,0.216705322265625,-0.0189196281135082,-0.0064895907416939,-0.007463242392987
1770447415910,-0.123382568359375,-0.9758758544921876,0.213592529296875,-0.0258379895240068,-0.0084036048501729,0.0034679684322327
1770447415920,-0.1234283447265625,-0.9701385498046876,0.2139892578125,-0.0352176427841186,-0.0014663364272564,0.0069218217395246
1770447415930,-0.1273345947265625,-0.9690704345703124,0.2154083251953125,-0.0407133400440216,0.0027593011036515,0.0155944060534238
1770447415940,-0.1306915283203125,-0.970733642578125,0.214385986328125,-0.0444303154945373,0.0035329493694007,0.0201524067670106
1770447415950,-0.131317138671875,-0.969390869140625,0.2130584716796875,-0.0454313978552818,0.0039390814490616,0.0230683013796806
1770447415960,-0.1322174072265625,-0.9701690673828124,0.2112274169921875,-0.0423961915075778,0.0065471152774989,0.0190743580460548
1770447415970,-0.137725830078125,-0.9661102294921876,0.2108001708984375,-0.0380453877151012,0.0081567298620939,0.0136127481237053
1770447415980,-0.1409759521484375,-0.96282958984375,0.2087554931640625,-0.0307067800313234,0.0050016827881336,0.0068163606338202
1770447415991,-0.1420745849609375,-0.9626617431640624,0.2060394287109375,-0.0243349000811576,0.00351537251845,0.0016282566357403
1770447416000,-0.139190673828125,-0.9638214111328124,0.2067108154296875,-0.014967231079936,0.0007925567333586,-0.0010562096722424
1770447416010,-0.1376495361328125,-0.96337890625,0.20513916015625,-0.0094899078831076,-0.0028354676906019,-0.0041148499585688
1770447416020,-0.13623046875,-0.9647064208984376,0.20550537109375,-0.002706304192543,-0.0010665960144251,-0.0029475865885615
1770447416030,-0.1350250244140625,-0.96575927734375,0.2064056396484375,0.0071202274411916,0.0007070692372508,-0.000680437660776
1770447416040,-0.131744384765625,-0.967376708984375,0.202239990234375,0.0162034705281257,-0.0029342707712203,0.0033286849502474
1770447416051,-0.1272735595703125,-0.9676361083984376,0.200164794921875,0.024874722585082,-0.0046008769422769,0.0053620086982846
1770447416061,-0.1275634765625,-0.9685516357421876,0.2030792236328125,0.0299190171062946,-0.0058400458656251,0.0086392946541309
1770447416071,-0.12945556640625,-0.9660491943359376,0.2085418701171875,0.0306673645973205,-0.0021004350855946,0.0096997655928134
1770447416081,-0.132781982421875,-0.9651031494140624,0.2126617431640625,0.0274313576519489,-0.0049934270791709,0.0077061229385435
1770447416091,-0.132965087890625,-0.965087890625,0.2149505615234375,0.0209233909845352,-0.001161937136203,0.0114252269268035
1770447416101,-0.131256103515625,-0.97119140625,0.217926025390625,0.0158218406140804,0.003115898463875,0.0163203831762075
1770447416111,-0.1288909912109375,-0.966400146484375,0.2183380126953125,0.0101445131003856,0.0050096721388399,0.014020743779838
1770447416121,-0.132781982421875,-0.9583740234375,0.2191925048828125,0.0012950951931998,0.0083234440535306,0.0079109203070402
1770447416131,-0.1401824951171875,-0.9551849365234376,0.2192230224609375,-0.0034653050824999,0.0111796837300062,0.0007360977469943
1770447416141,-0.141143798828125,-0.9567413330078124,0.21826171875,-0.0073007899336516,0.0069316755980253,-0.0029284118209034
1770447416151,-0.13702392578125,-0.9629974365234376,0.2180023193359375,-0.0125320367515087,0.0064075654372572,-0.0034791536163538
1770447416161,-0.1347198486328125,-0.9642333984375,0.216217041015625,-0.0163214486092329,0.0036839507520198,-0.0037393444217741
1770447416171,-0.133331298828125,-0.964935302734375,0.2149505615234375,-0.0238129217177629,0.001701493631117,-0.0031912659760564
1770447416181,-0.1343994140625,-0.966888427734375,0.216064453125,-0.0268135052174329,0.0046125948429107,0.0020559602417051
1770447416191,-0.1328582763671875,-0.9701995849609376,0.21246337890625,-0.0248049478977918,0.0040243025869131,0.0052275187335908
1770447416201,-0.1295166015625,-0.97125244140625,0.2094573974609375,-0.0253903120756149,0.0021515677217394,0.012909673154354
1770447416211,-0.1300506591796875,-0.9693603515625,0.209197998046875,-0.0236494038254022,0.0032003207597881,0.0144500453025102
1770447416221,-0.1336669921875,-0.967926025390625,0.208282470703125,-0.0199819635599851,0.0064488444477319,0.0123261744156479
1770447416231,-0.1398468017578125,-0.9656524658203124,0.209197998046875,-0.0147360693663358,0.0045151230879127,0.0094872452318668
1770447416241,-0.14208984375,-0.964324951171875,0.2081298828125,-0.0105008436366915,0.0035705000627785,0.0103194825351238
1770447416251,-0.1413726806640625,-0.9615631103515624,0.205718994140625,-0.0039124498143792,0.0008130630594678,0.0067271450534462
1770447416261,-0.1414947509765625,-0.9623260498046876,0.20318603515625,0.0040786312893033,0.001097488682717,0.0012918994762003
1770447416272,-0.1426849365234375,-0.9619598388671876,0.2047119140625,0.0092747248709201,0.0015254586469382,-0.002969158347696
1770447416282,-0.140533447265625,-0.96405029296875,0.206695556640625,0.0154503285884857,0.0027118970174342,-0.0050317766144871
1770447416292,-0.1381378173828125,-0.96435546875,0.206756591796875,0.0186783466488122,0.0017971011111512,-0.0075676385313272
1770447416302,-0.1347808837890625,-0.96417236328125,0.2075958251953125,0.0227633696049451,-0.0005454153870232,-0.0041398839093744
1770447416312,-0.13250732421875,-0.963531494140625,0.209564208984375,0.0251245275139808,-0.0024237427860498,-0.003768905531615
1770447416322,-0.1324310302734375,-0.9621734619140624,0.2113189697265625,0.0222664233297109,-0.0023403859231621,-0.0023081616964191
1770447416332,-0.131866455078125,-0.96099853515625,0.2152862548828125,0.0204932913184165,0.0027827369049191,-0.0043105925433337
1770447416342,-0.135498046875,-0.962646484375,0.2171173095703125,0.0157922785729169,0.0029494508635252,-0.0028208203148096
1770447416352,-0.1337890625,-0.962493896484375,0.219482421875,0.0082555329427123,0.0027454528026282,-0.0017981663113459
1770447416362,-0.1305389404296875,-0.9653778076171876,0.222320556640625,-0.0034916705917567,0.0019566244445741,0.0021536983549594
1770447416372,-0.130706787109375,-0.9666748046875,0.2252655029296875,-0.0121940821409225,0.005493835080415,0.0027664916124194
1770447416382,-0.1306304931640625,-0.9657440185546876,0.22198486328125,-0.0193012598901987,0.0059399143792688,0.0040277647785842
1770447416392,-0.1315765380859375,-0.967041015625,0.2205810546875,-0.023560719564557,0.0069276806898415,0.0054951664060354
1770447416402,-0.133453369140625,-0.965850830078125,0.2169036865234375,-0.028965339064598,0.0051971590146422,0.0049241846427321
1770447416412,-0.1341400146484375,-0.9649810791015624,0.215667724609375,-0.0336122885346412,0.0018527611391618,0.0028509139083325
1770447416422,-0.1377716064453125,-0.9635009765625,0.2188262939453125,-0.0393391512334346,0.0095548890531063,0.0004743089957628
1770447416432,-0.1378936767578125,-0.961761474609375,0.21478271484375,-0.0358426868915557,0.0125504126772284,0.0032413334120064
1770447416442,-0.137603759765625,-0.962005615234375,0.209625244140625,-0.0322631299495697,0.0096251964569091,0.0029385320376604
1770447416452,-0.137786865234375,-0.9630126953125,0.2043609619140625,-0.0294891819357872,0.0040946099907159,0.0026429209392517
1770447416462,-0.1360626220703125,-0.9680023193359376,0.2040252685546875,-0.0249689985066652,0.0054959654808044,0.0047121969982981
1770447416472,-0.1357574462890625,-0.971099853515625,0.2049560546875,-0.0180509053170681,0.0087676588445901,0.0066230152733623
1770447416482,-0.1341552734375,-0.9701690673828124,0.206695556640625,-0.0156585872173309,0.0032242890447378,0.0074573834426701
1770447416492,-0.13543701171875,-0.9654693603515624,0.2069244384765625,-0.0132598793134093,0.0033550502266734,0.005330316722393
1770447416502,-0.1392669677734375,-0.959442138671875,0.2074127197265625,-0.005888249259442,0.0049236523918807,0.0016903083305805
1770447416512,-0.1455230712890625,-0.9606170654296876,0.202728271484375,0.0001741707383189,0.0024559672456234,-0.0055561531335115
1770447416523,-0.1440277099609375,-0.963287353515625,0.2012481689453125,0.006909305229783,-0.0036828855518251,-0.004873052239418
1770447416533,-0.135162353515625,-0.967864990234375,0.2037353515625,0.0111109744757413,0.0078904135152697,0.0015028218040242
1770447416543,-0.1329498291015625,-0.971771240234375,0.208526611328125,0.0170500893145799,0.0112494584172964,0.0064533720724284
1770447416553,-0.1324310302734375,-0.9683990478515624,0.2056427001953125,0.0196006000041961,0.0061785336583852,0.0043617254123091
1770447416563,-0.134185791015625,-0.9617767333984376,0.208282470703125,0.0200541354715824,0.0003920173039659,-0.0077170417644083
1770447416573,-0.1391143798828125,-0.9593048095703124,0.2132568359375,0.0180391874164342,-0.005967877805233,-0.0091775190085172
1770447416583,-0.135406494140625,-0.9697418212890624,0.215179443359375,0.0181124247610569,-0.0040088561363518,-0.0089980224147439
1770447416593,-0.131622314453125,-0.9571533203125,0.2155609130859375,0.0160724427551031,0.0041734399273991,-0.0171156041324138
1770447416603,-0.137481689453125,-0.9557037353515624,0.2150421142578125,0.0137467049062252,0.0078725703060626,-0.0236616525799036
1770447416613,-0.14263916015625,-0.9524993896484376,0.2167205810546875,0.0086379628628492,0.005927397403866,-0.0285866372287273
1770447416623,-0.1434173583984375,-0.95361328125,0.2189178466796875,-0.0014871091116219,0.0015350460307672,-0.0257442463189363
1770447416633,-0.137847900390625,-0.9664154052734376,0.219268798828125,-0.0077143786475062,-0.0019225359428673,-0.0199540015310049
1770447416643,-0.12921142578125,-0.9734344482421876,0.217803955078125,-0.0146452551707625,-0.0044413534924387,-0.0109423957765102
1770447416653,-0.124664306640625,-0.9705963134765624,0.2178192138671875,-0.025865152478218,0.0010386328212916,-0.0080800307914614
1770447416663,-0.127410888671875,-0.967987060546875,0.217315673828125,-0.0336301326751709,0.0084310350939631,-0.0020285297650843
1770447416673,-0.1304931640625,-0.97039794921875,0.2151641845703125,-0.0412675440311431,0.0075513930059969,0.0046432213857769
1770447416683,-0.1316070556640625,-0.9719085693359376,0.2133331298828125,-0.0439560078084468,0.0065843993797898,0.0097620831802487
1770447416693,-0.133941650390625,-0.9694671630859376,0.211883544921875,-0.0433759689331054,0.0076344837434589,0.0110489223152399
1770447416703,-0.1359405517578125,-0.96734619140625,0.21197509765625,-0.0417527742683887,0.0092877745628356,0.0106875319033861
1770447416713,-0.1393890380859375,-0.96453857421875,0.2114105224609375,-0.0373633503913879,0.0121139204129576,0.0079596554860472
1770447416724,-0.1421051025390625,-0.963409423828125,0.2095947265625,-0.0310711003839969,0.0049289786256849,0.0044032703153789
1770447416734,-0.1386566162109375,-0.963714599609375,0.208099365234375,-0.0253953710198402,0.0020823257509618,0.0008314388687722
1770447416743,-0.137420654296875,-0.9668731689453124,0.2073211669921875,-0.0216195415705442,0.0015504923649132,-0.0016825852217152
1770447416754,-0.138397216796875,-0.9679718017578124,0.208160400390625,-0.0187672954052686,0.0028274781070649,-0.0016389093361794
1770447416764,-0.1341705322265625,-0.966644287109375,0.206878662109375,-0.0119591914117336,0.0028764803428202,-0.0037808897905051
1770447416774,-0.1342926025390625,-0.9678955078125,0.204132080078125,-0.0036043222062289,0.0018586200894787,-0.0016362462192773
1770447416784,-0.1315155029296875,-0.9688568115234376,0.2018890380859375,0.0023813985753804,0.0030418625101447,0.0039619845338165
1770447416794,-0.131072998046875,-0.9691925048828124,0.2012481689453125,0.00894396007061,0.0022357236593961,0.00604351144284
1770447416804,-0.129302978515625,-0.965789794921875,0.204833984375,0.0090299798175692,0.0016887104138731,0.0125573370605707
1770447416814,-0.1274261474609375,-0.965118408203125,0.2081756591796875,0.0094595476984977,0.0038775624707341,0.0132281873375177
1770447416824,-0.1290740966796875,-0.966644287109375,0.210601806640625,0.0079255672171711,-0.0002053297212114,0.0114649087190628
1770447416835,-0.1329803466796875,-0.9653167724609376,0.2103271484375,0.0047366982325911,-0.0029342707712203,0.0120822293683886
1770447416844,-0.1322784423828125,-0.970001220703125,0.2133331298828125,-0.0003158508916385,0.0006314354832284,0.02077292278409
1770447416854,-0.128753662109375,-0.967041015625,0.216064453125,-0.0096896449103951,0.007268032990396,0.0216983705759048
1770447416864,-0.1316070556640625,-0.959442138671875,0.2177276611328125,-0.0181462466716766,0.0127754500135779,0.0148639008402824
1770447416874,-0.1416473388671875,-0.9549407958984376,0.2170867919921875,-0.0238717775791883,0.0153914727270603,0.0052086105570197
1770447416884,-0.1466217041015625,-0.9598236083984376,0.2147369384765625,-0.0249655377119779,0.013209811411798,0.0030610372778028
1770447416894,-0.1404571533203125,-0.96484375,0.2122802734375,-0.0265434607863426,0.0073575149290263,0.0029742182232439
1770447416904,-0.135589599609375,-0.964996337890625,0.2080078125,-0.0299656223505735,0.0054562846198678,0.0038048583082854
1770447416914,-0.1360321044921875,-0.9663543701171876,0.208038330078125,-0.0306902676820755,0.0071647022850811,0.0008815063047222
1770447416924,-0.140777587890625,-0.9673614501953124,0.204986572265625,-0.0280326995998621,0.0093737943097949,-0.0003020024741999
1770447416934,-0.14434814453125,-0.9703369140625,0.2017059326171875,-0.0265266820788383,0.0028783443849533,0.0018599516479298
1770447416944,-0.1392059326171875,-0.9682769775390624,0.20660400390625,-0.0266806129366159,0.0046346993185579,0.0060355220921337
1770447416955,-0.135528564453125,-0.968994140625,0.2079010009765625,-0.0190051160752773,0.0068123661912977,0.0072352760471403
1770447416964,-0.1365966796875,-0.9678192138671876,0.2044219970703125,-0.0133112780749797,0.0061633535660803,0.0031204258557409
1770447416975,-0.1395721435546875,-0.9653472900390624,0.2011566162109375,-0.005585447885096,0.0056227319873869,0.0001243696169694
1770447416985,-0.1421661376953125,-0.9647674560546876,0.1990203857421875,0.0036930055357515,0.0027345337439328,0.0010322412708774
1770447416995,-0.142669677734375,-0.9630126953125,0.197967529296875,0.0122553342953324,0.001104412949644,-0.0010783139150589
1770447417005,-0.14068603515625,-0.963134765625,0.2012481689453125,0.0178013667464256,0.0028298748657107,-0.0022141521330922
1770447417015,-0.1396636962890625,-0.9644927978515624,0.2036590576171875,0.0205084700137376,0.002250104676932,-0.0051726577803492
1770447417025,-0.1378936767578125,-0.964141845703125,0.2064361572265625,0.0216429773718118,0.0028250813484191,-0.0070781493559479
1770447417035,-0.1361236572265625,-0.9625396728515624,0.2078094482421875,0.0217657499015331,0.004471980035305,-0.0059548281133174
1770447417045,-0.1368408203125,-0.9661407470703124,0.2088775634765625,0.0245628673583269,0.0059777311980724,-0.0062118233181536
1770447417055,-0.1331787109375,-0.96661376953125,0.20794677734375,0.02216761931777,0.003835484618321,-0.0041156490333378
1770447417065,-0.1326904296875,-0.9664154052734376,0.2113037109375,0.0183574352413415,0.0010135991033166,-0.0068935924209654
1770447417075,-0.134002685546875,-0.966522216796875,0.2117156982421875,0.0164109319448471,0.0019406455103307,-0.0060483049601316
1770447417085,-0.13616943359375,-0.9657745361328124,0.214019775390625,0.0105586349964141,0.0017803232185542,-0.0074592479504644
1770447417095,-0.13616943359375,-0.963958740234375,0.21588134765625,0.0050373692065477,0.0014535533264279,-0.0049481531605124
1770447417105,-0.1348876953125,-0.964935302734375,0.2169647216796875,-0.0050533479079604,0.0021188110113143,-0.0031145669054239
1770447417115,-0.1340484619140625,-0.9656982421875,0.218719482421875,-0.0084571344777941,0.0083109270781278,-0.0004021373169962
1770447417125,-0.131927490234375,-0.9654693603515624,0.215789794921875,-0.0130345756188035,0.0063298013992607,0.0008985505555756
1770447417135,-0.1346893310546875,-0.96466064453125,0.2130126953125,-0.0173672717064619,0.0046267095021903,-0.0011899003293365
1770447417145,-0.1360626220703125,-0.9645538330078124,0.2126007080078125,-0.0152218295261263,0.0083245085552334,-0.0022274679504334
1770447417155,-0.1380767822265625,-0.9644927978515624,0.2078857421875,-0.0149898687377572,0.004694087896496,-0.0020341223571449
1770447417165,-0.1380767822265625,-0.964569091796875,0.2085723876953125,-0.0140921166166663,0.0018490327056497,-0.0030370689928531
1770447417175,-0.13702392578125,-0.964111328125,0.208160400390625,-0.0124433534219861,0.0048006139695644,-0.0049377670511603
1770447417186,-0.13787841796875,-0.96478271484375,0.2062835693359375,-0.009182047098875,0.0017451694002375,-0.0058131478726863
1770447417196,-0.1381072998046875,-0.9657135009765624,0.206085205078125,-0.0061279335059225,0.0062373895198106,-0.0075849490240216
1770447417206,-0.1391143798828125,-0.9646453857421876,0.2065582275390625,-0.0019358517602086,0.0048466869629919,-0.0043233758769929
1770447417216,-0.1385650634765625,-0.965850830078125,0.2042236328125,0.0009736517095007,0.0022378542926162,-0.0017449031583964
1770447417226,-0.1356964111328125,-0.97052001953125,0.2050018310546875,0.0039643817581236,0.0022346584592014,0.0032674323301762
1770447417236,-0.1335906982421875,-0.9705657958984376,0.20721435546875,0.0054821171797811,0.005143629387021,0.003221093211323
1770447417246,-0.13568115234375,-0.965423583984375,0.2064361572265625,0.0067961206659674,0.0069367354735732,0.0002897519152611
1770447417256,-0.1388092041015625,-0.96063232421875,0.20819091796875,0.0063985106535255,0.0074041201733052,-0.0034543862566351
1770447417266,-0.141204833984375,-0.957916259765625,0.208251953125,0.0081591261550784,0.0013148026773706,-0.0093895066529512
1770447417276,-0.141082763671875,-0.96142578125,0.20660400390625,0.0089583415538072,0.0010247844038531,-0.012238023802638
1770447417286,-0.138092041015625,-0.9683837890625,0.20794677734375,0.011567173525691,0.0088763162493705,-0.0028831381350755
1770447417296,-0.1300048828125,-0.973907470703125,0.209442138671875,0.0132308509200811,0.0092265214771032,0.0002671150432433
1770447417306,-0.127899169921875,-0.967010498046875,0.2109527587890625,0.014225541613996,0.0091271856799721,-0.0022367890924215
1770447417316,-0.1343841552734375,-0.95947265625,0.2121124267578125,0.011403389275074,0.007245129905641,-0.0062168831937015
1770447417326,-0.1390380859375,-0.966094970703125,0.2140045166015625,0.009720005095005,0.0031017838045954,-0.0063255401328206
1770447417336,-0.131317138671875,-0.9694366455078124,0.2171630859375,0.0029909962322562,0.0076829534955322,-0.0048480182886123
1770447417346,-0.1283111572265625,-0.9567108154296876,0.21893310546875,-0.0044184504076838,0.0122039355337619,-0.0110214920714497
1770447417356,-0.138397216796875,-0.9510040283203124,0.2220611572265625,-0.0170676670968532,0.0148159638047218,-0.0166468881070613
1770447417366,-0.1437530517578125,-0.9492645263671876,0.2234954833984375,-0.0221282057464122,0.0163030736148357,-0.0175917763262987
1770447417376,-0.142669677734375,-0.953887939453125,0.2181549072265625,-0.0286723915487527,0.0075572519563138,-0.016463128849864
1770447417386,-0.1370391845703125,-0.965911865234375,0.2175750732421875,-0.0329675376415252,0.0032408006954938,-0.0125157916918396
1770447417396,-0.1304931640625,-0.9722747802734376,0.2158355712890625,-0.0406009554862976,-0.000116912771773,-0.0039502666331827
1770447417407,-0.1284027099609375,-0.97393798828125,0.2131195068359375,-0.0472860224545002,0.0034514567814767,-0.0005579322460107
1770447417417,-0.12939453125,-0.9731292724609376,0.209991455078125,-0.0549828261137008,0.0052024852484464,0.0061380537226796
1770447417427,-0.130767822265625,-0.971466064453125,0.209686279296875,-0.0615384615957737,0.0078986696898937,0.0112294852733612
1770447417437,-0.133636474609375,-0.971343994140625,0.2059173583984375,-0.0601656027138233,0.0076581859029829,0.0159605909138917
1770447417447,-0.1349945068359375,-0.97021484375,0.2001800537109375,-0.056153018027544,0.0081162499263882,0.0171566158533096
1770447417457,-0.1363525390625,-0.9692230224609376,0.2003173828125,-0.0499475859105587,0.010733338072896,0.0145392613485455
1770447417467,-0.138275146484375,-0.96746826171875,0.2013702392578125,-0.0414917841553688,0.0146734844893217,0.0098947091028094
1770447417477,-0.1416168212890625,-0.966064453125,0.2008209228515625,-0.0327395722270011,0.013103817589581,0.0038237667176872
1770447417487,-0.1423187255859375,-0.9647674560546876,0.2002716064453125,-0.0250837821513414,0.004596616141498,-0.0037385455798357
1770447417497,-0.13958740234375,-0.963409423828125,0.198944091796875,-0.0124217821285128,0.0048895636573433,-0.0067521785385906
1770447417507,-0.1394500732421875,-0.966461181640625,0.1949462890625,-0.0026328009553253,0.0012684636749327,-0.0071937306784093
1770447417517,-0.1399993896484375,-0.96343994140625,0.1962890625,0.009158344939351,0.0028168254066258,-0.0100182797759771
1770447417527,-0.1390533447265625,-0.9655609130859376,0.1933746337890625,0.0228027831763029,-0.0018852517241612,-0.0085551384836435
1770447417537,-0.134613037109375,-0.966796875,0.19329833984375,0.0352288261055946,-0.0017126789316534,-0.0079548619687557
1770447417547,-0.1320953369140625,-0.968109130859375,0.19464111328125,0.0455296672880649,-0.002084988867864,-0.0052355085499584
1770447417557,-0.129791259765625,-0.9691314697265624,0.19818115234375,0.051367849111557,-0.0019750001374632,-0.0024546354543417
1770447417567,-0.1291656494140625,-0.9683685302734376,0.20416259765625,0.0499704889953136,0.00019467707898,0.0027212179265916
1770447417577,-0.129180908203125,-0.966644287109375,0.210174560546875,0.0468993298709392,0.0019092201255261,0.0040541300550103
1770447417587,-0.1324310302734375,-0.9647216796875,0.2121734619140625,0.040256343781948,-0.0023036343045532,0.002682069549337
1770447417597,-0.134613037109375,-0.9692840576171876,0.2164764404296875,0.029635390266776,0.0039047268219292,0.0092792520299553
1770447417607,-0.1301422119140625,-0.969146728515625,0.2182464599609375,0.0190021861344575,0.0066437879577279,0.0108595723286271
1770447417618,-0.1328887939453125,-0.961029052734375,0.220306396484375,0.008364456705749,0.0082968119531869,0.004709533881396
1770447417627,-0.140228271484375,-0.9570770263671876,0.2206878662109375,-0.0018335863715037,0.0141826644539833,-0.0043257726356387
1770447417638,-0.14190673828125,-0.9579925537109376,0.2190093994140625,-0.0079575255513191,0.0147291449829936,-0.0058166100643575
1770447417647,-0.1374969482421875,-0.9637908935546876,0.2174530029296875,-0.0141810663044452,0.0110872723162174,-0.0065732141956686
1770447417658,-0.1336212158203125,-0.963348388671875,0.215484619140625,-0.0186618342995643,0.0089381011202931,-0.0072957295924425
1770447417669,-0.13421630859375,-0.9658203125,0.2130889892578125,-0.0232059862464666,0.003817641409114,-0.0064243436791002
1770447417678,-0.1372528076171875,-0.9659271240234376,0.212615966796875,-0.0285123344510793,0.005175054538995,-0.0043742419220507
1770447417688,-0.13665771484375,-0.968780517578125,0.2098846435546875,-0.0322205200791358,0.0031441280152648,-0.0001922802330227
1770447417698,-0.13433837890625,-0.9686279296875,0.20904541015625,-0.0304180923849344,0.0040349555201828,0.0048072719946503
1770447417708,-0.131317138671875,-0.9681854248046876,0.20654296875,-0.0298223439604043,0.0069058430381119,0.0080786990001797
1770447417718,-0.133392333984375,-0.9684600830078124,0.2071685791015625,-0.0267727579921484,0.0074211647734045,0.0067878649570047
1770447417728,-0.1353607177734375,-0.96728515625,0.2051849365234375,-0.0251495614647865,0.0064144898205995,0.0072738919407129
1770447417738,-0.1375885009765625,-0.966705322265625,0.2054290771484375,-0.0200472120195627,0.0048141963779926,0.0075404741801321
1770447417748,-0.1387481689453125,-0.96502685546875,0.2044830322265625,-0.0163230467587709,0.0083817671984434,0.004448277875781
1770447417758,-0.1408843994140625,-0.9641876220703124,0.2020416259765625,-0.0067633637227118,0.0067180902697145,-0.0009108011145144
1770447417768,-0.140228271484375,-0.96527099609375,0.1991729736328125,-0.0001965412811841,0.0020964404102414,-0.0021198762115091
1770447417778,-0.13885498046875,-0.9639129638671876,0.199951171875,0.0086262449622154,0.0046293730847537,-0.0033665020018815
1770447417788,-0.138946533203125,-0.9627227783203124,0.200897216796875,0.0114454673603177,0.0021220068447291,-0.0060320599004626
1770447417798,-0.139129638671875,-0.9645843505859376,0.2042083740234375,0.0183049719780683,0.0070022493600845,-0.0061433799564838
1770447417808,-0.13568115234375,-0.9641571044921876,0.20367431640625,0.0226347390562295,0.0036245621740818,-0.0059782639145851
1770447417818,-0.134674072265625,-0.96435546875,0.2042388916015625,0.0265812762081623,0.0026562367565929,-0.0094390418380498
1770447417828,-0.135711669921875,-0.9656982421875,0.205108642578125,0.0254936423152685,-0.0013747237389907,-0.0086938897147774
1770447417838,-0.136138916015625,-0.9635772705078124,0.2076416015625,0.0226073078811168,-0.0006671218434348,-0.007064567413181
1770447417848,-0.1343536376953125,-0.9655914306640624,0.21240234375,0.0162362270057201,-0.0017611484508961,-0.0071425978094339
1770447417859,-0.13470458984375,-0.9661407470703124,0.2173004150390625,0.0075042550452053,0.003155313199386,-0.0053196642547845
1770447417869,-0.1330718994140625,-0.9650115966796876,0.2184600830078125,0.0016639430541545,0.0093764578923583,-0.003500991500914
1770447417879,-0.1334381103515625,-0.9654388427734376,0.21661376953125,-0.0040061930194497,0.0098230699077248,-0.0017235978739336
1770447417889,-0.1334381103515625,-0.96441650390625,0.2138671875,-0.0060139503329992,0.0034511904232203,-0.0017443705582991
1770447417899,-0.1314849853515625,-0.9659881591796876,0.2125244140625,-0.0097349192947149,0.006320746615529,-0.0006109291571192
1770447417909,-0.1317596435546875,-0.965606689453125,0.21282958984375,-0.0145464520901441,0.0102869924157857,-0.0002535329258535
1770447417919,-0.1332550048828125,-0.9662933349609376,0.2135162353515625,-0.016137957572937,0.013015666976571,0.0010175938950851
1770447417929,-0.134124755859375,-0.9655914306640624,0.2129364013671875,-0.0166916288435459,0.0054269894026219,7.80306218075566e-05
1770447417939,-0.1348724365234375,-0.96502685546875,0.2115020751953125,-0.0197846237570047,0.0021148161031305,0.0009952232940122
1770447417949,-0.1373748779296875,-0.9631805419921876,0.210601806640625,-0.019865583628416,0.0024980450980365,-0.000221042369958
1770447417959,-0.1392059326171875,-0.9624176025390624,0.207275390625,-0.0216408465057611,0.0001898833870654,-0.0016591493040323
1770447417969,-0.140045166015625,-0.9632720947265624,0.2089996337890625,-0.0199598595499992,0.0062413844279944,-0.0045353635214269
1770447417979,-0.1383056640625,-0.9666748046875,0.2068939208984375,-0.0157651137560606,0.0067037092521786,-0.003795270808041
1770447417989,-0.1353302001953125,-0.9715728759765624,0.203582763671875,-0.0113290874287486,0.0004982774262316,-5.9388490626588464e-05
1770447417999,-0.1300048828125,-0.9728240966796876,0.2024383544921875,-0.0071505876258015,0.0028245486319065,0.0043326965533196
1770447418009,-0.1299591064453125,-0.9688720703125,0.2026824951171875,-0.0035936695057898,-0.0002500708214938,0.0040884846821427
1770447418019,-0.1337127685546875,-0.964874267578125,0.2034454345703125,-0.0024447818286716,0.0025254755746573,0.003589941188693
1770447418029,-0.1379241943359375,-0.9618988037109376,0.2037353515625,-9.29443194763735e-05,0.0038581213448196,-0.0033627734519541
1770447418039,-0.1427154541015625,-0.960906982421875,0.2039031982421875,0.0025015072897076,0.0044530713930726,-0.0065977154299616
1770447418049,-0.1405029296875,-0.9655609130859376,0.203155517578125,0.0057790596038103,0.0082020033150911,-0.0034274882636964
1770447418059,-0.1345977783203125,-0.970947265625,0.2039337158203125,0.0055007589980959,0.0057819890789687,-0.0002479403046891
1770447418069,-0.132659912109375,-0.9636993408203124,0.2068023681640625,0.0073929349891841,0.0095756622031331,-0.0076062544248998
1770447418079,-0.1409149169921875,-0.9569244384765624,0.2076416015625,0.012891829945147,0.0063497750088572,-0.0147765493020415
1770447418090,-0.143585205078125,-0.9637908935546876,0.2075042724609375,0.0180522371083498,-0.0020058928057551,-0.0157408807426691
1770447418099,-0.13323974609375,-0.9752349853515624,0.20697021484375,0.0235276967287063,-0.0039044604636728,-0.0115890121087431
1770447418110,-0.1264801025390625,-0.9606475830078124,0.2062530517578125,0.0205683913081884,0.0045729139819741,-0.0181808676570653
1770447418120,-0.13519287109375,-0.9508514404296876,0.21405029296875,0.0146343363448977,0.0082403533160686,-0.0230738930404186
1770447418130,-0.142791748046875,-0.9542083740234376,0.2184295654296875,0.0096454368904232,0.0070746871642768,-0.0247309133410453
1770447418140,-0.1392669677734375,-0.956268310546875,0.216644287109375,0.0049372343346476,0.0022913836874067,-0.0231673698872327
1770447418150,-0.1337127685546875,-0.9654693603515624,0.217254638671875,0.0008961536805145,-0.0015374429058283,-0.017347564920783
1770447418160,-0.127471923828125,-0.9723968505859376,0.215789794921875,-0.0057926415465772,-0.0029475865885615,-0.0111972605809569
1770447418170,-0.1256561279296875,-0.97607421875,0.214080810546875,-0.0163624621927738,0.0002716424351092,-0.0067657604813575
1770447418180,-0.12542724609375,-0.9747467041015624,0.2150421142578125,-0.027625236660242,0.0011363708181306,0.0025648903101682
1770447418190,-0.1289825439453125,-0.9729156494140624,0.21588134765625,-0.0381095670163631,0.0029427930712699,0.0075268922373652
1770447418200,-0.1320037841796875,-0.969146728515625,0.213714599609375,-0.0448407083749771,0.0053207296878099,0.0114529244601726
1770447418210,-0.1328887939453125,-0.9680633544921876,0.208648681640625,-0.0474253073334693,0.0077412766404449,0.012450011447072
1770447418220,-0.13507080078125,-0.9671783447265624,0.207611083984375,-0.0464639030396938,0.0085415560752153,0.0121778370812535
1770447418230,-0.137542724609375,-0.9652252197265624,0.2085723876953125,-0.046884685754776,0.0094203995540738,0.0074142403900623
1770447418240,-0.1385498046875,-0.9652557373046876,0.2071685791015625,-0.0424238890409469,0.010800183750689,0.0045345644466578
1770447418250,-0.1377410888671875,-0.965118408203125,0.2041473388671875,-0.0336615554988384,0.006598247680813,0.0011912320042029
1770447418260,-0.1384735107421875,-0.964996337890625,0.1988372802734375,-0.0232054535299539,-0.0009763148264028,-0.0029694247059524
1770447418270,-0.138580322265625,-0.966644287109375,0.1968536376953125,-0.0125853000208735,0.0001866875973064,-0.0064230118878185
1770447418280,-0.137054443359375,-0.966644287109375,0.1972503662109375,-0.0042509376071393,0.0020514330826699,-0.0026762105990201
1770447418290,-0.1337127685546875,-0.96826171875,0.1965179443359375,0.0085322353988885,0.0016327840276062,-0.0027819380629807
1770447418300,-0.1326904296875,-0.9694061279296876,0.196502685546875,0.017502561211586,0.002527339849621,-0.0027366643771529
1770447418310,-0.131866455078125,-0.967803955078125,0.2000579833984375,0.0230248924344778,0.001488440670073,-0.0006064017652533
1770447418321,-0.13031005859375,-0.965484619140625,0.20355224609375,0.0269163027405738,0.0021622204221785,0.0003869573120027
1770447418331,-0.131744384765625,-0.966766357421875,0.205352783203125,0.0278824977576732,2.3435817638528533e-05,0.0012287824647501
1770447418341,-0.1326446533203125,-0.96612548828125,0.2072906494140625,0.027122164145112,-0.0018245317041873,0.0001195759323309
1770447418350,-0.1326904296875,-0.96484375,0.2100677490234375,0.0249644722789526,-0.003506850451231,-0.0029864688403904
1770447418361,-0.1327056884765625,-0.97003173828125,0.2136993408203125,0.0191787537187337,0.0008684568456374,0.0077474019490182
1770447418371,-0.12744140625,-0.96942138671875,0.214263916015625,0.0121458787471055,0.0074419374577701,0.0081601915881037
1770447418381,-0.130462646484375,-0.95953369140625,0.2157135009765625,0.0037542581558227,0.0083343628793954,0.0010508833220228
1770447418391,-0.1391448974609375,-0.9581146240234376,0.2154388427734375,-0.0021523667965084,0.0125490808859467,-0.0015670040156692
1770447418401,-0.1398773193359375,-0.95709228515625,0.2171173095703125,-0.0105040399357676,0.0116374809294939,-0.0048861014656722
1770447418411,-0.1364288330078125,-0.9600830078125,0.218505859375,-0.017822140827775,0.0106220180168747,-0.0052871736697852
1770447418421,-0.1323394775390625,-0.9647216796875,0.214874267578125,-0.0220973119139671,0.0104734133929014,-0.0035436020698398
1770447418431,-0.1302642822265625,-0.9668731689453124,0.21136474609375,-0.0238115899264812,0.0052472264505922,-0.0007400924805551
1770447418441,-0.1324615478515625,-0.9681549072265624,0.2099609375,-0.0289858449250459,0.0040834248065948,-0.0008942894637584
1770447418452,-0.1320953369140625,-0.9692230224609376,0.2097930908203125,-0.0352362841367721,0.0070350063033401,0.002305498579517
1770447418461,-0.1322784423828125,-0.971405029296875,0.2110595703125,-0.0408126786351203,0.004693288821727,0.0081460773944854
1770447418471,-0.1308135986328125,-0.971954345703125,0.21026611328125,-0.0398968160152435,0.0060499031096696,0.0089652650058269
1770447418481,-0.1320037841796875,-0.9703521728515624,0.2073211669921875,-0.0370086170732975,0.0065015750005841,0.007235009688884
1770447418491,-0.137359619140625,-0.9681549072265624,0.202606201171875,-0.0345119051635265,0.0034823494497686,0.0062009040266275
1770447418502,-0.1405029296875,-0.9658050537109376,0.201385498046875,-0.0298929177224636,0.0014863101532682,0.0048370994627475
1770447418511,-0.1414337158203125,-0.9640960693359376,0.2038726806640625,-0.0262254793196916,0.0014626081101596,0.0026293389964848
1770447418521,-0.137664794921875,-0.9657745361328124,0.2025299072265625,-0.0186277460306882,0.0046530752442777,0.0017936390358954
1770447418531,-0.1364593505859375,-0.9664764404296876,0.1968841552734375,-0.0049303099513053,0.0056453687138855,0.0017579526174813
1770447418542,-0.1365203857421875,-0.965972900390625,0.1921539306640625,0.0086241140961647,0.0037558560725301,-0.0027353328187018
1770447418551,-0.1376953125,-0.965057373046875,0.1905670166015625,0.0206245854496955,0.0019116170005872,-0.0051771849393844
1770447418562,-0.1376800537109375,-0.9641876220703124,0.1949920654296875,0.0248132050037384,-0.0004407531523611,-0.0047798412851989
1770447418572,-0.1354217529296875,-0.9682464599609376,0.20184326171875,0.0291371122002601,0.0010665960144251,-0.0047707869671285
1770447418582,-0.134765625,-0.9663848876953124,0.2032318115234375,0.0304050426930189,-0.0014341122005134,-0.0044834315776824
1770447418592,-0.132476806640625,-0.9665985107421876,0.20660400390625,0.0304553769528865,-0.0043894220143556,-0.0033574472181499
1770447418602,-0.1346435546875,-0.966339111328125,0.2078704833984375,0.0261120274662971,-0.0047939564101397,-0.0013741911388933
1770447418612,-0.13470458984375,-0.9648895263671876,0.2131805419921875,0.0190985929220914,-0.002740659052506,-0.0024445154704153
1770447418622,-0.1329803466796875,-0.964996337890625,0.2175445556640625,0.0112795522436499,-0.0004364920896477,-0.0039990027435123
1770447418632,-0.13336181640625,-0.9661407470703124,0.2190399169921875,0.0009773800848051,0.0032783513888716,-0.0054589477367699
1770447418642,-0.1341400146484375,-0.9663238525390624,0.2172088623046875,-0.0059777311980724,0.0041920817457139,-0.0047497479245066
1770447418652,-0.1320648193359375,-0.9654388427734376,0.215545654296875,-0.0114318849518895,0.0025861957110464,-0.0033505228348076
1770447418662,-0.13134765625,-0.9667205810546876,0.2145233154296875,-0.0180642213672399,0.0034128408879041,-0.0031353395897895
1770447418672,-0.132843017578125,-0.9659576416015624,0.214202880859375,-0.0207391008734703,0.0075268922373652,-0.0021409152541309
1770447418682,-0.1327056884765625,-0.966094970703125,0.211944580078125,-0.0200504064559936,0.007644603960216,-0.0002367550187045
1770447418692,-0.1335296630859375,-0.9664459228515624,0.2103271484375,-0.0195148456841707,0.0050546796992421,0.0005275722360238
1770447418702,-0.1327056884765625,-0.9642181396484376,0.20709228515625,-0.0197707749903202,0.0005771070136688,0.0006538060260936
1770447418712,-0.13433837890625,-0.963043212890625,0.205780029296875,-0.019921775907278,-0.0012820457341149,0.0018903117161244
1770447418722,-0.135223388671875,-0.96502685546875,0.2077178955078125,-0.0223279427736997,0.0036671727430075,0.0017579526174813
1770447418732,-0.13421630859375,-0.9637451171875,0.2070465087890625,-0.0238531343638896,0.0024226775858551,0.0039108521305024
1770447418742,-0.1338958740234375,-0.9686279296875,0.20849609375,-0.0243207849562168,0.0051132692024111,0.0091831116005778
1770447418753,-0.13311767578125,-0.9722137451171876,0.2069854736328125,-0.0209497567266225,0.0053335125558078,0.012942430563271
1770447418762,-0.1318206787109375,-0.97027587890625,0.20440673828125,-0.0203550718724727,0.0031539816409349,0.0111706294119358
1770447418773,-0.1350860595703125,-0.9654541015625,0.2057037353515625,-0.0189244225621223,0.0078613851219415,0.0089061427861452
1770447418783,-0.1412811279296875,-0.9625701904296876,0.2047576904296875,-0.0167917627841234,0.0080430125817656,0.0035401401109993
1770447418793,-0.14306640625,-0.96337890625,0.2039794921875,-0.0136889144778251,0.0066485814750194,-0.0040440103039145
1770447418803,-0.1415557861328125,-0.9654541015625,0.2018280029296875,-0.0087263798341155,0.0034080471377819,-0.005387841258198
1770447418813,-0.1370391845703125,-0.9717864990234376,0.2019805908203125,-0.0089940279722213,0.0016237293602898,0.0014317154418677
1770447418823,-0.128448486328125,-0.9697113037109376,0.204437255859375,-0.0092693986371159,0.0016911072889342,-0.0008226504432968
1770447418833,-0.1334075927734375,-0.9618377685546876,0.20806884765625,-0.0056674731895327,0.0060448427684605,-0.005225121974945
1770447418843,-0.13909912109375,-0.9602508544921876,0.2065277099609375,-0.0005667206714861,0.0017451694002375,-0.0065433867275714
1770447418853,-0.1358184814453125,-0.9729461669921876,0.200775146484375,0.0080656493082642,-0.0053268549963831,-0.0013606089632958
1770447418863,-0.1228485107421875,-0.9744110107421876,0.199798583984375,0.0080656493082642,-0.0053268549963831,-0.0013606089632958
1770447418873,-0.124603271484375,-0.9542083740234376,0.204132080078125,0.0111242905259132,-0.0023742080666124,-0.0017148094484582
1770447418883,-0.141815185546875,-0.9541015625,0.211944580078125,0.0051830438897013,0.0148820104077458,-0.0161129236221313
1770447418893,-0.1462554931640625,-0.9539337158203124,0.2118072509765625,0.0012290488230064,0.0126686571165919,-0.0172559525817632
1770447418903,-0.1415557861328125,-0.9576416015625,0.208953857421875,0.00041385521763,0.0044512073509395,-0.0162910893559455
1770447418913,-0.1355743408203125,-0.9694976806640624,0.2086639404296875,-0.000645816558972,-0.003343598684296,-0.0113599793985486
1770447418923,-0.1306304931640625,-0.9734954833984376,0.2093505859375,-0.009835054166615,-0.0042211101390421,-0.0047452202998101
1770447418933,-0.128936767578125,-0.9715728759765624,0.21026611328125,-0.0147706903517246,0.0006910903030075,0.0020077570807188
1770447418943,-0.1298675537109375,-0.972503662109375,0.20770263671875,-0.0229583121836185,0.0005161206354387,0.0052626724354922
1770447418953,-0.129608154296875,-0.9741668701171876,0.2039337158203125,-0.0287072788923978,0.0011683288030326,0.009784453548491
1770447418963,-0.1317138671875,-0.9721832275390624,0.208251953125,-0.0376706793904304,0.0008056062506511,0.0126795759424567
1770447418974,-0.1322784423828125,-0.9685516357421876,0.2101593017578125,-0.0406773872673511,0.0068342038430273,0.0131482928991317
1770447418983,-0.1364593505859375,-0.9682159423828124,0.209381103515625,-0.0415077619254589,0.0116252303123474,0.0095857819542288
1770447418994,-0.1378631591796875,-0.965972900390625,0.2094879150390625,-0.0386901386082172,0.0147115681320428,0.005093561951071
1770447419004,-0.13958740234375,-0.964385986328125,0.205535888671875,-0.0341379977762699,0.0084904236719012,0.0010125337867066
1770447419014,-0.1383209228515625,-0.9653167724609376,0.2009124755859375,-0.0296460427343845,0.0024319987278431,-2.0506340661086145e-05
1770447419024,-0.1388702392578125,-0.9634857177734376,0.199615478515625,-0.0208924990147352,-0.0002348908019484,-0.0020397149492055
1770447419034,-0.1372222900390625,-0.9642333984375,0.197113037109375,-0.0094270575791597,0.0017190704820677,-0.0024447818286716
1770447419044,-0.1356964111328125,-0.9654693603515624,0.1961212158203125,0.0015875103417783,-0.0001371527905575,-0.0006615291931666
1770447419054,-0.131988525390625,-0.96746826171875,0.1949310302734375,0.0096289254724979,-0.0039726374670863,0.0028929917607456
1770447419064,-0.128509521484375,-0.9698028564453124,0.1956634521484375,0.0161651205271482,-0.0020916466601192,0.0066744145005941
1770447419074,-0.13037109375,-0.969818115234375,0.199615478515625,0.0166918952018022,0.0045492118224501,0.0079508675262331
1770447419084,-0.1305694580078125,-0.968780517578125,0.2040863037109375,0.0165092013776302,0.0055710668675601,0.0126316389068961
1770447419094,-0.1304931640625,-0.9665679931640624,0.2066497802734375,0.0140516366809606,8.149272616719827e-05,0.0136755984276533
1770447419104,-0.1324005126953125,-0.968353271484375,0.20989990234375,0.0093772560358047,-0.0072906697168946,0.0113719636574387
1770447419114,-0.13409423828125,-0.9705963134765624,0.2119903564453125,0.0037225666455924,-0.0007597998483106,0.0172149389982223
1770447419124,-0.13067626953125,-0.97711181640625,0.20806884765625,-0.0024506407789885,0.0041824942454695,0.0215548258274793
1770447419134,-0.1287689208984375,-0.9613037109375,0.21142578125,-0.0092755239456892,0.0089916307479143,0.0128225879743695
1770447419144,-0.13916015625,-0.9580078125,0.2117767333984375,-0.0157259665429592,0.0118121849372982,0.0039880839176476
1770447419154,-0.1451568603515625,-0.957794189453125,0.2111663818359375,-0.0189055148512125,0.0108292121440172,-0.0011467571603134
1770447419164,-0.14434814453125,-0.9609375,0.2080841064453125,-0.0217931792140007,0.002544383984059,-0.0034554514568299
1770447419174,-0.1376953125,-0.9654693603515624,0.20281982421875,-0.0180639550089836,-0.0002908172027673,-0.0039606532081961
1770447419184,-0.132110595703125,-0.968597412109375,0.2003326416015625,-0.0172791220247745,0.0009558085002936,-0.0003198456543032
1770447419194,-0.1311492919921875,-0.9691314697265624,0.1964263916015625,-0.0127208549529314,0.0021086910273879,0.001759816892445
1770447419204,-0.1343841552734375,-0.9710235595703124,0.1968994140625,-0.0129280490800738,0.0002338255435461,0.0046775760129094
1770447419214,-0.1348876953125,-0.9713134765625,0.1992340087890625,-0.0098065575584769,-0.0015957661671563,0.0066214175894856
1770447419225,-0.1338348388671875,-0.97088623046875,0.1991424560546875,-0.0054016895592212,-0.0007094661123119,0.0083476779982447
1770447419235,-0.1344451904296875,-0.9688720703125,0.1999053955078125,-0.0022090920247137,-0.0005645901546813,0.0080174468457698
1770447419245,-0.13616943359375,-0.969573974609375,0.2034454345703125,-0.0014213290996849,0.0036860811524093,0.0066528427414596
1770447419255,-0.140533447265625,-0.9665679931640624,0.2026824951171875,0.0047044740058481,0.0052437642589211,0.0023638217244297
1770447419265,-0.1414642333984375,-0.96429443359375,0.2012481689453125,0.0094174705445766,-0.0002138518320862,0.0033971283119171
1770447419275,-0.141326904296875,-0.9650115966796876,0.199676513671875,0.0120113892480731,-0.0081929489970207,0.0002721750643104
1770447419285,-0.1408843994140625,-0.9661102294921876,0.20135498046875,0.0135629465803503,-0.005102883093059,-0.001930259168148
1770447419295,-0.139373779296875,-0.9652557373046876,0.201324462890625,0.0202099308371543,-0.0006367618334479,-0.0027212179265916
1770447419305,-0.1367340087890625,-0.964935302734375,0.2019195556640625,0.0210360437631607,-0.0021403825376182,-0.0025513083674013
1770447419315,-0.13580322265625,-0.96453857421875,0.2013092041015625,0.0251751281321048,-0.0053867758251726,-0.0031292142812162
1770447419325,-0.1360015869140625,-0.9650726318359376,0.2025146484375,0.0256233382970094,-0.0020050939638167,-0.002568086143583
1770447419335,-0.1351165771484375,-0.9662322998046876,0.2068023681640625,0.0208956953138113,-0.0049694585613906,0.0009824400767683
1770447419345,-0.1342620849609375,-0.9667510986328124,0.213226318359375,0.0139581598341465,-0.0023715449497103,0.0028149613644927
1770447419355,-0.1329345703125,-0.9649658203125,0.2169036865234375,0.007179083302617,0.0013662016717717,0.0054301852360367
1770447419365,-0.1324310302734375,-0.9630279541015624,0.2151641845703125,-0.0024783376138657,0.0015398397808894,0.0056014265865087
1770447419375,-0.1341552734375,-0.9626312255859376,0.2152862548828125,-0.0133972978219389,-0.0010349043877795,0.00595109956339
1770447419385,-0.1332855224609375,-0.9633331298828124,0.2168426513671875,-0.0243226494640111,-0.0019214707426726,0.0063985106535255
1770447419395,-0.1342010498046875,-0.96539306640625,0.2184600830078125,-0.0376451127231121,-0.0023244069889187,0.008920257911086
1770447419405,-0.1334381103515625,-0.968841552734375,0.2200469970703125,-0.0470735020935535,0.0035683694295585,0.0119440108537673
1770447419415,-0.1331939697265625,-0.965972900390625,0.2181854248046875,-0.0542581789195537,0.0105080343782901,0.010154366493225
1770447419425,-0.133148193359375,-0.9668731689453124,0.2131500244140625,-0.0574153549969196,0.0089082736521959,0.0098979044705629
1770447419435,-0.1362762451171875,-0.9665985107421876,0.204833984375,-0.0571607574820518,0.0079596554860472,0.0111013865098357
1770447419446,-0.1384735107421875,-0.9651336669921876,0.20074462890625,-0.0540525838732719,0.0041020670905709,0.0106875319033861
1770447419456,-0.1399078369140625,-0.965667724609375,0.1993865966796875,-0.0519297756254673,0.0010285128373652,0.0110422642901539
1770447419466,-0.1392364501953125,-0.9679107666015624,0.1982879638671875,-0.0462042465806007,0.0055937035940587,0.0113232284784317
1770447419476,-0.1360626220703125,-0.967620849609375,0.1959381103515625,-0.0371281951665878,0.0080976076424121,0.010602043941617
1770447419486,-0.1367340087890625,-0.9701080322265624,0.1934967041015625,-0.0254124160856008,0.0042421491816639,0.0142154209315776
1770447419496,-0.1385955810546875,-0.9720306396484376,0.1882171630859375,-0.0158151816576719,0.0034309504553675,0.0146433915942907
1770447419506,-0.1383819580078125,-0.9711761474609376,0.19024658203125,-0.0038911446463316,0.0034799524582922,0.010955711826682
1770447419516,-0.139312744140625,-0.9674835205078124,0.188568115234375,0.0030384005513042,-0.0030037793330848,0.0046211169101297
1770447419526,-0.142242431640625,-0.9641876220703124,0.1926727294921875,0.0083540696650743,-0.0073298183269798,-0.002722815843299
1770447419536,-0.1464996337890625,-0.9664154052734376,0.1958465576171875,0.0156045258045196,-0.0041465419344604,-0.0057556238025426
1770447419546,-0.1412811279296875,-0.9663848876953124,0.193603515625,0.0210821162909269,-0.005617672111839,-0.0045904908329248
1770447419556,-0.137176513671875,-0.9703369140625,0.1927947998046875,0.0279746428132057,-0.0023683491162955,-0.0030293457675725
1770447419566,-0.1360931396484375,-0.9669342041015624,0.1962432861328125,0.0346679650247097,0.0011273160343989,-0.0017616810509935
1770447419576,-0.13641357421875,-0.9593048095703124,0.1972808837890625,0.0411951057612896,-0.0012953615514561,-0.0099208075553178
1770447419586,-0.14068603515625,-0.96142578125,0.2004547119140625,0.0481696613132953,-0.0035217641852796,-0.0152673693373799
1770447419596,-0.1405792236328125,-0.968048095703125,0.20050048828125,0.0513958111405372,-0.0112928682938218,-0.0133546879515051
1770447419606,-0.132415771484375,-0.96795654296875,0.203765869140625,0.0527731999754905,-0.0087415594607591,-0.0134630780667066
1770447419616,-0.1331329345703125,-0.958526611328125,0.20794677734375,0.0483116060495376,-0.0027771443128585,-0.017667144536972
1770447419626,-0.14080810546875,-0.955413818359375,0.2124176025390625,0.0387892089784145,-0.0004711131914518,-0.0246089398860931
1770447419636,-0.1419525146484375,-0.9523162841796876,0.21771240234375,0.026313629001379,-0.0048916940577328,-0.0268412008881568
1770447419646,-0.1420745849609375,-0.9580078125,0.2219085693359375,0.0108188251033425,-0.0074344803579151,-0.0235095862299203
1770447419657,-0.1358489990234375,-0.970672607421875,0.220947265625,-0.0009744506096467,-0.0077846860513091,-0.0179270692169666
1770447419667,-0.1285247802734375,-0.974884033203125,0.2167205810546875,-0.0122113926336169,-0.004743356257677,-0.0076624471694231
1770447419677,-0.126251220703125,-0.974884033203125,0.213134765625,-0.0224637631326913,-0.0001584580895723,0.0009446232579648
1770447419687,-0.12677001953125,-0.9724273681640624,0.2128143310546875,-0.0327574126422405,0.0016871124971657,0.0098960399627685
1770447419697,-0.130157470703125,-0.971435546875,0.2117767333984375,-0.0394997373223304,0.0023092268966138,0.0172546207904815
1770447419707,-0.13177490234375,-0.9697418212890624,0.2109832763671875,-0.0453347228467464,0.0029358686879277,0.0206996854394674
1770447419717,-0.1340484619140625,-0.96722412109375,0.2105712890625,-0.0477408915758132,0.0023100259713828,0.0189710278064012
1770447419727,-0.139129638671875,-0.9650421142578124,0.2116241455078125,-0.0519396290183067,0.0035321505274623,0.0149171641096472
1770447419737,-0.1439361572265625,-0.9622344970703124,0.21099853515625,-0.0500021800398826,0.0099375853314995,0.0103362603113055
1770447419747,-0.1430511474609375,-0.9619903564453124,0.2061614990234375,-0.0434950143098831,0.0093413041904568,0.0044205812737345
1770447419757,-0.1421661376953125,-0.964324951171875,0.1973876953125,-0.0325068086385726,0.0037888791412115,0.0020426444243639
1770447419767,-0.138092041015625,-0.9676055908203124,0.1930999755859375,-0.0238222423940897,-0.002379268174991,-0.001212004572153
1770447419777,-0.1373291015625,-0.9689178466796876,0.1943511962890625,-0.0120396185666322,-0.0021017666440457,-0.0001339570007985
1770447419787,-0.135894775390625,-0.9699859619140624,0.195281982421875,-0.0024916534312069,-0.0033116408158093,0.0021963089238852
1770447419797,-0.13543701171875,-0.970977783203125,0.197113037109375,0.0023441144730895,0.0002668487431947,0.0018237327458336
1770447419807,-0.135894775390625,-0.9720458984375,0.1956024169921875,0.0119994049891829,-0.0027249464765191,0.0050285807810723
1770447419817,-0.12890625,-0.9668731689453124,0.1956939697265625,0.0165305063128471,-0.0074174362234771,0.0087644634768366
1770447419827,-0.129638671875,-0.968780517578125,0.197021484375,0.0240198485553264,-0.0065146246924996,0.0093668699264526
1770447419838,-0.134613037109375,-0.9680633544921876,0.199066162109375,0.0277655851095914,-0.0078712385147809,0.0061476412229239
1770447419847,-0.137542724609375,-0.96734619140625,0.2015838623046875,0.0275253672152757,-0.0065702847205102,0.0103903226554393
1770447419857,-0.1328582763671875,-0.9761199951171876,0.202972412109375,0.0263304077088832,-0.0048296428285539,0.0189808811992406
1770447419869,-0.12799072265625,-0.96844482421875,0.2067108154296875,0.0217742715030908,-0.0012484899489209,0.0185140296816825
1770447419877,-0.13555908203125,-0.9580841064453124,0.2095794677734375,0.0193816870450973,0.0041939462535083,0.0098331896588206
1770447419887,-0.14593505859375,-0.9591522216796876,0.209716796875,0.0135781271383166,0.0017520936671644,0.0051060789264738
1770447419897,-0.1449737548828125,-0.9560089111328124,0.210113525390625,0.0085652582347393,-0.0016903083305805,0.0017249294323846
1770447419908,-0.140380859375,-0.9596405029296876,0.2113800048828125,0.0013494236627593,-0.0001166464571724,-0.0008956210804171
1770447419918,-0.138427734375,-0.966278076171875,0.212127685546875,-0.0059172776527702,0.0024453145451843,-0.0002844255941454
1770447419928,-0.135955810546875,-0.96649169921875,0.2104339599609375,-0.008632636629045,0.0048509477637708,0.0009869674686342
1770447419938,-0.136322021484375,-0.969024658203125,0.2055816650390625,-0.0098118847236037,0.0015206650132313,0.0041598575189709
1770447419948,-0.1353607177734375,-0.9705352783203124,0.2056121826171875,-0.0141770718619227,0.0010082727530971,0.0080504696816205
1770447419958,-0.1360626220703125,-0.9694976806640624,0.207611083984375,-0.0167685933411121,0.0012458267156034,0.0100592924281954
1770447419969,-0.136871337890625,-0.9683990478515624,0.2072601318359375,-0.0197103209793567,0.0010817759903147,0.0096262618899345
1770447419978,-0.137420654296875,-0.96905517578125,0.2075347900390625,-0.0171709973365068,0.0012820457341149,0.0106699550524353
1770447419990,-0.1399383544921875,-0.9665679931640624,0.2062835693359375,-0.0156143801286816,0.0031345405150204,0.0101844603195786
1770447419998,-0.14080810546875,-0.9629974365234376,0.204010009765625,-0.0123570673167705,0.0047137951478362,0.0093927029520273
1770447420008,-0.1420135498046875,-0.96466064453125,0.201080322265625,-0.0074009248055517,0.0055276569910347,0.0051582767628133
1770447420018,-0.142578125,-0.9660491943359376,0.201324462890625,-0.0004141215467825,0.0031957933679223,0.0029095034115016
1770447420028,-0.1416778564453125,-0.9654083251953124,0.20037841796875,0.0053196642547845,-0.0003219761711079,0.0006924218614585
1770447420038,-0.142242431640625,-0.96331787109375,0.202301025390625,0.0071306135505437,-0.002092711860314,-0.0012956279097124
1770447420048,-0.141876220703125,-0.96258544921875,0.203125,0.0106979180127382,-0.0037433390971273,-0.0021190773695707
1770447420058,-0.1393280029296875,-0.9636077880859376,0.2035369873046875,0.0153022576123476,-0.0048594698309898,-0.00140614900738
1770447420069,-0.1358489990234375,-0.96527099609375,0.2025909423828125,0.0199691802263259,-0.0010764497565105,-0.0010106696281582
1770447420078,-0.1351776123046875,-0.9666595458984376,0.2017822265625,0.0230065155774354,-0.0017339842161163,0.0003592604189179
1770447420088,-0.13458251953125,-0.9663238525390624,0.2035675048828125,0.0222882609814405,-0.0007813714328221,0.0006948187365196
1770447420098,-0.1364898681640625,-0.9649810791015624,0.20831298828125,0.0162356942892074,-0.0049092709086835,0.0003123887872789
1770447420109,-0.139373779296875,-0.9643402099609376,0.2130279541015625,0.0078589878976345,-0.0008119978010654,0.0014911039033904
1770447420119,-0.136688232421875,-0.9648590087890624,0.213592529296875,0.0011925635626539,0.0023401195649057,0.0030117689166218
1770447420129,-0.137603759765625,-0.967010498046875,0.2123260498046875,-0.0020429107826203,0.0009230516152456,0.0015939018921926
1770447420139,-0.1367950439453125,-0.966064453125,0.211669921875,-0.0065276739187538,0.0014207963831722,0.0005422196118161
1770447420149,-0.137603759765625,-0.964569091796875,0.2108001708984375,-0.0108414627611637,0.0023331954143941,0.001831455854699
1770447420159,-0.13653564453125,-0.9644317626953124,0.208740234375,-0.0147427273914217,0.0035651738289743,0.0027912592049688
1770447420169,-0.1374664306640625,-0.9625091552734376,0.2115478515625,-0.0158290304243564,0.0068360683508217,0.0004644552827812
1770447420179,-0.1377716064453125,-0.9622955322265624,0.210174560546875,-0.0209343098104,0.0014865765115246,0.0043332292698323
1770447420189,-0.1370849609375,-0.96356201171875,0.20849609375,-0.0229031853377819,-0.0006074670236557,0.0039313584566116
1770447420199,-0.1393585205078125,-0.9666595458984376,0.2073211669921875,-0.0211361777037382,0.00280457502231,0.0057361824437975
1770447420209,-0.1375579833984375,-0.9688873291015624,0.204132080078125,-0.0179150849580764,0.0002881540276575,0.0083985449746251
1770447420220,-0.1350860595703125,-0.9719085693359376,0.2040863037109375,-0.0169606078416109,0.0046133939176797,0.0134897101670503
1770447420229,-0.1345977783203125,-0.9708404541015624,0.204071044921875,-0.0133168706670403,0.0044232443906366,0.0123211145401
1770447420239,-0.1374969482421875,-0.9650726318359376,0.2010345458984375,-0.0104092312976717,0.0038179077673703,0.0113253584131598
1770447420249,-0.1404571533203125,-0.962249755859375,0.202117919921875,-0.0067902617156505,0.0035262915771454,0.0071457936428487
1770447420259,-0.145111083984375,-0.9615478515625,0.203887939453125,-0.0052757221274077,0.0033505228348076,-0.0006612628931179
1770447420269,-0.144287109375,-0.96484375,0.203125,-0.0038836877793073,0.0046959519386291,0.0010929612908512
1770447420279,-0.140716552734375,-0.968109130859375,0.204193115234375,-0.0012279836228117,0.0051308460533618,0.0062264706939458
1770447420290,-0.137451171875,-0.96917724609375,0.20635986328125,0.0035321505274623,0.0097879162058234,0.008984706364572
1770447420299,-0.136627197265625,-0.9698638916015624,0.201385498046875,0.0132188666611909,0.0076659093610942,0.0058775963261723
1770447420309,-0.1405181884765625,-0.960662841796875,0.1971893310546875,0.0194621141999959,-0.0031907332595437,-0.0058879829011857
1770447420319,-0.1437835693359375,-0.960113525390625,0.20068359375,0.0244243834167718,-0.0107644973322749,-0.0092560825869441
1770447420329,-0.1398773193359375,-0.969024658203125,0.203460693359375,0.0268140379339456,-0.0062027685344219,-0.0144646931439638
1770447420340,-0.134979248046875,-0.9617156982421876,0.2077789306640625,0.0265431944280862,0.0022953785955905,-0.0187483876943588
1770447420350,-0.1424560546875,-0.9565277099609376,0.212890625,0.0202805045992136,0.0041934135369956,-0.0207835752516984
1770447420360,-0.14654541015625,-0.94891357421875,0.214447021484375,0.0135453697293996,0.0049428269267082,-0.027810325846076
1770447420370,-0.1480865478515625,-0.950225830078125,0.213592529296875,0.0064973141998052,0.0012897689593955,-0.0299432519823312
1770447420380,-0.14324951171875,-0.9629364013671876,0.2104949951171875,0.0041041974909603,-0.004114051349461,-0.0239833630621433
1770447420390,-0.1316070556640625,-0.9712066650390624,0.2098846435546875,-0.0009494169498793,-0.0052267201244831,-0.0138867869973182
1770447420400,-0.1258087158203125,-0.9729461669921876,0.2098236083984375,-0.0078603196889162,-0.0004151868051849,-0.0088669946417212
1770447420410,-0.128814697265625,-0.9708251953125,0.211090087890625,-0.0191270895302295,0.0029089709278196,-0.0034586472902446
1770447420420,-0.13275146484375,-0.9701080322265624,0.2127532958984375,-0.0270497277379035,0.0055833170190453,0.0054291202686727
1770447420430,-0.1329345703125,-0.971527099609375,0.211456298828125,-0.0298223439604043,0.0089479545131325,0.0114292223006486
1770447420440,-0.1331939697265625,-0.9708404541015624,0.2092742919921875,-0.03159174695611,0.0083271721377968,0.0136569561436772
1770447420450,-0.1375274658203125,-0.9680938720703124,0.20953369140625,-0.0340493135154247,0.0099567603319883,0.0101932492107152
1770447420460,-0.1436767578125,-0.9667205810546876,0.211639404296875,-0.0326245203614234,0.0124081997200846,0.0068411282263696
1770447420470,-0.144927978515625,-0.9642486572265624,0.20965576171875,-0.0295051615685224,0.0107581056654453,0.0042948797345161
1770447420480,-0.1405029296875,-0.965484619140625,0.20458984375,-0.0254164095968008,0.004774781409651,-0.0010756507981568
1770447420490,-0.1404876708984375,-0.965484619140625,0.2018280029296875,-0.0234352853149175,-0.0015757924411445,-0.0060893176123499
1770447420500,-0.1419830322265625,-0.965057373046875,0.2041778564453125,-0.0191193651407957,0.0018530274974182,-0.0055369781330227
1770447420510,-0.1399078369140625,-0.965240478515625,0.2040863037109375,-0.0136795928701758,0.001471662777476,-0.0042048650793731
1770447420521,-0.137420654296875,-0.9683990478515624,0.2001800537109375,-0.0049601374194025,0.0006575344596058,-0.0033103092573583
1770447420530,-0.1339263916015625,-0.968048095703125,0.1995086669921875,0.0017875137273222,-0.0031326764728873,-0.0004050667921546
1770447420540,-0.13250732421875,-0.96881103515625,0.199981689453125,0.0061878548003733,-0.0018586200894787,0.0028541097417473
1770447420550,-0.1318511962890625,-0.967620849609375,0.200836181640625,0.0097168097272515,0.001571797649376,0.0073212962597608
1770447420560,-0.1309661865234375,-0.96630859375,0.2024688720703125,0.0115346834063529,0.0009331716573797,0.0110278837382793
1770447420571,-0.1333465576171875,-0.9654998779296876,0.20428466796875,0.0105996476486325,-0.0025294704828411,0.0079612536355853
1770447420581,-0.139007568359375,-0.964263916015625,0.206451416015625,0.0090339751914143,-0.0035840822383761,0.009181248024106
1770447420591,-0.1361236572265625,-0.9744110107421876,0.2061004638671875,0.0025880599860101,-0.0004538026405498,0.0159355569630861
1770447420601,-0.1318359375,-0.967803955078125,0.212615966796875,-0.0018415758386254,0.0102502405643463,0.0126151274889707
1770447420611,-0.1371917724609375,-0.9612884521484376,0.2126617431640625,-0.006695719435811,0.0150074455887079,0.0041867555119097
1770447420621,-0.1472625732421875,-0.957977294921875,0.209136962890625,-0.0069793462753295,0.0158671140670776,-0.0037822213489562
1770447420631,-0.146514892578125,-0.95941162109375,0.20489501953125,-0.0076054553501307,0.0088086714968085,-0.0094819189980626
1770447420641,-0.1438446044921875,-0.9649200439453124,0.2053375244140625,-0.0078248996287584,0.0041111218743026,-0.0109325423836708
1770447420651,-0.1400909423828125,-0.96600341796875,0.2032012939453125,-0.0067420587874948,0.0046219159848988,-0.0117879500612616
1770447420661,-0.1392364501953125,-0.9662628173828124,0.202392578125,-0.0056847836822271,-0.001455950201489,-0.0090057458728551
1770447420671,-0.1398773193359375,-0.9678802490234376,0.2038116455078125,-0.0072352760471403,0.0003177151083946,-0.0043635894544422
1770447420681,-0.13714599609375,-0.9698333740234376,0.2032470703125,-0.0034418692812323,0.0004737763665616,0.0003627225232776
1770447420691,-0.1350250244140625,-0.9724578857421876,0.2014617919921875,0.0011337077012285,-0.0024011060595512,0.0041654501110315
1770447420701,-0.135345458984375,-0.9711456298828124,0.2032928466796875,0.0025137576740235,0.0014879080699756,0.0012879046844318
1770447420711,-0.138427734375,-0.9671630859375,0.2032318115234375,0.0058642807416617,0.0051153996028006,0.0009297095239162
1770447420721,-0.141265869140625,-0.9658203125,0.2025909423828125,0.0095868473872542,0.0028352013323456,-0.0024016385432332
1770447420731,-0.1432342529296875,-0.9641571044921876,0.2055511474609375,0.0106830047443509,0.0080925477668643,-0.0031273500062525
1770447420741,-0.143585205078125,-0.962188720703125,0.2071685791015625,0.0148191601037979,0.0091173322871327,-0.0036448021419346
1770447420751,-0.14111328125,-0.9639892578125,0.20379638671875,0.0193491969257593,0.0032637037802487,-0.0037454697303473
1770447420761,-0.1376495361328125,-0.9635467529296876,0.201995849609375,0.0217180792242288,-0.0003810983616858,-0.0083894897252321
1770447420772,-0.1387176513671875,-0.9643707275390624,0.205596923828125,0.0231987964361906,0.0001110538141801,-0.007242732681334
1770447420781,-0.13714599609375,-0.9633941650390624,0.2077178955078125,0.0226270146667957,0.0013257216196507,-0.0076408754102885
1770447420792,-0.13525390625,-0.96356201171875,0.2098541259765625,0.0221694838255643,0.001970472978428,-0.0086174570024013
1770447420802,-0.135894775390625,-0.9638824462890624,0.2101287841796875,0.0195446722209453,-0.0009920274605974,-0.0078198397532105
1770447420811,-0.1358642578125,-0.964935302734375,0.2127227783203125,0.014323279261589,0.0045473473146557,-0.0092912362888455
1770447420822,-0.137664794921875,-0.9621429443359376,0.21405029296875,0.0104459831491112,0.0046821036376059,-0.0098177436739206
1770447420832,-0.1376495361328125,-0.9608306884765624,0.2147216796875,0.0014026869321241,0.0066496469080448,-0.0086062708869576
1770447420842,-0.1348724365234375,-0.964019775390625,0.215179443359375,-0.0060054282657802,0.004324440844357,-0.0055273906327784
1770447420852,-0.1328887939453125,-0.9658660888671876,0.2181396484375,-0.0128084728494286,0.0076427394524216,-0.0019483686191961
1770447420862,-0.131317138671875,-0.9675140380859376,0.2169342041015625,-0.016808008775115,0.0119663812220096,0.0025068335235118
1770447420872,-0.1305084228515625,-0.9672088623046876,0.2137298583984375,-0.0193646438419818,0.0108499843627214,0.0022876553703099
1770447420882,-0.1327056884765625,-0.9653472900390624,0.2093963623046875,-0.0202203169465065,0.0080840252339839,0.0024583640042692
1770447420892,-0.1371002197265625,-0.96368408203125,0.2089996337890625,-0.0204725172370672,0.0061843926087021,0.001775529468432
1770447420902,-0.138458251953125,-0.9621429443359376,0.2090301513671875,-0.0199401527643203,0.0062171495519578,0.0011307782260701
1770447420912,-0.1405792236328125,-0.964263916015625,0.208038330078125,-0.0210437662899494,0.005838181823492,-0.0004181162803433
1770447420922,-0.1411590576171875,-0.9624481201171876,0.206787109375,-0.021094100549817,0.0009957558941096,-0.0013552826130762
1770447420932,-0.138824462890625,-0.9635009765625,0.2066802978515625,-0.0206434931606054,0.0066874637268483,-0.0018423747969791
1770447420942,-0.13818359375,-0.9694976806640624,0.2044525146484375,-0.0159627217799425,0.0085279745981097,0.0004127899592276
1770447420952,-0.1359100341796875,-0.9708099365234376,0.20318603515625,-0.0123096629977226,0.0067641627974808,0.0056714676320552
1770447420962,-0.1330413818359375,-0.97198486328125,0.2035980224609375,-0.0096821887418627,0.0049681267701089,0.0066762785427272
1770447420972,-0.136749267578125,-0.964996337890625,0.20416259765625,-0.0060200756415724,0.0068765482865273,0.0036663739010691
1770447420982,-0.1428680419921875,-0.9626312255859376,0.2036285400390625,-0.0026157568208873,0.0063889236189424,-0.0023148194886744
1770447420992,-0.145751953125,-0.9616546630859376,0.20263671875,0.0017329188995063,-0.0012452941155061,-0.0083820335566997
1770447421002,-0.1432952880859375,-0.965850830078125,0.2032012939453125,0.004635764285922,0.0013515542959794,-0.0074051856063306
1770447421012,-0.135162353515625,-0.971954345703125,0.204132080078125,0.0104268081486225,0.0082273036241531,0.0023118900135159
1770447421023,-0.1306610107421875,-0.96978759765625,0.2071533203125,0.0061795990914106,0.0121919512748718,0.0009299758239649
1770447421033,-0.1347808837890625,-0.95977783203125,0.2094879150390625,0.0080054625868797,0.0111216269433498,-0.0054850466549396
1770447421043,-0.14361572265625,-0.960968017578125,0.2091217041015625,0.0103000421077013,0.0045862295664846,-0.0098302597180008
1770447421053,-0.1405487060546875,-0.968109130859375,0.2073211669921875,0.0161446146667003,-0.0021481057628989,-0.0091689974069595
1770447421063,-0.1324005126953125,-0.9674530029296876,0.20379638671875,0.0182591658085584,-0.0011033476330339,-0.0131530864164233
1770447421073,-0.1335906982421875,-0.9547882080078124,0.21124267578125,0.0140865240246057,0.006254700012505,-0.0208442956209182
1770447421083,-0.1431732177734375,-0.95513916015625,0.215057373046875,0.0115413414314389,0.0160692483186721,-0.028696360066533
1770447421093,-0.1461944580078125,-0.9538726806640624,0.2146148681640625,0.0071793496608734,0.0092595443129539,-0.0274539943784475
1770447421103,-0.142608642578125,-0.9598236083984376,0.2147369384765625,0.0001153148768935,0.0011776498286053,-0.023909593001008
1770447421113,-0.134033203125,-0.967071533203125,0.215057373046875,-0.0048706554807722,-0.0026027073618024,-0.0197185780853033
1770447421123,-0.130950927734375,-0.9710693359375,0.2139739990234375,-0.0144503116607666,-0.0015829829499125,-0.0112254898995161
1770447421133,-0.130096435546875,-0.9742889404296876,0.213531494140625,-0.0251413062214851,0.0036328181158751,-0.0031446604989469
1770447421143,-0.12957763671875,-0.9722442626953124,0.2127838134765625,-0.0356120578944683,0.0045755770988762,0.0031590417493134
1770447421153,-0.13079833984375,-0.972625732421875,0.211212158203125,-0.0423866063356399,0.0085801724344491,0.0105154914781451
1770447421163,-0.131317138671875,-0.9701690673828124,0.20965576171875,-0.0455805361270904,0.0138556277379393,0.0132918367162346
1770447421173,-0.1355438232421875,-0.96942138671875,0.2080841064453125,-0.0449211373925209,0.0139174135401844,0.0112169682979583
1770447421183,-0.140472412109375,-0.967315673828125,0.2060089111328125,-0.0421953909099102,0.0117868846282362,0.0082890884950757
1770447421193,-0.140838623046875,-0.9642333984375,0.2045135498046875,-0.0387109108269214,0.0103596961125731,0.0036389431916177
1770447421203,-0.1417999267578125,-0.9641265869140624,0.204345703125,-0.0337782017886638,0.0067915935069322,-0.0005014732014387
1770447421213,-0.1407623291015625,-0.965728759765625,0.2033843994140625,-0.0266987215727567,0.0063311327248811,-0.0074384752660989
1770447421223,-0.139984130859375,-0.96429443359375,0.200531005859375,-0.0175976362079381,0.0073942667804658,-0.008970059454441
1770447421234,-0.140625,-0.962890625,0.1964569091796875,-0.0048219193704426,0.0001930791768245,-0.0094270575791597
1770447421243,-0.1379241943359375,-0.9654998779296876,0.19415283203125,0.0068304752930998,-0.0005067995516583,-0.0063574980013072
1770447421254,-0.13543701171875,-0.9670867919921876,0.1956634521484375,0.0141815990209579,6.311691686278209e-05,-0.0055790562182664
1770447421264,-0.1329345703125,-0.9676513671875,0.197479248046875,0.0232451353222131,0.0015219965716823,-0.000565389113035
1770447421274,-0.13104248046875,-0.9679412841796876,0.201995849609375,0.0266196262091398,0.0023254721891134,0.002305498579517
1770447421284,-0.129638671875,-0.968109130859375,0.2042083740234375,0.0279061999171972,0.0024003069847822,0.0038554582279175
1770447421294,-0.132110595703125,-0.9675750732421876,0.20684814453125,0.0260542370378971,0.0024077638518065,0.004153199493885
1770447421304,-0.1341552734375,-0.9659423828125,0.21044921875,0.0201673191040754,6.125270374468528e-06,0.0022474415600299
1770447421314,-0.1374969482421875,-0.9649658203125,0.2138214111328125,0.0151749579235911,0.0021483721211552,0.002029062481597
1770447421324,-0.1361236572265625,-0.972930908203125,0.2117462158203125,0.0115205682814121,0.0044322991743683,0.008086422458291
1770447421334,-0.1311492919921875,-0.9686279296875,0.2109527587890625,0.0025736789684742,0.00959696713835,0.0057987668551504
1770447421344,-0.1359405517578125,-0.9591064453125,0.21478271484375,-0.0046341666020452,0.0151611100882291,-0.0020724718924611
1770447421354,-0.1428985595703125,-0.9554901123046876,0.21453857421875,-0.0097357183694839,0.0198706444352865,-0.0053391051478683
1770447421364,-0.1431732177734375,-0.9597930908203124,0.21246337890625,-0.0129605391994118,0.0154561875388026,-0.0064792046323418
1770447421374,-0.1371917724609375,-0.963836669921875,0.2093658447265625,-0.0174703374505043,0.0067649618722498,-0.0067023774608969
1770447421384,-0.13360595703125,-0.96551513671875,0.2085113525390625,-0.0218086261302232,0.0055295214988291,-0.0033342777751386
1770447421394,-0.1333465576171875,-0.96795654296875,0.2076568603515625,-0.0230320822447538,0.0083777718245983,-0.0020090886391699
1770447421404,-0.1345367431640625,-0.9689788818359376,0.2052459716796875,-0.0231817513704299,0.0060006347484886,-0.0001025317033054
1770447421414,-0.1360626220703125,-0.96917724609375,0.2043914794921875,-0.0243391618132591,0.0060733389109373,0.0030935278628021
1770447421424,-0.1329498291015625,-0.968841552734375,0.204498291015625,-0.0235226359218359,0.004514324478805,0.0069939936511218
1770447421434,-0.133209228515625,-0.9709320068359376,0.2036895751953125,-0.0183039065450429,0.0095165399834513,0.0103309340775012
1770447421444,-0.134674072265625,-0.9688262939453124,0.2025299072265625,-0.0148279480636119,0.0032919333316385,0.0103943180292844
1770447421454,-0.138427734375,-0.96490478515625,0.202392578125,-0.0108443917706608,0.004482100252062,0.0068866680376231
1770447421464,-0.1423187255859375,-0.96453857421875,0.202117919921875,-0.0064661549404263,0.0068688248284161,0.0041385521180927
1770447421475,-0.143524169921875,-0.963653564453125,0.202423095703125,0.000246076087933,0.0085631283000111,-0.0010777813149616
1770447421484,-0.1429901123046875,-0.9648590087890624,0.2014923095703125,0.00632767053321,0.0043718451634049,-0.0038413435686379
1770447421495,-0.142608642578125,-0.966552734375,0.2009429931640625,0.0127834398299455,0.0002966761530842,-0.0069945263676345
1770447421505,-0.139007568359375,-0.964691162109375,0.201019287109375,0.0154780261218547,0.0010817759903147,-0.0088265147060155
1770447421515,-0.1380767822265625,-0.965240478515625,0.202850341796875,0.0220336634665727,0.0048027448356151,-0.0091130705550313
1770447421525,-0.13726806640625,-0.966064453125,0.2016448974609375,0.0246656648814678,0.0029590383637696,-0.0084022730588912
1770447421535,-0.1351776123046875,-0.9659271240234376,0.202972412109375,0.0258321296423673,-0.004432032816112,-0.0052661346271634
1770447421545,-0.1340179443359375,-0.9667816162109376,0.207305908203125,0.0243586022406816,-0.0042866240255534,-0.0046581351198256
1770447421555,-0.1338348388671875,-0.9655609130859376,0.211883544921875,0.0182977803051471,-0.0012159993639215,-0.004831506870687
1770447421565,-0.1370086669921875,-0.96356201171875,0.2120513916015625,0.0139837265014648,0.0009227853151969,-0.0059585566632449
1770447421575,-0.1371612548828125,-0.963134765625,0.2128753662109375,0.0084965489804744,0.002699113683775,-0.0072384718805551
1770447421585,-0.134979248046875,-0.9628143310546876,0.2165985107421875,0.0036264264490455,0.0042432146146893,-0.0043878243304789
1770447421595,-0.1350860595703125,-0.9650115966796876,0.217193603515625,-0.0015582155901938,0.0077407439239323,-0.0041036647744476
1770447421605,-0.13482666015625,-0.9654388427734376,0.2138214111328125,-0.006778011098504,0.0065849320963025,-0.0048536108806729
1770447421615,-0.1351318359375,-0.964447021484375,0.2139892578125,-0.0108260158449411,0.0030189594253897,-0.0057689393870532
1770447421625,-0.13677978515625,-0.96417236328125,0.2132568359375,-0.0141917187720537,0.006229932885617,-0.0070749535225331
1770447421635,-0.1376953125,-0.9652557373046876,0.210174560546875,-0.0150692304596304,0.0066581689752638,-0.0049406965263187
1770447421645,-0.135833740234375,-0.965789794921875,0.2087554931640625,-0.0180162843316793,0.0047036749310791,-0.0054472298361361
1770447421655,-0.1359100341796875,-0.9646453857421876,0.206787109375,-0.0201201811432838,0.0056608151644468,-0.0061971759423613
1770447421665,-0.1382904052734375,-0.96392822265625,0.2079010009765625,-0.0228246226906776,0.0027310717850923,-0.0053087454289197
1770447421676,-0.138031005859375,-0.9647979736328124,0.2082672119140625,-0.0206373669207096,0.0052011534571647,-0.0025124261155724
1770447421685,-0.1346282958984375,-0.9681243896484376,0.2049713134765625,-0.0157315582036972,0.001284442609176,0.0024557008873671
1770447421696,-0.131561279296875,-0.97125244140625,0.203033447265625,-0.013626329600811,0.0016221314435824,0.0050568100996315
1770447421706,-0.1305084228515625,-0.97064208984375,0.203826904296875,-0.0096427733078598,0.00135714688804,0.0040570595301687
1770447421715,-0.1334381103515625,-0.967498779296875,0.205474853515625,-0.0089735211804509,0.0052213934250175,0.0009539442835375
1770447421726,-0.14007568359375,-0.96087646484375,0.2040863037109375,-0.0081071946769952,0.0062456452287733,-0.0037888791412115
1770447421736,-0.1425628662109375,-0.9594268798828124,0.2012939453125,-0.003508981084451,0.0020564929582178,-0.0108574414625763
1770447421746,-0.142333984375,-0.962890625,0.2017974853515625,0.0001491370203439,0.0038088529836386,-0.0095173390582203
1770447421756,-0.1358184814453125,-0.971527099609375,0.2032318115234375,0.0045835664495825,0.0052898367866873,-0.0015028218040242
1770447421766,-0.1314544677734375,-0.971588134765625,0.2028350830078125,0.0072094434872269,0.0027457191608846,0.0003371562052052
1770447421776,-0.1326141357421875,-0.9571990966796876,0.20330810546875,0.0133538888767361,0.0040903491899371,-0.0075418059714138
1770447421786,-0.1414642333984375,-0.9590301513671876,0.2021942138671875,0.0215761326253414,0.0009046758059412,-0.0125751802697777
1770447421796,-0.139862060546875,-0.96905517578125,0.2027587890625,0.0287637375295162,-0.0031260184478014,-0.0106236161664128
1770447421806,-0.1290283203125,-0.970977783203125,0.2037506103515625,0.0287930313497781,-0.0028740833513438,-0.0124204503372311
1770447421816,-0.1285400390625,-0.9555816650390624,0.2100677490234375,0.0261863302439451,0.0076379459351301,-0.0192365441471338
1770447421826,-0.1415557861328125,-0.9583892822265624,0.2142181396484375,0.0213612150400877,0.0095884455367922,-0.0231639090925455
1770447421836,-0.1431427001953125,-0.9543304443359376,0.2172698974609375,0.0163006763905286,0.0063159526325762,-0.0244446229189634
1770447421846,-0.140960693359375,-0.9567413330078124,0.2180328369140625,0.0087069384753704,-0.0005430185701698,-0.0254992339760065
1770447421856,-0.135894775390625,-0.96600341796875,0.218963623046875,-0.0020477045327425,-0.0067433901131153,-0.0209364406764507
1770447421866,-0.130279541015625,-0.9716339111328124,0.2176055908203125,-0.0093682017177343,-0.0055036884732544,-0.012875584885478
1770447421876,-0.127227783203125,-0.9743194580078124,0.2146759033203125,-0.0191734284162521,-0.0004412857815623,-0.0082571310922503
1770447421886,-0.127349853515625,-0.97259521484375,0.214813232421875,-0.0310356803238391,0.0059409798122942,-0.0015430354978889
1770447421896,-0.129241943359375,-0.97113037109375,0.2132110595703125,-0.0421003140509128,0.0063473782502114,0.0054725296795368
1770447421906,-0.1309051513671875,-0.970916748046875,0.211639404296875,-0.0457642935216426,0.0062315305694937,0.0100776674225926
1770447421916,-0.131927490234375,-0.9698028564453124,0.2098236083984375,-0.047294545918703,0.0091516869142651,0.0118294954299926
1770447421926,-0.13531494140625,-0.9688720703125,0.2070770263671875,-0.0442620031535625,0.0115498630329966,0.0091932322829961
1770447421937,-0.1376495361328125,-0.965087890625,0.206390380859375,-0.0429485328495502,0.0072557823732495,0.0057079531252384
1770447421947,-0.1397552490234375,-0.9640045166015624,0.207550048828125,-0.039799079298973,0.0078832227736711,0.0018865832826122
1770447421957,-0.139678955078125,-0.9643096923828124,0.2027587890625,-0.0292111486196517,0.007146060001105,-3.5420041967881843e-05
1770447421967,-0.137969970703125,-0.965087890625,0.200225830078125,-0.019466109573841,0.0020479708909988,-0.0046466835774481
1770447421977,-0.139190673828125,-0.9673309326171876,0.1969757080078125,-0.0085213165730237,-0.0013651363551616,-0.0064443172886967
1770447421987,-0.1388092041015625,-0.9683380126953124,0.19647216796875,0.0023680827580392,-0.0020122844725847,-0.0065772091038525
1770447421997,-0.13427734375,-0.96868896484375,0.1966400146484375,0.012384763918817,0.0022575615439563,-0.0051367050036787
1770447422007,-0.1304168701171875,-0.9697723388671876,0.199981689453125,0.0176634155213832,0.0002109223569277,-0.0005395564367063
1770447422017,-0.12701416015625,-0.967926025390625,0.201629638671875,0.0239079967141151,0.0003323625132907,0.0030575753189623
1770447422027,-0.1280975341796875,-0.9698486328125,0.20135498046875,0.0272838193923234,0.0022961774375289,0.0063345949165523
1770447422037,-0.1298980712890625,-0.9667510986328124,0.2046051025390625,0.0277775693684816,0.0033806166611611,0.0067809405736625
1770447422047,-0.1337432861328125,-0.964752197265625,0.2071990966796875,0.0240957494825124,-0.0011707255616784,0.0054288539104163
1770447422057,-0.1359710693359375,-0.964324951171875,0.2104949951171875,0.0221327319741249,5.77905957470648e-05,0.0033577135764062
1770447422067,-0.134765625,-0.9709320068359376,0.2116241455078125,0.0159198436886072,0.002315352205187,0.0109852729365229
1770447422077,-0.1275787353515625,-0.967864990234375,0.21380615234375,0.0045593315735459,0.0052914349362254,0.0127906296402215
1770447422088,-0.1313934326171875,-0.9569091796875,0.21893310546875,-0.0058770640753209,0.0115970009937882,0.0025672873016446
1770447422097,-0.142425537109375,-0.95770263671875,0.2190704345703125,-0.0078680431470274,0.0229274202138185,-0.0021710088476538
1770447422107,-0.14312744140625,-0.9595184326171876,0.210693359375,-0.0123320333659648,0.0060152821242809,-0.0065790731459856
1770447422117,-0.13848876953125,-0.9629669189453124,0.2120513916015625,-0.0152079816907644,0.0065849320963025,-0.0058107511140406
1770447422127,-0.137054443359375,-0.9675140380859376,0.2115936279296875,-0.0213249959051609,0.0042892871424555,-0.0036003275308758
1770447422137,-0.133148193359375,-0.97021484375,0.211334228515625,-0.0269735604524612,0.0056943711824715,0.0006636597099713
1770447422147,-0.1304931640625,-0.96875,0.2081298828125,-0.0300380606204271,0.0060043628327548,0.0023161512799561
1770447422158,-0.1322021484375,-0.9701385498046876,0.2063140869140625,-0.0306484568864107,0.0046461508609354,0.0037752971984446
1770447422168,-0.131500244140625,-0.9707489013671876,0.206298828125,-0.0297760050743818,0.0089492863044142,0.008945558220148
1770447422178,-0.1334686279296875,-0.968902587890625,0.2061614990234375,-0.0265485197305679,0.0088366344571113,0.0108920624479651
1770447422188,-0.135009765625,-0.967132568359375,0.20428466796875,-0.0210850443691015,0.0119472071528434,0.0093114767223596
1770447422198,-0.1372528076171875,-0.966094970703125,0.202362060546875,-0.0139435119926929,0.0097021618857979,0.0079311598092317
1770447422208,-0.1405487060546875,-0.964691162109375,0.199005126953125,-0.0070957262068986,0.006738063879311,0.0015241270884871
1770447422218,-0.1415557861328125,-0.962677001953125,0.199981689453125,-0.0009909622604027,0.0025784724857658,0.0004508731653913
1770447422228,-0.139404296875,-0.9623565673828124,0.200469970703125,0.0052927662618458,0.0014791196445003,-0.0007398261222988
1770447422238,-0.1379547119140625,-0.965240478515625,0.203216552734375,0.0099887186661362,6.870955257909372e-05,-0.0003709783486556
1770447422248,-0.1378326416015625,-0.965423583984375,0.2011566162109375,0.0164831019937992,0.0002580603177193,-0.0041321609169244
1770447422258,-0.13641357421875,-0.9661712646484376,0.2004241943359375,0.0196080561727285,0.0005608617211692,-0.0053260559216141
1770447422268,-0.136627197265625,-0.965484619140625,0.202880859375,0.0224744156002998,-0.0014697986189275,-0.0043217777274549
1770447422278,-0.134979248046875,-0.9658050537109376,0.2068634033203125,0.0198946129530668,-0.001735049416311,-0.0049524144269526
1770447422288,-0.1329345703125,-0.9651641845703124,0.2104644775390625,0.0169930979609489,-0.0022740731947124,-0.0035710327792912
1770447422298,-0.13433837890625,-0.9639129638671876,0.21136474609375,0.0123315006494522,0.0001150485550169,-0.0023057649377733
1770447422308,-0.1356658935546875,-0.9640655517578124,0.21337890625,0.0064323330298066,0.002346244873479,-0.0046402919106185
1770447422318,-0.1340179443359375,-0.96539306640625,0.2136688232421875,-8.868326403899118e-05,0.0008314388687722,-0.0038314899429678
1770447422328,-0.132568359375,-0.9651641845703124,0.2143096923828125,-0.0066999807022511,0.0050746533088386,-0.0012852415675297
1770447422338,-0.13232421875,-0.9659576416015624,0.215057373046875,-0.0128907645121216,0.0102086951956152,-0.0004181162803433
1770447422348,-0.131927490234375,-0.966888427734375,0.2134552001953125,-0.0168056115508079,0.0068515143357217,0.0016671388875693
1770447422358,-0.130767822265625,-0.9653472900390624,0.2119293212890625,-0.0197409484535455,0.0058522964827716,0.0047193877398967
1770447422368,-0.1318359375,-0.9640960693359376,0.212310791015625,-0.0223942548036575,0.0088582066819071,0.0059851882979273
1770447422378,-0.1325225830078125,-0.9632568359375,0.210601806640625,-0.0225026458501815,0.0079748360440135,0.0047524110414087
1770447422389,-0.1367950439453125,-0.9643707275390624,0.20733642578125,-0.0223306063562631,0.004620318301022,0.0043135220184922
1770447422399,-0.137664794921875,-0.963836669921875,0.206695556640625,-0.0224190223962068,0.0017494305502623,0.0023315974976867
1770447422409,-0.1368560791015625,-0.964385986328125,0.207305908203125,-0.022401712834835,0.0042575956322252,0.0034202977549284
1770447422419,-0.1364288330078125,-0.965972900390625,0.2070770263671875,-0.021770542487502,0.0072949309833347,0.0028897961601614
1770447422429,-0.1377105712890625,-0.965850830078125,0.205352783203125,-0.0246124025434255,0.0072661684826016,0.0053598778322339
1770447422439,-0.13702392578125,-0.969512939453125,0.2052764892578125,-0.0179560966789722,0.0105325356125831,0.0082491412758827
1770447422449,-0.13641357421875,-0.970428466796875,0.20391845703125,-0.0177611541002988,0.0084443511441349,0.0095114801079034
1770447422459,-0.136077880859375,-0.9690093994140624,0.2030029296875,-0.0136223351582884,0.007555654272437,0.0086712520569562
1770447422469,-0.13818359375,-0.966705322265625,0.2020111083984375,-0.009695503860712,0.0060317935422062,0.0064025055617094
1770447422479,-0.1429443359375,-0.963134765625,0.2024078369140625,-0.0069468556903302,0.001374990097247,-0.0002356897603021
1770447422489,-0.1411285400390625,-0.96197509765625,0.2031402587890625,-0.0068563083186745,-0.0008777778712101,-0.0059236693195998
1770447422499,-0.1400604248046875,-0.962646484375,0.20343017578125,-0.0044552022591233,0.0026013758033514,-0.0080914823338389
1770447422509,-0.1351318359375,-0.9701080322265624,0.202239990234375,-0.0007355650886893,0.0041641187854111,-0.0001984054979402
1770447422519,-0.1298370361328125,-0.9736328125,0.2033233642578125,0.0012242551892995,0.0073399380780756,0.0055074170231819
1770447422529,-0.1278228759765625,-0.967987060546875,0.20367431640625,0.0053689326159656,0.0070203589275479,0.0029161614365875
1770447422539,-0.135223388671875,-0.958648681640625,0.2030792236328125,0.0092595443129539,0.0070038475096225,-0.0035406725946813
1770447422549,-0.1429901123046875,-0.9610748291015624,0.20294189453125,0.0127797108143568,-0.0013025520602241,-0.0086182551458477
1770447422559,-0.136688232421875,-0.9727325439453124,0.203216552734375,0.0125759793445467,-0.013211409561336,-0.006924485322088
1770447422569,-0.1277313232421875,-0.9658355712890624,0.2073211669921875,0.0108702247962355,-0.0027867318131029,-0.0115096494555473
1770447422579,-0.1334228515625,-0.9573211669921876,0.212158203125,0.0069913305342197,0.0069260830059647,-0.0140854585915803
1770447422590,-0.1394805908203125,-0.959381103515625,0.2141571044921875,-0.0003480751474853,0.0083178505301475,-0.0190139040350914
1770447422599,-0.1419830322265625,-0.9539947509765624,0.214019775390625,-0.0044133905321359,0.0047153928317129,-0.0232882779091596
1770447422610,-0.14459228515625,-0.960540771484375,0.2122955322265625,-0.00567466346547,-0.0058893142268061,-0.0215889159590005
1770447422620,-0.1373291015625,-0.9706268310546876,0.209075927734375,-0.0125703867524862,-0.0106363985687494,-0.014193583279848
1770447422630,-0.1298370361328125,-0.9747772216796876,0.21014404296875,-0.021336181089282,-0.0080547304823994,-0.0046381615102291
1770447422640,-0.1259307861328125,-0.9738922119140624,0.2111968994140625,-0.0306330099701881,0.0044011399149894,0.0027497138362377
1770447422650,-0.128570556640625,-0.9731597900390624,0.2093658447265625,-0.0381383299827575,0.0069545786827802,0.0093868440017104
1770447422660,-0.1316986083984375,-0.9720001220703124,0.2066497802734375,-0.0402052104473114,0.0033244239166378,0.0126654617488384
1770447422670,-0.13458251953125,-0.96868896484375,0.203460693359375,-0.0407098792493343,0.0007254450465552,0.0152447326108813
1770447422680,-0.13568115234375,-0.966949462890625,0.202911376953125,-0.0372632145881652,0.0046267095021903,0.0137893157079815
1770447422690,-0.1365966796875,-0.9669342041015624,0.2042083740234375,-0.0333837904036045,0.0066568371839821,0.0099663473665714
1770447422700,-0.138702392578125,-0.966094970703125,0.20257568359375,-0.0283677261322736,0.0079900156706571,0.0047854343429207
1770447422710,-0.140777587890625,-0.9655303955078124,0.2029876708984375,-0.0239354260265827,0.0039135152474045,0.0020873856265097
1770447422720,-0.1389923095703125,-0.9654693603515624,0.201324462890625,-0.0173957683145999,0.0008876316132955,-0.0030687605030834
1770447422730,-0.1392059326171875,-0.96575927734375,0.20166015625,-0.0119125861674547,-0.0010652644559741,-0.0050826431252062
1770447422740,-0.139495849609375,-0.9654693603515624,0.2008514404296875,-0.0059066247195005,0.0009411611245013,-0.0029723541811108
1770447422750,-0.1348724365234375,-0.968597412109375,0.198272705078125,0.0006660565850324,-0.0024176177103072,-0.0012958941515535
1770447422760,-0.1318359375,-0.9696044921875,0.19830322265625,0.0072496570646762,0.0005568669876083,0.0034426683560013
1770447422770,-0.128631591796875,-0.969390869140625,0.1984100341796875,0.0141650876030325,0.0017941716359928,0.005217398982495
1770447422780,-0.1283721923828125,-0.9702606201171876,0.198486328125,0.0166146624833345,-0.0036796897184103,0.0075231636874377
1770447422790,-0.129119873046875,-0.9694366455078124,0.2025299072265625,0.0180549006909132,-0.0053960969671607,0.0088518150150775
1770447422800,-0.130859375,-0.9691314697265624,0.206939697265625,0.0154466005042195,-0.0053178002126514,0.0089279813691973
1770447422810,-0.133575439453125,-0.9671630859375,0.2115020751953125,0.0105583686381578,-0.0025164207909256,0.0065620290115475
1770447422822,-0.136138916015625,-0.9713134765625,0.2112884521484375,0.0048173922114074,-0.0004125236591789,0.0148484548553824
1770447422830,-0.1307830810546875,-0.9743804931640624,0.20855712890625,0.0010450243717059,0.0018301242962479,0.0162679199129343
1770447422841,-0.132080078125,-0.9591217041015624,0.209442138671875,-0.0039231027476489,0.010865431278944,0.0084249097853899
1770447422850,-0.1413116455078125,-0.9582977294921876,0.2095489501953125,-0.0078992024064064,0.014765097759664,0.0036408074665814
1770447422861,-0.144317626953125,-0.95697021484375,0.206634521484375,-0.0125956861302256,0.0099208075553178,-0.0049020806327462
1770447422871,-0.1461181640625,-0.9597320556640624,0.208953857421875,-0.016626114025712,0.0033995250705629,-0.0075524584390223
1770447422881,-0.1404571533203125,-0.9640045166015624,0.20697021484375,-0.0164596661925315,0.0035409389529377,-0.0047899615019559
1770447422891,-0.1357421875,-0.9682464599609376,0.2032012939453125,-0.0160237066447734,4.181162876193411e-05,-0.0036911412607878
1770447422901,-0.1341094970703125,-0.9684600830078124,0.2011260986328125,-0.0148420631885528,0.0002042644482571,-0.0027510453946888
1770447422911,-0.134552001953125,-0.9690093994140624,0.2023162841796875,-0.0149589758366346,0.0001203748834086,0.0010162622202187
1770447422921,-0.1340179443359375,-0.970123291015625,0.2013702392578125,-0.0137669444084167,0.0001019990668282,0.0044117928482592
1770447422931,-0.1338958740234375,-0.9705047607421876,0.2015838623046875,-0.0096696717664599,-0.0019907129462808,0.0066318036988377
1770447422941,-0.1354827880859375,-0.969329833984375,0.1999664306640625,-0.0059252670034766,0.0001976065541384,0.0059854546561837
1770447422951,-0.139862060546875,-0.965728759765625,0.2007598876953125,-0.0009161274065263,0.0024423850700259,0.0042421491816639
1770447422961,-0.139892578125,-0.9650421142578124,0.201202392578125,0.0001669802004471,-0.0020817930344492,0.0033832797780632
1770447422971,-0.13934326171875,-0.964752197265625,0.2030181884765625,0.0054826498962938,-0.0023411849979311,0.0037699707318097
1770447422981,-0.137969970703125,-0.9652557373046876,0.202850341796875,0.0066648270003497,-0.0054333810694515,0.0003078614245168
1770447422991,-0.136749267578125,-0.9667510986328124,0.2033843994140625,0.010939466767013,-0.0035334820859134,0.0007206514128483
1770447423001,-0.1352386474609375,-0.9647216796875,0.202178955078125,0.0142636243253946,-0.0042240396142005,-0.0001576591312186
1770447423011,-0.13653564453125,-0.961944580078125,0.202545166015625,0.0178074929863214,-0.000924649531953,-0.0017816547770053
1770447423021,-0.1375885009765625,-0.96368408203125,0.2035064697265625,0.0187084395438432,0.000296143523883,-0.0020785972010344
1770447423031,-0.1371917724609375,-0.9642333984375,0.2059783935546875,0.0161187816411256,-0.0024682176299393,0.0009486179915256
1770447423042,-0.1342620849609375,-0.96429443359375,0.208770751953125,0.0146777462214231,-0.0025696840602904,0.0044631916098296
1770447423051,-0.1312103271484375,-0.966400146484375,0.211090087890625,0.0073718959465622,-0.0028498487081378,0.0038607846945524
1770447423062,-0.1326904296875,-0.9670257568359376,0.2149810791015625,-0.0005126585019752,-0.001693237805739,0.000345678301528
1770447423071,-0.136383056640625,-0.965484619140625,0.215850830078125,-0.0065196845680475,9.134642459684984e-05,0.000351537251845
1770447423082,-0.1356658935546875,-0.9646453857421876,0.2141876220703125,-0.0113791543990373,0.0004482100193854,0.0022019015159457
1770447423092,-0.1337432861328125,-0.9651336669921876,0.2125244140625,-0.018182199448347,0.0015499597648158,0.0014101437991485
1770447423102,-0.1347198486328125,-0.9668731689453124,0.2114410400390625,-0.019521502777934,0.0087506147101521,0.0016727314796298
1770447423112,-0.1357879638671875,-0.9659881591796876,0.2084197998046875,-0.0217305961996316,0.0064214137382805,0.0014287859667092
1770447423122,-0.137603759765625,-0.965728759765625,0.2076416015625,-0.0252049546688795,0.0029153623618185,-0.0005451490869745
1770447423132,-0.13909912109375,-0.9634552001953124,0.20819091796875,-0.0235058590769767,0.0041201766580343,3.382214708835818e-05
1770447423142,-0.138885498046875,-0.9645843505859376,0.2035675048828125,-0.0241833664476871,0.0002870887692552,0.000778175657615
1770447423152,-0.137664794921875,-0.9661102294921876,0.203704833984375,-0.0214264616370201,0.0006042712484486,0.0019848539959639
1770447423162,-0.1373748779296875,-0.9674835205078124,0.2021026611328125,-0.0185662265866994,-0.0010354369878768,0.0036743632517755
1770447423172,-0.1353759765625,-0.9677276611328124,0.1999664306640625,-0.0168032143265008,-0.0043143210932612,0.0034418692812323
1770447423182,-0.13397216796875,-0.96783447265625,0.201263427734375,-0.0131163345649838,-0.0010354369878768,0.0099975066259503
1770447423192,-0.133819580078125,-0.97088623046875,0.2011871337890625,-0.0115346834063529,-0.0007747135823592,0.012288624420762
1770447423202,-0.134307861328125,-0.9694976806640624,0.2014923095703125,-0.0081175817176699,-0.0008383630774915,0.011543471366167
1770447423212,-0.1384124755859375,-0.966339111328125,0.2021636962890625,-0.0072872075252234,-0.0006508765509352,0.0041444110684096
1770447423222,-0.1432647705078125,-0.962646484375,0.2021636962890625,-0.0031989889685064,0.0051497546955943,-0.0023201459553092
1770447423232,-0.1461181640625,-0.9602813720703124,0.2011566162109375,0.0001350222592009,0.0028969866689294,-0.0068946578539907
1770447423242,-0.1438446044921875,-0.9654083251953124,0.2005615234375,0.004784102551639,0.0026346652302891,-0.0042778356000781
1770447423252,-0.1356353759765625,-0.971343994140625,0.2012481689453125,0.0075513930059969,0.0022881880868226,0.0057801245711743
