timestamp_ms,acc_x,acc_y,acc_z,gyro_x,gyro_y,gyro_z
1768736391416,-0.022125244140625,-0.3996734619140625,-0.9013214111328124,-0.0066563049331307,0.0159400850534439,-0.0159789659082889
1768736391424,-0.0244140625,-0.401031494140625,-0.8997039794921875,-0.0187388006597757,0.0018791264155879,-0.0118129840120673
1768736391434,-0.01849365234375,-0.4053955078125,-0.90380859375,-0.020780112594366,0.007318100426346,0.0012745888670906
1768736391444,-0.0090179443359375,-0.415069580078125,-0.908599853515625,-0.0245887003839015,0.0143882604315876,0.0130236567929387
1768736391454,-0.0082244873046875,-0.4079437255859375,-0.90887451171875,-0.0232438035309314,-0.0040243025869131,0.0128995534032583
1768736391464,-0.0160675048828125,-0.406890869140625,-0.91473388671875,-0.01592836715281,-0.0011731224367395,0.0153158390894532
1768736391474,-0.01116943359375,-0.418701171875,-0.9151611328125,-0.0132601456716656,0.013187707401812,0.0270728971809148
1768736391484,-0.007049560546875,-0.41278076171875,-0.9182586669921876,0.0047750477679073,0.0137975709512829,0.0251511596143245
1768736391494,-0.01873779296875,-0.4087371826171875,-0.928558349609375,0.0277232397347688,0.0188554469496011,0.0208642687648534
1768736391504,-0.028564453125,-0.4066314697265625,-0.925750732421875,0.0334269329905509,0.0398214496672153,0.0160713773220777
1768736391514,-0.0283203125,-0.4069366455078125,-0.9201507568359376,0.0453389845788478,0.0586119145154953,0.0117836883291602
1768736391524,-0.02398681640625,-0.4063262939453125,-0.9241790771484376,0.0555759109556674,0.0616093017160892,0.0139680132269859
1768736391535,-0.0223846435546875,-0.40252685546875,-0.926513671875,0.0602489598095417,0.0492186769843101,0.0099354553967714
1768736391545,-0.02581787109375,-0.4036407470703125,-0.917633056640625,0.0576462522149086,0.0364730544388294,0.0057540256530046
1768736391555,-0.0299224853515625,-0.40203857421875,-0.9108428955078124,0.0486237294971942,0.0177750028669834,-4.367584188003093e-05
1768736391565,-0.02850341796875,-0.40081787109375,-0.9053497314453124,0.0341001786291599,-0.0034413367975503,-0.0069636334665119
1768736391575,-0.0267333984375,-0.4006805419921875,-0.902313232421875,0.0173193346709013,-0.0341893956065177,-0.0132337799295783
1768736391585,-0.0207061767578125,-0.4027252197265625,-0.9019012451171876,0.0053399042226374,-0.0452380515635013,-0.017988322302699
1768736391595,-0.017303466796875,-0.407806396484375,-0.9035797119140624,0.0014005564153194,-0.0322026759386062,-0.017855430021882
1768736391605,-0.0161895751953125,-0.4093475341796875,-0.9035491943359376,-0.0010958907660096,-0.0015273229219019,-0.0131205953657627
1768736391615,-0.0180206298828125,-0.4090576171875,-0.900238037109375,0.0004609931784216,0.0275264326483011,-0.0122377574443817
1768736391625,-0.01531982421875,-0.4094390869140625,-0.8986663818359375,0.0087684579193592,0.0479113310575485,-0.0037441381718963
1768736391635,-0.0078125,-0.40826416015625,-0.9073028564453124,0.0135930404067039,0.0445381738245487,0.0059332563541829
1768736391645,-0.001068115234375,-0.4070587158203125,-0.907684326171875,0.0144737474620342,0.0340855307877063,0.0162087976932525
1768736391655,-0.000640869140625,-0.406829833984375,-0.9068756103515624,0.0163534060120582,0.0289144720882177,0.025966353714466
1768736391665,-0.0067596435546875,-0.4077911376953125,-0.9057159423828124,0.0124265756458044,0.0196176432073116,0.0310005266219377
1768736391675,-0.0117645263671875,-0.4083709716796875,-0.9013824462890624,0.0042290999554097,0.0093492930755019,0.0364557467401027
1768736391685,-0.0165252685546875,-0.4096832275390625,-0.8917999267578125,-0.0198791660368442,0.0044046021066606,0.0331180058419704
1768736391695,-0.023406982421875,-0.4105224609375,-0.8862152099609375,-0.0415367893874645,0.0171483606100082,0.029044434428215
1768736391706,-0.0253143310546875,-0.4102783203125,-0.889678955078125,-0.0549649819731712,0.0194663759320974,0.0303280781954526
1768736391715,-0.024932861328125,-0.4080047607421875,-0.899566650390625,-0.0557149276137352,0.0241607297211885,0.0344117693603038
1768736391726,-0.0207366943359375,-0.4111785888671875,-0.914703369140625,-0.0471922792494297,0.0220557674765586,0.0398017428815364
1768736391736,-0.0171356201171875,-0.4135589599609375,-0.9219818115234376,-0.042607381939888,0.0095319859683513,0.042803656309843
1768736391746,-0.018341064453125,-0.4123077392578125,-0.9209136962890624,-0.0361673235893249,-0.0049492185935378,0.0359329655766487
1768736391756,-0.0232391357421875,-0.4097137451171875,-0.918365478515625,-0.026183133944869,-0.0131674669682979,0.0261804703623056
1768736391766,-0.0323486328125,-0.40484619140625,-0.9212646484375,-0.0089988214895129,-0.0041169808246195,0.0135677400976419
1768736391776,-0.0350799560546875,-0.40423583984375,-0.925079345703125,0.00837910361588,0.0212898422032594,0.0033427998423576
1768736391786,-0.0371856689453125,-0.4076080322265625,-0.92315673828125,0.021764151751995,0.0404113382101058,0.0001067927587428
1768736391796,-0.031768798828125,-0.40625,-0.921722412109375,0.0312625803053379,0.0357561334967613,-0.0041627869941294
1768736391806,-0.029022216796875,-0.4058837890625,-0.9173583984375,0.0315078571438789,0.0205460209399461,-0.0094294548034667
1768736391816,-0.0245513916015625,-0.4060211181640625,-0.9133453369140624,0.0251721981912851,0.0034242924302816,-0.0118409469723701
1768736391826,-0.0212554931640625,-0.40777587890625,-0.9095458984375,0.0176583565771579,-0.0020359866321086,-0.0130942305549979
1768736391836,-0.022216796875,-0.4119415283203125,-0.9031982421875,0.0073122414760291,-0.0019073559669777,-0.0111543834209442
1768736391846,-0.01861572265625,-0.4125213623046875,-0.8982086181640625,-0.0034088462125509,-0.0075852153822779,-0.0068832063116133
1768736391856,-0.0204925537109375,-0.4116058349609375,-0.8970489501953125,-0.0167400985956192,-0.0019286612514406,-0.0125464182347059
1768736391866,-0.0237579345703125,-0.4106903076171875,-0.896026611328125,-0.0276289638131856,0.0080427462235093,-0.014068947173655
1768736391876,-0.0223236083984375,-0.41107177734375,-0.895965576171875,-0.0283903628587722,0.016544621437788,-0.0083812344819307
1768736391886,-0.0159759521484375,-0.412567138671875,-0.9031524658203124,-0.0293906461447477,0.0062887887470424,-0.0025736789684742
1768736391896,-0.0125274658203125,-0.412109375,-0.9078521728515624,-0.028931250795722,-0.0198711771517992,0.000891892646905
1768736391906,-0.0150909423828125,-0.4097442626953125,-0.9088134765625,-0.0263410601764917,-0.0523942336440086,-0.0018724685069173
1768736391916,-0.018524169921875,-0.406219482421875,-0.9161376953125,-0.0164229162037372,-0.0426609106361866,-0.0088076060637831
1768736391927,-0.025482177734375,-0.4054412841796875,-0.9184417724609376,-0.0136846527457237,-0.0154481986537575,-0.0163771081715822
1768736391937,-0.03179931640625,-0.4064788818359375,-0.9087982177734376,-0.0101029677316546,0.0081245051696896,-0.0206581410020589
1768736391947,-0.030853271484375,-0.407745361328125,-0.906951904296875,-0.0107565075159072,0.0160745736211538,-0.0257125534117221
1768736391957,-0.02734375,-0.40545654296875,-0.9075927734375,-0.0148327415809035,0.0089618032798171,-0.0272915419191122
1768736391967,-0.022796630859375,-0.40570068359375,-0.913909912109375,-0.0102555667981505,-0.000271109805908,-0.0295456424355506
1768736391977,-0.0205078125,-0.4068756103515625,-0.9216461181640624,-0.0066081015393137,-0.0092560825869441,-0.0280161872506141
1768736391987,-0.0202789306640625,-0.4063568115234375,-0.92193603515625,-0.0085468832403421,-0.0312705710530281,-0.0277056638151407
1768736391997,-0.021148681640625,-0.406646728515625,-0.9140625,-0.0157121177762746,-0.0326602086424827,-0.0286327097564935
1768736392007,-0.02313232421875,-0.4084625244140625,-0.91412353515625,-0.0116960704326629,-0.0176168102771043,-0.0273229666054248
1768736392017,-0.02105712890625,-0.40594482421875,-0.92144775390625,0.0016623451374471,-0.013342703692615,-0.021605160087347
1768736392027,-0.0167388916015625,-0.4038543701171875,-0.9257049560546876,0.0180003065615892,-0.0138052944093942,-0.0225271470844745
1768736392037,-0.01373291015625,-0.4052734375,-0.925750732421875,0.0230022557079792,-0.0194778274744749,-0.0249538198113441
1768736392047,-0.016082763671875,-0.405517578125,-0.9156646728515624,0.0249026864767074,-0.0147690922021865,-0.0274894144386053
1768736392057,-0.0177154541015625,-0.4063568115234375,-0.9108734130859376,0.0292479004710912,0.0038671761285513,-0.0310729648917913
1768736392067,-0.01873779296875,-0.406402587890625,-0.9097747802734376,0.0278047323226928,0.0086368974298238,-0.0306852087378501
1768736392077,-0.0180816650390625,-0.405609130859375,-0.9068756103515624,0.0286108721047639,0.0101394532248377,-0.0260385256260633
1768736392087,-0.013763427734375,-0.4049835205078125,-0.9102630615234376,0.0286883693188428,0.0023451796732842,-0.0192546546459198
1768736392097,-0.01312255859375,-0.40826416015625,-0.9056396484375,0.0178186781704425,-0.0070635019801557,-0.0098997689783573
1768736392107,-0.0146331787109375,-0.4111480712890625,-0.9012908935546876,0.0039300266653299,-0.0215851869434118,-0.0033300165086984
1768736392117,-0.0145416259765625,-0.414276123046875,-0.8943328857421875,-0.0114587834104895,-0.0429120473563671,-0.0105919241905212
1768736392127,-0.0199127197265625,-0.404876708984375,-0.894683837890625,-0.0158857554197311,-0.0366709306836128,-0.0182351972907781
1768736392138,-0.021759033203125,-0.4157867431640625,-0.90234375,-0.0154873467981815,-0.0154748298227787,-0.0176639482378959
1768736392147,-0.010711669921875,-0.4138336181640625,-0.9070587158203124,-0.0069135660305619,-0.0192117784172296,-0.0168833751231431
1768736392157,-0.0134429931640625,-0.4057464599609375,-0.912750244140625,0.0072840116918087,-0.0184168238192796,-0.0278308317065238
1768736392168,-0.022857666015625,-0.40252685546875,-0.916046142578125,0.0125259114429354,-0.001775263226591,-0.0257351901382207
1768736392178,-0.02496337890625,-0.4055633544921875,-0.9095916748046876,0.0057340520434081,0.0293211378157138,-0.0206570755690336
1768736392188,-0.020721435546875,-0.411468505859375,-0.9031982421875,-0.0032852755393832,0.0388480648398399,-0.0118582574650645
1768736392198,-0.0191802978515625,-0.4107666015625,-0.89947509765625,-0.013513677753508,0.032193623483181,-0.0092944325879216
1768736392208,-0.0206298828125,-0.4096832275390625,-0.9000244140625,-0.0234592538326978,0.0158673804253339,-0.0134976990520954
1768736392218,-0.022613525390625,-0.4054718017578125,-0.90325927734375,-0.0268430653959512,0.0008143946761265,-0.0201593302190303
1768736392228,-0.02105712890625,-0.4029998779296875,-0.9112396240234376,-0.0269445329904556,-0.0116752982139587,-0.0227314122021198
1768736392241,-0.0139007568359375,-0.4058685302734375,-0.9170074462890624,-0.0223750807344913,-0.0237463414669036,-0.0198903512209653
1768736392248,-0.007293701171875,-0.4103240966796875,-0.921478271484375,-0.0153627106919884,-0.0280156563967466,-0.0139677468687295
1768736392258,-0.00848388671875,-0.4119720458984375,-0.919769287109375,-0.0116561232134699,-0.0325393006205558,-0.0078424764797091
1768736392268,-0.011993408203125,-0.4120330810546875,-0.9144439697265624,-0.0081351585686206,-0.0412952415645122,-0.0124393589794635
1768736392278,-0.0210723876953125,-0.4121856689453125,-0.9090728759765624,-0.0078896144405007,-0.051187552511692,-0.0219897218048572
1768736392288,-0.0300140380859375,-0.407470703125,-0.907073974609375,-0.0021816615480929,-0.0358522720634937,-0.0328466296195983
1768736392298,-0.0289154052734375,-0.40740966796875,-0.9098968505859376,0.006859237793833,-0.0184988491237163,-0.0351497307419776
1768736392308,-0.0238494873046875,-0.4060211181640625,-0.911102294921875,0.0226616356521844,0.0017116136150434,-0.03281706944108
1768736392318,-0.0188446044921875,-0.4073028564453125,-0.913055419921875,0.0320735126733779,0.0147674940526485,-0.025539981201291
1768736392328,-0.0161590576171875,-0.40728759765625,-0.9078369140625,0.0278481431305408,0.0141461789608001,-0.0181598290801048
1768736392339,-0.014312744140625,-0.4055633544921875,-0.8997650146484375,0.0128244524821639,0.0043393545784056,-0.0175579544156789
1768736392349,-0.017059326171875,-0.4061431884765625,-0.8908843994140625,-0.0065790731459856,-0.0036922064609825,-0.0157784298062324
1768736392359,-0.0169830322265625,-0.4043731689453125,-0.892547607421875,-0.0159805640578269,-0.0032847428228706,-0.013636183924973
1768736392369,-0.0149688720703125,-0.4067840576171875,-0.900634765625,-0.0254188068211078,0.0011454256018623,-0.0105804726481437
1768736392379,-0.0136566162109375,-0.4099578857421875,-0.900238037109375,-0.0349273569881916,0.0069777481257915,-0.0048948898911476
1768736392389,-0.013275146484375,-0.41253662109375,-0.898895263671875,-0.0486010909080505,-0.0100912498310208,0.0028157602064311
1768736392399,-0.0146331787109375,-0.414093017578125,-0.896514892578125,-0.0632335618138313,-0.0342892631888389,0.004046939779073
1768736392409,-0.0140380859375,-0.41436767578125,-0.9029693603515624,-0.0631792321801185,-0.045877743512392,0.0011456918437033
1768736392419,-0.0135040283203125,-0.4125213623046875,-0.9167938232421876,-0.048383243381977,-0.0489313229918479,-0.0055899750441312
1768736392429,-0.017608642578125,-0.4091339111328125,-0.921661376953125,-0.0319957509636879,-0.0309816189110279,-0.008756473660469
1768736392439,-0.022705078125,-0.409454345703125,-0.92138671875,-0.0161842964589595,-0.0075364797376096,-0.0143792051821947
1768736392449,-0.0268402099609375,-0.4077606201171875,-0.9214935302734376,0.0014961638953536,0.0056826532818377,-0.0194858163595199
1768736392459,-0.02459716796875,-0.406097412109375,-0.92449951171875,0.0190716944634914,0.0124883614480495,-0.0197526663541793
1768736392469,-0.0192718505859375,-0.405242919921875,-0.92657470703125,0.0282140616327524,0.0137301934882998,-0.0164767112582921
1768736392479,-0.0157318115234375,-0.4058380126953125,-0.921966552734375,0.0302700214087963,0.012312326580286,-0.011544270440936
1768736392489,-0.01446533203125,-0.405914306640625,-0.9187469482421876,0.0337662175297737,0.0018274611793458,-0.0093378415331244
1768736392499,-0.0159912109375,-0.40679931640625,-0.91497802734375,0.0218672156333923,-0.0130675984546542,-0.0103525063022971
1768736392509,-0.017791748046875,-0.40972900390625,-0.902435302734375,0.0074145067483186,-0.0120092583820223,-0.0109128346666693
1768736392519,-0.0201568603515625,-0.4122161865234375,-0.896697998046875,-0.0030850057955831,0.0083838971331715,-0.0071788169443607
1768736392529,-0.016815185546875,-0.411773681640625,-0.9008636474609376,0.0008948221220634,0.0281421560794115,0.0014751249691471
1768736392540,-0.0122528076171875,-0.4100189208984375,-0.90985107421875,0.0060270000249147,0.0163621958345174,0.009025452658534
1768736392549,-0.0110321044921875,-0.4091033935546875,-0.9082794189453124,-0.0002625876804813,-0.0145861329510807,0.0067825387232005
1768736392560,-0.0114288330078125,-0.4091339111328125,-0.9039306640625,-0.0039393478073179,-0.0269842129200696,0.0089572761207818
1768736392570,-0.010528564453125,-0.412109375,-0.9054107666015624,-0.0037308223545551,-0.0212453678250312,0.0151943992823362
1768736392580,-0.0105743408203125,-0.414398193359375,-0.9076995849609376,0.0058147460222244,-0.0156460721045732,0.0217337906360626
1768736392590,-0.0156707763671875,-0.4140167236328125,-0.9083099365234376,0.0059846555814146,-0.0037161749787628,0.0181313324719667
1768736392600,-0.02703857421875,-0.4119720458984375,-0.902099609375,-0.0024708807468414,0.0057577542029321,0.0107796769589185
1768736392610,-0.02606201171875,-0.41156005859375,-0.9019775390625,-0.0027608990203589,0.0119485380128026,0.0066893277689814
1768736392620,-0.0246429443359375,-0.41253662109375,-0.910003662109375,0.0013704627053812,0.0157118514180183,0.0089716566726565
1768736392630,-0.0248565673828125,-0.41351318359375,-0.9124603271484376,0.0024178838357329,0.0187798123806715,0.011241203173995
1768736392640,-0.02484130859375,-0.4095916748046875,-0.91485595703125,0.0067937239073216,0.0116651784628629,0.0088329063728451
1768736392650,-0.0278472900390625,-0.407623291015625,-0.9155120849609376,0.0090411659330129,0.0043816990219056,0.0023222763556987
1768736392660,-0.031524658203125,-0.403045654296875,-0.9162445068359376,0.0108089717105031,0.0033465281594544,-0.0040405481122434
1768736392670,-0.0293731689453125,-0.4041748046875,-0.9140167236328124,0.0107778124511241,0.0095378449186682,-0.0042972764931619
1768736392680,-0.024078369140625,-0.408966064453125,-0.910888671875,0.0118153803050518,0.008093879558146,-0.0024919197894632
1768736392690,-0.0202178955078125,-0.4097900390625,-0.9070281982421876,0.0067354007624089,0.0052525526843965,-0.004839229863137
1768736392700,-0.01947021484375,-0.4102935791015625,-0.901397705078125,0.0028636970091611,0.0033188313245773,-0.0067806742154061
1768736392710,-0.0189208984375,-0.410980224609375,-0.90106201171875,0.0010588727891445,0.0037225666455924,-0.006956975441426
1768736392720,-0.01708984375,-0.413330078125,-0.9029541015625,-0.0010186590952798,0.0048592034727334,-0.0015923039754852
1768736392730,-0.0177764892578125,-0.4154510498046875,-0.9012908935546876,-0.0077689732424914,0.0032748891972005,-0.0004644552827812
1768736392740,-0.020233154296875,-0.4141082763671875,-0.8940582275390625,-0.0196240358054637,0.0026666230987757,-0.0018756643403321
1768736392750,-0.0263519287109375,-0.4118499755859375,-0.89306640625,-0.0284231193363666,0.0082595273852348,-0.0094387754797935
1768736392760,-0.027740478515625,-0.40753173828125,-0.900177001953125,-0.0305752195417881,0.0114460000768303,-0.0108451908454298
1768736392771,-0.0220184326171875,-0.4067230224609375,-0.9073333740234376,-0.0302007794380188,0.0089271822944283,-0.0065761436708271
1768736392780,-0.013671875,-0.4101409912109375,-0.91326904296875,-0.0314977392554283,-0.0081697795540094,-0.00080320937559
1768736392791,-0.0120391845703125,-0.4079132080078125,-0.9114227294921876,-0.0355486720800399,-0.0303214211016893,-0.0003592604189179
1768736392801,-0.016510009765625,-0.4063873291015625,-0.9129638671875,-0.0319020077586174,-0.0200109928846359,0.0027316042687743
1768736392811,-0.0116424560546875,-0.4188690185546875,-0.9156341552734376,-0.0336509048938751,-0.0051169977523386,0.0157320909202098
1768736392821,-0.00634765625,-0.413299560546875,-0.9107513427734376,-0.0267852749675512,-0.0012532835826277,0.0138273984193801
1768736392831,-0.0129547119140625,-0.40582275390625,-0.9140167236328124,-0.0172058846801519,0.0054088803008198,0.0134758614003658
1768736392841,-0.01556396484375,-0.4055328369140625,-0.9137420654296876,-0.0175459701567888,0.0163518097251653,0.0198602564632892
1768736392851,-0.0186614990234375,-0.4084014892578125,-0.9075469970703124,-0.0211180690675973,0.0277927480638027,0.0244467537850141
1768736392861,-0.021514892578125,-0.4089813232421875,-0.902587890625,-0.0278020706027746,0.0352642461657524,0.0225974544882774
1768736392871,-0.020660400390625,-0.4072723388671875,-0.9011993408203124,-0.0343646332621574,0.0355332270264625,0.0191095117479562
1768736392881,-0.0234375,-0.4012298583984375,-0.9038848876953124,-0.0380011796951293,0.0281847659498453,0.0104220146313309
1768736392891,-0.022613525390625,-0.3971710205078125,-0.909942626953125,-0.0349001921713352,0.0187206901609897,0.0050624026916921
1768736392901,-0.018402099609375,-0.3989715576171875,-0.9134368896484376,-0.037923414260149,0.0050155310891568,0.005567604675889
1768736392911,-0.0133514404296875,-0.401214599609375,-0.910308837890625,-0.0461262166500091,-0.0126223182305693,0.008077367208898
1768736392921,-0.0131988525390625,-0.4041748046875,-0.906280517578125,-0.0572728775441646,-0.0174801908433437,0.012573848478496
1768736392931,-0.0123443603515625,-0.406707763671875,-0.906280517578125,-0.0603898391127586,-0.0165848359465599,0.0217239372432231
1768736392941,-0.00970458984375,-0.4059600830078125,-0.9129638671875,-0.052646167576313,-0.008690427057445,0.0316047966480255
1768736392951,-0.009307861328125,-0.4053955078125,-0.9192657470703124,-0.0440422929823398,-0.0013624732382595,0.0396342277526855
1768736392961,-0.0103607177734375,-0.405731201171875,-0.9189453125,-0.0399540737271308,0.0023739417083561,0.0474729761481285
1768736392971,-0.0146942138671875,-0.4033660888671875,-0.9140625,-0.0360570698976516,0.0104353306815028,0.0495579652488231
1768736392982,-0.0168609619140625,-0.4031829833984375,-0.9160003662109376,-0.0306862741708755,0.0227740220725536,0.0498397275805473
1768736392992,-0.01885986328125,-0.4027862548828125,-0.9148406982421876,-0.030972296372056,0.0294939763844013,0.0505270883440971
1768736393002,-0.019744873046875,-0.4016876220703125,-0.908538818359375,-0.0327313132584095,0.0322474166750907,0.0535953193902969
1768736393012,-0.01849365234375,-0.4043731689453125,-0.90570068359375,-0.039815854281187,0.0315339565277099,0.054825697094202
1768736393022,-0.017578125,-0.403717041015625,-0.9079132080078124,-0.0484258569777011,0.0254520960152149,0.0574699491262435
1768736393032,-0.0181732177734375,-0.4029541015625,-0.9073944091796876,-0.0555141232907772,0.0148420631885528,0.0571607574820518
1768736393042,-0.01739501953125,-0.4033355712890625,-0.907562255859375,-0.063873790204525,-0.0005081311101093,0.056353285908699
1768736393052,-0.0188446044921875,-0.4031524658203125,-0.9047088623046876,-0.070042997598648,0.000135554902954,0.0599959604442119
1768736393062,-0.0179290771484375,-0.4057464599609375,-0.906890869140625,-0.0745863541960716,-0.001531051355414,0.0675161927938461
1768736393072,-0.0157470703125,-0.4076995849609375,-0.9111785888671876,-0.0741573199629783,-0.0022234732750803,0.069893330335617
1768736393082,-0.0184326171875,-0.4076385498046875,-0.917236328125,-0.0674152597784996,-0.0012911005178466,0.0661044493317604
1768736393092,-0.0224456787109375,-0.4012603759765625,-0.92205810546875,-0.0541346073150634,0.0006665892433375,0.0616572387516498
1768736393102,-0.0253448486328125,-0.4000244140625,-0.9275360107421876,-0.0383870713412761,0.0046946201473474,0.058634016662836
1768736393112,-0.0285797119140625,-0.39788818359375,-0.9295196533203124,-0.0287379045039415,0.0069599049165844,0.054990280419588
1768736393122,-0.035858154296875,-0.395782470703125,-0.9270172119140624,-0.0160998739302158,0.0058981026522815,0.0487851165235042
1768736393132,-0.03912353515625,-0.39324951171875,-0.9292755126953124,-0.0070424629375338,0.0113021889701485,0.0375910513103008
1768736393142,-0.042205810546875,-0.39337158203125,-0.924468994140625,-0.0044432180002331,0.0069356705062091,0.0287027508020401
1768736393152,-0.0429534912109375,-0.3937530517578125,-0.9160003662109376,-0.0095450356602668,-0.0061084926128387,0.0232733637094497
1768736393162,-0.0363311767578125,-0.397125244140625,-0.9141082763671876,-0.0139203425496816,-0.0153344813734292,0.0210445653647184
1768736393172,-0.026611328125,-0.399444580078125,-0.91363525390625,-0.0192338824272155,-0.0326916351914405,0.0201875604689121
1768736393182,-0.024200439453125,-0.4007110595703125,-0.9119720458984376,-0.024254472926259,-0.0427237600088119,0.0207532159984111
1768736393193,-0.02099609375,-0.4005279541015625,-0.9122314453125,-0.0251903086900711,-0.0419264100492,0.0204522777348756
1768736393203,-0.0204620361328125,-0.401641845703125,-0.9127960205078124,-0.0201926194131374,-0.032470591366291,0.0256307944655418
1768736393213,-0.0206146240234375,-0.3995208740234375,-0.915679931640625,-0.0121128559112548,-0.0188655667006969,0.0273458696901798
1768736393223,-0.02105712890625,-0.399139404296875,-0.9186553955078124,-0.0014096111990511,-0.0004953479510731,0.0303224865347147
1768736393233,-0.0232391357421875,-0.398895263671875,-0.9167022705078124,0.0035502600949257,0.0103807356208562,0.0311837512999773
1768736393243,-0.026580810546875,-0.397552490234375,-0.9141693115234376,0.0003723099071066,0.0137360524386167,0.0306138359010219
1768736393253,-0.0271453857421875,-0.3984832763671875,-0.904815673828125,-0.0127980867400765,0.0041782334446907,0.0315741710364818
1768736393263,-0.0277862548828125,-0.399658203125,-0.8966827392578125,-0.0297184810042381,-0.0067111658863723,0.0291650760918855
1768736393273,-0.0272674560546875,-0.399749755859375,-0.9027862548828124,-0.0386861413717269,-0.0110143013298511,0.034625619649887
1768736393283,-0.0253448486328125,-0.3995208740234375,-0.9123992919921876,-0.0431810244917869,-0.0126225845888257,0.038813441991806
1768736393293,-0.0278167724609375,-0.397613525390625,-0.91107177734375,-0.0504546500742435,-0.0176586229354143,0.0372672118246555
1768736393303,-0.035064697265625,-0.3947296142578125,-0.912628173828125,-0.0500618368387222,-0.0112249571830034,0.0304484535008668
1768736393313,-0.03594970703125,-0.3921966552734375,-0.922393798828125,-0.0429013930261135,-0.0020189424976706,0.0255772657692432
1768736393323,-0.035736083984375,-0.39300537109375,-0.9256591796875,-0.0344882011413574,0.0068216868676245,0.0218198113143444
1768736393333,-0.03155517578125,-0.394378662109375,-0.9254913330078124,-0.0272638443857431,0.0035939358640462,0.0225375331938266
1768736393343,-0.0288848876953125,-0.3937530517578125,-0.9254913330078124,-0.015392804518342,-0.0012221246724948,0.0221196822822093
1768736393353,-0.0289306640625,-0.3922576904296875,-0.92791748046875,-0.0067990501411259,-0.0081261033192276,0.0204184558242559
1768736393363,-0.029327392578125,-0.3945465087890625,-0.9234466552734376,-0.0012458267156034,-0.0071292822249233,0.0152559177950024
1768736393373,-0.030303955078125,-0.391693115234375,-0.9230194091796876,0.0089434273540973,5.805691034765914e-05,0.0121983429417014
1768736393383,-0.03009033203125,-0.389862060546875,-0.920562744140625,0.0108704911544919,0.0024272049777209,0.0084728468209505
1768736393394,-0.0325927734375,-0.392181396484375,-0.913116455078125,0.006008624099195,0.0007265103631652,0.0068163606338202
1768736393404,-0.0325927734375,-0.3909759521484375,-0.908843994140625,-0.0036203011404722,-0.0067346016876399,0.0075841499492526
1768736393414,-0.0325927734375,-0.39154052734375,-0.9093170166015624,-0.0109413312748074,-0.0126388296484947,0.0062283347360789
1768736393424,-0.031951904296875,-0.389190673828125,-0.9111328125,-0.0155400773510336,-0.0134489629417657,0.0081716431304812
1768736393434,-0.0335845947265625,-0.38909912109375,-0.915557861328125,-0.0187590401619672,-0.0100984405726194,0.0066155586391687
1768736393444,-0.0334320068359375,-0.3941650390625,-0.9132080078125,-0.0226520486176013,-0.006058691535145,0.0128857046365737
1768736393454,-0.028961181640625,-0.3955535888671875,-0.9103240966796876,-0.0280105955898761,-0.006483731791377,0.0118691762909293
1768736393464,-0.0313568115234375,-0.393646240234375,-0.91351318359375,-0.0231077168136835,-0.0018607506062835,0.011281949467957
1768736393474,-0.0272979736328125,-0.4032135009765625,-0.9167327880859376,-0.0229694973677396,0.0113125760108232,0.0258515700697898
1768736393484,-0.018218994140625,-0.4017791748046875,-0.9174346923828124,-0.0206317752599716,0.0084179854020476,0.0243956204503774
1768736393494,-0.027374267578125,-0.391693115234375,-0.917510986328125,-0.0101799331605434,0.0114638432860374,0.0169808473438024
1768736393504,-0.0361175537109375,-0.3864898681640625,-0.9262237548828124,0.0089575424790382,0.0308202300220727,0.0192120447754859
1768736393514,-0.0345458984375,-0.3857269287109375,-0.9367523193359376,0.026422020047903,0.0329329147934913,0.0184365306049585
1768736393524,-0.0317230224609375,-0.3865509033203125,-0.93145751953125,0.0340948514640331,0.022188127040863,0.0136079536750912
1768736393534,-0.0323944091796875,-0.384521484375,-0.9230499267578124,0.03624003008008,0.0157568585127592,0.0064571001566946
1768736393544,-0.0342559814453125,-0.3827667236328125,-0.9162750244140624,0.0279051344841718,0.0111061809584498,0.0026445188559591
1768736393554,-0.0381011962890625,-0.3840179443359375,-0.9073028564453124,0.0130660012364387,0.0062096924521028,-0.001096157124266
1768736393564,-0.0355987548828125,-0.3866119384765625,-0.9012603759765624,-0.0034043188206851,0.005126585252583,-0.0036027242895215
1768736393574,-0.0293426513671875,-0.3908843994140625,-0.899993896484375,-0.0249998923391103,-0.0064552361145615,0.0007225155713967
1768736393584,-0.0228118896484375,-0.395538330078125,-0.895721435546875,-0.0485443659126758,-0.0190253555774688,0.0099287973716855
1768736393594,-0.0177459716796875,-0.39703369140625,-0.8963470458984375,-0.05959914624691,-0.0250606127083301,0.0175230670720338
1768736393605,-0.0158538818359375,-0.3969268798828125,-0.9078826904296876,-0.0619344748556613,-0.0196290947496891,0.0226571094244718
1768736393615,-0.018218994140625,-0.3930816650390625,-0.9138031005859376,-0.052177183330059,-0.0101032340899109,0.023847009986639
1768736393625,-0.0205535888671875,-0.3940277099609375,-0.9192047119140624,-0.0397918857634067,-0.0036767602432519,0.0264830067753791
1768736393635,-0.0203399658203125,-0.392791748046875,-0.924041748046875,-0.0243961531668901,-0.0041089910082519,0.0281317699700593
1768736393645,-0.0241546630859375,-0.3900604248046875,-0.927520751953125,-0.0092462291941046,-0.0025534387677907,0.0291120782494545
1768736393655,-0.02880859375,-0.39068603515625,-0.9269866943359376,-0.0012359730899333,-0.002397111384198,0.0269280206412076
1768736393665,-0.035614013671875,-0.3930816650390625,-0.9230194091796876,-0.0014863101532682,0.0057822554372251,0.0234504640102386
1768736393675,-0.0412750244140625,-0.393310546875,-0.91888427734375,-0.0095990980044007,0.0068560419604182,0.0209625400602817
1768736393685,-0.045013427734375,-0.392242431640625,-0.912841796875,-0.0132841141894459,0.0042261704802513,0.0133243277668952
1768736393695,-0.0454254150390625,-0.3916015625,-0.916534423828125,-0.0190189648419618,0.0112252235412597,0.0083524724468588
1768736393705,-0.0430450439453125,-0.392578125,-0.919708251953125,-0.019095130264759,0.0133855799213051,0.0088885659351944
1768736393715,-0.038299560546875,-0.39178466796875,-0.921417236328125,-0.0185134969651699,0.0127642648294568,0.0115559883415699
1768736393725,-0.0378570556640625,-0.392578125,-0.9237823486328124,-0.0206160619854927,-0.0001241033023688,0.0094939032569527
1768736393735,-0.0357666015625,-0.391632080078125,-0.9210357666015624,-0.0171555504202842,-0.0034229608718305,0.0103525063022971
1768736393745,-0.027313232421875,-0.3970947265625,-0.9249725341796876,-0.0077250311151146,-0.003369963960722,0.0162285044789314
1768736393755,-0.0194244384765625,-0.3954315185546875,-0.9281768798828124,0.0086917588487267,-0.0038879488129168,0.0236419457942247
1768736393765,-0.0225372314453125,-0.3931121826171875,-0.927398681640625,0.0259863268584013,0.0065449848771095,0.0221894588321447
1768736393775,-0.0320892333984375,-0.3865814208984375,-0.9265899658203124,0.0362488180398941,0.0136226015165448,0.0186080392450094
1768736393785,-0.038360595703125,-0.3860015869140625,-0.9208526611328124,0.0377942509949207,0.022378010675311,0.01635074429214
1768736393795,-0.036468505859375,-0.3883056640625,-0.9136962890625,0.0333499684929847,0.0200008731335401,0.0178178790956735
1768736393806,-0.036285400390625,-0.3898773193359375,-0.909515380859375,0.0210749246180057,0.017690846696496,0.0152133079245686
1768736393815,-0.0357818603515625,-0.389984130859375,-0.90472412109375,0.0058275288902223,0.0107040433213114,0.0119605222716927
1768736393826,-0.035125732421875,-0.3914031982421875,-0.9010009765625,-0.0154074523597955,-0.0024154870770871,0.0069119683466851
1768736393836,-0.033721923828125,-0.394195556640625,-0.8965301513671875,-0.0372672118246555,-0.0158663149923086,0.0063588297925889
1768736393846,-0.0288238525390625,-0.3943939208984375,-0.900177001953125,-0.0478884279727935,-0.0181052349507808,0.0055910404771566
1768736393856,-0.0287628173828125,-0.39422607421875,-0.908599853515625,-0.0532238073647022,-0.0081431474536657,0.0111226923763751
1768736393866,-0.027130126953125,-0.39447021484375,-0.9160614013671876,-0.0489259958267211,0.0050488207489252,0.0162546038627624
1768736393876,-0.02520751953125,-0.3938446044921875,-0.9208221435546876,-0.0385460592806339,0.0125794410705566,0.020566526800394
1768736393886,-0.0233001708984375,-0.391693115234375,-0.9249725341796876,-0.0245610028505325,0.0076440712437033,0.0252728667110204
1768736393896,-0.0255889892578125,-0.38916015625,-0.9315643310546876,-0.0150362076237797,-0.0079412795603275,0.0217646844685077
1768736393906,-0.0307769775390625,-0.3878173828125,-0.9279327392578124,-0.0059468387626111,-0.0090289153158664,0.0197974070906639
1768736393916,-0.0325164794921875,-0.388153076171875,-0.929046630859375,0.0049039446748793,-0.0008801747462712,0.0179254710674285
1768736393927,-0.0369720458984375,-0.3876953125,-0.9261627197265624,0.018624285236001,0.0130023509263992,0.0166165269911289
1768736393936,-0.0386962890625,-0.386688232421875,-0.9244537353515624,0.0294289942830801,0.0227678958326578,0.0123179191723465
1768736393946,-0.043304443359375,-0.38525390625,-0.9209136962890624,0.0318466126918792,0.0237561948597431,0.0063630905933678
1768736393956,-0.0424957275390625,-0.3853302001953125,-0.914215087890625,0.0210200641304254,0.0041441447101533,-0.0045912899076938
1768736393966,-0.04290771484375,-0.38787841796875,-0.904083251953125,0.000851412594784,-0.0087127974256873,-0.0091881724074482
1768736393976,-0.038421630859375,-0.3912506103515625,-0.9001007080078125,-0.0154165066778659,-0.0105090998113155,-0.0088384989649057
1768736393986,-0.034210205078125,-0.3933258056640625,-0.9015350341796876,-0.021141504868865,-0.0065452507697045,-0.0048184571787714
1768736393996,-0.030609130859375,-0.390594482421875,-0.9058380126953124,-0.0260366611182689,-0.0062608253210783,-0.005722866859287
1768736394007,-0.0285491943359375,-0.3868865966796875,-0.9095001220703124,-0.0256174784153699,-0.01265534106642,-0.0039888825267553
1768736394016,-0.0280303955078125,-0.3835601806640625,-0.91461181640625,-0.0227870717644691,-0.00839454960078,-0.0027353328187018
1768736394026,-0.027099609375,-0.382720947265625,-0.9170074462890624,-0.0191886089742183,-0.0039001994300633,0.0010873686987906
1768736394037,-0.027130126953125,-0.38446044921875,-0.913177490234375,-0.020027769729495,0.0048653287813067,0.0074967984110116
1768736394047,-0.031097412109375,-0.38323974609375,-0.91241455078125,-0.0178402494639158,0.015793077647686,0.0081386202946305
1768736394057,-0.0365753173828125,-0.37933349609375,-0.912933349609375,-0.0209899693727493,0.0132162030786275,-0.000205596035812
1768736394067,-0.038482666015625,-0.37713623046875,-0.9091033935546876,-0.0271703675389289,-0.0052086105570197,-0.0039851544424891
1768736394077,-0.036773681640625,-0.380126953125,-0.90765380859375,-0.0330956354737281,-0.0107477195560932,-0.0081665832549333
1768736394087,-0.03314208984375,-0.3872222900390625,-0.908050537109375,-0.040704820305109,-0.0033718282356858,-0.0068693575449287
1768736394097,-0.0317535400390625,-0.3933258056640625,-0.903076171875,-0.0548193082213401,0.0054424358531832,-0.0044317664578557
1768736394107,-0.0335693359375,-0.3886871337890625,-0.9001617431640625,-0.0617746859788894,0.0078323567286133,-0.01281273458153
1768736394117,-0.0345916748046875,-0.390655517578125,-0.913238525390625,-0.0623813532292842,0.0086840353906154,-0.0030391993932425
1768736394127,-0.0200958251953125,-0.39306640625,-0.9225311279296876,-0.062804527580738,-0.003940945956856,0.0033577135764062
1768736394139,-0.0166473388671875,-0.3896484375,-0.9276275634765624,-0.0530331246554851,-0.0182759426534175,0.0032186964526772
1768736394147,-0.023468017578125,-0.3881988525390625,-0.9346160888671876,-0.0363401658833026,-0.0022533005103468,0.0070674968883395
1768736394158,-0.0296173095703125,-0.3891143798828125,-0.9365692138671876,-0.0195622500032186,0.0297749396413564,0.010979413986206
1768736394167,-0.0284576416015625,-0.3910980224609375,-0.933624267578125,-0.0051305796951055,0.0417959168553352,0.0122068654745817
1768736394177,-0.0315093994140625,-0.38275146484375,-0.9297943115234376,0.0033148366492241,0.0336487740278244,0.0038980687968432
1768736394187,-0.0371856689453125,-0.376190185546875,-0.929351806640625,0.0083263730630278,0.0263692885637283,-0.0060496367514133
1768736394197,-0.036651611328125,-0.3768310546875,-0.9290008544921876,0.0110324108973145,0.0238805655390024,-0.0040831584483385
1768736394207,-0.0387420654296875,-0.3800048828125,-0.92376708984375,0.0042288335971534,0.010670487768948,-0.0022770026698708
1768736394217,-0.039825439453125,-0.381195068359375,-0.9150238037109376,-0.0096262618899345,-0.0102640893310308,-0.0113525232300162
1768736394228,-0.039520263671875,-0.38140869140625,-0.910247802734375,-0.0247245207428932,-0.0263498481363058,-0.0176951065659523
1768736394238,-0.0368194580078125,-0.3839569091796875,-0.9109954833984376,-0.0334146805107593,-0.0345870070159435,-0.0235713720321655
1768736394248,-0.0338134765625,-0.38720703125,-0.9109344482421876,-0.0396640561521053,-0.0252331849187612,-0.0221995785832405
1768736394258,-0.0308380126953125,-0.3899993896484375,-0.912109375,-0.0369785241782665,-0.0151893394067883,-0.0182799380272626
1768736394268,-0.03094482421875,-0.3882904052734375,-0.91583251953125,-0.0293549597263336,-0.0047939564101397,-0.0178061611950397
1768736394278,-0.02984619140625,-0.3866424560546875,-0.9218597412109376,-0.0250816512852907,0.0005278385360725,-0.0155121143907308
1768736394288,-0.02777099609375,-0.3863677978515625,-0.923187255859375,-0.0176623500883579,0.0060640177689492,-0.011755459010601
1768736394298,-0.025146484375,-0.3871002197265625,-0.9252166748046876,-0.0101359905675053,0.0117168435826897,-0.0047923582606017
1768736394308,-0.0268402099609375,-0.3849334716796875,-0.9243011474609376,-0.0047630635090172,0.0209926329553127,0.0005283711361698
1768736394318,-0.0273590087890625,-0.383636474609375,-0.9247894287109376,-0.0020578245166689,0.020022178068757,0.0057308562099933
1768736394328,-0.028961181640625,-0.3841400146484375,-0.9256744384765624,0.0014974954538047,0.0204536095261573,0.0080105224624276
1768736394338,-0.030975341796875,-0.38201904296875,-0.9278717041015624,0.0011177286505699,0.0181981790810823,0.0084438184276223
1768736394348,-0.0316314697265625,-0.382110595703125,-0.9261932373046876,0.0002050634066108,0.0167438257485628,0.0085314363241195
1768736394358,-0.0300750732421875,-0.382537841796875,-0.92279052734375,-0.0061750714667141,0.008542887866497,0.0069750850088894
1768736394368,-0.033233642578125,-0.3798675537109375,-0.9158935546875,-0.0169627387076616,-0.0029614351224154,0.0031851406674832
1768736394378,-0.033599853515625,-0.3834686279296875,-0.91107177734375,-0.0252542234957218,0.0008719189208932,0.005708485841751
1768736394388,-0.0308074951171875,-0.39129638671875,-0.91387939453125,-0.0272420067340135,0.0163933541625738,0.0091221258044242
1768736394398,-0.027435302734375,-0.392547607421875,-0.9199676513671876,-0.0210261885076761,0.0188333429396152,0.0072925337590277
1768736394408,-0.023590087890625,-0.386505126953125,-0.9235687255859376,-0.0077205039560794,0.0164969507604837,0.0100268013775348
1768736394418,-0.0202789306640625,-0.3844757080078125,-0.9279327392578124,0.0075103803537786,0.0203047394752502,0.0187846068292856
1768736394429,-0.0207366943359375,-0.385833740234375,-0.930816650390625,0.0133285885676741,0.0230991933494806,0.0251093469560146
1768736394439,-0.02740478515625,-0.384185791015625,-0.9235687255859376,0.0184474512934684,0.0275053940713405,0.0209902357310056
1768736394448,-0.0352325439453125,-0.379608154296875,-0.926116943359375,0.0222405903041362,0.0392571240663528,0.0142268724739551
1768736394459,-0.040069580078125,-0.37591552734375,-0.9270172119140624,0.0274755656719207,0.0463824123144149,0.0072869411669671
1768736394469,-0.037506103515625,-0.376922607421875,-0.9219207763671876,0.0272830203175544,0.0489457063376903,0.006941529456526
1768736394479,-0.0358123779296875,-0.3802490234375,-0.91973876953125,0.0236528646200895,0.0465006567537784,0.00576281407848
1768736394489,-0.032440185546875,-0.3795013427734375,-0.918060302734375,0.0161757748574018,0.0383178293704986,0.0039689089171588
1768736394499,-0.0334930419921875,-0.3826141357421875,-0.9100189208984376,-0.0028091021813452,0.0268302820622921,0.0034751589410007
1768736394509,-0.03631591796875,-0.38458251953125,-0.899749755859375,-0.0213316529989242,0.0245961565524339,0.0008985505555756
1768736394519,-0.0345611572265625,-0.3878021240234375,-0.9022979736328124,-0.0304836072027683,0.030785609036684,-0.0011014834744855
1768736394529,-0.0313568115234375,-0.384979248046875,-0.9115447998046876,-0.0260300021618604,0.0295456424355506,0.0036187032237648
1768736394539,-0.0252227783203125,-0.3856658935546875,-0.9197540283203124,-0.0181438494473695,0.0263053737580776,0.0097751328721642
1768736394549,-0.0219879150390625,-0.3882293701171875,-0.92510986328125,-0.0117591880261898,0.0171923022717237,0.0186013802886009
1768736394559,-0.022003173828125,-0.388153076171875,-0.9255218505859376,-0.0046179210767149,0.0039446740411221,0.026240924373269
1768736394569,-0.0240936279296875,-0.3858642578125,-0.925323486328125,0.0038245655596256,-0.002445048186928,0.027011377736926
1768736394579,-0.0298309326171875,-0.38446044921875,-0.927581787109375,0.0073497919365763,-0.0092510227113962,0.0225423276424407
1768736394589,-0.034423828125,-0.38348388671875,-0.9218902587890624,0.004334561061114,-0.0141970450058579,0.0168849732726812
1768736394599,-0.03948974609375,-0.38372802734375,-0.915374755859375,-0.0034000577870756,-0.0141243413090705,0.0121701136231422
1768736394609,-0.0447845458984375,-0.3859100341796875,-0.911102294921875,-0.0091745899990201,0.0032029838766902,0.0070565780624747
1768736394619,-0.04461669921875,-0.38592529296875,-0.912628173828125,-0.0141469780355691,0.0135914422571659,0.0002141181466868
1768736394630,-0.0418243408203125,-0.3857421875,-0.9135284423828124,-0.0162053350359201,0.0107767479494214,-0.0010554107138887
1768736394640,-0.03594970703125,-0.3854522705078125,-0.9183807373046876,-0.0194711703807115,0.0006183860241435,-0.0027172232512384
1768736394649,-0.0316619873046875,-0.3846588134765625,-0.925933837890625,-0.0140625555068254,-0.0060525662265717,-0.0038759645540267
1768736394659,-0.02880859375,-0.38330078125,-0.930572509765625,-0.0056126117706298,-0.0020980383269488,-0.0074248928576707
1768736394672,-0.0269927978515625,-0.385345458984375,-0.9306182861328124,0.0098787294700741,0.0068379323929548,-0.0076384786516427
1768736394680,-0.0265045166015625,-0.3839874267578125,-0.9318389892578124,0.0235410127788782,0.0189396031200885,-0.0088358353823423
1768736394690,-0.02685546875,-0.3827056884765625,-0.9275665283203124,0.0270601138472557,0.0186525136232376,-0.0066597666591405
1768736394700,-0.0274200439453125,-0.3835601806640625,-0.920166015625,0.0266127027571201,0.0121450796723365,-0.0038570561446249
1768736394710,-0.0325469970703125,-0.3838043212890625,-0.9141082763671876,0.0211462974548339,0.0103794038295745,-0.008839564397931
1768736394720,-0.0363311767578125,-0.381744384765625,-0.9114532470703124,0.0129493540152907,0.013332050293684,-0.0139733394607901
1768736394730,-0.038116455078125,-0.38507080078125,-0.908599853515625,0.0030698257032781,0.0188109725713729,-0.0168988220393657
1768736394740,-0.0381927490234375,-0.387908935546875,-0.908935546875,-0.0063127567991614,0.0197116527706384,-0.0160324964672327
1768736394750,-0.0366973876953125,-0.3904571533203125,-0.911468505859375,-0.0227236878126859,-0.003352919826284,-0.020771324634552
1768736394760,-0.036895751953125,-0.384033203125,-0.9080047607421876,-0.036702886223793,-0.0261583663523197,-0.0356440134346485
1768736394770,-0.0367889404296875,-0.38525390625,-0.9180145263671876,-0.0339121595025062,-0.0197574589401483,-0.0363329723477363
1768736394780,-0.0280303955078125,-0.398529052734375,-0.9256744384765624,-0.0276998039335012,-0.013129916973412,-0.0243572704493999
1768736394790,-0.0190887451171875,-0.3928375244140625,-0.9288330078125,-0.0151331461966037,-0.0155155761167407,-0.0261852648109197
1768736394800,-0.0252838134765625,-0.38916015625,-0.9316558837890624,0.0015675366157665,-0.0153206326067447,-0.032487902790308
1768736394810,-0.0299530029296875,-0.384613037109375,-0.9312286376953124,0.0127647975459694,-0.0003499393642414,-0.031056985259056
1768736394820,-0.03076171875,-0.3871917724609375,-0.9246673583984376,0.0201854296028614,0.0185063071548938,-0.0261431876569986
1768736394830,-0.026092529296875,-0.384368896484375,-0.919677734375,0.0197228379547595,0.0184019096195697,-0.0299818664789199
1768736394841,-0.02691650390625,-0.379547119140625,-0.9165191650390624,0.0195694398134946,0.0151951983571052,-0.0339071005582809
1768736394850,-0.02655029296875,-0.3744964599609375,-0.9183349609375,0.0174982994794845,0.0044746431522071,-0.0325129367411136
1768736394860,-0.0255889892578125,-0.3714752197265625,-0.9207763671875,0.018125208094716,-0.0029233519453555,-0.0305616371333599
1768736394871,-0.0241851806640625,-0.3730316162109375,-0.9224090576171876,0.0137677434831857,-0.0001257012045243,-0.024768728762865
1768736394881,-0.0206451416015625,-0.3753814697265625,-0.9224853515625,0.0062986421398818,-0.0018415758386254,-0.0242084003984928
1768736394891,-0.022125244140625,-0.3771209716796875,-0.920745849609375,-0.0027033747173845,-0.0098331896588206,-0.0274563916027545
1768736394901,-0.0215911865234375,-0.383209228515625,-0.9142913818359376,-0.0145448539406061,-0.0107879331335425,-0.0311738979071378
1768736394911,-0.019622802734375,-0.38702392578125,-0.908172607421875,-0.0249844454228878,-0.0116430735215544,-0.0287080779671669
1768736394921,-0.018280029296875,-0.3903656005859375,-0.907806396484375,-0.0236478056758642,0.0020493024494498,-0.0215103514492511
1768736394931,-0.0133209228515625,-0.3939208984375,-0.9195098876953124,-0.0153464656323194,0.0218752045184373,-0.0089066755026578
1768736394941,-0.0134735107421875,-0.39483642578125,-0.9221038818359376,-0.0097311902791261,0.0342969857156276,0.0006263754912652
1768736394951,-0.0182037353515625,-0.3909912109375,-0.91571044921875,-0.0084217144176363,0.041505366563797,0.0055162054486572
1768736394961,-0.0211944580078125,-0.388092041015625,-0.9167938232421876,-0.0087993508204817,0.0436116605997085,0.0082515385001897
1768736394971,-0.0242462158203125,-0.386566162109375,-0.918914794921875,-0.0039521311409771,0.0411445051431655,0.0057308562099933
1768736394981,-0.0257568359375,-0.380401611328125,-0.9232177734375,0.002756371628493,0.0301608312875032,0.0058421762660145
1768736394992,-0.0271759033203125,-0.3818511962890625,-0.925140380859375,0.0028269453905522,0.0092699313536286,0.001914812834002
1768736395001,-0.028106689453125,-0.3838348388671875,-0.92120361328125,0.0011680624447762,-0.0099777989089488,0.0025864620693027
1768736395011,-0.0271759033203125,-0.3870391845703125,-0.92034912109375,0.0007523429812863,-0.0167707242071628,0.0043864925391972
1768736395021,-0.0281829833984375,-0.387908935546875,-0.9180908203125,-0.0025145567487925,-0.010751980356872,0.0043420176953077
1768736395031,-0.0307769775390625,-0.3905181884765625,-0.9142913818359376,-0.0093000251799821,-0.0059300605207681,0.006296245381236
1768736395041,-0.02972412109375,-0.39520263671875,-0.90966796875,-0.0182796716690063,0.0049572079442441,0.0117839546874165
1768736395051,-0.024810791015625,-0.39764404296875,-0.9068145751953124,-0.0305611044168472,0.0007970841252245,0.0169715266674757
1768736395061,-0.0211944580078125,-0.3965301513671875,-0.9060211181640624,-0.0328737944364547,-0.0050309775397181,0.0152828162536025
1768736395072,-0.0218353271484375,-0.3903961181640625,-0.91424560546875,-0.0278835631906986,0.0011432950850576,0.0118156466633081
1768736395082,-0.023101806640625,-0.385040283203125,-0.9211883544921876,-0.0158593896776437,0.0071271518245339,0.0156420767307281
1768736395092,-0.0268402099609375,-0.382049560546875,-0.9253692626953124,-0.0076901437714695,0.014125938527286,0.0116670420393347
1768736395102,-0.0327606201171875,-0.3811187744140625,-0.9239044189453124,-0.0103373257443308,0.0145592354238033,0.0001134506601374
1768736395112,-0.032745361328125,-0.375885009765625,-0.922149658203125,-0.0079793632030487,0.0045710494741797,-0.0084733795374631
1768736395122,-0.0276031494140625,-0.374237060546875,-0.927886962890625,0.0007587345899082,0.0019361181184649,-0.0084097301587462
1768736395132,-0.020751953125,-0.37744140625,-0.935333251953125,0.005707686766982,-0.0062693473882973,-0.0053393715061247
1768736395142,-0.0198211669921875,-0.3791046142578125,-0.9312286376953124,0.004504204262048,-0.0135251302272081,-0.0025758093688637
1768736395152,-0.0197906494140625,-0.3819732666015625,-0.9238433837890624,0.007758320774883,-0.0088723208755254,-0.0018096179701387
1768736395162,-0.0168304443359375,-0.3851470947265625,-0.9225616455078124,0.0108531806617975,0.0051689292304217,-0.0004522047529462
1768736395172,-0.013946533203125,-0.3883514404296875,-0.9210052490234376,0.0136156771332025,0.0105232149362564,0.0098230699077248
1768736395182,-0.0081634521484375,-0.390228271484375,-0.91644287109375,0.011143198236823,0.0089804455637931,0.0174484979361295
1768736395192,-0.0106048583984375,-0.3919219970703125,-0.91156005859375,-0.0016221314435824,-0.0004468784318305,0.0208142008632421
1768736395202,-0.014862060546875,-0.3933258056640625,-0.9063720703125,-0.0150854755192995,0.0006604639347642,0.023026755079627
1768736395212,-0.0164947509765625,-0.395599365234375,-0.904541015625,-0.0218911841511726,0.0151509894058108,0.0279943495988845
1768736395222,-0.0186614990234375,-0.396942138671875,-0.907379150390625,-0.0254502333700656,0.0230166353285312,0.0390158407390117
1768736395232,-0.0189971923828125,-0.3954010009765625,-0.9138946533203124,-0.0234938748180866,0.0212227310985326,0.0429109819233417
1768736395242,-0.02239990234375,-0.3927154541015625,-0.918670654296875,-0.0235348865389823,0.0048932922072708,0.043722178786993
1768736395252,-0.0286712646484375,-0.3902130126953125,-0.920684814453125,-0.0219641551375389,6.072007090551779e-05,0.0407170690596103
1768736395262,-0.03546142578125,-0.390350341796875,-0.921417236328125,-0.0184604991227388,0.0078347539529204,0.0342594347894191
1768736395273,-0.0411834716796875,-0.3869171142578125,-0.923828125,-0.0114230969920754,0.0208251196891069,0.028431374579668
1768736395282,-0.04150390625,-0.3834228515625,-0.9292755126953124,-0.0006008091149851,0.026603115722537,0.0242749787867069
1768736395293,-0.040557861328125,-0.380950927734375,-0.9328765869140624,0.0067945229820907,0.0177036300301551,0.0189073774963617
1768736395303,-0.0397186279296875,-0.3785858154296875,-0.929351806640625,0.0110321445390582,-0.0030706247780472,0.0078667113557457
1768736395313,-0.0406341552734375,-0.3779144287109375,-0.9231109619140624,0.0083223786205053,-0.0225910618901252,-0.0037353497464209
1768736395323,-0.037628173828125,-0.3805694580078125,-0.921661376953125,0.0089154643937945,-0.0256694108247756,-0.013103817589581
1768736395333,-0.03363037109375,-0.382598876953125,-0.9200286865234376,0.0065372614189982,-0.0389394089579582,-0.0157081224024295
1768736395343,-0.0309600830078125,-0.383056640625,-0.9107513427734376,-0.0021326593123376,-0.0366578809916973,-0.0223441869020462
1768736395353,-0.0310516357421875,-0.3854827880859375,-0.907196044921875,-0.0102984439581632,-0.0184461195021867,-0.0238219760358333
1768736395363,-0.0287322998046875,-0.3878021240234375,-0.9062652587890624,-0.014265488833189,0.0014604774769395,-0.0215002316981554
1768736395373,-0.02398681640625,-0.386749267578125,-0.91046142578125,-0.0118313590064644,0.0212477650493383,-0.0141568314284086
1768736395383,-0.0222625732421875,-0.3874359130859375,-0.915740966796875,-0.0104691525921225,0.027224963530898,-0.006392918061465
1768736395393,-0.0192718505859375,-0.3862762451171875,-0.922515869140625,-0.0041332258842885,0.02048503421247,0.0010655306978151
1768736395403,-0.01953125,-0.3864593505859375,-0.9254150390625,-0.0057100835256278,0.0080318273976445,0.0005520732956938
1768736395413,-0.0254058837890625,-0.388153076171875,-0.919189453125,-0.0127629330381751,-0.0006191849242895,0.0015765913994982
1768736395424,-0.0252838134765625,-0.392181396484375,-0.91766357421875,-0.0207279156893491,-0.0108553105965256,0.0003821636200882
1768736395433,-0.028961181640625,-0.389404296875,-0.9165802001953124,-0.0190506558865308,-0.010080331005156,-0.0080078588798642
1768736395443,-0.031829833984375,-0.390625,-0.9257659912109376,-0.0109431948512792,0.0112289525568485,-0.0049295113421976
1768736395453,-0.0250396728515625,-0.398590087890625,-0.927276611328125,-0.0082635227590799,0.0140889212489128,-0.0029795446898788
1768736395463,-0.025177001953125,-0.3902740478515625,-0.9235076904296876,-0.0045838328078389,0.0032450617291033,-0.0102987103164196
1768736395474,-0.0331268310546875,-0.3847808837890625,-0.921356201171875,0.0018210695125162,-0.0008242483600042,-0.0212371107190847
1768736395483,-0.0351715087890625,-0.3853302001953125,-0.925506591796875,0.0148607054725289,0.0151869421824812,-0.020636036992073
1768736395494,-0.0318145751953125,-0.3870697021484375,-0.9302825927734376,0.0272638443857431,0.0198285654187202,-0.017798438668251
1768736395505,-0.0288543701171875,-0.3847808837890625,-0.9294281005859376,0.0359484143555164,0.0134399086236953,-0.0187369361519813
1768736395514,-0.0302276611328125,-0.3801727294921875,-0.9245452880859376,0.0307414010167121,0.0007544735562987,-0.0278896875679492
1768736395524,-0.0352783203125,-0.3786468505859375,-0.91497802734375,0.0238669831305742,-0.0001227717293659,-0.0342402607202529
1768736395534,-0.03826904296875,-0.377716064453125,-0.9155120849609376,0.0210943669080734,0.0049763829447329,-0.0326431654393672
1768736395544,-0.0344085693359375,-0.3766021728515625,-0.917144775390625,0.0219388548284769,0.0081191789358854,-0.0347201637923717
1768736395554,-0.02972412109375,-0.3779754638671875,-0.9196929931640624,0.0216909144073724,0.0082925511524081,-0.0345782153308391
1768736395564,-0.026763916015625,-0.378387451171875,-0.918914794921875,0.0144183542579412,0.0060869208537042,-0.0351441390812397
1768736395574,-0.0241546630859375,-0.381805419921875,-0.913604736328125,0.0069777481257915,0.0032623722217977,-0.0332730002701282
1768736395584,-0.0209808349609375,-0.3848114013671875,-0.91015625,0.0005313006113283,-0.0039183087646961,-0.0281916912645101
1768736395594,-0.01849365234375,-0.386871337890625,-0.9090118408203124,-0.0088547440245747,-0.0158434119075536,-0.0199606586247682
1768736395604,-0.01788330078125,-0.389068603515625,-0.905670166015625,-0.01780323125422,-0.009809753857553,-0.0189190953969955
1768736395614,-0.017425537109375,-0.389617919921875,-0.9083251953125,-0.0203883629292249,-0.0058192731812596,-0.0077636470086872
1768736395624,-0.016143798828125,-0.3877410888671875,-0.908050537109375,-0.0250134747475385,-0.0107565075159072,0.0011550129856914
1768736395634,-0.017913818359375,-0.388519287109375,-0.908782958984375,-0.0324996188282966,-0.0192458666861057,0.0057180733419954
1768736395644,-0.0180816650390625,-0.3885040283203125,-0.9085693359375,-0.0377154201269149,-0.0161779038608074,0.0094552868977189
1768736395654,-0.01824951171875,-0.389404296875,-0.9165191650390624,-0.0410273261368274,-0.0085407579317688,0.0191412046551704
1768736395664,-0.019256591796875,-0.3889007568359375,-0.9195404052734376,-0.0393495373427867,-0.0050975563935935,0.0251442361623048
1768736395674,-0.0210418701171875,-0.39019775390625,-0.919097900390625,-0.0435341596603393,-0.001374990097247,0.024922925978899
1768736395684,-0.0260162353515625,-0.391082763671875,-0.9187774658203124,-0.0484042838215827,0.003294862806797,0.025004418566823
1768736395695,-0.0284423828125,-0.3899688720703125,-0.9217987060546876,-0.0432449430227279,0.0034943337086588,0.0250419694930315
1768736395705,-0.0288848876953125,-0.3884429931640625,-0.9282073974609376,-0.0382725521922111,0.0046496130526065,0.0230525881052017
1768736395715,-0.0296630859375,-0.39044189453125,-0.9336395263671876,-0.0290657393634319,0.0063452473841607,0.0263232160359621
1768736395725,-0.0257720947265625,-0.39093017578125,-0.9362945556640624,-0.020774520933628,0.0048647965304553,0.0263597015291452
1768736395735,-0.0280914306640625,-0.3890380859375,-0.936187744140625,-0.0050171292386949,0.0017784589435905,0.0241647250950336
1768736395745,-0.027557373046875,-0.3838043212890625,-0.9391326904296876,0.0145208854228258,0.0032780850306153,0.0162490103393793
1768736395755,-0.0279388427734375,-0.3815155029296875,-0.9438934326171876,0.032239694148302,-0.0003645867400337,0.0122595960274338
1768736395765,-0.0307464599609375,-0.3750152587890625,-0.9362945556640624,0.0430247001349926,-0.0061055631376802,0.0041239047423005
1768736395775,-0.03466796875,-0.3762664794921875,-0.9295196533203124,0.0464396700263023,0.0100499708205461,-0.0034131072461605
1768736395785,-0.0350341796875,-0.376007080078125,-0.9226226806640624,0.0438172556459903,0.0272563882172107,-0.0032421322539448
1768736395795,-0.026763916015625,-0.37652587890625,-0.91839599609375,0.0384302139282226,0.032228510826826,-0.0013185309944674
1768736395805,-0.0201568603515625,-0.3811187744140625,-0.9138031005859376,0.0331302545964717,0.0270151067525148,0.0062416507862508
1768736395815,-0.01568603515625,-0.3797760009765625,-0.9116973876953124,0.0251668728888034,0.0072712288238108,0.0107916612178087
1768736395825,-0.0111846923828125,-0.3811187744140625,-0.90814208984375,0.0168213248252868,0.0040868869982659,0.018213091418147
1768736395835,-0.0090179443359375,-0.386138916015625,-0.909423828125,0.0137624172493815,0.01887515373528,0.0268691647797822
1768736395845,-0.011810302734375,-0.38897705078125,-0.90997314453125,0.0145355332642793,0.0333086885511875,0.038788940757513
1768736395855,-0.0130615234375,-0.3903656005859375,-0.910552978515625,0.0085767097771167,0.0398656576871871,0.042803656309843
1768736395865,-0.015411376953125,-0.390380859375,-0.90863037109375,-0.0009052084642462,0.0445775873959064,0.0445453636348247
1768736395875,-0.0217742919921875,-0.39288330078125,-0.904693603515625,-0.0163075998425483,0.0441173948347568,0.0464782863855361
1768736395885,-0.0253448486328125,-0.3927001953125,-0.9019775390625,-0.028001008555293,0.0247128028422594,0.0482423640787601
1768736395895,-0.0255584716796875,-0.3913421630859375,-0.904022216796875,-0.0341859348118305,-0.0007957525085657,0.0446835830807685
1768736395906,-0.0264739990234375,-0.392242431640625,-0.9134521484375,-0.0381838716566562,-0.0205532126128673,0.0399354323744773
1768736395916,-0.0297698974609375,-0.39227294921875,-0.91650390625,-0.0396675169467926,-0.022008629515767,0.0363359041512012
1768736395926,-0.0355072021484375,-0.392486572265625,-0.9166107177734376,-0.0452793315052986,-0.0095458347350358,0.0309595130383968
1768736395936,-0.04046630859375,-0.390533447265625,-0.9153900146484376,-0.0409980341792106,0.0111176325008273,0.0314077250659465
1768736395946,-0.038238525390625,-0.3883819580078125,-0.9204864501953124,-0.0260739456862211,0.02706597186625,0.0316285006701946
1768736395956,-0.038238525390625,-0.3842010498046875,-0.9324951171875,-0.0067005134187638,0.0255024302750825,0.0284324400126934
1768736395966,-0.0349273681640625,-0.3801422119140625,-0.9408111572265624,0.0112087121233344,0.0166295766830444,0.021035511046648
1768736395976,-0.03375244140625,-0.3780670166015625,-0.938751220703125,0.0208658669143915,0.0043164514936506,0.0150710949674248
1768736395986,-0.0346527099609375,-0.3801727294921875,-0.9346160888671876,0.0266044456511735,0.0019957728218287,0.0130098080262541
1768736395996,-0.0347747802734375,-0.3816070556640625,-0.9293060302734376,0.0307837445288896,0.0005073322099633,0.0086627304553985
1768736396006,-0.039398193359375,-0.382537841796875,-0.921905517578125,0.0257317293435335,0.010546650737524,0.0029302760958671
1768736396016,-0.0371246337890625,-0.384368896484375,-0.916046142578125,0.0282140616327524,0.0239953473210334,0.0001403485948685
1768736396026,-0.0339202880859375,-0.3842926025390625,-0.91888427734375,0.0294114183634519,0.0347662344574928,-0.0045803706161677
1768736396036,-0.031341552734375,-0.3832550048828125,-0.9164276123046876,0.0161123909056186,0.0172447673976421,-0.0067085027694702
1768736396046,-0.033172607421875,-0.3874969482421875,-0.897491455078125,-0.0065822689794003,-0.0036751623265445,-0.0140939811244606
1768736396056,-0.0300750732421875,-0.3892059326171875,-0.895416259765625,-0.0206229873001575,-0.0009020126308314,-0.0183659568428993
1768736396066,-0.0297088623046875,-0.386993408203125,-0.90625,-0.0231226291507482,5.752427750849165e-05,-0.0177281312644481
1768736396076,-0.0298309326171875,-0.3842315673828125,-0.910980224609375,-0.0250355787575244,0.002241582609713,-0.0145477838814258
1768736396086,-0.02642822265625,-0.38751220703125,-0.910858154296875,-0.0312508642673492,0.0015012238873168,-0.0111349429935216
1768736396096,-0.0232086181640625,-0.3927001953125,-0.90850830078125,-0.0441597364842891,-0.0032890038564801,-0.0044565335847437
1768736396107,-0.0199737548828125,-0.389678955078125,-0.9115142822265624,-0.0396182499825954,-0.0180045664310455,-0.0057548247277736
1768736396116,-0.0210723876953125,-0.3860931396484375,-0.92279052734375,-0.0296047627925872,-0.0114843491464853,-0.002004561247304
1768736396127,-0.01953125,-0.3964691162109375,-0.9291534423828124,-0.0257863234728574,0.0080741718411445,0.006394516211003
1768736396137,-0.0171966552734375,-0.3908843994140625,-0.9253387451171876,-0.01890205219388,0.005258145276457,0.0032714270055294
1768736396147,-0.0266876220703125,-0.385650634765625,-0.9256744384765624,-0.0030559774022549,0.0005038700764998,-0.0007558051147498
1768736396157,-0.0315704345703125,-0.38055419921875,-0.9315948486328124,0.0051870387978851,0.0082848276942968,8.415588672505692e-05
1768736396167,-0.033355712890625,-0.379364013671875,-0.930267333984375,0.0058016963303089,0.0110156331211328,-0.0046474821865558
1768736396177,-0.0343017578125,-0.38311767578125,-0.9203948974609376,-0.0002522013674024,-0.0039316248148679,-0.0156471356749534
1768736396187,-0.035308837890625,-0.38134765625,-0.9136962890625,-0.0060150157660245,-0.0170474257320165,-0.0277514699846506
1768736396197,-0.03521728515625,-0.377655029296875,-0.9143218994140624,-0.010840930044651,-0.0252126790583133,-0.032941173762083
1768736396208,-0.03167724609375,-0.374786376953125,-0.9132080078125,-0.0166737847030162,-0.0208070110529661,-0.0331483669579029
1768736396217,-0.0261993408203125,-0.37689208984375,-0.9150543212890624,-0.019294336438179,-0.0112896719947457,-0.031437549740076
1768736396227,-0.0203399658203125,-0.3759307861328125,-0.9196014404296876,-0.0225252825766801,-0.0137637490406632,-0.0299895908683538
1768736396237,-0.0139007568359375,-0.3776702880859375,-0.9170074462890624,-0.0271469317376613,-0.0196866188198328,-0.0243633966892957
1768736396247,-0.007415771484375,-0.3808135986328125,-0.9200439453125,-0.0286500211805105,-0.017190171405673,-0.0170008204877376
1768736396257,-0.0055389404296875,-0.381927490234375,-0.92279052734375,-0.0248233247548341,-0.0146649628877639,-0.0060147494077682
1768736396267,-0.0062713623046875,-0.383636474609375,-0.925048828125,-0.0204725172370672,0.0042147189378738,0.0039191078394651
1768736396277,-0.010986328125,-0.3840179443359375,-0.92327880859375,-0.0136854518204927,0.0218379199504852,0.0125514781102538
1768736396287,-0.014801025390625,-0.384796142578125,-0.91961669921875,-0.0117927435785532,0.0347334779798984,0.0185161605477333
1768736396297,-0.01837158203125,-0.3858489990234375,-0.91717529296875,-0.0140574956312775,0.0392339564859867,0.0172876436263322
1768736396308,-0.020751953125,-0.3851776123046875,-0.9161834716796876,-0.0176341217011213,0.0367622748017311,0.0202006101608276
1768736396317,-0.0194091796875,-0.3857269287109375,-0.916961669921875,-0.0267338752746582,0.0244869664311409,0.0257378537207841
1768736396327,-0.020477294921875,-0.3870849609375,-0.91265869140625,-0.0337249413132667,0.014496118761599,0.0257314629852771
1768736396338,-0.0263214111328125,-0.3851470947265625,-0.9168853759765624,-0.0392547287046909,0.0002479403046891,0.0284681264311075
1768736396348,-0.0294189453125,-0.3848114013671875,-0.9174346923828124,-0.0454383231699466,-0.0104896584525704,0.0271780919283628
1768736396358,-0.031402587890625,-0.384918212890625,-0.9218902587890624,-0.0449432395398616,-0.0068163606338202,0.0297792013734579
1768736396368,-0.0313262939453125,-0.384674072265625,-0.930328369140625,-0.0386384725570678,-0.0001778991572791,0.0307384710758924
1768736396378,-0.0328521728515625,-0.383544921875,-0.9347381591796876,-0.0279615931212902,0.0035947347059845,0.0285738538950681
1768736396388,-0.0353240966796875,-0.3818511962890625,-0.93817138671875,-0.0161347612738609,0.0099256010726094,0.0253556910902261
1768736396398,-0.0352935791015625,-0.3817901611328125,-0.9412384033203124,-0.0027742148377001,0.0201659891754388,0.0195484012365341
1768736396408,-0.0335693359375,-0.37908935546875,-0.938873291015625,0.0169765874743461,0.0208786502480506,0.0174636784940958
1768736396418,-0.0262298583984375,-0.3761444091796875,-0.9415435791015624,0.0417642258107662,0.015204519033432,0.016303339973092
1768736396428,-0.0218505859375,-0.3748931884765625,-0.9396209716796876,0.0562084093689918,0.0084265079349279,0.0146529786288738
1768736396438,-0.024993896484375,-0.37335205078125,-0.93011474609375,0.0633837655186653,0.0093823168426752,0.0102260056883096
1768736396448,-0.0328369140625,-0.375396728515625,-0.9161376953125,0.0554512739181518,0.0307744238525629,0.005437908694148
1768736396458,-0.0344696044921875,-0.3779449462890625,-0.905029296875,0.0429442711174488,0.0501134991645813,0.0089626023545861
1768736396468,-0.027313232421875,-0.3800201416015625,-0.903350830078125,0.0268673002719879,0.0545609779655933,0.0137696079909801
1768736396478,-0.020477294921875,-0.3802642822265625,-0.9029388427734376,0.0009550095419399,0.024655545130372,0.0161683168262243
1768736396488,-0.0182647705078125,-0.3780975341796875,-0.8957672119140625,-0.0300180856138467,-0.0127453561872243,0.0158370193094015
1768736396498,-0.014984130859375,-0.379974365234375,-0.900543212890625,-0.0511294975876808,-0.0218336600810289,0.0164870973676443
1768736396508,-0.0145721435546875,-0.382568359375,-0.913177490234375,-0.0525665394961833,-0.0130835780873894,0.0235900152474641
1768736396518,-0.01068115234375,-0.3813018798828125,-0.9244384765625,-0.041486456990242,-0.0010663296561688,0.0353566594421863
1768736396529,-0.0114288330078125,-0.3809967041015625,-0.9340972900390624,-0.0284635983407497,0.0059742690064013,0.0415929816663265
1768736396539,-0.014801025390625,-0.38104248046875,-0.9368743896484376,-0.0164982825517654,0.0074858795851469,0.0471035949885845
1768736396549,-0.018035888671875,-0.3824005126953125,-0.9342041015625,-0.0091434307396411,0.0123315006494522,0.047079361975193
1768736396559,-0.0219573974609375,-0.3846588134765625,-0.931365966796875,-0.0048666605725884,0.0197185780853033,0.0471323579549789
1768736396569,-0.0267333984375,-0.387237548828125,-0.924072265625,-0.0028495823498815,0.0277797002345323,0.0459065064787864
1768736396579,-0.0290069580078125,-0.38836669921875,-0.9199066162109376,0.0018466358305886,0.0315099880099296,0.0472093224525451
1768736396589,-0.032928466796875,-0.387237548828125,-0.9210357666015624,0.0023981765843927,0.0292726680636405,0.0412542298436164
1768736396599,-0.034210205078125,-0.3859100341796875,-0.9208831787109376,-0.0011888351291418,0.0252334512770175,0.0403428971767425
1768736396609,-0.036376953125,-0.3866424560546875,-0.9169158935546876,-0.0076105152256786,0.013153619132936,0.03645521402359
1768736396619,-0.0400390625,-0.384796142578125,-0.9203643798828124,-0.0107218865305185,0.0008314388687722,0.0339747443795204
1768736396629,-0.04010009765625,-0.38037109375,-0.927490234375,-0.0063319317996501,-0.0119621204212307,0.0295765344053506
1768736396639,-0.0403594970703125,-0.3799591064453125,-0.932830810546875,0.0032325449865311,-0.0238709785044193,0.0232041217386722
1768736396649,-0.0411224365234375,-0.3788604736328125,-0.935394287109375,0.0146899968385696,-0.0243908278644084,0.01612064614892
1768736396659,-0.0446624755859375,-0.3778076171875,-0.9333038330078124,0.0242771096527576,-0.0233854837715625,0.0077937408350408
1768736396669,-0.0433502197265625,-0.3793182373046875,-0.9310150146484376,0.0288361757993698,-0.0165387634187936,0.0020719394087791
1768736396679,-0.0406646728515625,-0.3839874267578125,-0.923858642578125,0.0259495750069618,-0.0122164525091648,-0.0010077401529997
1768736396689,-0.0361480712890625,-0.38751220703125,-0.91265869140625,0.0225881338119506,-0.0084715150296688,-0.0011566109023988
1768736396699,-0.0326385498046875,-0.38726806640625,-0.9100799560546876,0.0166761819273233,-0.011486480012536,-0.0008657936705276
1768736396709,-0.027374267578125,-0.3841094970703125,-0.911529541015625,0.014232731424272,-0.0190882068127393,0.0020692760590463
1768736396719,-0.0264739990234375,-0.3816375732421875,-0.91290283203125,0.0054288539104163,-0.0350631773471832,0.0006913566030561
1768736396729,-0.0290679931640625,-0.378509521484375,-0.90936279296875,-0.0058871838264167,-0.0453957095742225,-0.0040994039736688
1768736396740,-0.0329132080078125,-0.376983642578125,-0.9090728759765624,-0.0163872297853231,-0.0393801629543304,-0.0125903598964214
1768736396750,-0.037628173828125,-0.3764190673828125,-0.9103240966796876,-0.0268228258937597,-0.0308537855744361,-0.0175467692315578
1768736396760,-0.0378875732421875,-0.3744659423828125,-0.9065704345703124,-0.037135649472475,-0.0287506878376007,-0.0196221712976694
1768736396770,-0.0372467041015625,-0.37841796875,-0.910614013671875,-0.0425442643463611,-0.0229258220642805,-0.0221220795065164
1768736396780,-0.0308685302734375,-0.38232421875,-0.9202423095703124,-0.0436673201620578,-0.0192357469350099,-0.0156300924718379
1768736396790,-0.0230865478515625,-0.3896026611328125,-0.9228057861328124,-0.0477065369486808,-0.0197862219065427,-0.0117088537663221
1768736396800,-0.017547607421875,-0.3901214599609375,-0.9202423095703124,-0.0460942573845386,-0.0308103766292333,-0.0104670217260718
1768736396810,-0.0205230712890625,-0.3911895751953125,-0.924285888671875,-0.0392062589526176,-0.015661783516407,0.0002330265997443
1768736396820,-0.0134735107421875,-0.3984222412109375,-0.931610107421875,-0.0311816222965717,-0.0025784724857658,0.0132739935070276
1768736396830,-0.0132904052734375,-0.3909912109375,-0.934600830078125,-0.0127315074205398,-0.0150825465098023,0.0138273984193801
1768736396840,-0.021270751953125,-0.38116455078125,-0.9377288818359376,0.0096299899742007,-0.0234384797513484,0.0079292962327599
1768736396850,-0.029876708984375,-0.3785552978515625,-0.944183349609375,0.0256065595895051,-0.0082470113411545,0.0094800544902682
1768736396860,-0.0374908447265625,-0.377593994140625,-0.9406890869140624,0.0367982275784015,0.0007227819296531,0.0096220010891556
1768736396870,-0.042449951171875,-0.37994384765625,-0.930755615234375,0.0367140732705593,0.0013893711147829,-0.0015568839153274
1768736396880,-0.0464324951171875,-0.3758087158203125,-0.9204864501953124,0.0308785531669855,-0.0030413300264626,-0.0113416044041514
1768736396890,-0.049285888671875,-0.37603759765625,-0.9116973876953124,0.0183454509824514,-0.0080470070242881,-0.0227290149778127
1768736396900,-0.0486297607421875,-0.376220703125,-0.9078521728515624,0.008313856087625,-0.0089732548221945,-0.0245894994586706
1768736396910,-0.0441131591796875,-0.37408447265625,-0.911651611328125,0.001202417188324,-0.0149552477523684,-0.0283677261322736
1768736396920,-0.0383148193359375,-0.37640380859375,-0.9119110107421876,-0.0132897067815065,-0.0395000055432319,-0.0261154901236295
1768736396930,-0.03125,-0.378387451171875,-0.9048004150390624,-0.0298351272940635,-0.051901813596487,-0.0262806061655282
1768736396940,-0.0270233154296875,-0.3846893310546875,-0.9072418212890624,-0.0370672084391117,-0.0511143170297145,-0.0240739099681377
1768736396951,-0.02728271484375,-0.386810302734375,-0.91265869140625,-0.0379364639520645,-0.0433440133929252,-0.0173678044229745
1768736396961,-0.028961181640625,-0.3864288330078125,-0.9173583984375,-0.0276614557951688,-0.0277610570192337,-0.0175590198487043
1768736396971,-0.02978515625,-0.386505126953125,-0.923492431640625,-0.0117171099409461,-0.0162729788571596,-0.0121554657816886
1768736396981,-0.027130126953125,-0.38720703125,-0.92901611328125,0.0001605886063771,-0.0090305125340819,-0.0084856301546096
1768736396991,-0.0277252197265625,-0.3848724365234375,-0.9309844970703124,0.0097650131210684,-0.0007520766812376,-0.004684766754508
1768736397001,-0.0311279296875,-0.3877105712890625,-0.92578125,0.0129898348823189,0.0003126551164314,-0.005487177055329
1768736397011,-0.0349273681640625,-0.387115478515625,-0.9166412353515624,0.0128329740837216,0.0027838023379445,-0.0062618907541036
1768736397021,-0.037200927734375,-0.3857574462890625,-0.9185028076171876,0.0124196512624621,0.0084427529945969,-0.0032807481475174
1768736397031,-0.032745361328125,-0.385284423828125,-0.921112060546875,0.011502725072205,0.0012125372886657,-0.0004005394293926
1768736397041,-0.0317230224609375,-0.38543701171875,-0.9173431396484376,0.0045145908370614,-0.0144100980833172,0.0062789348885416
1768736397051,-0.0279693603515625,-0.3864288330078125,-0.9170379638671876,-0.0008250473183579,-0.0136668095365166,0.0147925280034542
1768736397061,-0.0267181396484375,-0.389373779296875,-0.919921875,-0.0049633332528173,-0.0076384786516427,0.0248837787657976
1768736397071,-0.0295867919921875,-0.388824462890625,-0.9206085205078124,-0.0066163572482764,-0.0027947211638092,0.0331869833171367
1768736397081,-0.031219482421875,-0.3896942138671875,-0.921630859375,-0.0099740708246827,-0.0050224554724991,0.0281104631721973
1768736397091,-0.0339813232421875,-0.38568115234375,-0.919403076171875,-0.0073553845286369,-0.001480983919464,0.0194171071052551
1768736397101,-0.0350189208984375,-0.381927490234375,-0.9237213134765624,0.0020583572331815,0.0055055529810488,0.0119378855451941
1768736397111,-0.0356903076171875,-0.3802032470703125,-0.9251556396484376,0.016564330086112,0.0156466048210859,0.0116020608693361
1768736397121,-0.03521728515625,-0.378875732421875,-0.9269256591796876,0.0306034497916698,0.0237796306610107,0.0127552095800638
1768736397131,-0.0337371826171875,-0.38006591796875,-0.93084716796875,0.0342658273875713,0.0157193075865507,0.012393020093441
1768736397142,-0.03582763671875,-0.380096435546875,-0.9234161376953124,0.0263671595603227,-0.0051138019189238,0.0041617220267653
1768736397151,-0.0407562255859375,-0.3794403076171875,-0.91656494140625,0.0166751164942979,-0.0159427467733621,-0.00383415305987
1768736397162,-0.0415191650390625,-0.382415771484375,-0.913482666015625,0.0019688750617206,-0.0058943745680153,-0.0095905754715204
1768736397172,-0.0412445068359375,-0.3867340087890625,-0.9043731689453124,-0.0131818484514951,0.012466256506741,-0.0039622508920729
1768736397182,-0.035980224609375,-0.389617919921875,-0.90234375,-0.0200091283768415,0.0203686542809009,0.0049745184369385
1768736397192,-0.03271484375,-0.3885650634765625,-0.905853271484375,-0.0252310540527105,0.0050115366466343,0.0081095919013023
1768736397202,-0.028778076171875,-0.3857269287109375,-0.910369873046875,-0.0271040555089712,-0.0073846792802214,0.011314439587295
1768736397212,-0.0245513916015625,-0.3862152099609375,-0.9233551025390624,-0.0214981008321046,-0.0176013633608818,0.0163046717643737
1768736397222,-0.0266265869140625,-0.38494873046875,-0.9302978515625,-0.0099671464413404,-0.0210048835724592,0.0176322571933269
1768736397232,-0.0303192138671875,-0.3862762451171875,-0.9307098388671876,-3.728425508597866e-05,-0.0197316259145736,0.0146897304803133
1768736397242,-0.037689208984375,-0.38494873046875,-0.928741455078125,0.0081737739965319,-0.0183995142579078,0.0054504256695508
1768736397252,-0.0423736572265625,-0.3848724365234375,-0.92388916015625,0.0091511541977524,-0.0083783045411109,-0.0004117247008252
1768736397262,-0.0437164306640625,-0.38446044921875,-0.9227447509765624,0.0145286088809371,-0.0013824469642713,-0.0002703108475543
1768736397274,-0.035919189453125,-0.3862152099609375,-0.9246673583984376,0.0227625705301761,0.0028969866689294,0.0011054781498387
1768736397282,-0.03216552734375,-0.3870086669921875,-0.9243621826171876,0.0251516923308372,-0.0058826566673815,0.0043673180043697
1768736397292,-0.0336456298828125,-0.3852386474609375,-0.92132568359375,0.0251812525093555,-0.01451076567173,0.0043936832807958
1768736397302,-0.0340118408203125,-0.3845672607421875,-0.92230224609375,0.0251146741211414,-0.0186866018921136,0.0009193231817334
1768736397312,-0.035888671875,-0.38543701171875,-0.919677734375,0.0215510986745357,-0.0163163896650075,0.0024860608391463
1768736397322,-0.0373992919921875,-0.3858795166015625,-0.9154052734375,0.0156114501878619,-0.0126329706981778,0.0108776809647679
1768736397332,-0.0371551513671875,-0.3896484375,-0.908538818359375,0.0075535238720476,0.0042605251073837,0.0103831319138407
1768736397342,-0.0364532470703125,-0.3914794921875,-0.910186767578125,0.0072661684826016,0.026316825300455,0.0143824014812707
1768736397352,-0.0362701416015625,-0.3892822265625,-0.9139556884765624,0.0142132909968495,0.0460306070744991,0.0182743445038795
1768736397363,-0.0311126708984375,-0.389434814453125,-0.91717529296875,0.0183667559176683,0.0575975142419338,0.0247112046927213
1768736397373,-0.029449462890625,-0.3874053955078125,-0.9167633056640624,0.020909808576107,0.0424382723867893,0.0253612827509641
1768736397383,-0.0333404541015625,-0.3831634521484375,-0.9160003662109376,0.0205604024231433,0.0226571094244718,0.0191814173012971
1768736397393,-0.0357666015625,-0.3823394775390625,-0.9164581298828124,0.0108044445514678,0.0030333404429256,0.0147848045453429
1768736397403,-0.04278564453125,-0.383453369140625,-0.9120025634765624,-0.0041500041261315,-0.0076866815797984,0.0104696853086352
1768736397413,-0.0467071533203125,-0.384735107421875,-0.9066009521484376,-0.0134763941168785,-0.0025278725661337,0.0040434775874018
1768736397423,-0.047119140625,-0.3841705322265625,-0.9150543212890624,-0.0143389916047453,-0.0048855687491595,0.0009515474666841
1768736397433,-0.046417236328125,-0.381561279296875,-0.91839599609375,-0.0146939912810921,-0.0033630398102104,-0.0020415792241692
1768736397443,-0.0426483154296875,-0.3857269287109375,-0.921783447265625,-0.0105075016617774,0.0083029372617602,-0.0019449065439403
1768736397453,-0.035186767578125,-0.3884735107421875,-0.924163818359375,-0.003034938359633,0.0065156896598637,0.0017313209827989
1768736397463,-0.030487060546875,-0.3854217529296875,-0.9235076904296876,0.0046261772513389,0.0031675638165324,0.0033222935162484
1768736397473,-0.0292816162109375,-0.3942413330078125,-0.921173095703125,0.0067620323970913,0.0100017674267292,0.0157802943140268
1768736397483,-0.0224151611328125,-0.393035888671875,-0.9189605712890624,0.0010341054294258,0.0013387710787355,0.0126742497086524
1768736397493,-0.029327392578125,-0.387939453125,-0.91229248046875,0.0051433630287647,-4.314320904086344e-05,0.001701493631117
1768736397503,-0.0355987548828125,-0.3837738037109375,-0.9179840087890624,0.017152089625597,0.0284699909389019,0.0042738406918942
1768736397513,-0.035247802734375,-0.386505126953125,-0.9234771728515624,0.0258560981601476,0.0549053251743316,0.0143645582720637
1768736397523,-0.0327301025390625,-0.3881072998046875,-0.9199676513671876,0.0248369071632623,0.0481992214918136,0.0127522805705666
1768736397533,-0.035430908203125,-0.3817901611328125,-0.91033935546875,0.0099975066259503,0.0155475344508886,0.0005323658697307
1768736397543,-0.041656494140625,-0.374847412109375,-0.9069366455078124,0.0018777948571369,-0.0018753979820758,-0.0107461214065551
1768736397553,-0.038787841796875,-0.3735809326171875,-0.915252685546875,-0.0021425131708383,-0.0016005598008632,-0.0077756312675774
1768736397564,-0.036590576171875,-0.37811279296875,-0.916961669921875,-0.0084001421928405,-0.0049827741459012,-6.657902849838138e-05
1768736397574,-0.037994384765625,-0.38055419921875,-0.913177490234375,-0.0236869528889656,0.0004820321628358,0.0046908920630812
1768736397584,-0.042510986328125,-0.3849639892578125,-0.9049835205078124,-0.0503257550299167,0.0001853560097515,-0.001741973683238
1768736397594,-0.044708251953125,-0.3866119384765625,-0.8928985595703125,-0.067718856036663,0.021098893135786,-0.008208661340177
1768736397604,-0.0367889404296875,-0.3887939453125,-0.903594970703125,-0.0668013989925384,0.0501955263316631,-0.0005009406013414
1768736397614,-0.0252685546875,-0.3878936767578125,-0.91754150390625,-0.0535047687590122,0.0571996383368968,0.0115559883415699
1768736397624,-0.0191192626953125,-0.39068603515625,-0.9256591796875,-0.0439594686031341,0.045935533940792,0.0171326473355293
1768736397634,-0.0185394287109375,-0.3885498046875,-0.9295654296875,-0.0338519737124443,0.0331494323909282,0.018179003149271
1768736397644,-0.0205535888671875,-0.38580322265625,-0.937286376953125,-0.0224350020289421,0.0283647961914539,0.0202192515134811
1768736397654,-0.02435302734375,-0.38641357421875,-0.9400787353515624,-0.0027441212441772,0.0243538096547126,0.0260118935257196
1768736397664,-0.0260009765625,-0.3856658935546875,-0.9409942626953124,0.0181483775377273,0.0162370260804891,0.0261834003031253
1768736397674,-0.028839111328125,-0.3840789794921875,-0.9407806396484376,0.0320426225662231,-0.0015803198330104,0.0264409277588129
1768736397684,-0.0323944091796875,-0.3854217529296875,-0.932891845703125,0.0335441119968891,-0.0077087860554456,0.0245514158159494
1768736397694,-0.0345306396484375,-0.387542724609375,-0.9207000732421876,0.029013542458415,0.0036469327751547,0.026150643825531
1768736397704,-0.03668212890625,-0.388031005859375,-0.9126739501953124,0.0213028918951749,0.0323739200830459,0.024410268291831
1768736397714,-0.0450439453125,-0.3876953125,-0.907806396484375,0.0088669946417212,0.06226097792387,0.0250590145587921
1768736397724,-0.0457000732421875,-0.3877410888671875,-0.9019012451171876,-0.0041569280438125,0.0749607905745506,0.0257682129740715
1768736397734,-0.0428466796875,-0.38970947265625,-0.9035797119140624,-0.0199611913412809,0.0766716077923774,0.024494158104062
1768736397744,-0.0340576171875,-0.389617919921875,-0.90435791015625,-0.0284822415560483,0.0576326698064804,0.0218176804482936
1768736397754,-0.02838134765625,-0.3844451904296875,-0.91302490234375,-0.0219511054456233,0.0260848645120859,0.0189236234873533
1768736397764,-0.0272369384765625,-0.379425048828125,-0.9222869873046876,-0.0134244626387953,0.0153395412489771,0.012418320402503
1768736397775,-0.032745361328125,-0.380401611328125,-0.925567626953125,-0.0071761538274586,0.0112798186019063,0.0061340588144958
1768736397784,-0.03680419921875,-0.3800048828125,-0.9223785400390624,0.0005536712124012,0.0077085196971893,0.0030650321859866
1768736397795,-0.036773681640625,-0.37933349609375,-0.925079345703125,0.0069039785303175,0.0131605435162782,-0.0044546695426106
1768736397805,-0.038238525390625,-0.3787384033203125,-0.92425537109375,0.0060879862867295,0.0257138852030038,-0.0059172776527702
1768736397815,-0.03985595703125,-0.3810882568359375,-0.9180755615234376,0.0023467775899916,0.0307488571852445,-0.0055172708816826
1768736397825,-0.04248046875,-0.382293701171875,-0.91162109375,-0.0034533210564404,0.0365369729697704,-0.0114124445244669
1768736397835,-0.039642333984375,-0.38323974609375,-0.91156005859375,-0.0034328147303313,0.0382989197969436,-0.0131056820973753
1768736397845,-0.0311279296875,-0.383026123046875,-0.9202880859375,-0.0008908273885026,0.0213393773883581,-0.0088289119303226
1768736397855,-0.023162841796875,-0.3841552734375,-0.919586181640625,-0.0044378917664289,-0.0043135220184922,-0.0094619449228048
1768736397865,-0.0247955322265625,-0.386871337890625,-0.9137115478515624,-0.0163821689784526,-0.000336090917699,-0.0108728874474763
1768736397875,-0.0301513671875,-0.3892822265625,-0.9036865234375,-0.029015939682722,0.008485896512866,-0.0083410209044814
1768736397885,-0.0336151123046875,-0.390625,-0.900604248046875,-0.0292934402823448,0.0234699063003063,-0.0013938985066488
1768736397895,-0.0275726318359375,-0.3881378173828125,-0.915008544921875,-0.0215606857091188,0.0332346521317958,0.0054352455772459
1768736397905,-0.024993896484375,-0.3858489990234375,-0.923828125,-0.0130010200664401,0.0313126482069492,0.0079684443771839
1768736397915,-0.0256195068359375,-0.384857177734375,-0.92388916015625,-0.0102462461218237,0.0262225493788719,0.0094739291816949
1768736397925,-0.0289154052734375,-0.384796142578125,-0.9202728271484376,-0.0172266568988561,0.0278204455971717,0.0102049671113491
1768736397935,-0.035369873046875,-0.385101318359375,-0.911285400390625,-0.0230552516877651,0.0330564863979816,0.0067798756062984
1768736397945,-0.03790283203125,-0.384674072265625,-0.9134979248046876,-0.0276377536356449,0.0362959541380405,0.0060661481693387
1768736397955,-0.0353546142578125,-0.3831024169921875,-0.9116058349609376,-0.036504216492176,0.0261828675866127,0.0033811493776738
1768736397965,-0.0360107421875,-0.382476806640625,-0.91021728515625,-0.0452220737934112,0.0076187714003026,-0.0056757288984954
1768736397976,-0.037139892578125,-0.3798065185546875,-0.9153594970703124,-0.0503116399049758,-0.0097913779318332,-0.0135517613962292
1768736397985,-0.03460693359375,-0.3813018798828125,-0.9204254150390624,-0.0521212592720985,-0.0178647506982088,-0.0181371923536062
1768736397995,-0.0323944091796875,-0.38250732421875,-0.9265289306640624,-0.0447464324533939,-0.0196426771581172,-0.0180668849498033
1768736398006,-0.031463623046875,-0.382965087890625,-0.9313812255859376,-0.0352738350629806,-0.0095650097355246,-0.0227689612656831
1768736398016,-0.0319671630859375,-0.3838958740234375,-0.9297332763671876,-0.0281115286052227,0.006852579768747,-0.0270633082836866
1768736398026,-0.030914306640625,-0.38702392578125,-0.92669677734375,-0.017403757199645,0.0263636969029903,-0.0250433012843132
1768736398036,-0.025543212890625,-0.385528564453125,-0.927978515625,-0.0075442027300596,0.0333092212677001,-0.0173827186226844
1768736398046,-0.0214385986328125,-0.38629150390625,-0.9270477294921876,0.0001768338988767,0.0336679480969905,-0.0112137719988822
1768736398056,-0.0241241455078125,-0.384979248046875,-0.925689697265625,0.0073660369962453,0.0246329084038734,-0.0101924501359462
1768736398066,-0.029052734375,-0.381378173828125,-0.9283447265625,0.0104582337662577,0.0312154442071914,-0.0132947666570544
1768736398076,-0.029998779296875,-0.378997802734375,-0.9269866943359376,0.0076291575096547,0.0348562523722648,-0.0169462263584136
1768736398086,-0.036041259765625,-0.3783416748046875,-0.9219970703125,0.0072424663230776,0.0351526625454425,-0.0219497736543416
1768736398096,-0.0351715087890625,-0.3781890869140625,-0.9239349365234376,0.0098073566332459,0.0371942408382892,-0.0229375399649143
1768736398107,-0.0290985107421875,-0.3813629150390625,-0.92840576171875,0.0084568681195378,0.0290811862796545,-0.0178114883601665
1768736398116,-0.0239715576171875,-0.3822479248046875,-0.9229278564453124,0.0047942227683961,0.0006348976166918,-0.0203974172472953
1768736398126,-0.029998779296875,-0.376617431640625,-0.914215087890625,-0.0048565403558313,-0.0195239000022411,-0.0262289401143789
1768736398136,-0.0274505615234375,-0.3878173828125,-0.9156341552734376,-0.0047252466902136,-0.0062038335017859,-0.0173880457878112
1768736398146,-0.013275146484375,-0.38916015625,-0.9207916259765624,-0.0062033012509346,-0.0202576015144586,-0.0098843220621347
1768736398156,-0.0131683349609375,-0.3829498291015625,-0.9202728271484376,0.0076211681589484,-0.034429345279932,-0.0116428071632981
1768736398166,-0.0175323486328125,-0.3805389404296875,-0.9283905029296876,0.0180317312479019,-0.0171720627695322,-0.0107567738741636
1768736398176,-0.0190887451171875,-0.3815765380859375,-0.929840087890625,0.028887839987874,0.0093402387574315,-0.0062251389026641
1768736398186,-0.01983642578125,-0.380706787109375,-0.9250335693359376,0.0332730002701282,0.0234669763594865,-0.0062025021761655
1768736398197,-0.0206298828125,-0.37890625,-0.9193878173828124,0.0293834544718265,0.0278867576271295,-0.0053902380168437
1768736398207,-0.02496337890625,-0.37567138671875,-0.91510009765625,0.0225351359695196,0.0400542095303535,-0.0069678947329521
1768736398217,-0.026702880859375,-0.37286376953125,-0.9133453369140624,0.0107700899243354,0.0477126613259315,-0.0114483963698148
1768736398227,-0.0287017822265625,-0.3743743896484375,-0.9107666015625,-0.0070672305300831,0.0388848148286342,-0.0086997486650943
1768736398237,-0.020599365234375,-0.3762969970703125,-0.909820556640625,-0.0230081137269735,0.0235151797533035,-0.010072074830532
1768736398247,-0.01654052734375,-0.3797454833984375,-0.91241455078125,-0.0463118366897106,0.0046653253957629,-0.007456318475306
1768736398257,-0.014495849609375,-0.3843841552734375,-0.9088592529296876,-0.0614258088171482,-0.013472931459546,-0.0028884646017104
1768736398267,-0.0126495361328125,-0.3856353759765625,-0.9155731201171876,-0.058989018201828,-0.0145134292542934,-0.0005930859479121
1768736398277,-0.010284423828125,-0.385955810546875,-0.9251251220703124,-0.0490213371813297,-0.0172192007303237,0.0081215761601924
1768736398287,-0.0093994140625,-0.383758544921875,-0.9286651611328124,-0.0333409123122692,-0.0207923632115125,0.0148162301629781
1768736398297,-0.011993408203125,-0.385772705078125,-0.9317779541015624,-0.0141240749508142,-0.0109439939260482,0.0201838314533233
1768736398307,-0.0158843994140625,-0.3838043212890625,-0.9393157958984376,0.0050908988341689,0.0038780951872467,0.0242717843502759
1768736398317,-0.0203704833984375,-0.3829803466796875,-0.9392242431640624,0.0227926634252071,0.0157193075865507,0.0238949470221996
1768736398327,-0.0243682861328125,-0.3824920654296875,-0.9348907470703124,0.0351201705634593,0.0250835157930851,0.0235790945589542
1768736398337,-0.02789306640625,-0.379791259765625,-0.9306488037109376,0.0353577248752117,0.0340383946895599,0.017478059977293
1768736398347,-0.032440185546875,-0.3819122314453125,-0.9206695556640624,0.0311003942042589,0.0476372949779033,0.0120974089950323
1768736398357,-0.035552978515625,-0.38287353515625,-0.9123077392578124,0.0138039626181125,0.0596950203180313,0.0145128965377807
1768736398367,-0.0320587158203125,-0.3851776123046875,-0.905242919921875,0.0005994775565341,0.0552909523248672,0.021654961630702
1768736398377,-0.0259552001953125,-0.3841705322265625,-0.9101409912109376,-0.0089391665533185,0.0256478395313024,0.0312591195106506
1768736398387,-0.0252227783203125,-0.380645751953125,-0.91656494140625,-0.018604576587677,-0.0035579830873757,0.030863108113408
1768736398397,-0.0276336669921875,-0.3816375732421875,-0.9190216064453124,-0.0236800294369459,-0.0145842693746089,0.0243474170565605
1768736398408,-0.03082275390625,-0.3820343017578125,-0.9227447509765624,-0.0198221746832132,-0.0202354975044727,0.0162799041718244
1768736398418,-0.0339813232421875,-0.378814697265625,-0.92596435546875,-0.0108497180044651,-0.01779923774302,0.0017883126856759
1768736398428,-0.035003662109375,-0.3786468505859375,-0.9302215576171876,0.0029491845052689,-0.0053516221232712,-0.0049132658168673
1768736398438,-0.0349578857421875,-0.3792266845703125,-0.9334564208984376,0.0148018496111035,0.0017813884187489,-0.0091596757993102
1768736398448,-0.0348052978515625,-0.3809661865234375,-0.9290618896484376,0.0217361878603696,0.0132982283830642,-0.0176562257111072
1768736398458,-0.031524658203125,-0.38037109375,-0.9289398193359376,0.0274436082690954,0.0106174908578395,-0.0210565496236085
1768736398468,-0.02435302734375,-0.3787689208984375,-0.92791748046875,0.0326269194483757,-0.002698581200093,-0.0239125229418277
1768736398478,-0.0186767578125,-0.3798370361328125,-0.928070068359375,0.0385354086756706,-0.0122297685593366,-0.0207636021077632
1768736398488,-0.0129852294921875,-0.3816375732421875,-0.9276580810546876,0.0422571748495101,-0.0140055641531944,-0.019189141690731
1768736398498,-0.0162811279296875,-0.38543701171875,-0.9214935302734376,0.0353294946253299,-0.0166908297687768,-0.0195449385792017
1768736398508,-0.0186309814453125,-0.3871917724609375,-0.913055419921875,0.0279128570109605,-0.0105618303641676,-0.0179800651967525
1768736398518,-0.0146331787109375,-0.38946533203125,-0.908660888671875,0.0175449047237634,-0.0062059643678367,-0.0113852797076106
1768736398528,-0.01165771484375,-0.3912506103515625,-0.9037017822265624,0.0023683491162955,-0.0055420380085706,0.0022775353863835
1768736398538,-0.010528564453125,-0.393798828125,-0.9020538330078124,-0.0107437241822481,0.0077892136760056,0.0101881893351674
1768736398548,-0.0135650634765625,-0.3943939208984375,-0.904022216796875,-0.0178045630455017,0.0204685237258672,0.0186866018921136
1768736398558,-0.018035888671875,-0.388519287109375,-0.91021728515625,-0.0174817889928817,0.0253311898559331,0.0240819007158279
1768736398568,-0.0181427001953125,-0.3857421875,-0.920074462890625,-0.0121280355378985,0.0280324332416057,0.0282097999006509
1768736398578,-0.0192108154296875,-0.38446044921875,-0.927703857421875,-0.0030485205352306,0.0126271117478609,0.0280625279992818
1768736398588,-0.0236968994140625,-0.380584716796875,-0.9289398193359376,0.0048157940618693,0.0055399076081812,0.0182660892605781
1768736398598,-0.028076171875,-0.3801422119140625,-0.93096923828125,0.0088510159403085,0.0087194554507732,0.0078733693808317
1768736398609,-0.0357208251953125,-0.37835693359375,-0.9263916015625,0.0163411553949117,0.0071660336107015,-0.0054187336936593
1768736398618,-0.03961181640625,-0.379730224609375,-0.924713134765625,0.0306900013238191,0.0208339095115661,-0.0134510938078165
1768736398629,-0.033935546875,-0.3819732666015625,-0.932647705078125,0.0420683585107326,0.0239660535007715,-0.0155043909326195
1768736398640,-0.0276641845703125,-0.3845977783203125,-0.9273834228515624,0.03999774903059,0.0030322752427309,-0.0153368785977363
1768736398649,-0.0285797119140625,-0.38714599609375,-0.9156036376953124,0.0288185980170965,-0.0187997873872518,-0.0176208056509494
1768736398659,-0.031005859375,-0.3864288330078125,-0.9095916748046876,0.0199305657297372,-0.0250227954238653,-0.0237047970294952
1768736398669,-0.030609130859375,-0.38629150390625,-0.9112396240234376,0.0159065276384353,-0.0239777714014053,-0.0235886834561824
1768736398679,-0.025848388671875,-0.388153076171875,-0.91314697265625,0.0125906262546777,-0.0185880661010742,-0.0207497533410787
1768736398689,-0.021270751953125,-0.3894195556640625,-0.9086456298828124,0.0015952334506437,-0.023298131301999,-0.0172807201743125
1768736398699,-0.0215606689453125,-0.3895111083984375,-0.9019775390625,-0.0121432151645421,-0.0246648658066988,-0.0137680098414421
1768736398709,-0.0213775634765625,-0.3893280029296875,-0.8991241455078125,-0.0269477274268865,-0.0223050396889448,-0.0159531328827142
1768736398719,-0.0250091552734375,-0.3889312744140625,-0.8989105224609375,-0.0413554310798645,-0.0092691322788596,-0.0194884799420833
1768736398729,-0.0270233154296875,-0.389129638671875,-0.9000091552734375,-0.0512794330716133,0.0037638454232364,-0.0131597444415092
1768736398739,-0.0257110595703125,-0.3879241943359375,-0.9028472900390624,-0.057507500052452,0.005772934295237,-0.0089657977223396
1768736398749,-0.022796630859375,-0.38507080078125,-0.91070556640625,-0.0607040934264659,-0.0012964267516508,-0.0053095440380275
1768736398759,-0.0228729248046875,-0.3825836181640625,-0.9208526611328124,-0.0558542124927043,-0.0108254831284284,-0.0079258335754275
1768736398769,-0.0246734619140625,-0.3813934326171875,-0.9290313720703124,-0.0470498017966747,-0.0103253414854407,-0.010160225443542
1768736398779,-0.0253448486328125,-0.3846588134765625,-0.9320831298828124,-0.0425346754491329,-0.0076057217083871,-0.0121533358469605
1768736398789,-0.0275726318359375,-0.3831024169921875,-0.9259185791015624,-0.03465012088418,-0.0227239541709423,-0.0239727105945348
1768736398799,-0.0317535400390625,-0.3847808837890625,-0.9255828857421876,-0.0227873381227254,-0.0042679817415773,-0.0242872294038534
1768736398809,-0.0250244140625,-0.393310546875,-0.9296417236328124,-0.0196336228400468,0.0113759590312838,-0.0191494598984718
1768736398819,-0.0208740234375,-0.38873291015625,-0.923370361328125,-0.0149515187367796,-0.0084747113287448,-0.0235985368490219
1768736398830,-0.0223541259765625,-0.3860015869140625,-0.9166259765625,-0.0105455853044986,-0.018532671034336,-0.0278452131897211
1768736398840,-0.022979736328125,-0.3839569091796875,-0.921356201171875,-0.0088193239644169,0.0022280006669461,-0.0225117001682519
1768736398850,-0.020172119140625,-0.3866729736328125,-0.92388916015625,-0.0029379993211477,0.0059143481776118,-0.0115285580977797
1768736398860,-0.0174713134765625,-0.3848419189453125,-0.925140380859375,-0.0026911243330687,0.0078067905269563,-0.0135581530630588
1768736398870,-0.0252532958984375,-0.3795013427734375,-0.9208526611328124,-0.0114697022363543,-0.0036679718177765,-0.0216589570045471
1768736398880,-0.030029296875,-0.3747100830078125,-0.9154052734375,-0.0129448268562555,0.0006665892433375,-0.0311781596392393
1768736398890,-0.030120849609375,-0.3730926513671875,-0.924224853515625,-0.0099817942827939,0.0165278445929288,-0.0245511494576931
1768736398900,-0.02099609375,-0.37548828125,-0.92559814453125,-0.0083519397303462,0.0200147200375795,-0.0160471424460411
1768736398910,-0.0135040283203125,-0.3777618408203125,-0.9249725341796876,-0.0111708957701921,0.0139648178592324,-0.0102057661861181
1768736398920,-0.0109405517578125,-0.38104248046875,-0.9230804443359376,-0.0185276120901107,-0.0023595606908202,-0.0061300643719732
1768736398930,-0.008819580078125,-0.3830718994140625,-0.9253692626953124,-0.0156652461737394,-0.014675348997116,-0.0024743429385125
1768736398940,-0.007110595703125,-0.382293701171875,-0.9294281005859376,-0.0100046973675489,-0.0169960279017686,0.0029787456151098
1768736398950,-0.012359619140625,-0.3846588134765625,-0.9271392822265624,-0.0070051788352429,-0.0200932845473289,0.005583849735558
1768736398960,-0.0171966552734375,-0.387786865234375,-0.918731689453125,-0.0093855122104287,-0.0154423397034406,0.005510879214853
1768736398970,-0.0191192626953125,-0.3912353515625,-0.9156951904296876,-0.0047297738492488,0.0024085629265755,0.0102587630972266
1768736398980,-0.0182647705078125,-0.390625,-0.9221649169921876,0.0003696467611007,0.0231900084763765,0.0167675279080867
1768736398990,-0.017486572265625,-0.3869171142578125,-0.9229278564453124,0.0025414545089006,0.0262577030807733,0.0231396742165088
1768736399000,-0.017730712890625,-0.386077880859375,-0.919677734375,0.0023981765843927,0.0256742034107446,0.0276076588779687
1768736399010,-0.01971435546875,-0.385345458984375,-0.923126220703125,0.0006535397260449,0.0264923274517059,0.0298154205083847
1768736399020,-0.0232086181640625,-0.38623046875,-0.92352294921875,-0.0039337552152574,0.0220509730279445,0.0322229191660881
1768736399031,-0.0258331298828125,-0.385498046875,-0.91802978515625,-0.0111716939136385,0.0109328087419271,0.0298202130943536
1768736399041,-0.02740478515625,-0.385711669921875,-0.922210693359375,-0.0095426384359598,0.0050094057805836,0.0296132862567901
1768736399050,-0.027740478515625,-0.3839263916015625,-0.92657470703125,-0.0043276366777718,-0.0009808422764763,0.0346503891050815
1768736399061,-0.02880859375,-0.3843231201171875,-0.9266357421875,-0.0013044163351878,-0.0009968212107196,0.02931341342628
1768736399071,-0.0306243896484375,-0.3894500732421875,-0.9241943359375,-0.002291117561981,0.0080169141292572,0.0273730345070362
1768736399081,-0.0323638916015625,-0.3896026611328125,-0.91925048828125,0.0001952097081812,0.0181502420455217,0.022107433527708
1768736399091,-0.0322418212890625,-0.3876953125,-0.9220733642578124,0.0192535892128944,0.0206757169216871,0.0171179994940757
1768736399101,-0.0288238525390625,-0.3820343017578125,-0.9349365234375,0.0384243540465831,0.0218999721109867,0.0103027047589421
1768736399111,-0.0306549072265625,-0.380218505859375,-0.9339599609375,0.0490173436701297,0.0261607635766267,0.0014892396284267
1768736399121,-0.0345916748046875,-0.3814544677734375,-0.9275665283203124,0.0544193014502525,0.020585436373949,-0.0060451091267168
1768736399131,-0.036376953125,-0.3785247802734375,-0.9201812744140624,0.0487811230123043,-0.0017781927017495,-0.0146404616534709
1768736399141,-0.0337066650390625,-0.376708984375,-0.914794921875,0.0427677035331726,-0.0046621295623481,-0.0200357604771852
1768736399151,-0.0277557373046875,-0.3786163330078125,-0.9195098876953124,0.0365721248090267,-0.0017355820164084,-0.0164130609482526
1768736399161,-0.0211334228515625,-0.3803863525390625,-0.914154052734375,0.0279450826346874,0.0024940504226833,-0.0102688828483223
1768736399171,-0.019256591796875,-0.3818817138671875,-0.9065704345703124,0.015352857299149,0.0085343662649393,-0.0075721656903624
1768736399181,-0.0152435302734375,-0.382476806640625,-0.9041748046875,0.0064451158978044,0.0163203831762075,-0.0013992248568683
1768736399191,-0.0107879638671875,-0.3837432861328125,-0.9053955078125,-0.0037483992055058,0.017910024151206,0.0062999739311635
1768736399201,-0.0052642822265625,-0.3839111328125,-0.905792236328125,-0.0106718186289072,0.0093088131397962,0.0128031466156244
1768736399211,-0.009979248046875,-0.387237548828125,-0.9064483642578124,-0.0199547987431287,0.0084350304678082,0.0144108971580863
1768736399221,-0.012725830078125,-0.3875274658203125,-0.9054107666015624,-0.0286625381559133,0.0158545970916748,0.0167419612407684
1768736399231,-0.0177001953125,-0.389068603515625,-0.90643310546875,-0.0309824161231517,0.0313121154904365,0.0154468668624758
1768736399241,-0.020416259765625,-0.3898468017578125,-0.9101715087890624,-0.0314039960503578,0.049032524228096,0.0198147166520357
1768736399252,-0.0206756591796875,-0.391021728515625,-0.914825439453125,-0.0272611826658248,0.0518299080431461,0.0198653172701597
1768736399262,-0.0217437744140625,-0.390838623046875,-0.9177398681640624,-0.0266843419522047,0.0441834405064582,0.0219846609979867
1768736399272,-0.0218505859375,-0.3903350830078125,-0.9235992431640624,-0.0276039317250251,0.0243415590375661,0.0212267246097326
1768736399282,-0.024658203125,-0.39154052734375,-0.92327880859375,-0.0285208579152822,0.0101003050804138,0.0184583701193332
1768736399292,-0.0265350341796875,-0.3900146484375,-0.9218292236328124,-0.0250097457319498,0.0018828548491001,0.0205817073583602
1768736399302,-0.028228759765625,-0.387603759765625,-0.928680419921875,-0.0156703051179647,0.0040847565978765,0.0177033636718988
1768736399312,-0.0289764404296875,-0.384429931640625,-0.9323272705078124,-0.0038839541375637,-0.0057734670117497,0.0182831324636936
1768736399322,-0.0289764404296875,-0.382659912109375,-0.9329071044921876,0.0073900055140256,-0.02064242772758,0.0117019293829798
1768736399332,-0.0324554443359375,-0.38067626953125,-0.9351959228515624,0.0119735719636082,-0.0351561233401298,0.0083647230640053
1768736399342,-0.0340423583984375,-0.379669189453125,-0.932373046875,0.0188834089785814,-0.0459006465971469,0.0001973402395378
1768736399352,-0.035400390625,-0.37945556640625,-0.9311370849609376,0.0243271775543689,-0.0335222743451595,-0.0087242489680647
1768736399362,-0.034454345703125,-0.381317138671875,-0.9306793212890624,0.0328671373426914,-0.0281402915716171,-0.0145712196826934
1768736399373,-0.032379150390625,-0.380218505859375,-0.92620849609375,0.0406329147517681,-0.0165134631097316,-0.0184604991227388
1768736399382,-0.025482177734375,-0.381195068359375,-0.9234466552734376,0.0461802780628204,0.0015510249650105,-0.0188945960253477
1768736399392,-0.019805908203125,-0.38287353515625,-0.91888427734375,0.0428776927292346,0.0073932013474404,-0.0159390196204185
1768736399402,-0.0155181884765625,-0.3852996826171875,-0.9100341796875,0.0356224440038204,0.0106124309822916,-0.0128761176019907
1768736399412,-0.011810302734375,-0.3866729736328125,-0.908477783203125,0.0263570379465818,0.0216501671820878,-0.0008929579053074
1768736399422,-0.00927734375,-0.390472412109375,-0.905426025390625,0.0124204503372311,0.0280340313911438,0.0104885939508676
1768736399432,-0.012542724609375,-0.3887176513671875,-0.9009857177734376,-0.0020706076174974,0.0218794662505388,0.0133552197366952
1768736399442,-0.01708984375,-0.3838958740234375,-0.9042205810546876,-0.0119147161021828,0.0189097747206687,0.0074581825174391
1768736399452,-0.0194854736328125,-0.3845367431640625,-0.9141082763671876,-0.0163416881114244,0.0192080494016408,0.0060411146841943
1768736399463,-0.0161895751953125,-0.38922119140625,-0.9187164306640624,-0.0220317989587783,0.0149235557764768,0.0123940855264663
1768736399473,-0.0108795166015625,-0.3928070068359375,-0.91790771484375,-0.022863769903779,0.003523362101987,0.0133104790002107
1768736399483,-0.01336669921875,-0.3902740478515625,-0.9202423095703124,-0.0154250292107462,-0.0093985619023442,0.0147555097937583
1768736399494,-0.016754150390625,-0.3975830078125,-0.9210205078125,-0.0179712772369384,0.0072078453376889,0.0224728174507617
1768736399503,-0.0126953125,-0.3970794677734375,-0.9197845458984376,-0.0132433669641613,0.0082496739923954,0.0202173870056867
1768736399513,-0.01434326171875,-0.391754150390625,-0.921234130859375,0.003451723139733,-0.001236772048287,0.0201651901006698
1768736399523,-0.017181396484375,-0.3873443603515625,-0.93096923828125,0.0130686638876795,0.0078992024064064,0.0295786652714014
1768736399533,-0.01934814453125,-0.3873138427734375,-0.933013916015625,0.019358517602086,0.0132707981392741,0.032244224101305
1768736399543,-0.026611328125,-0.3878021240234375,-0.926605224609375,0.0143102295696735,0.019651198759675,0.0196751672774553
1768736399553,-0.0372314453125,-0.38397216796875,-0.9163055419921876,0.0143973147496581,0.0293586868792772,0.0063473782502114
1768736399563,-0.0396881103515625,-0.3773956298828125,-0.920196533203125,0.021818745881319,0.0280574671924114,-0.0014849785948172
1768736399573,-0.0343170166015625,-0.3747711181640625,-0.926422119140625,0.028163194656372,0.0200426839292049,-0.0079852221533656
1768736399583,-0.0257110595703125,-0.3781280517578125,-0.92822265625,0.02697728946805,0.0012412993237376,-0.011019361205399
1768736399593,-0.024200439453125,-0.3765106201171875,-0.92633056640625,0.0260308012366294,-0.0140415169298648,-0.0133275231346488
1768736399603,-0.023284912109375,-0.3754425048828125,-0.925323486328125,0.0290223304182291,-0.0200520046055316,-0.0171941667795181
1768736399613,-0.0198974609375,-0.37896728515625,-0.9209136962890624,0.0241370275616645,-0.0300489794462919,-0.0175718031823635
1768736399623,-0.019866943359375,-0.3841094970703125,-0.9141082763671876,0.0200834311544895,-0.0278092604130506,-0.0141989095136523
1768736399633,-0.0182037353515625,-0.3894805908203125,-0.90728759765625,0.0115999309346079,-0.0120627880096435,-0.0106848683208227
1768736399643,-0.01837158203125,-0.3949737548828125,-0.9031829833984376,0.0028019116725772,0.0131011549383401,-0.0046599991619586
1768736399653,-0.017333984375,-0.39788818359375,-0.898468017578125,-0.0026200178544968,0.0292518939822912,0.0068453890271484
1768736399664,-0.016754150390625,-0.3984375,-0.901153564453125,-0.007514108903706,0.0316583290696144,0.016811205074191
1768736399674,-0.009307861328125,-0.3970489501953125,-0.90570068359375,-0.0121749071404337,0.0224773455411195,0.0239311661571264
1768736399684,-0.011322021484375,-0.3931732177734375,-0.9156951904296876,-0.0138537641614675,0.0172623433172702,0.0269908718764781
1768736399694,-0.017303466796875,-0.3917083740234375,-0.917266845703125,-0.0175819229334592,0.0113125760108232,0.0282572042196989
1768736399704,-0.022979736328125,-0.39263916015625,-0.912139892578125,-0.020128171890974,0.0152655057609081,0.0279514733701944
1768736399714,-0.027618408203125,-0.3923187255859375,-0.912261962890625,-0.0241396911442279,0.017615744844079,0.0271716993302106
1768736399724,-0.03082275390625,-0.3915557861328125,-0.912872314453125,-0.027600735425949,0.0174943059682846,0.0256076250225305
1768736399734,-0.0334014892578125,-0.392303466796875,-0.9147491455078124,-0.0328125394880771,0.0139224734157323,0.0232379436492919
1768736399744,-0.0341339111328125,-0.390838623046875,-0.9204559326171876,-0.0262569040060043,0.0020596887916326,0.0240819007158279
1768736399754,-0.029296875,-0.3906097412109375,-0.9327545166015624,-0.0133264577016234,-0.0112681007012724,0.0233721677213907
1768736399764,-0.028778076171875,-0.39068603515625,-0.93951416015625,0.0016474314033985,-0.0293389800935983,0.0151667026802897
1768736399774,-0.031707763671875,-0.3869476318359375,-0.9397430419921876,0.0206248518079519,-0.0339433178305625,0.0004807005752809
1768736399784,-0.0392608642578125,-0.3852386474609375,-0.935821533203125,0.0311954692006111,-0.0359058044850826,-0.0141467116773128
1768736399794,-0.0447540283203125,-0.384368896484375,-0.923065185546875,0.0396113246679306,-0.020696222782135,-0.0319558009505271
1768736399804,-0.0458221435546875,-0.3851165771484375,-0.9163055419921876,0.0482144020497798,0.0063641560263931,-0.0396246425807476
1768736399814,-0.03759765625,-0.384490966796875,-0.9193267822265624,0.0538147613406181,0.0112635735422372,-0.0412140153348445
1768736399824,-0.0291900634765625,-0.383819580078125,-0.914764404296875,0.0465211644768714,-0.0023646207991987,-0.0443528182804584
1768736399834,-0.023101806640625,-0.3861083984375,-0.9058990478515624,0.030705714598298,-0.0155536597594618,-0.0403716564178466
1768736399844,-0.0196990966796875,-0.3909912109375,-0.898681640625,0.0105122961103916,-0.0206213891506195,-0.0316575281322002
1768736399854,-0.019927978515625,-0.39459228515625,-0.8951873779296875,-0.0059052933938801,-0.0172128081321716,-0.0191523898392915
1768736399864,-0.020111083984375,-0.3950653076171875,-0.8945770263671875,-0.0206498838961124,-0.0075628450140357,-0.0166825726628303
1768736399875,-0.0206298828125,-0.39447021484375,-0.89984130859375,-0.0352706387639045,-0.0121000725775957,-0.0117341540753841
1768736399885,-0.0209197998046875,-0.3947296142578125,-0.901641845703125,-0.0482865720987319,-0.0191430673003196,-0.0098773976787924
1768736399895,-0.0211334228515625,-0.396209716796875,-0.906524658203125,-0.0560334399342536,-0.0129714589565992,-0.0063897222280502
1768736399905,-0.0222930908203125,-0.397674560546875,-0.914703369140625,-0.0570560954511165,-0.0110457269474864,-0.0024519723374396
1768736399915,-0.02642822265625,-0.3955078125,-0.91912841796875,-0.0535327345132827,-0.0106587698683142,-0.002298840554431
1768736399925,-0.026611328125,-0.3966064453125,-0.9214019775390624,-0.0481249168515205,-0.0135482996702194,-0.0085881622508168
1768736399935,-0.02490234375,-0.39532470703125,-0.9345855712890624,-0.0251492951065301,-0.0114798219874501,-0.0095604816451668
1768736399945,-0.0237579345703125,-0.3938446044921875,-0.9482574462890624,0.003426689421758,-0.0137786623090505,-0.0090435622259974
1768736399955,-0.0221405029296875,-0.395111083984375,-0.9496612548828124,0.0304457899183034,-0.0159733742475509,-0.0048914281651377
1768736399965,-0.021331787109375,-0.3941192626953125,-0.943817138671875,0.0447775907814502,-0.0189401358366012,-0.0039137816056609
1768736399975,-0.02667236328125,-0.39385986328125,-0.935882568359375,0.0507875457406044,-0.0225580390542745,-0.0049678608775138
1768736399985,-0.0308380126953125,-0.3923492431640625,-0.9304656982421876,0.0598715879023075,-0.0116425408050417,-0.0102318646386265
1768736399995,-0.034576416015625,-0.3884735107421875,-0.927642822265625,0.067025102674961,0.0071021178737282,-0.0182615611702203
1768736400006,-0.034423828125,-0.386260986328125,-0.92486572265625,0.0714723169803619,0.0242446195334196,-0.019168633967638
1768736400015,-0.0297393798828125,-0.3844757080078125,-0.9176483154296876,0.0671550706028938,0.0264984518289566,-0.0162601955235004
1768736400025,-0.0197296142578125,-0.3858184814453125,-0.91314697265625,0.0575722157955169,0.0030591732356697,-0.009066998027265
1768736400035,-0.0147857666015625,-0.3861541748046875,-0.909027099609375,0.043517917394638,-0.0261599645018577,-0.0063993097282946
1768736400045,-0.012725830078125,-0.387939453125,-0.9058380126953124,0.0252523589879274,-0.0368845127522945,-0.0085793733596801
1768736400055,-0.016448974609375,-0.3918304443359375,-0.9027252197265624,0.0159904174506664,-0.0256611555814743,-0.0058751995675265
1768736400065,-0.01776123046875,-0.3888702392578125,-0.9027862548828124,0.0165819060057401,-0.0090193273499608,-0.0042322957888245
1768736400076,-0.0156097412109375,-0.3908538818359375,-0.9061431884765624,0.0192210990935564,0.0023856596089899,0.0004588626616168
1768736400085,-0.0135498046875,-0.3934478759765625,-0.906097412109375,0.0115674398839473,0.0042703789658844,0.0069127669557929
1768736400096,-0.01416015625,-0.3957061767578125,-0.8986663818359375,0.0029577065724879,0.0080336919054389,0.0153384758159518
1768736400106,-0.0163116455078125,-0.3983001708984375,-0.901336669921875,-0.0014756575692445,0.0134835848584771,0.0222184862941503
1768736400116,-0.0182647705078125,-0.3960418701171875,-0.905426025390625,-0.006049370393157,0.0180841945111751,0.0275373514741659
1768736400126,-0.0208587646484375,-0.394927978515625,-0.906280517578125,-0.0153563190251588,0.0143214147537946,0.0329196006059646
1768736400136,-0.024444580078125,-0.394439697265625,-0.904083251953125,-0.0295296628028154,0.0097596859559416,0.0316431485116481
1768736400146,-0.0301513671875,-0.3961639404296875,-0.9041748046875,-0.0402139984071254,0.009384979493916,0.0370536260306835
1768736400156,-0.0250701904296875,-0.40045166015625,-0.9085845947265624,-0.0435844957828521,-0.0070869377814233,0.0391886830329895
1768736400166,-0.0194549560546875,-0.398834228515625,-0.918609619140625,-0.0389873459935188,-0.0339712835848331,0.0316292978823185
1768736400176,-0.0233154296875,-0.39794921875,-0.924530029296875,-0.0305408649146556,-0.0296982415020465,0.0332791283726692
1768736400186,-0.0267486572265625,-0.4040069580078125,-0.9296417236328124,-0.0258694142103195,-0.0154471332207322,0.0349790230393409
1768736400196,-0.02655029296875,-0.4014434814453125,-0.9263763427734376,-0.0110542485490441,-0.0067101004533469,0.0224728174507617
1768736400206,-0.033203125,-0.3958740234375,-0.9284515380859376,0.0131091438233852,0.0005488775204867,0.0156948063522577
1768736400216,-0.0324554443359375,-0.3909759521484375,-0.940338134765625,0.0382877327501773,0.0196735691279172,0.0187081731855869
1768736400226,-0.0324554443359375,-0.392303466796875,-0.9397735595703124,0.0462537817656993,0.0227977242320776,0.0182660892605781
1768736400236,-0.0349273681640625,-0.395782470703125,-0.92486572265625,0.039664588868618,0.0031909996178001,0.0080486051738262
1768736400246,-0.0422515869140625,-0.39031982421875,-0.909393310546875,0.0296180788427591,0.0010082727530971,-0.0106105664744973
1768736400256,-0.0466156005859375,-0.38421630859375,-0.904541015625,0.0168010834604501,-0.0022849922534078,-0.0284912958741188
1768736400266,-0.0481109619140625,-0.3834686279296875,-0.9006195068359375,0.0088685927912592,-0.0012058793799951,-0.0329909734427928
1768736400276,-0.0389862060546875,-0.38421630859375,-0.9044952392578124,-0.0034261567052453,-0.0049936934374272,-0.0342037752270698
1768736400287,-0.0308380126953125,-0.387939453125,-0.9012908935546876,-0.0260028392076492,-0.0295861214399337,-0.0315304957330226
1768736400297,-0.02850341796875,-0.391326904296875,-0.8933563232421875,-0.0513888895511627,-0.0528640151023864,-0.0326713919639587
1768736400307,-0.0274505615234375,-0.3936920166015625,-0.8942108154296875,-0.0697668269276619,-0.0608561597764492,-0.0339843332767486
1768736400317,-0.026092529296875,-0.3997955322265625,-0.8983001708984375,-0.0831540077924728,-0.0564337149262428,-0.0255556944757699
1768736400327,-0.0242919921875,-0.4045562744140625,-0.898681640625,-0.0854587107896804,-0.0409090816974639,-0.0152159705758094
1768736400337,-0.0253448486328125,-0.4066314697265625,-0.905670166015625,-0.080881267786026,-0.0193244293332099,-0.0123844975605607
1768736400347,-0.02947998046875,-0.4051361083984375,-0.9167938232421876,-0.0682767927646637,-0.0048347027041018,-0.0093990946188569
1768736400357,-0.029876708984375,-0.4027862548828125,-0.9243621826171876,-0.0521135330200195,0.008967662230134,-0.0055191349238157
1768736400367,-0.02581787109375,-0.3993988037109375,-0.93231201171875,-0.0330162718892097,0.0114973988384008,0.0010876349406316
1768736400377,-0.025146484375,-0.39788818359375,-0.9356689453125,-0.014576013199985,0.0130705283954739,0.0009371663909405
1768736400387,-0.0284576416015625,-0.3960723876953125,-0.9365692138671876,-0.0046000783331692,0.0152441998943686,0.0026855315081775
1768736400397,-0.0316162109375,-0.3943023681640625,-0.931396484375,0.0050914315506815,0.0095788575708866,-0.0001499359641456
1768736400407,-0.034393310546875,-0.3954315185546875,-0.9285888671875,0.0064150225371122,0.003834685543552,-0.0072725601494312
1768736400417,-0.0370025634765625,-0.3941192626953125,-0.9236297607421876,0.0106545081362128,-0.0014697986189275,-0.0076232985593378
1768736400427,-0.0380401611328125,-0.393341064453125,-0.9254608154296876,0.0161725785583257,-0.0109096392989158,-0.0116438725963234
1768736400437,-0.038818359375,-0.392578125,-0.925262451171875,0.0172881763428449,-0.0191244259476661,-0.0184671580791473
1768736400447,-0.03704833984375,-0.3944549560546875,-0.921661376953125,0.0163526087999343,-0.0181214790791273,-0.0182716809213161
1768736400457,-0.0318450927734375,-0.3968658447265625,-0.922271728515625,0.024074176326394,-0.0197257678955793,-0.0228094421327114
1768736400467,-0.0315399169921875,-0.3934173583984375,-0.9255828857421876,0.0398680530488491,-0.0229615084826946,-0.0310519263148307
1768736400477,-0.03155517578125,-0.3870391845703125,-0.9315643310546876,0.0552121214568614,-0.028931250795722,-0.0356493405997753
1768736400487,-0.0309906005859375,-0.3856048583984375,-0.928680419921875,0.0674229860305786,-0.0288979616016149,-0.0391806922852993
1768736400498,-0.031219482421875,-0.387908935546875,-0.923614501953125,0.0641004219651222,-0.0237016007304191,-0.0429634451866149
1768736400508,-0.0331268310546875,-0.3868560791015625,-0.9087371826171876,0.0533596277236938,-0.0049446909688413,-0.0442718565464019
1768736400518,-0.0310211181640625,-0.3916015625,-0.898223876953125,0.0400337018072605,-0.0016913736471906,-0.041965827345848
1768736400528,-0.0265655517578125,-0.393341064453125,-0.890869140625,0.0207018163055181,-0.0013952300650998,-0.0356634557247161
1768736400538,-0.0176849365234375,-0.397857666015625,-0.887969970703125,-0.0040884846821427,-0.0113575831055641,-0.0260318666696548
1768736400548,-0.01385498046875,-0.4042205810546875,-0.8842010498046875,-0.0340652912855148,-0.0166096035391092,-0.0108084389939904
1768736400558,-0.011505126953125,-0.4049224853515625,-0.882781982421875,-0.0554355606436729,-0.0227825436741113,0.0026037725619971
1768736400568,-0.0109100341796875,-0.4046630859375,-0.891571044921875,-0.0678384378552436,-0.0358520075678825,0.0070254188030958
1768736400578,-0.016387939453125,-0.402191162109375,-0.9017181396484376,-0.0729474425315857,-0.0380664244294166,0.0102300010621547
1768736400588,-0.020965576171875,-0.399871826171875,-0.9127960205078124,-0.0654706209897995,-0.0285091400146484,0.0139264678582549
1768736400598,-0.0253753662109375,-0.398040771484375,-0.9270172119140624,-0.0479384958744049,-0.009998039342463,0.0161816328763961
1768736400608,-0.030548095703125,-0.3948822021484375,-0.9360809326171876,-0.0263354666531085,0.0080683128908276,0.0162189174443483
1768736400618,-0.0342559814453125,-0.3941192626953125,-0.94000244140625,-0.0054735951125621,0.0155222341418266,0.0132500249892473
1768736400628,-0.0343017578125,-0.392242431640625,-0.9442138671875,0.0206440258771181,0.0202232468873262,0.0136239333078265
1768736400638,-0.0338897705078125,-0.3893280029296875,-0.949127197265625,0.0496293380856514,0.0183241460472345,0.0110382698476314
1768736400648,-0.0308990478515625,-0.3902435302734375,-0.949462890625,0.071040354669094,0.0171371754258871,0.0091783180832862
1768736400658,-0.0312652587890625,-0.389007568359375,-0.9388427734375,0.0793310403823852,0.0067561734467744,0.0067276773042976
1768736400668,-0.03680419921875,-0.3888092041015625,-0.9242095947265624,0.0790828317403793,0.0089727221056818,0.0034463966730982
1768736400678,-0.0347442626953125,-0.3902130126953125,-0.91876220703125,0.0805840566754341,0.0177528988569974,0.0005805690889246
1768736400688,-0.028778076171875,-0.3917694091796875,-0.9173126220703124,0.0798138752579689,0.0128920963034033,0.0084339650347828
1768736400698,-0.0244903564453125,-0.392913818359375,-0.9123077392578124,0.0707364901900291,-0.0066837351769208,0.0117663778364658
1768736400709,-0.0219268798828125,-0.393035888671875,-0.9021759033203124,0.0555647239089012,-0.0260188169777393,0.0151073141023516
1768736400719,-0.0208282470703125,-0.3943634033203125,-0.8981781005859375,0.0398153215646743,-0.0351875498890876,0.0161438155919313
1768736400729,-0.0235137939453125,-0.393890380859375,-0.891326904296875,0.0238448791205883,-0.0316625870764255,0.0173811204731464
