timestamp_ms,acc_x,acc_y,acc_z,gyro_x,gyro_y,gyro_z
1768736024067,-0.1443939208984375,-0.9837799072265624,-0.05047607421875,0.0179971102625131,-0.0040112533606588,0.0068563083186745
1768736024075,-0.1509857177734375,-0.9895477294921876,-0.0457000732421875,0.0087431576102972,-0.0068467208184301,0.0014607438351958
1768736024085,-0.150604248046875,-0.9921875,-0.0404815673828125,-0.0002913498319685,-0.0066824038513004,-0.0017749968683347
1768736024095,-0.1464080810546875,-0.9935760498046876,-0.039154052734375,-0.0114143081009387,-0.0030780816450715,-0.0012226572725921
1768736024105,-0.1421051025390625,-0.9946136474609376,-0.038543701171875,-0.0175715368241071,-0.0004327636852394,0.002469282830134
1768736024115,-0.1404266357421875,-0.9922637939453124,-0.038330078125,-0.0251777917146682,0.0030724888201802,0.0014972290955483
1768736024125,-0.143646240234375,-0.990753173828125,-0.0399169921875,-0.0308252908289432,0.0114140417426824,-0.0033441314008086
1768736024135,-0.1476593017578125,-0.9875946044921876,-0.04296875,-0.0315065272152423,0.0142005076631903,-0.0043883565813302
1768736024145,-0.1451873779296875,-0.984375,-0.04888916015625,-0.0275687761604785,0.0127709228545427,-0.003343598684296
1768736024156,-0.142608642578125,-0.9803924560546876,-0.0547637939453125,-0.0161020047962665,0.0064128916710615,0.0016098808264359
1768736024165,-0.13800048828125,-0.9777374267578124,-0.059295654296875,-0.0161020047962665,0.0064128916710615,0.0016098808264359
1768736024179,-0.1381988525390625,-0.9815521240234376,-0.0594482421875,0.0016266588354483,-0.0033891387283802,0.0056227319873869
1768736024185,-0.1383819580078125,-0.9832916259765624,-0.05657958984375,0.0056829191744327,-0.0030615699943155,0.0050357710570096
1768736024196,-0.13946533203125,-0.98583984375,-0.0540618896484375,0.0098419776186347,1.8642127770363004e-06,0.0051329764537513
1768736024207,-0.1411895751953125,-0.984619140625,-0.0523681640625,0.0120966099202632,0.0023198795970529,0.0048631983809173
1768736024217,-0.1405792236328125,-0.9819488525390624,-0.052978515625,0.0178426466882228,0.0036898097023367,0.0066091669723391
1768736024230,-0.1439666748046875,-0.9801177978515624,-0.052947998046875,0.0230565834790468,0.0106566390022635,0.010455303825438
1768736024245,-0.1460418701171875,-0.9831695556640624,-0.05303955078125,0.02570216730237,0.0079268990084528,0.0105642275884747
1768736024246,-0.147216796875,-0.99041748046875,-0.0477294921875,0.02570216730237,0.0079268990084528,0.0105642275884747
1768736024262,-0.1443634033203125,-0.9922332763671876,-0.0447540283203125,0.0142606953158974,0.0113682355731725,0.008641424588859
1768736024266,-0.1474456787109375,-0.985748291015625,-0.04400634765625,0.0097879162058234,0.0126827722415328,0.0037582528311759
1768736024284,-0.1490936279296875,-0.981964111328125,-0.04736328125,0.0097935087978839,0.0083514070138335,0.0050823767669498
1768736024288,-0.147552490234375,-0.9896087646484376,-0.043182373046875,0.0016980315558612,-0.0021323929540812,0.0008378304773941
1768736024296,-0.1475677490234375,-0.994964599609375,-0.040374755859375,-0.007154582068324,0.0019022959750145,-0.0034927357919514
1768736024306,-0.1459197998046875,-0.989013671875,-0.0422210693359375,-0.0098331896588206,0.0094334492459893,-0.0029939257074147
1768736024316,-0.1451263427734375,-0.98223876953125,-0.0461883544921875,-0.0062499064952135,0.0098957736045122,-0.0074533890001475
1768736024328,-0.1426849365234375,-0.9745025634765624,-0.05059814453125,-0.0035507925786077,0.0094387754797935,-0.0123101957142353
1768736024336,-0.1431732177734375,-0.97320556640625,-0.0523834228515625,0.0063321981579065,0.0024905882310122,-0.0174085516482591
1768736024346,-0.1435699462890625,-0.980987548828125,-0.05340576171875,0.0102166850119829,-0.0113727627322077,-0.0119490707293152
1768736024356,-0.137420654296875,-0.9989166259765624,-0.0448760986328125,0.0012349077733233,-0.0121373562142252,-0.0026027073618024
1768736024366,-0.138946533203125,-1.00201416015625,-0.0358123779296875,-0.0056437710300087,-0.0030123014003038,-0.0042402851395308
1768736024376,-0.1475830078125,-0.998138427734375,-0.0370330810546875,-0.0106241488829255,0.0014189322246238,-0.0093836477026343
1768736024386,-0.1457061767578125,-0.9993133544921876,-0.033966064453125,-0.0254302583634853,0.0028972530271857,-0.0118854213505983
1768736024396,-0.138397216796875,-0.99542236328125,-0.03521728515625,-0.0325877703726291,0.0118302945047616,-0.0119235049933195
1768736024409,-0.13433837890625,-0.9823150634765624,-0.0462646484375,-0.0197670459747314,0.0099564939737319,-0.0091266529634594
1768736024416,-0.1380462646484375,-0.9738922119140624,-0.05474853515625,-0.0030208237003535,0.007162039168179,-0.0072437981143593
1768736024426,-0.1360931396484375,-0.97662353515625,-0.059417724609375,0.0015102786710485,0.0015576828736811,-0.0049931607209146
1768736024436,-0.136871337890625,-0.9840087890625,-0.054107666015625,0.0004546015989035,-0.0040408144704997,-0.002052764641121
1768736024446,-0.1406707763671875,-0.9849090576171876,-0.0529632568359375,0.0003352919884491,-0.001472728094086,0.0005795038305222
1768736024457,-0.143341064453125,-0.981842041015625,-0.0555267333984375,0.0024106933269649,0.001987517112866,-0.0002284992224304
1768736024466,-0.14630126953125,-0.9818572998046876,-0.05621337890625,0.0059673450887203,0.0011763182701542,-0.0032613070216029
1768736024476,-0.1451873779296875,-0.9838714599609376,-0.05755615234375,0.0099309273064136,-0.0019502328941598,-0.0053417682647705
1768736024486,-0.1392669677734375,-0.9871368408203124,-0.0586395263671875,0.0150774866342544,-0.0055660065263509,-0.0012855078093707
1768736024496,-0.13775634765625,-0.98974609375,-0.05780029296875,0.0166375655680894,-0.007643005810678,0.0006929545197635
1768736024507,-0.1468658447265625,-0.993438720703125,-0.052032470703125,0.0143022397533059,-0.0032096416689455,-0.0050016827881336
1768736024517,-0.15374755859375,-0.9896392822265624,-0.0464019775390625,0.0140412505716085,0.0031326764728873,-0.012426309287548
1768736024527,-0.15313720703125,-0.9868927001953124,-0.0475311279296875,0.0164119955152273,0.0078747011721134,-0.0117293605580925
1768736024537,-0.147308349609375,-0.983978271484375,-0.046844482421875,0.0204056724905967,0.0163078662008047,-0.010055030696094
1768736024547,-0.138397216796875,-0.9831085205078124,-0.04583740234375,0.0224139615893363,0.016847688704729,-0.0071604410186409
1768736024557,-0.1361541748046875,-0.984466552734375,-0.04266357421875,0.0232965350151062,0.0191422682255506,-0.0035694348625838
1768736024567,-0.1345367431640625,-0.9860076904296876,-0.0390625,0.0219577625393867,0.0091285174712538,0.0046741138212382
1768736024577,-0.133056640625,-0.9837188720703124,-0.03680419921875,0.020110061392188,-0.0022066952660679,0.0086211850866675
1768736024587,-0.13177490234375,-0.98626708984375,-0.038116455078125,0.0116100506857037,-0.0025491777341812,0.0142761413007974
1768736024597,-0.1360015869140625,-0.9898834228515624,-0.033660888671875,-0.0038317560683935,-0.0056589511223137,0.0089330412447452
1768736024607,-0.1476593017578125,-0.993621826171875,-0.0283050537109375,-0.0206139311194419,0.0009456885163672,-0.0032479912042617
1768736024617,-0.1572113037109375,-0.9952545166015624,-0.027862548828125,-0.0329169370234012,0.0070240874774754,-0.01438027061522
1768736024627,-0.1611480712890625,-0.994537353515625,-0.0317840576171875,-0.0457243435084819,0.0035880769137293,-0.0234291590750217
1768736024637,-0.152923583984375,-0.9942169189453124,-0.035736083984375,-0.05796929448843,0.0044565335847437,-0.023128755390644
1768736024647,-0.13958740234375,-0.99896240234375,-0.04046630859375,-0.0701002553105354,-0.0050134006887674,-0.018386198207736
1768736024657,-0.131805419921875,-0.9924774169921876,-0.0455169677734375,-0.0687825232744216,-0.0027110979426652,-0.0120675815269351
1768736024667,-0.1304473876953125,-0.9844512939453124,-0.057373046875,-0.0597094036638736,0.0004862932255491,-0.0065654912032186
1768736024678,-0.1364288330078125,-0.9813232421875,-0.0615386962890625,-0.0468535237014293,-0.0023156185634434,-0.0109293470159173
1768736024688,-0.1411895751953125,-0.9871368408203124,-0.06072998046875,-0.0360349677503109,-0.0002111886715283,-0.0126321716234087
1768736024698,-0.139923095703125,-0.9887847900390624,-0.060302734375,-0.0247138682752847,0.0014207963831722,-0.0129461586475372
1768736024708,-0.136749267578125,-0.9857177734375,-0.0634918212890625,-0.0097716702148318,0.0041433461010456,-0.0051430966705083
1768736024718,-0.1307525634765625,-0.982208251953125,-0.06573486328125,0.0074848141521215,0.0064211478456854,0.001334510045126
1768736024728,-0.12835693359375,-0.976531982421875,-0.0638275146484375,0.0202426873147487,0.0090129356831312,0.0076874806545674
1768736024738,-0.1364593505859375,-0.9779815673828124,-0.060638427734375,0.0306726917624473,0.0153949353843927,0.0080960094928741
1768736024748,-0.1419219970703125,-0.9803314208984376,-0.0578155517578125,0.0312719009816646,0.018761970102787,0.0043401536531746
1768736024758,-0.1424713134765625,-0.9807891845703124,-0.05316162109375,0.0378845296800136,0.0113341473042964,0.0014519554097205
1768736024768,-0.142303466796875,-0.9842529296875,-0.0540313720703125,0.0368493609130382,0.0076802903786301,-0.0022892532870173
1768736024778,-0.1424560546875,-0.9880828857421876,-0.0511627197265625,0.0340437218546867,0.000454335269751,-0.0051841093227267
1768736024788,-0.14727783203125,-0.99139404296875,-0.046112060546875,0.027803935110569,0.0034397388808429,-0.0076882797293365
1768736024798,-0.1466217041015625,-0.993927001953125,-0.0421142578125,0.0205193888396024,0.0031670311000198,-0.0099170794710516
1768736024808,-0.1422882080078125,-0.9927978515625,-0.0400543212890625,0.0178604889661073,0.0042956788092851,-0.0056038233451545
1768736024818,-0.136077880859375,-0.988922119140625,-0.0428924560546875,0.0139493709430098,0.0099951094016432,0.0007597998483106
1768736024828,-0.13287353515625,-0.9897308349609376,-0.0439300537109375,0.014822888188064,0.0054509579204022,0.0092696649953722
1768736024838,-0.1347808837890625,-0.9874420166015624,-0.0436553955078125,0.0132042188197374,0.003778759157285,0.0120465429499745
1768736024848,-0.137939453125,-0.9891815185546876,-0.04443359375,0.0110744889825582,0.0055103464983403,0.0099250683560967
1768736024858,-0.1448974609375,-0.9870758056640624,-0.04290771484375,0.0071180970408022,0.0078233024105429,0.0029925941489636
1768736024868,-0.1493072509765625,-0.9867095947265624,-0.040679931640625,0.0019848539959639,0.0120422821491956,-0.0028586371336132
1768736024879,-0.1493072509765625,-0.98602294921875,-0.0400238037109375,-0.0022445120848715,0.0044669201597571,-0.0053377738222479
1768736024889,-0.1440277099609375,-0.98681640625,-0.041595458984375,-0.0036144421901553,0.0011981561547145,-0.0066278087906539
1768736024899,-0.140594482421875,-0.9871978759765624,-0.0417633056640625,-0.0061199441552162,0.0034032536204904,-0.0104017741978168
1768736024909,-0.1416015625,-0.9875030517578124,-0.043060302734375,-0.0080512687563896,-0.0006604639347642,-0.0147246178239583
1768736024919,-0.145538330078125,-0.98760986328125,-0.0437469482421875,-0.0111562479287385,0.0014721954939886,-0.0222408566623926
1768736024929,-0.148895263671875,-0.986602783203125,-0.04052734375,-0.0179084260016679,0.0127008818089962,-0.0294191408902406
1768736024939,-0.147613525390625,-0.98516845703125,-0.0408782958984375,-0.0183052383363246,0.0217417813837528,-0.0309054516255855
1768736024949,-0.143463134765625,-0.985076904296875,-0.04608154296875,-0.0113599793985486,0.0158388838171958,-0.0242084003984928
1768736024959,-0.13616943359375,-0.983917236328125,-0.0520477294921875,-0.0035164379514753,0.0094283893704414,-0.014413827098906
1768736024969,-0.1302642822265625,-0.988525390625,-0.052154541015625,0.0040922132320702,-0.0006351639167405,-0.0061196777969598
1768736024979,-0.12451171875,-0.9866485595703124,-0.0513916015625,0.0089993542060256,-0.0064797373488545,-0.0006271744496189
1768736024989,-0.1318511962890625,-0.9810333251953124,-0.0514373779296875,0.0142660215497016,-0.0009108011145144,-0.0041103227995336
1768736024999,-0.1435699462890625,-0.9814605712890624,-0.050811767578125,0.0124225812032818,-0.0002753708686213,-0.0089383674785494
1768736025009,-0.1440887451171875,-0.990020751953125,-0.045989990234375,0.0056208679452538,0.0007896272582001,-0.0110830115154385
1768736025019,-0.13824462890625,-0.9939117431640624,-0.0438079833984375,0.0025076323654502,0.004038683604449,-0.0106981843709945
1768736025029,-0.138336181640625,-0.9887542724609376,-0.0494384765625,0.0025787388440221,0.0119762355461716,-0.0096659427508711
1768736025039,-0.1409149169921875,-0.98248291015625,-0.0495452880859375,0.0061194114387035,0.0177425108850002,-0.0151930674910545
1768736025049,-0.1444854736328125,-0.980072021484375,-0.053619384765625,0.0117013966664671,0.0159949455410242,-0.0235316921025514
1768736025059,-0.141754150390625,-0.9788360595703124,-0.058197021484375,0.026828683912754,0.0015267902053892,-0.0255048274993896
1768736025069,-0.135894775390625,-0.9901885986328124,-0.0528717041015625,0.0296463090926408,-0.015083079226315,-0.0202661231160163
1768736025079,-0.1323699951171875,-0.999664306640625,-0.0421600341796875,0.0255186762660741,-0.0097447726875543,-0.0169563461095094
1768736025089,-0.1337738037109375,-0.9937896728515624,-0.041473388671875,0.0265988539904356,0.0045939530245959,-0.0113698337227106
1768736025099,-0.1361846923828125,-0.9933929443359376,-0.0410003662109375,0.0213913079351186,0.0117932762950658,-0.011754659935832
1768736025110,-0.133544921875,-0.9991607666015624,-0.0337066650390625,0.0092899044975638,0.0143653573468327,-0.0104608964174985
1768736025120,-0.1282501220703125,-0.994476318359375,-0.03448486328125,0.0069947927258908,0.0171795189380645,-0.0053154029883444
1768736025130,-0.130645751953125,-0.979888916015625,-0.0422821044921875,0.0198016669601202,0.0185965877026319,-0.0027020431589335
1768736025140,-0.1383056640625,-0.97735595703125,-0.0499114990234375,0.0313829556107521,0.0110638365149497,-0.0026509105227887
1768736025150,-0.138397216796875,-0.982452392578125,-0.0458831787109375,0.0300889257341623,0.0014530207263305,-0.0015648734988644
1768736025160,-0.130950927734375,-0.9835357666015624,-0.0423431396484375,0.0273906122893095,-0.0011246529174968,0.0060147494077682
1768736025170,-0.1293487548828125,-0.98406982421875,-0.0440216064453125,0.0281743798404932,0.0006439523422159,0.0111831463873386
1768736025180,-0.13629150390625,-0.9842987060546876,-0.0443115234375,0.0239463448524475,0.0038826225791126,0.0093138730153441
1768736025190,-0.14697265625,-0.9881439208984376,-0.0408172607421875,0.0158681795001029,0.0088464887812733,-0.0017369136912748
1768736025200,-0.154449462890625,-0.9893646240234376,-0.0414276123046875,0.0101876566186547,0.0133512252941727,-0.0115967346355319
1768736025210,-0.151947021484375,-0.9901580810546876,-0.0447540283203125,0.0066318036988377,0.0137522974982857,-0.0169081427156925
1768736025220,-0.1434173583984375,-0.989166259765625,-0.047821044921875,0.0092571480199694,0.0093804523348808,-0.0169289167970418
1768736025230,-0.14178466796875,-0.9905242919921876,-0.0458221435546875,0.0095492964610457,0.0093964310362935,-0.0183233469724655
1768736025240,-0.142333984375,-0.992584228515625,-0.044219970703125,0.0099168131127953,0.0155155761167407,-0.0198927484452724
1768736025250,-0.1389007568359375,-0.988800048828125,-0.0420379638671875,0.0098419776186347,0.020002469420433,-0.0167374350130558
1768736025260,-0.1348114013671875,-0.9857635498046876,-0.04132080078125,0.0150900036096572,0.0127067407593131,-0.0096009615808725
1768736025270,-0.131866455078125,-0.9855804443359376,-0.038482666015625,0.0192685034126043,0.0144084999337792,-0.0016016251174733
1768736025280,-0.1282501220703125,-0.9842376708984376,-0.0384674072265625,0.0240997429937124,0.0103799365460872,0.0074989288114011
1768736025290,-0.1300811767578125,-0.98663330078125,-0.0366973876953125,0.0235655140131711,0.0104350643232464,0.0071860076859593
1768736025300,-0.1304473876953125,-0.9882354736328124,-0.0332489013671875,0.0139413820579648,0.013841513544321,0.0065050371922552
1768736025311,-0.133575439453125,-0.9883880615234376,-0.031036376953125,0.0058624162338674,0.0125179225578904,0.0008950884221121
1768736025321,-0.1368255615234375,-0.9910736083984376,-0.029815673828125,-0.0046386937610805,0.0125600006431341,-0.0023584954906255
1768736025331,-0.1397705078125,-0.99151611328125,-0.02911376953125,-0.0132585475221276,0.0095466338098049,-0.0058315237984061
1768736025341,-0.1423187255859375,-0.99237060546875,-0.031005859375,-0.0208136681467294,0.0071806809864938,-0.0106627643108367
1768736025351,-0.138763427734375,-0.9922943115234376,-0.0353546142578125,-0.0268217604607343,0.0027742148377001,-0.0078288950026035
1768736025361,-0.1354827880859375,-0.996063232421875,-0.0334930419921875,-0.0394347570836544,0.0015331818722188,-0.0098230699077248
1768736025371,-0.138397216796875,-1.0006561279296875,-0.0321197509765625,-0.0525833182036876,0.0062150191515684,-0.0141323301941156
1768736025381,-0.139007568359375,-0.9914093017578124,-0.0369873046875,-0.0481787137687206,0.0095852492377161,-0.0141288684681057
1768736025391,-0.1377716064453125,-0.9844512939453124,-0.0499114990234375,-0.0361508131027221,0.0118763670325279,-0.0168703272938728
1768736025401,-0.1360626220703125,-0.9796142578125,-0.056793212890625,-0.0188019163906574,0.0082515385001897,-0.0170000232756137
1768736025411,-0.1334686279296875,-0.9841156005859376,-0.0581207275390625,-0.0048328381963074,0.0046235141344368,-0.0108819426968693
1768736025421,-0.1246490478515625,-0.9842681884765624,-0.0580902099609375,0.008183361031115,0.0074749602936208,0.0027457191608846
1768736025431,-0.1233978271484375,-0.9795989990234376,-0.0578155517578125,0.0238438136875629,0.0061263358220458,0.0144258104264736
1768736025441,-0.1291046142578125,-0.9786224365234376,-0.056976318359375,0.0407452993094921,0.008764729835093,0.0148931955918669
1768736025451,-0.1336822509765625,-0.9808502197265624,-0.0525970458984375,0.0475685857236385,0.0114784901961684,0.0149720255285501
1768736025461,-0.1342315673828125,-0.9832611083984376,-0.0493316650390625,0.0491369180381298,0.0115389442071318,0.0138329910114407
1768736025473,-0.137420654296875,-0.985321044921875,-0.04315185546875,0.0454548336565494,0.0154756288975477,0.0079484703019261
1768736025481,-0.1415863037109375,-0.991119384765625,-0.0367889404296875,0.037036582827568,0.0151374079287052,0.0022178804501891
1768736025491,-0.142425537109375,-0.990814208984375,-0.03369140625,0.0316791012883186,0.0087807085365057,-0.0032136365771293
1768736025501,-0.1429290771484375,-0.991943359375,-0.0336151123046875,0.0271535906940698,0.0086928242817521,-0.0060259345918893
1768736025511,-0.1389007568359375,-0.9901885986328124,-0.0335235595703125,0.0235218368470668,0.0089865708723664,-0.0044546695426106
1768736025521,-0.1348876953125,-0.9914703369140624,-0.03533935546875,0.021304490044713,0.0045409561134874,-0.0003374225052539
1768736025531,-0.1347808837890625,-0.9934844970703124,-0.0310211181640625,0.011796205304563,0.0116063226014375,-0.0004370247188489
1768736025542,-0.1346588134765625,-0.9925689697265624,-0.0293426513671875,0.006426740437746,0.0167837738990783,-0.0005225121858529
1768736025552,-0.1377716064453125,-0.990753173828125,-0.0308837890625,0.0001733717799652,0.0189129710197448,-0.0004002731002401
1768736025562,-0.140289306640625,-0.9895782470703124,-0.0327301025390625,0.0001286306796828,0.0184772778302431,-0.0055494951084256
1768736025572,-0.1397857666015625,-0.9860076904296876,-0.0352020263671875,-0.0006242449744604,0.0174421072006225,-0.0059995693154633
1768736025582,-0.1378021240234375,-0.988433837890625,-0.03546142578125,-0.0023036343045532,0.0098038949072361,-0.0056909089908003
1768736025592,-0.135650634765625,-0.9859466552734376,-0.0353546142578125,-0.0019952403381466,0.0010610034223645,-0.0050602722913026
1768736025602,-0.1353607177734375,-0.98388671875,-0.0345001220703125,-0.0069529809989035,-0.000966461142525,-0.0077434070408344
1768736025612,-0.138275146484375,-0.986572265625,-0.03192138671875,-0.0131735922768712,-0.0009869674686342,-0.0091444961726665
1768736025622,-0.1407623291015625,-0.9874114990234376,-0.0312652587890625,-0.0180748738348484,0.0020956413354724,-0.0116268284618854
1768736025632,-0.1389007568359375,-0.988433837890625,-0.031982421875,-0.0227151662111282,0.0015342470724135,-0.0136550916358828
1768736025642,-0.1370697021484375,-0.98785400390625,-0.0334625244140625,-0.0230821501463651,-0.0019393138354644,-0.0167491529136896
1768736025652,-0.1372833251953125,-0.988800048828125,-0.03485107421875,-0.0277717094868421,0.0002695118892006,-0.0204405598342418
1768736025662,-0.1359710693359375,-0.9896087646484376,-0.0336151123046875,-0.0309307519346475,-0.0051931641064584,-0.0230930689722299
1768736025672,-0.1385955810546875,-0.989013671875,-0.0331573486328125,-0.0334799289703369,-0.0065084993839263,-0.0261911246925592
1768736025682,-0.140594482421875,-0.9872589111328124,-0.037567138671875,-0.0360410921275615,0.0043816990219056,-0.0242113303393125
1768736025692,-0.1383819580078125,-0.984771728515625,-0.0411834716796875,-0.0313472710549831,0.0077607175335288,-0.0208115391433239
1768736025702,-0.1358642578125,-0.9873809814453124,-0.0449676513671875,-0.025112809613347,0.0082307653501629,-0.0154316872358322
1768736025712,-0.13018798828125,-0.9920654296875,-0.0466766357421875,-0.0232041217386722,0.0039369510486721,-0.008194014430046
1768736025722,-0.1292877197265625,-0.9932098388671876,-0.0438232421875,-0.0216251350939273,0.0063756075687706,-0.007767641916871
1768736025732,-0.1345977783203125,-0.987396240234375,-0.04583740234375,-0.0153752276673913,0.0140750724822282,-0.0074941352941095
1768736025742,-0.134796142578125,-0.98138427734375,-0.0533905029296875,-0.0034876756835728,0.0139445774257183,-0.0081812310963869
1768736025753,-0.1298828125,-0.9858245849609376,-0.0534820556640625,0.006026467308402,0.0091719264164567,-0.0046205846592783
1768736025763,-0.123870849609375,-0.988739013671875,-0.0502471923828125,0.0103445164859294,0.0077617829665541,0.0042432146146893
1768736025773,-0.1231689453125,-0.9869842529296876,-0.051727294921875,0.0226642992347478,0.0070129018276929,0.0086472835391759
1768736025783,-0.1287841796875,-0.9823150634765624,-0.05328369140625,0.0322745814919471,0.0140774697065353,0.0051324442028999
1768736025793,-0.1364288330078125,-0.9806671142578124,-0.0509490966796875,0.0364107377827167,0.0150854755192995,-0.0047734500840306
1768736025803,-0.1429595947265625,-0.9829559326171876,-0.0473175048828125,0.0400824397802352,0.0145959872752428,-0.0166737847030162
1768736025813,-0.1395416259765625,-0.9859466552734376,-0.0469207763671875,0.0473137199878692,0.0023417174816131,-0.0165065377950668
1768736025823,-0.129669189453125,-0.99700927734375,-0.03948974609375,0.0437362939119339,-0.0069894660264253,-0.0071354075334966
1768736025833,-0.129058837890625,-0.9952850341796876,-0.0319671630859375,0.0418340004980564,0.0020088222809135,9.640643111197278e-05
1768736025843,-0.1309814453125,-0.990386962890625,-0.0316009521484375,0.0392528623342514,0.0028999161440879,0.0027201527263969
1768736025853,-0.1299591064453125,-0.9943389892578124,-0.02606201171875,0.0279224440455436,-0.0010516822803765,0.005069060716778
1768736025863,-0.1292724609375,-1.000946044921875,-0.020263671875,0.011071559973061,0.006833937484771,0.0003257046046201
1768736025873,-0.131561279296875,-0.994232177734375,-0.0199737548828125,0.0104209491983056,0.0163153242319822,-0.0012753878254443
1768736025883,-0.1358489990234375,-0.978271484375,-0.0302886962890625,0.0180892553180456,0.0187385343015193,-0.0057191383093595
1768736025893,-0.1356201171875,-0.9806976318359376,-0.0369873046875,0.023551931604743,0.0107522467151284,-0.0032426649704575
1768736025903,-0.134033203125,-0.9884033203125,-0.034393310546875,0.0136353848502039,0.0088438251987099,-0.00103064335417
1768736025913,-0.135986328125,-0.990997314453125,-0.02996826171875,0.0035646411124616,0.0080965422093868,0.000242880283622
1768736025923,-0.1411590576171875,-0.9900970458984376,-0.031890869140625,-0.0020258666481822,0.0156085202470421,-0.0048152613453567
1768736025933,-0.1479644775390625,-0.9871368408203124,-0.036102294921875,-0.00220935838297,0.0248294491320848,-0.0148737542331218
1768736025943,-0.145782470703125,-0.9844970703125,-0.04156494140625,0.0051263188943266,0.019863186404109,-0.0177275985479354
1768736025953,-0.135528564453125,-0.9857330322265624,-0.0431976318359375,0.0095812547951936,0.0087625989690423,-0.0133333820849657
1768736025964,-0.1246337890625,-0.9896240234375,-0.043487548828125,0.0132156703621149,0.0016737966798245,-0.0069425944238901
1768736025974,-0.1249847412109375,-0.990203857421875,-0.0457611083984375,0.016246348619461,0.0039422772824764,-0.00323121342808
1768736025984,-0.133636474609375,-0.986175537109375,-0.044708251953125,0.0221324656158685,0.005911152344197,-0.0031462584156543
1768736025994,-0.13873291015625,-0.9843902587890624,-0.043853759765625,0.0284604039043188,0.0156050585210323,-0.0018455706303939
1768736026004,-0.136962890625,-0.985382080078125,-0.041900634765625,0.0338197499513626,0.0114108463749289,-0.0021563614718616
1768736026014,-0.13385009765625,-0.9861602783203124,-0.0391693115234375,0.0390041247010231,0.0104028396308422,-0.0016876452136784
1768736026024,-0.1315460205078125,-0.98553466796875,-0.033782958984375,0.0399828366935253,0.0108441254124045,0.0047697215341031
1768736026034,-0.128265380859375,-0.988006591796875,-0.028839111328125,0.0331965684890747,0.0113946013152599,0.0048890309408307
1768736026044,-0.1284942626953125,-0.99017333984375,-0.025054931640625,0.0297981090843677,0.0067745489068329,0.0061974423006176
1768736026054,-0.129302978515625,-0.9911956787109376,-0.021942138671875,0.0207018163055181,0.005534581374377,0.0034088462125509
1768736026064,-0.1316375732421875,-0.9932861328125,-0.020416259765625,0.0071119717322289,0.0082430159673094,-0.0023731428664177
1768736026074,-0.13739013671875,-0.9960784912109376,-0.0177764892578125,-0.0071692294441163,0.0083657875657081,-0.009557019919157
1768736026084,-0.1412200927734375,-0.99481201171875,-0.0145721435546875,-0.0208964925259351,0.0077282269485294,-0.0143195511773228
1768736026094,-0.1360626220703125,-0.9925689697265624,-0.0203857421875,-0.028080902993679,0.0039609195664525,-0.0137352533638477
1768736026104,-0.1272735595703125,-0.9958648681640624,-0.0260467529296875,-0.0320018753409385,-0.0054919705726206,-0.0054621435701847
1768736026114,-0.1216583251953125,-0.9978790283203124,-0.0273590087890625,-0.0429296232759952,-0.0125157916918396,0.0002311623829882
1768736026124,-0.124847412109375,-0.994781494140625,-0.0305023193359375,-0.0475912205874919,-0.0087657943367958,0.0045111286453902
1768736026134,-0.1300201416015625,-0.9881744384765624,-0.0372161865234375,-0.0410784594714641,-0.0027198863681405,0.0026549051981419
1768736026144,-0.1394195556640625,-0.9851531982421876,-0.0413970947265625,-0.0342370644211769,0.0026674221735447,-0.0036216326989233
1768736026154,-0.1429595947265625,-0.98724365234375,-0.043548583984375,-0.0246986877173185,0.0006689860601909,-0.0103546362370252
1768736026164,-0.138702392578125,-0.989166259765625,-0.0421295166015625,-0.0173100139945745,-0.0031417310237884,-0.0051713259890675
1768736026175,-0.13177490234375,-0.9839019775390624,-0.041748046875,-0.0059487028047442,-0.0029185581952333,-0.0027587686199694
1768736026184,-0.131988525390625,-0.97662353515625,-0.0448455810546875,0.0076246303506195,-0.0026541063562035,-0.0004058657505083
1768736026195,-0.1305694580078125,-0.9778289794921876,-0.044921875,0.01385775860399,0.0038000645581632,6.524744821945205e-05
1768736026205,-0.1321868896484375,-0.98089599609375,-0.0400848388671875,0.0148524492979049,0.0100164152681827,-0.0018338527297601
1768736026215,-0.134002685546875,-0.986236572265625,-0.0349578857421875,0.0136977024376392,0.0099517004564404,-0.007964183576405
1768736026225,-0.1348876953125,-0.9881591796875,-0.0350341796875,0.0092350440099835,0.0067463195882737,-0.0109807457774877
1768736026235,-0.134796142578125,-0.988983154296875,-0.033782958984375,0.0064949174411594,0.0023739417083561,-0.0139190116897225
1768736026245,-0.133697509765625,-0.9905548095703124,-0.0321044921875,0.0012045477051287,0.0033995250705629,-0.0142503082752227
1768736026255,-0.13323974609375,-0.9932708740234376,-0.0299530029296875,-0.0045068673789501,0.0060791978612542,-0.0116476016119122
1768736026265,-0.1319122314453125,-0.9954681396484376,-0.0296173095703125,-0.008257663808763,0.0051907673478126,-0.0092134717851877
1768736026275,-0.1319580078125,-0.99444580078125,-0.0300140380859375,-0.0083628585562109,-0.0007771103992126,-0.0066110310144722
1768736026285,-0.13104248046875,-0.9922027587890624,-0.0315093994140625,-0.0061481734737753,-0.0010301107540726,-0.0028088360559195
1768736026295,-0.1260223388671875,-0.9891357421875,-0.03582763671875,-0.003500991500914,0.0011779161868616,0.0007387608638964
1768736026305,-0.1252593994140625,-0.990386962890625,-0.0371856689453125,0.0015763250412419,-0.0032115059439092,0.0017214673571288
1768736026315,-0.1282806396484375,-0.9893035888671876,-0.037445068359375,0.0044027380645275,-0.0044352286495268,0.0022575615439563
1768736026325,-0.132659912109375,-0.9879608154296876,-0.036895751953125,0.0051681301556527,-0.0011259844759479,0.0015931029338389
1768736026335,-0.1343841552734375,-0.9884490966796876,-0.0368499755859375,0.0017206683987751,0.0005217132274992,0.0001707086194073
1768736026345,-0.1329498291015625,-0.989593505859375,-0.0322265625,-0.0001515338663011,-0.0012167983222752,-0.0004900216590613
1768736026355,-0.1317291259765625,-0.9894561767578124,-0.0295867919921875,-0.0010120011866092,-0.0049164616502821,-2.9827404432580806e-05
1768736026365,-0.1287689208984375,-0.9897308349609376,-0.0293426513671875,-0.0032959282398223,-0.0050299121066927,-0.0034386736806482
1768736026375,-0.129852294921875,-0.9887847900390624,-0.0298614501953125,-0.0069319419562816,-0.0030253508593887,-0.0051241880282759
1768736026385,-0.1363372802734375,-0.984405517578125,-0.029083251953125,-0.0122401546686887,-6.258428766159341e-05,-0.0101612908765673
1768736026395,-0.1390380859375,-0.98583984375,-0.031463623046875,-0.0127341710031032,0.0067071709781885,-0.0149342082440853
1768736026406,-0.139862060546875,-0.9884796142578124,-0.0328369140625,-0.0139464419335126,0.0043891556560993,-0.0176746007055044
1768736026416,-0.142059326171875,-0.9898834228515624,-0.031982421875,-0.016604010015726,-0.0007105313707143,-0.0190091114491224
1768736026426,-0.1364898681640625,-0.9945068359375,-0.031463623046875,-0.0201412215828895,-0.001047421246767,-0.0204248484224081
1768736026436,-0.1315155029296875,-0.9912261962890624,-0.0304718017578125,-0.0233300905674695,0.0018407768802717,-0.0178892519325017
1768736026446,-0.1291656494140625,-0.9828338623046876,-0.034942626953125,-0.0198637191206216,0.0005925533478148,-0.0168311782181262
1768736026456,-0.126251220703125,-0.9855194091796876,-0.0371246337890625,-0.0197079237550497,-0.0082398205995559,-0.0146950567141175
1768736026466,-0.1245880126953125,-0.9914398193359376,-0.03546142578125,-0.0224312730133533,-0.0087615335360169,-0.0104457167908549
1768736026476,-0.123809814453125,-0.991302490234375,-0.033721923828125,-0.0262667573988437,-0.0009097357979044,-0.006385195069015
1768736026486,-0.1290130615234375,-0.9880828857421876,-0.034759521484375,-0.025884062051773,0.0013960290234535,-0.0111740911379456
1768736026496,-0.137725830078125,-0.987335205078125,-0.035003662109375,-0.0282872971147298,0.0041204430162906,-0.0180932506918907
1768736026506,-0.1384124755859375,-0.9849700927734376,-0.0379638671875,-0.0273253638297319,0.0002527339966036,-0.0295477714389562
1768736026516,-0.14044189453125,-0.983123779296875,-0.040435791015625,-0.0187760852277278,-0.0004522047529462,-0.0370570868253707
1768736026526,-0.134765625,-0.994049072265625,-0.0413970947265625,-0.016540627926588,-0.0055910404771566,-0.0343547761440277
1768736026536,-0.12646484375,-0.9996185302734376,-0.0361175537109375,-0.0158428791910409,-0.0016397082945331,-0.0259317327290773
1768736026546,-0.1208038330078125,-0.991424560546875,-0.0367584228515625,-0.0120609235018491,0.0023481091484427,-0.0169648695737123
1768736026556,-0.1173095703125,-0.991241455078125,-0.036407470703125,-0.0086640622466802,-0.001072454964742,-0.0078280959278345
1768736026566,-0.1181182861328125,-0.999786376953125,-0.02899169921875,-0.0194117818027734,0.0062965117394924,-0.0073926686309278
1768736026576,-0.1220550537109375,-1.000732421875,-0.0264892578125,-0.0254238676279783,0.0102206794545054,-0.0105676893144845
1768736026587,-0.126800537109375,-0.98553466796875,-0.033538818359375,-0.0129256518557667,0.0093548856675624,-0.0149741554632782
1768736026596,-0.1300201416015625,-0.977508544921875,-0.0445404052734375,0.0008530105114914,0.0095839174464344,-0.016245549544692
1768736026607,-0.12677001953125,-0.9822540283203124,-0.0449676513671875,0.0056778592988848,0.0015544871566817,-0.0130127379670739
1768736026616,-0.123443603515625,-0.9867401123046876,-0.0400543212890625,0.0037723677232861,-0.002535329433158,-0.0075982650741934
1768736026627,-0.1238861083984375,-0.9876708984375,-0.039337158203125,-0.0020114856306463,0.0036344157997518,-0.0037992654833942
1768736026637,-0.1264495849609375,-0.9847259521484376,-0.0405731201171875,-0.0040874197147786,0.0083423517644405,-0.0007424892974086
1768736026647,-0.1312713623046875,-0.9842529296875,-0.0399017333984375,-0.0054546864703297,0.0070445938035845,-0.0056352489627897
1768736026657,-0.1358795166015625,-0.9880218505859376,-0.0419921875,-0.0088286455720663,0.0079948091879487,-0.0078107849694788
1768736026667,-0.1362457275390625,-0.9899444580078124,-0.0417022705078125,-0.0084566017612814,0.0061766696162521,-0.0136795928701758
1768736026677,-0.13677978515625,-0.9918670654296876,-0.0431365966796875,-0.0072818812914192,0.0061452439986169,-0.0161589961498975
1768736026687,-0.1331329345703125,-0.991424560546875,-0.0410003662109375,-0.0031518512405455,0.002640524180606,-0.0151877412572503
1768736026697,-0.1298980712890625,-0.9907989501953124,-0.0405426025390625,0.0030706247780472,0.0106481164693832,-0.0114420056343078
1768736026708,-0.123687744140625,-0.98699951171875,-0.0421142578125,0.0087053412571549,0.0188575778156518,-0.0046269758604466
1768736026717,-0.1232757568359375,-0.9866180419921876,-0.0371246337890625,0.0183694195002317,0.0193188358098268,-0.0007414240390062
1768736026727,-0.1233062744140625,-0.98797607421875,-0.0353546142578125,0.0226680282503366,0.020723121240735,0.0064824004657566
1768736026737,-0.122100830078125,-0.9856109619140624,-0.03564453125,0.0252488981932401,0.0211388412863016,0.0093008233234286
1768736026747,-0.1219482421875,-0.9864501953125,-0.034332275390625,0.0267583765089511,0.0162064004689455,0.0124097978696227
1768736026757,-0.1214447021484375,-0.9892425537109376,-0.030975341796875,0.0219910517334938,0.0133789218962192,0.0148284807801246
1768736026767,-0.1255950927734375,-0.9935455322265624,-0.0256500244140625,0.0131373731419444,0.0091170659288764,0.0147906634956598
1768736026777,-0.128936767578125,-0.99237060546875,-0.0231475830078125,0.0052964948117733,-0.001620533526875,0.0103160208091139
1768736026787,-0.131622314453125,-0.9918975830078124,-0.0230560302734375,-0.0052360408008098,-0.0038554582279175,0.0027755463961511
1768736026797,-0.1305084228515625,-0.99383544921875,-0.0236053466796875,-0.0154828196391463,-0.0026130937039852,0.0038410772103816
1768736026807,-0.129150390625,-0.993743896484375,-0.019256591796875,-0.0325171984732151,-0.0094696683809161,0.0011843077372759
1768736026818,-0.125946044921875,-0.9989471435546876,-0.0193939208984375,-0.0497768782079219,-0.0070850737392902,0.0019475696608424
1768736026828,-0.1229705810546875,-0.9970703125,-0.021728515625,-0.0635590031743049,0.0028485171496868,0.0091636711731553
1768736026838,-0.1227874755859375,-0.99212646484375,-0.0322723388671875,-0.0566752627491951,0.002951847622171,0.0066866646520793
1768736026848,-0.12969970703125,-0.9840850830078124,-0.0423431396484375,-0.0451368503272533,0.001072454964742,0.0045287054963409
1768736026858,-0.13214111328125,-0.985809326171875,-0.04638671875,-0.035690352320671,0.0005677859298884,0.0037758296821266
1768736026868,-0.12677001953125,-0.9916534423828124,-0.0492706298828125,-0.0257138852030038,0.0025385250337421,0.0083673857152462
1768736026878,-0.124237060546875,-0.987396240234375,-0.0511016845703125,-0.0122635904699563,0.0058008972555398,0.0082496739923954
1768736026888,-0.12957763671875,-0.9811553955078124,-0.0512237548828125,0.002486593555659,0.0090896347537636,0.0061226072721183
1768736026898,-0.1314697265625,-0.979034423828125,-0.0525665283203125,0.0122702484950423,0.0126204537227749,0.0075346152298152
1768736026908,-0.132659912109375,-0.9819183349609376,-0.0467071533203125,0.0167901646345853,0.0120643861591815,0.0045199170708656
1768736026918,-0.13238525390625,-0.9851837158203124,-0.0449371337890625,0.0165414251387119,0.0129632027819752,0.0027766118291765
1768736026928,-0.129180908203125,-0.9857635498046876,-0.04132080078125,0.021306088194251,0.0052584116347134,0.001048486563377
1768736026938,-0.127899169921875,-0.985137939453125,-0.0388336181640625,0.026133332401514,-0.0029830066487193,0.0030072415247559
1768736026948,-0.1242828369140625,-0.9846954345703124,-0.0399932861328125,0.0261639598757028,-0.0024991102982312,0.0068680262193083
1768736026958,-0.1238250732421875,-0.9889068603515624,-0.0339813232421875,0.0215508323162794,-0.0032181637361645,0.0106854010373353
1768736026968,-0.12646484375,-0.994659423828125,-0.0271759033203125,0.0121035343036055,0.0023073628544807,0.01161031704396
1768736026978,-0.13128662109375,-0.9950714111328124,-0.0238800048828125,0.0027145601343363,0.0039239013567566,0.0076893451623618
1768736026988,-0.1335601806640625,-0.9954376220703124,-0.024932861328125,-0.0078448737040162,0.0067977188155055,0.0029675604309886
1768736026998,-0.1346282958984375,-0.9956207275390624,-0.02459716796875,-0.0151192983612418,0.0061052967794239,0.0007760451408103
1768736027009,-0.1330413818359375,-0.99090576171875,-0.0268096923828125,-0.0184157583862543,0.005984921939671,-0.0034439999144524
1768736027018,-0.132110595703125,-0.9911041259765624,-0.02972412109375,-0.0231633763760328,0.005682120565325,-0.0043995422311127
1768736027028,-0.13214111328125,-0.9862823486328124,-0.0336151123046875,-0.0245378334075212,0.0003771035990212,-0.0044610612094402
1768736027038,-0.1320037841796875,-0.9841461181640624,-0.034271240234375,-0.0202815700322389,0.0033960631117224,-0.0055172708816826
1768736027049,-0.129913330078125,-0.9847259521484376,-0.03741455078125,-0.0179917830973863,0.0003872236120514,-0.0060200756415724
1768736027059,-0.1257781982421875,-0.9866943359375,-0.0369415283203125,-0.0132026206701993,-0.0009262474486604,-0.0068179587833583
1768736027069,-0.1248779296875,-0.9873046875,-0.0376129150390625,-0.0096787260845303,-0.0061247376725077,-0.0051015513017773
1768736027079,-0.122711181640625,-0.9859619140625,-0.0381622314453125,-0.0059228702448308,-0.0069455238990485,-0.0036120454315096
1768736027089,-0.125244140625,-0.9859466552734376,-0.0388031005859375,-0.0038994003552943,0.0070171630941331,-0.0018753979820758
1768736027099,-0.131622314453125,-0.985809326171875,-0.03814697265625,-0.0019486349774524,0.0107541102916002,-0.0054626758210361
1768736027109,-0.1382904052734375,-0.9847259521484376,-0.0379486083984375,0.0036988644860684,0.0096041578799486,-0.0044589308090507
1768736027119,-0.13555908203125,-0.9874420166015624,-0.040496826171875,0.0063178171403706,0.0125370966270565,-0.0016897757304832
1768736027129,-0.13177490234375,-0.99298095703125,-0.0390625,0.001146490802057,0.0105338674038648,-0.0021933794487267
1768736027139,-0.13189697265625,-0.9906768798828124,-0.03778076171875,0.0007696535321883,0.0092028193175792,-0.0055750613100826
1768736027149,-0.134979248046875,-0.985076904296875,-0.0404052734375,0.0048458878882229,0.0139850573614239,-0.0097951060160994
1768736027159,-0.1320953369140625,-0.9884490966796876,-0.0430908203125,0.0083684511482715,0.0153571180999279,-0.0065375277772545
1768736027169,-0.126190185546875,-0.991485595703125,-0.040374755859375,0.0068824072368443,0.0103897899389266,-0.0038623826112598
1768736027179,-0.12255859375,-0.990081787109375,-0.0398406982421875,0.0086720511317253,0.00726909795776,0.0021371867042034
1768736027189,-0.121612548828125,-0.98260498046875,-0.0414276123046875,0.0139690786600112,0.0032610406633466,0.0018636800814419
1768736027199,-0.1271514892578125,-0.9810028076171876,-0.041107177734375,0.0138295292854309,-0.0025433187838643,-0.0074706994928419
1768736027209,-0.13427734375,-0.9800567626953124,-0.03533935546875,0.0169587433338165,-0.0120039321482181,-0.0183073673397302
1768736027219,-0.1317138671875,-0.9818572998046876,-0.0339813232421875,0.022269619628787,-0.0135291246697306,-0.0144071690738201
1768736027229,-0.123291015625,-0.996063232421875,-0.03106689453125,0.0153800211846828,-0.01424977555871,-0.0046059372834861
1768736027239,-0.1214447021484375,-1.007171630859375,-0.0196533203125,0.0027047062758356,-0.0063867927528917,-0.0026325348298996
1768736027249,-0.1278228759765625,-0.9976348876953124,-0.0177154541015625,-0.0050203250721096,0.0079612536355853,-0.0044099283404648
1768736027259,-0.1317291259765625,-0.9944915771484376,-0.0208587646484375,-0.0163137260824441,0.0112497247755527,-0.0082414178177714
1768736027269,-0.125579833984375,-0.999053955078125,-0.0179290771484375,-0.0296566952019929,0.0118920793756842,-0.0083434171974658
1768736027280,-0.127593994140625,-0.99383544921875,-0.0247955322265625,-0.0277405511587858,0.0129365716129541,-0.0142391230911016
1768736027290,-0.1326446533203125,-0.9822235107421876,-0.038818359375,-0.0106073701754212,0.0083585977554321,-0.0196951422840356
1768736027300,-0.13348388671875,-0.9774322509765624,-0.0471649169921875,0.0010554107138887,-0.0004492752777878,-0.0231692343950271
1768736027310,-0.128997802734375,-0.98626708984375,-0.0441131591796875,-0.0011456918437033,-0.0036690370179712,-0.0253373142331838
1768736027320,-0.128448486328125,-0.9874725341796876,-0.038726806640625,-0.0056291236542165,-0.0013595437631011,-0.0245191920548677
1768736027330,-0.1286163330078125,-0.9852752685546876,-0.038543701171875,-0.0077788271009922,0.0018082864116877,-0.0212887767702341
1768736027340,-0.1286163330078125,-0.984222412109375,-0.038360595703125,-0.0104531738907098,0.0034202977549284,-0.0201334971934556
1768736027350,-0.126739501953125,-0.9846038818359376,-0.0404510498046875,-0.0073284865356981,-0.0034533210564404,-0.0153427375480532
1768736027360,-0.1226806640625,-0.98907470703125,-0.043426513671875,-0.0020953752100467,-0.0112153701484203,-0.0099210739135742
1768736027370,-0.1249847412109375,-0.9916229248046876,-0.0424346923828125,-0.001945971744135,-0.0111328121274709,-0.0078624505549669
1768736027380,-0.1262054443359375,-0.9911346435546876,-0.042205810546875,0.0026000442449003,-0.0054544201120734,-0.0075095817446708
1768736027390,-0.1291351318359375,-0.992523193359375,-0.040740966796875,0.009023854508996,-0.002255963627249,-0.0104782069101929
1768736027400,-0.1379241943359375,-0.9907073974609376,-0.0381927490234375,0.0131384385749697,0.005583050660789,-0.0151595119386911
1768736027410,-0.1372528076171875,-0.9897003173828124,-0.0383453369140625,0.0134484311565756,0.0138654820621013,-0.0175124146044254
1768736027420,-0.1325836181640625,-0.9882659912109376,-0.0364837646484375,0.0169677976518869,0.0165206529200077,-0.0203329678624868
1768736027430,-0.1271514892578125,-0.9875335693359376,-0.0340423583984375,0.0187662299722433,0.0164226498454809,-0.0180791355669498
1768736027440,-0.11962890625,-0.9880523681640624,-0.035064697265625,0.0191475953906774,0.0165672581642866,-0.011838549748063
1768736027450,-0.113677978515625,-0.98779296875,-0.033233642578125,0.0206413622945547,0.0114324176684021,-0.0038709046784788
1768736027460,-0.113494873046875,-0.9884185791015624,-0.03167724609375,0.0175395794212818,0.0070504527539014,0.0005986785981804
1768736027470,-0.117431640625,-0.99029541015625,-0.0276947021484375,0.0113282883539795,-0.0003150519623886,-0.0002282329078298
1768736027481,-0.122894287109375,-0.99249267578125,-0.024383544921875,-0.003989415243268,-0.0007765777409076,0.0005307680112309
1768736027491,-0.127685546875,-0.9946746826171876,-0.0207061767578125,-0.0179406516253948,0.001096157124266,-0.0015579492319375
1768736027501,-0.1325225830078125,-0.99383544921875,-0.02081298828125,-0.0245317090302705,-0.0031081752385944,-0.006811034400016
1768736027511,-0.1316680908203125,-0.9953460693359376,-0.0240936279296875,-0.0322111994028091,-0.0067585702054202,-0.0073932013474404
1768736027521,-0.123260498046875,-1.001953125,-0.0237884521484375,-0.0474415495991706,-0.0088763162493705,-0.0064677530899643
1768736027531,-0.1236419677734375,-0.99859619140625,-0.025909423828125,-0.0520938262343406,-0.0042464104481041,-0.006255499087274
1768736027541,-0.1250152587890625,-0.9876861572265624,-0.0366363525390625,-0.0406073480844497,-0.0002977414114866,-0.0067034428939223
1768736027551,-0.12548828125,-0.9827728271484376,-0.04425048828125,-0.031479362398386,0.0006897587445564,-0.0089151980355381
1768736027561,-0.1248626708984375,-0.9916229248046876,-0.0440826416015625,-0.0265722218900918,0.0030618363525718,-0.0114989969879388
1768736027571,-0.12335205078125,-0.9919586181640624,-0.0438079833984375,-0.0195792932063341,0.0032168321777135,-0.0099445097148418
1768736027581,-0.12091064453125,-0.9877471923828124,-0.0452423095703125,-0.0079109203070402,0.0050184605643153,-0.0099511677399277
1768736027591,-0.121307373046875,-0.984344482421875,-0.0445404052734375,6.0986389144090936e-05,0.009934389963746,-0.0066224825568497
1768736027601,-0.1204986572265625,-0.982177734375,-0.047210693359375,0.0118547948077321,0.0171432998031377,0.0006562029011547
1768736027611,-0.1176300048828125,-0.9796600341796876,-0.0472869873046875,0.0223652273416519,0.0185036435723304,0.0051478901877999
1768736027621,-0.1225433349609375,-0.9822998046875,-0.04522705078125,0.028783444315195,0.0133786555379629,0.0051422975957393
1768736027631,-0.1266326904296875,-0.984161376953125,-0.0409088134765625,0.0303666945546865,0.0100462427362799,0.0059801279567182
1768736027641,-0.1277923583984375,-0.9857025146484376,-0.0373687744140625,0.0271567851305007,0.0083143888041377,0.001375256339088
1768736027651,-0.1260223388671875,-0.9902496337890624,-0.0330047607421875,0.0239900220185518,0.0045350971631705,0.0055945026688277
1768736027661,-0.124603271484375,-0.992401123046875,-0.02947998046875,0.0197039302438497,0.0025206820573657,0.0075167720206081
1768736027671,-0.1220855712890625,-0.9949493408203124,-0.025634765625,0.0108382664620876,0.0054565505124628,0.0134127447381615
1768736027681,-0.1199493408203125,-0.99517822265625,-0.0268402099609375,0.0062070293352007,0.0063076969236135,0.0167001504451036
1768736027692,-0.1236724853515625,-0.99346923828125,-0.0279388427734375,0.0002585929469205,0.007563377264887,0.0160524696111679
1768736027702,-0.1278228759765625,-0.9923095703125,-0.0273284912109375,-0.0054307179525494,0.0051580104045569,0.0129932966083288
1768736027712,-0.13323974609375,-0.986663818359375,-0.0291748046875,-0.0049425605684518,0.0013763216556981,0.002870355034247
1768736027722,-0.13677978515625,-0.9857635498046876,-0.03009033203125,-0.0068813418038189,0.0040248353034257,-0.0013350426452234
1768736027732,-0.134857177734375,-0.98699951171875,-0.030364990234375,-0.0083870934322476,0.0050277817063033,-0.0051897019147872
1768736027742,-0.132293701171875,-0.9878692626953124,-0.0314483642578125,-0.0085740471258759,0.0039659794420003,-0.0070065106265246
1768736027752,-0.1278076171875,-0.9858245849609376,-0.0337982177734375,-0.0062744072638452,-0.0017523600254207,-0.0043201800435781
1768736027762,-0.1208343505859375,-0.9853363037109376,-0.034454345703125,-0.0062360577285289,-0.0011683288030326,-0.001235706731677
1768736027772,-0.1182403564453125,-0.9878387451171876,-0.0303802490234375,-0.0082137212157249,-0.0022796657867729,-0.0003576625313144
1768736027782,-0.1234893798828125,-0.9905548095703124,-0.031005859375,-0.0101216100156307,-0.0012918994762003,-0.0041646515019237
1768736027792,-0.12969970703125,-0.9883270263671876,-0.030029296875,-0.0093666035681962,0.0074802869930863,-0.0097514307126402
1768736027802,-0.1303863525390625,-0.9877166748046876,-0.0331268310546875,-0.0022980417124927,0.0093732615932822,-0.0115602491423487
1768736027812,-0.1296234130859375,-0.985443115234375,-0.0368194580078125,0.003025617217645,0.0099844569340348,-0.0125464182347059
1768736027822,-0.129638671875,-0.98602294921875,-0.038665771484375,0.0019156117923557,0.007571633439511,-0.0128215225413441
1768736027832,-0.128997802734375,-0.992431640625,-0.0333251953125,-0.0004625910660251,0.0074952007271349,-0.011396731249988
1768736027842,-0.127166748046875,-0.990631103515625,-0.03350830078125,-0.0055721318349242,0.0132255237549543,-0.0127778472378849
1768736027852,-0.125701904296875,-0.985321044921875,-0.036163330078125,-0.0015768576413393,0.0137456394731998,-0.0130225913599133
1768736027862,-0.124298095703125,-0.9865875244140624,-0.0413970947265625,0.0014338459586724,0.0105178887024521,-0.0075639099813997
1768736027872,-0.1187286376953125,-0.9943389892578124,-0.0377349853515625,-0.0007044061203487,0.000398408883484,-0.0001384843781124
1768736027883,-0.1164703369140625,-0.9942169189453124,-0.03680419921875,0.0024133566766977,0.0001283643650822,0.0008306399104185
1768736027892,-0.1201629638671875,-0.9875335693359376,-0.039154052734375,0.0099431779235601,0.005960420705378,0.0005906891310587
1768736027902,-0.1263885498046875,-0.980712890625,-0.04095458984375,0.016578709706664,0.0103634251281619,-0.0105117633938789
1768736027913,-0.1351318359375,-0.9791259765625,-0.0408477783203125,0.0208014193922281,0.0117450729012489,-0.0259559676051139
1768736027923,-0.1388397216796875,-0.981231689453125,-0.039825439453125,0.0293043591082096,0.006966296583414,-0.0322146601974964
1768736027933,-0.1304779052734375,-0.9980316162109376,-0.03558349609375,0.0275852885097265,-0.0040663806721568,-0.028864936903119
1768736027943,-0.1175384521484375,-1.00634765625,-0.02685546875,0.0253692716360092,0.0019004317000508,-0.0208434965461492
1768736027953,-0.1127471923828125,-0.996612548828125,-0.0268096923828125,0.0264377333223819,0.0064890584908425,-0.0107866013422608
1768736027963,-0.1088409423828125,-0.995086669921875,-0.0261993408203125,0.0205247160047292,0.0145682897418737,-8.57537888805382e-05
1768736027973,-0.104583740234375,-0.9960174560546876,-0.0226593017578125,0.0093389069661498,0.021360682323575,0.007847536355257
1768736027983,-0.11273193359375,-0.991943359375,-0.0250396728515625,0.0131775876507163,0.0254622157663106,0.0045827673748135
1768736027993,-0.127838134765625,-0.9834442138671876,-0.0339508056640625,0.0249519553035497,0.0299618933349847,-0.003344397759065
1768736028003,-0.13653564453125,-0.982330322265625,-0.0367279052734375,0.0327395722270011,0.0221580322831869,-0.0111439973115921
1768736028013,-0.1355438232421875,-0.9872283935546876,-0.0346832275390625,0.0293906461447477,0.0098222708329558,-0.0148380678147077
1768736028023,-0.1280517578125,-0.98980712890625,-0.031494140625,0.0241197180002927,0.0052094091661274,-0.0142029039561748
1768736028033,-0.1261138916015625,-0.98779296875,-0.0309600830078125,0.020535634830594,0.0029593044891953,-0.0114633105695247
1768736028043,-0.125823974609375,-0.9834747314453124,-0.0323028564453125,0.0180767383426427,-0.0045992792584002,-0.0121554657816886
1768736028053,-0.12548828125,-0.983978271484375,-0.029052734375,0.0128369685262441,-0.0081285005435347,-0.0131522873416543
1768736028063,-0.120208740234375,-0.98876953125,-0.026947021484375,0.0076062544248998,-0.0119757028296589,-0.013619671575725
1768736028074,-0.1203460693359375,-0.994140625,-0.02471923828125,-0.0013622068800032,-0.0133917052298784,-0.0145528437569737
1768736028083,-0.1249237060546875,-0.997161865234375,-0.0219573974609375,-0.0095034902915358,-0.0111735584214329,-0.0173073504120111
1768736028094,-0.1307830810546875,-0.996612548828125,-0.022918701171875,-0.0153477974236011,-0.0023486416321247,-0.0245151966810226
1768736028103,-0.13494873046875,-0.9945220947265624,-0.025299072265625,-0.016702814027667,0.0079450085759162,-0.0292985010892152
1768736028113,-0.134124755859375,-0.9913787841796876,-0.0266265869140625,-0.0194381456822156,0.0185976531356573,-0.0335776656866073
1768736028124,-0.1289825439453125,-0.98846435546875,-0.0272979736328125,-0.0135981002822518,0.018343586474657,-0.032875657081604
1768736028133,-0.119720458984375,-0.988922119140625,-0.03009033203125,-0.0072848107665777,0.0169265195727348,-0.0237058624625206
1768736028144,-0.1096038818359375,-0.9865570068359376,-0.0323638916015625,-0.001284708851017,0.0163225140422582,-0.0131171336397528
1768736028154,-0.1054840087890625,-0.9869842529296876,-0.0331573486328125,0.0026027073618024,0.0135429734364151,-0.0036413401830941
1768736028164,-0.1041717529296875,-0.988525390625,-0.0332489013671875,0.0062296665273606,-0.0020660804584622,0.0074573834426701
1768736028174,-0.107330322265625,-0.989166259765625,-0.0322265625,0.006899984087795,-0.0080446107313036,0.0140708116814494
1768736028184,-0.1126556396484375,-0.991180419921875,-0.03021240234375,0.0009158611064776,-0.0046722497791051,0.0117085874080657
1768736028194,-0.1214447021484375,-0.994415283203125,-0.024810791015625,-0.0078909462317824,-0.0031747543253004,0.0041622542776167
1768736028204,-0.1316986083984375,-0.997650146484375,-0.021575927734375,-0.017248760908842,0.0036717001348733,-0.0079479375854134
1768736028214,-0.136962890625,-1.00103759765625,-0.0209808349609375,-0.0298495087772607,0.0091612739488482,-0.0178876537829637
1768736028224,-0.134368896484375,-1.0019989013671875,-0.0221099853515625,-0.0438433550298213,0.007579356431961,-0.0191563833504915
1768736028234,-0.122467041015625,-0.9993438720703124,-0.02459716796875,-0.0496005751192569,0.0097005637362599,-0.0139001030474901
1768736028244,-0.1139373779296875,-0.9885711669921876,-0.0354461669921875,-0.0374203436076641,0.0106169581413269,-0.0056807887740433
1768736028254,-0.1108856201171875,-0.9785003662109376,-0.0457916259765625,-0.0168676637113094,0.0054666707292199,0.0015584818320348
1768736028264,-0.1059722900390625,-0.9824371337890624,-0.0506439208984375,-0.0003805657033808,-0.0021254688035696,0.0088867023587226
1768736028274,-0.1076812744140625,-0.989044189453125,-0.0442352294921875,0.0050299121066927,0.0007315703551284,0.0089317094534635
1768736028284,-0.1168060302734375,-0.98956298828125,-0.0391387939453125,0.0122638568282127,0.0082294335588812,0.0071417992003262
1768736028294,-0.1239471435546875,-0.9881439208984376,-0.0360260009765625,0.018743859604001,0.017696438357234,0.0093705989420413
1768736028304,-0.121429443359375,-0.9843597412109376,-0.0365753173828125,0.0275512002408504,0.0270569175481796,0.0128167290240526
1768736028314,-0.120330810546875,-0.981201171875,-0.0385894775390625,0.0365010201930999,0.0244643297046422,0.0155059890821576
1768736028324,-0.12255859375,-0.9840087890625,-0.0350341796875,0.0397751107811927,0.0214131474494934,0.0125733157619833
1768736028334,-0.1237030029296875,-0.9873504638671876,-0.03057861328125,0.0348370745778083,0.0138620194047689,0.0090414322912693
1768736028344,-0.1283111572265625,-0.9917449951171876,-0.0233917236328125,0.0251189358532428,0.0106001803651452,0.0019004317000508
1768736028355,-0.13238525390625,-0.9945220947265624,-0.01971435546875,0.0124990139156579,0.0104691525921225,-0.0030162963084876
1768736028365,-0.1285858154296875,-0.9947052001953124,-0.01824951171875,0.0007898935582488,0.0090547474101185,-0.005903429351747
1768736028375,-0.123016357421875,-0.9968414306640624,-0.015045166015625,-0.0108206896111369,0.0007805725326761,-0.0026804716326296
1768736028385,-0.11962890625,-0.9955291748046876,-0.016326904296875,-0.0184652935713529,-0.0006391586503013,-0.000639957608655
1768736028395,-0.1165008544921875,-0.9913787841796876,-0.02056884765625,-0.0237292982637882,-0.0041635860688984,0.0028815402183681
1768736028405,-0.118988037109375,-0.989715576171875,-0.0203094482421875,-0.0286598745733499,-0.0036623789928853,0.0014825817197561
1768736028415,-0.1234130859375,-0.990570068359375,-0.02178955078125,-0.0326873734593391,0.0001134506601374,-0.0005182511522434
1768736028425,-0.12847900390625,-0.9888763427734376,-0.0257110595703125,-0.0351894125342369,0.0042011365294456,-0.007474161684513
1768736028435,-0.130096435546875,-0.989044189453125,-0.0283355712890625,-0.0376557670533657,0.0021648835390806,-0.0132889077067375
1768736028445,-0.1313018798828125,-0.988311767578125,-0.032135009765625,-0.0336192138493061,0.0005811017472296,-0.0209625400602817
1768736028455,-0.1265106201171875,-0.9856719970703124,-0.03466796875,-0.0301834680140018,0.0007435545558109,-0.0249860435724258
1768736028465,-0.1218719482421875,-0.986419677734375,-0.0399322509765625,-0.023661121726036,-0.002216016408056,-0.0259533040225505
1768736028475,-0.121551513671875,-0.985931396484375,-0.0374755859375,-0.0169108062982559,0.001807753695175,-0.0273381471633911
1768736028485,-0.1189117431640625,-0.9914703369140624,-0.038726806640625,-0.0125695876777172,0.0073109096847474,-0.0266241542994976
1768736028495,-0.1157684326171875,-0.99114990234375,-0.037933349609375,-0.0074584488756954,0.0033348102588206,-0.0225937254726886
1768736028505,-0.1122283935546875,-0.9893341064453124,-0.039276123046875,0.0006356965750455,0.0066307382658123,-0.0148247526958584
1768736028515,-0.1076202392578125,-0.9857177734375,-0.0422210693359375,0.0055396412499248,0.0074571170844137,-0.0059218048118054
1768736028526,-0.1095123291015625,-0.9850006103515624,-0.040283203125,0.0149155659601092,0.0012181298807263,0.0049417614936828
1768736028535,-0.1158905029296875,-0.988189697265625,-0.0391387939453125,0.0189968608319759,0.0052802492864429,0.0063740098848938
1768736028546,-0.1213531494140625,-0.9915313720703124,-0.03643798828125,0.0206046104431152,0.0089535471051931,0.0055225971154868
1768736028555,-0.124664306640625,-0.998260498046875,-0.029449462890625,0.0146548431366682,0.0070387348532676,0.0064784055575728
1768736028566,-0.1237335205078125,-0.9969635009765624,-0.024139404296875,0.0059750680811703,0.010186324827373,0.0042410842142999
1768736028576,-0.1240081787109375,-0.9900970458984376,-0.0259246826171875,-0.0002170476218452,0.0167715232819318,-0.0007315703551284
1768736028586,-0.1233062744140625,-0.987518310546875,-0.027923583984375,-0.0003898867871612,0.0075529911555349,-0.0018394453218206
1768736028596,-0.1177978515625,-0.991455078125,-0.026458740234375,-0.0069934609346091,-0.0044972798787057,0.000179230744834
1768736028606,-0.1146697998046875,-0.9928131103515624,-0.022796630859375,-0.0122481444850564,-0.0021995047573,0.0033894050866365
1768736028616,-0.1207122802734375,-0.9877166748046876,-0.0261077880859375,-0.0189148355275392,0.0015630092239007,-0.0010503507219254
1768736028626,-0.1279754638671875,-0.9851531982421876,-0.024505615234375,-0.0189369395375251,0.0067226174287498,-0.0134841175749897
1768736028636,-0.1309661865234375,-0.983856201171875,-0.0292816162109375,-0.0213713347911834,0.0077929417602717,-0.0221465807408094
1768736028646,-0.130157470703125,-0.98077392578125,-0.033599853515625,-0.0113450661301612,-0.0020756677258759,-0.0272824876010417
1768736028656,-0.1208343505859375,-0.9938201904296876,-0.0335235595703125,-0.0082440814003348,-0.0115655763074755,-0.0175747331231832
1768736028666,-0.1093292236328125,-0.9976348876953124,-0.0296478271484375,-0.0085372952744364,-0.0025662221014499,-0.0049398974515497
1768736028676,-0.109375,-0.991973876953125,-0.0320281982421875,-0.0011414308100938,-0.0019845876377075,-0.0001483380765421
1768736028686,-0.1125946044921875,-0.9921875,-0.0324554443359375,-0.002935602562502,0.0039982036687433,0.0030639667529612
1768736028696,-0.111968994140625,-0.9996185302734376,-0.0243377685546875,-0.0107431914657354,0.0147270141169428,0.0001438106992281
1768736028706,-0.1182708740234375,-0.99761962890625,-0.0235748291015625,-0.0113671701401472,0.0210341792553663,-0.0078768311068415
1768736028716,-0.12677001953125,-0.9867401123046876,-0.0296478271484375,-0.0004322310560382,0.0321816392242908,-0.0143847977742552
1768736028726,-0.126800537109375,-0.9844818115234376,-0.0396881103515625,0.0097977695986628,0.0299634914845228,-0.0141539024189114
1768736028736,-0.1196746826171875,-0.9897613525390624,-0.0382232666015625,0.0086773773655295,0.0167555436491966,-0.007537011988461
1768736028746,-0.10858154296875,-0.9912109375,-0.0362548828125,0.0077703050337731,0.0114918062463402,0.0037164413370192
1768736028756,-0.1053466796875,-0.987213134765625,-0.0361480712890625,0.0058062239550054,0.0085902921855449,0.0128569426015019
1768736028767,-0.1077423095703125,-0.9851226806640624,-0.036468505859375,0.0053154029883444,0.0082941483706235,0.019145730882883
1768736028777,-0.116241455078125,-0.98577880859375,-0.03662109375,0.0061329938471317,0.010498447343707,0.0149467252194881
1768736028787,-0.1221923828125,-0.9880218505859376,-0.03790283203125,0.0079332906752824,0.0094640757888555,0.0118036624044179
1768736028797,-0.1260528564453125,-0.992950439453125,-0.0362701416015625,0.01011947914958,0.0067196879535913,0.0089892335236072
1768736028807,-0.1265716552734375,-0.9955902099609376,-0.0345611572265625,0.0103980461135506,0.0058408449403941,0.0074986624531447
1768736028817,-0.126556396484375,-0.9946746826171876,-0.033599853515625,0.0081697795540094,0.0094550205394625,0.002469282830134
1768736028827,-0.1312713623046875,-0.992034912109375,-0.0305328369140625,0.0057297912426292,0.0093977628275752,-0.0044658547267317
1768736028837,-0.128143310546875,-0.9897003173828124,-0.0285797119140625,0.0066661583259701,0.0109104383736848,-0.0053223273716866
1768736028847,-0.118927001953125,-0.985565185546875,-0.0269775390625,0.0107394633814692,0.0114976651966571,0.0011009507579728
1768736028857,-0.1121368408203125,-0.9837188720703124,-0.0260467529296875,0.0129554793238639,0.0108792791143059,0.0078296931460499
1768736028867,-0.109649658203125,-0.9848785400390624,-0.0246124267578125,0.0122713139280676,0.0113940685987472,0.0097652785480022
1768736028877,-0.1115875244140625,-0.9888458251953124,-0.022674560546875,0.0104068340733647,0.0129722580313682,0.011192999780178
1768736028887,-0.114471435546875,-0.9900665283203124,-0.0180206298828125,-0.0010191916953772,0.0110611729323863,0.0098172109574079
1768736028897,-0.122222900390625,-0.995452880859375,-0.0149993896484375,-0.0147011820226907,0.0117341540753841,0.0003890878288075
1768736028907,-0.1296539306640625,-0.9977874755859376,-0.013763427734375,-0.030944600701332,0.0085455514490604,-0.0117440074682235
1768736028917,-0.13372802734375,-0.9954376220703124,-0.0137176513671875,-0.0396621897816658,0.0064600296318531,-0.0208426974713802
1768736028927,-0.129852294921875,-0.994354248046875,-0.0206298828125,-0.0469507314264774,0.0059287291951477,-0.0254220031201839
1768736028937,-0.1225128173828125,-0.99749755859375,-0.021881103515625,-0.0540549792349338,-0.0005158542771823,-0.0274071227759122
1768736028947,-0.1158294677734375,-1.00115966796875,-0.024688720703125,-0.0670421496033668,-0.0046437541022896,-0.0252523589879274
1768736028957,-0.11065673828125,-0.9979705810546876,-0.026397705078125,-0.0733788758516311,0.0009361011325381,-0.0133477635681629
1768736028967,-0.1090850830078125,-0.9883880615234376,-0.03424072265625,-0.0657744854688644,0.0008892294717952,-0.0062552327290177
1768736028977,-0.1095428466796875,-0.9821014404296876,-0.045562744140625,-0.047785896807909,0.0009800433181226,-0.0032341429032385
1768736028987,-0.1101531982421875,-0.983612060546875,-0.052825927734375,-0.0322583392262458,-0.0060794642195105,0.0024852619972079
1768736028998,-0.112579345703125,-0.9878997802734376,-0.051239013671875,-0.0175654105842113,-0.0086321039125323,0.0028935244772583
1768736029008,-0.113433837890625,-0.98883056640625,-0.05084228515625,-0.0047460193745791,-0.0042783683165907,0.0046818372793495
1768736029018,-0.115936279296875,-0.985687255859375,-0.0499725341796875,0.0125133944675326,0.0027065705507993,0.0071077104657888
1768736029028,-0.120880126953125,-0.9835205078125,-0.0485382080078125,0.0217905156314373,0.0089902989566326,0.0050251185894012
1768736029038,-0.1244354248046875,-0.9858245849609376,-0.04400634765625,0.0307557824999094,0.0136612169444561,0.003753192955628
1768736029048,-0.1215972900390625,-0.987518310546875,-0.0413818359375,0.0332013629376888,0.0144441863521933,0.0037830201908946
1768736029058,-0.1189117431640625,-0.9891357421875,-0.036041259765625,0.0302596352994442,0.0133879771456122,0.004505003336817
1768736029068,-0.120635986328125,-0.990234375,-0.0316314697265625,0.0277847591787576,0.0131701305508613,-0.0002245044743176
1768736029078,-0.119903564453125,-0.99298095703125,-0.029632568359375,0.0228872057050466,0.013040168210864,-0.0015105449128895
1768736029088,-0.1209869384765625,-0.9938201904296876,-0.0283660888671875,0.0160777699202299,0.0105069689452648,-0.0006404902087524
1768736029098,-0.1179046630859375,-0.994415283203125,-0.025634765625,0.0106174908578395,0.0065969163551926,-0.0004386226355563
1768736029108,-0.1187744140625,-0.9946441650390624,-0.0245361328125,0.0096837859600782,0.0047060721553862,0.0001824265345931
1768736029118,-0.1203155517578125,-0.99530029296875,-0.023681640625,0.0041718417778611,0.0078608524054288,-0.0015832493081688
1768736029128,-0.1196136474609375,-0.9927825927734376,-0.02423095703125,0.0009962886106222,0.0078808264806866,-0.0021848573815077
1768736029138,-0.11968994140625,-0.9919891357421876,-0.026092529296875,-0.002445048186928,0.0079689770936965,-0.0041220407001674
1768736029148,-0.121826171875,-0.9898529052734376,-0.0273895263671875,-0.0029955236241221,0.0089420955628156,-0.0095016257837414
1768736029158,-0.1247406005859375,-0.98809814453125,-0.029205322265625,-0.0022727416362613,0.00898630451411,-0.0131672006100416
1768736029168,-0.1238861083984375,-0.9874114990234376,-0.0318603515625,0.000176034940523,0.0056581520475447,-0.0190637055784463
1768736029178,-0.123565673828125,-0.98455810546875,-0.033050537109375,0.0018500980222597,0.0012098740553483,-0.0185414608567953
1768736029188,-0.11676025390625,-0.9862213134765624,-0.0316009521484375,8.76179983606562e-05,0.0052624060772359,-0.0172314513474702
1768736029198,-0.1130828857421875,-0.990875244140625,-0.02880859375,-0.0008551410282962,0.0043326965533196,-0.0135962357744574
1768736029209,-0.1127471923828125,-0.9905853271484376,-0.0276336669921875,0.0004135889175813,0.0009552759001962,-0.0117096528410911
1768736029219,-0.1127471923828125,-0.98797607421875,-0.031707763671875,0.0056855827569961,-0.000776844099164,-0.0074784224852919
1768736029229,-0.1126251220703125,-0.9861907958984376,-0.033538818359375,0.0088422270491719,0.0026519757229834,-0.0040546627715229
1768736029239,-0.1172027587890625,-0.98944091796875,-0.034576416015625,0.0122494753450155,0.0044565335847437,-0.0050557451322674
1768736029249,-0.1255035400390625,-0.9927520751953124,-0.0334930419921875,0.0144053045660257,0.0100710103288292,-0.0084121264517307
1768736029259,-0.1280517578125,-0.99462890625,-0.032440185546875,0.0117802266031503,0.0107482513412833,-0.0118028633296489
1768736029269,-0.124237060546875,-0.9975738525390624,-0.0301055908203125,0.0060246028006076,0.0097975032404065,-0.0109368031844496
1768736029279,-0.1178131103515625,-0.9945831298828124,-0.0274200439453125,0.0040253680199384,0.0066895941272377,-0.0094829834997653
1768736029289,-0.1147918701171875,-0.98565673828125,-0.0309600830078125,0.0100662158802151,0.010717892087996,-0.0062360577285289
1768736029299,-0.110382080078125,-0.98297119140625,-0.03668212890625,0.0132654719054698,0.0033289513085037,0.0019534286111593
1768736029309,-0.1071319580078125,-0.9906005859375,-0.032257080078125,0.0109530491754412,-0.0043603936210274,0.005723665934056
1768736029319,-0.11041259765625,-0.9947357177734376,-0.0279998779296875,0.0054632085375487,-0.0019694075454026,0.005666141398251
1768736029329,-0.120361328125,-0.990142822265625,-0.0287017822265625,0.0074089141562581,0.0031196267809718,0.0006926882197149
1768736029339,-0.127471923828125,-0.9854736328125,-0.0320281982421875,0.0078153125941753,0.0088097369298338,-0.0088510159403085
1768736029349,-0.1296844482421875,-0.9837646484375,-0.0333709716796875,0.0128532145172357,0.0101703461259603,-0.0236472729593515
1768736029359,-0.130096435546875,-0.984344482421875,-0.036773681640625,0.0226296782493591,0.0051196608692407,-0.0314745679497718
1768736029369,-0.120269775390625,-0.99273681640625,-0.0370025634765625,0.0295770671218633,-0.0052200620993971,-0.0261335987597703
1768736029380,-0.107208251953125,-1.0009002685546875,-0.0296478271484375,0.0271855480968952,-0.001422660658136,-0.0150868073105812
1768736029389,-0.10882568359375,-0.992431640625,-0.0283203125,0.0292529594153165,0.0054253917187452,-0.0113338809460401
1768736029399,-0.1127777099609375,-0.9912261962890624,-0.0287017822265625,0.0323089361190795,0.0098470384255051,-0.0101186800748109
1768736029409,-0.1081695556640625,-0.996795654296875,-0.02410888671875,0.0268060471862554,0.0086552733555436,-0.0099469069391489
1768736029420,-0.1078948974609375,-0.9989471435546876,-0.020721435546875,0.0206477548927068,0.0096550239250063,-0.0131501564756035
1768736029430,-0.115509033203125,-0.989715576171875,-0.0210113525390625,0.0260933861136436,0.0153872119262814,-0.0171659365296363
1768736029440,-0.1210174560546875,-0.98358154296875,-0.0271148681640625,0.0310431364923715,0.0158900171518325,-0.0216437764465808
1768736029450,-0.1163330078125,-0.9895782470703124,-0.0252532958984375,0.02754214592278,0.0076890788041055,-0.0140558974817395
1768736029460,-0.111480712890625,-0.9937591552734376,-0.021209716796875,0.0192977972328662,0.0076544573530554,-0.0065140919759869
1768736029470,-0.109130859375,-0.991302490234375,-0.0214385986328125,0.0119599904865026,0.0105394599959254,0.0007629956235177
1768736029480,-0.114715576171875,-0.990325927734375,-0.020477294921875,0.0069423280656337,0.0110348081216216,-0.0007406250806525
1768736029490,-0.1222076416015625,-0.98858642578125,-0.0226898193359375,0.0013198626693338,0.0104244109243154,-0.0034495925065129
1768736029500,-0.1207275390625,-0.989959716796875,-0.0255889892578125,0.0001286306796828,0.0103253414854407,-0.0033883398864418
1768736029510,-0.11798095703125,-0.9915924072265624,-0.03106689453125,0.0050594732165336,0.0158351548016071,-0.0037792918737977
1768736029520,-0.1215667724609375,-0.98834228515625,-0.0364227294921875,0.0158149152994155,0.0176730025559663,-0.008127168752253
1768736029530,-0.119384765625,-0.9891204833984376,-0.0365142822265625,0.0253466349095106,0.0152913378551602,-0.0067519121803343
1768736029540,-0.1075439453125,-0.9944610595703124,-0.0343780517578125,0.0283602681010961,0.0144119625911116,-0.0011390339350327
1768736029550,-0.10980224609375,-0.990386962890625,-0.032958984375,0.0371162109076976,0.0174580868333578,0.0024810009635984
1768736029560,-0.1190643310546875,-0.987884521484375,-0.0317840576171875,0.0434595942497253,0.0275189764797687,-0.0017883126856759
1768736029570,-0.121856689453125,-0.987152099609375,-0.02911376953125,0.0480357035994529,0.0331547558307647,0.0010250506456941
1768736029580,-0.1190032958984375,-0.9896697998046876,-0.025482177734375,0.0494370572268962,0.0354192443192005,0.0020945761352777
1768736029590,-0.1170806884765625,-0.9884185791015624,-0.0245361328125,0.0543388724327087,0.033385120332241,0.0042059300467371
1768736029600,-0.1143798828125,-0.9882965087890624,-0.023468017578125,0.0597000829875469,0.0243652611970901,0.005019792355597
1768736029610,-0.1079559326171875,-0.9914398193359376,-0.02093505859375,0.0561527498066425,0.0164567381143569,0.008224906399846
1768736029620,-0.108612060546875,-0.9942169189453124,-0.0142822265625,0.0434699803590774,0.0165819060057401,0.0086358319967985
1768736029631,-0.1111907958984375,-0.9975433349609376,-0.0093994140625,0.0291083510965108,0.0125251123681664,0.006271744146943
1768736029641,-0.11346435546875,-0.995513916015625,-0.0059967041015625,0.0156540609896183,0.0127229858189821,0.0068360683508217
1768736029651,-0.1115264892578125,-0.99700927734375,-0.0044097900390625,0.0004450142150744,0.0077894800342619,0.0104286726564168
1768736029661,-0.111053466796875,-1.0037841796875,-0.002044677734375,-0.0227487217634916,0.0030320088844746,0.0104212155565619
1768736029671,-0.114990234375,-1.001983642578125,0.001739501953125,-0.0424172319471836,0.0071633704937994,0.006581203546375
1768736029681,-0.120147705078125,-0.9969940185546876,-0.004119873046875,-0.0495880581438541,0.00529809249565,0.0043199136853218
1768736029691,-0.1231231689453125,-0.9897003173828124,-0.013458251953125,-0.0464705638587474,0.008004130795598,-0.0027691549621522
1768736029701,-0.123931884765625,-0.9885406494140624,-0.0206146240234375,-0.0440119318664073,0.0010088054696097,-0.0048104678280651
1768736029711,-0.117919921875,-0.9910888671875,-0.0205841064453125,-0.0423722229897975,-0.0055316518992185,0.0019891150295734
1768736029721,-0.1119384765625,-0.98681640625,-0.0234222412109375,-0.0387071818113327,-0.0091263866052031,0.0048243161290884
1768736029731,-0.1107025146484375,-0.9815673828125,-0.02655029296875,-0.0302905272692441,-0.0057300571352243,0.0103402556851506
1768736029741,-0.113677978515625,-0.9814605712890624,-0.028045654296875,-0.0245572738349437,-0.0061220745556056,0.0100827282294631
1768736029751,-0.11883544921875,-0.9835357666015624,-0.02630615234375,-0.0220901221036911,0.001324922661297,0.009532518684864
1768736029761,-0.120635986328125,-0.987274169921875,-0.0240325927734375,-0.0269008558243513,0.0016106797847896,0.004455734975636
1768736029771,-0.123504638671875,-0.99041748046875,-0.0207061767578125,-0.0294694751501083,-0.0032162996940314,-0.0025132251903414
1768736029781,-0.1262054443359375,-0.991485595703125,-0.021759033203125,-0.0357830300927162,0.0005613943794742,-0.0116590531542897
1768736029791,-0.1259613037109375,-0.9936065673828124,-0.0188751220703125,-0.041037980467081,0.0019507654942572,-0.0146156940609216
1768736029801,-0.1248321533203125,-0.9926605224609376,-0.021484375,-0.04272136464715,0.0025824673939496,-0.0188229568302631
1768736029811,-0.120208740234375,-0.9944305419921876,-0.0236358642578125,-0.0428966023027896,0.0002231729013146,-0.0190378725528717
1768736029821,-0.1149749755859375,-0.9939117431640624,-0.0257568359375,-0.0414531677961349,0.0008700547041371,-0.0116886142641305
1768736029832,-0.107574462890625,-0.993194580078125,-0.0278167724609375,-0.0396552681922912,-0.0001251685753231,-0.0051524178124964
1768736029842,-0.105377197265625,-0.99285888671875,-0.02777099609375,-0.0345899350941181,-0.0045729139819741,0.00224957219325
1768736029852,-0.1068115234375,-0.9901580810546876,-0.0303955078125,-0.029765086248517,-0.0026272083632647,0.0076565882191061
1768736029862,-0.1093292236328125,-0.9881744384765624,-0.0313720703125,-0.0265218876302242,0.002755040070042,0.00856738910079
1768736029872,-0.114837646484375,-0.9902496337890624,-0.03143310546875,-0.019915385171771,0.0062597598880529,0.0057929079048335
1768736029882,-0.1195220947265625,-0.99212646484375,-0.0324249267578125,-0.0118862204253673,0.008422247134149,0.0044496096670627
1768736029892,-0.1200714111328125,-0.9895782470703124,-0.0352935791015625,-0.0045438855886459,0.0072637717239558,0.0044687842018902
1768736029902,-0.1189117431640625,-0.988189697265625,-0.038238525390625,0.0025587652344256,0.0117312241345644,0.001267664716579
1768736029912,-0.1132659912109375,-0.9882354736328124,-0.0380401611328125,0.0078390147536993,0.0127717219293117,0.0027923244051635
1768736029922,-0.107666015625,-0.9898834228515624,-0.0348968505859375,0.0174263939261436,0.008820123039186,0.0105288075283169
1768736029932,-0.1036376953125,-0.9878997802734376,-0.0328216552734375,0.0218895860016345,0.0144473826512694,0.0163837671279907
1768736029942,-0.1056060791015625,-0.988922119140625,-0.030029296875,0.0251032225787639,0.0200117919594049,0.0224291421473026
1768736029952,-0.1124420166015625,-0.9896392822265624,-0.028350830078125,0.0287163332104682,0.0194764956831932,0.0244123991578817
1768736029962,-0.116912841796875,-0.9910125732421876,-0.027740478515625,0.0301911924034357,0.0198773015290498,0.0234826896339654
1768736029972,-0.120513916015625,-0.9888763427734376,-0.0262603759765625,0.0274595879018306,0.0173893757164478,0.0207217894494533
1768736029982,-0.1246337890625,-0.990478515625,-0.025054931640625,0.0234145112335681,0.012050537392497,0.0188692957162857
1768736029992,-0.1294097900390625,-0.9918365478515624,-0.0220184326171875,0.0162815023213624,0.0024019049014896,0.0137975709512829
1768736030002,-0.125823974609375,-0.99749755859375,-0.0146484375,0.0036274916492402,-0.0018016285030171,0.0065702847205102
1768736030012,-0.1223907470703125,-0.9939422607421876,-0.01190185546875,-0.0084246434271335,0.0032285500783473,0.000271109805908
1768736030022,-0.1246337890625,-0.9861602783203124,-0.0139923095703125,-0.0094441017135977,0.0059423111379146,-0.0012183962389826
1768736030032,-0.118011474609375,-0.9878387451171876,-0.0197906494140625,-0.0096246637403965,-0.0010673949727788,0.0021172130946069
1768736030042,-0.1101837158203125,-0.991790771484375,-0.01971435546875,-0.0146196894347667,-0.0054245926439762,0.0058091534301638
1768736030052,-0.1139373779296875,-0.9931793212890624,-0.0187835693359375,-0.0185587704181671,-0.0042006038129329,0.0032850091811269
1768736030063,-0.123992919921875,-0.98712158203125,-0.0230712890625,-0.0196695756167173,0.0001920139184221,-0.0061590927653014
1768736030073,-0.133636474609375,-0.9838104248046876,-0.026702880859375,-0.0179885886609554,0.00542086455971,-0.0242683216929435
1768736030083,-0.1381072998046875,-0.981964111328125,-0.028778076171875,-0.0148130347952246,0.0137901147827506,-0.0400835052132606
1768736030093,-0.1331329345703125,-0.9871063232421876,-0.0302734375,-0.0077705713920295,0.0093764578923583,-0.0433709099888801
1768736030103,-0.115478515625,-0.998260498046875,-0.0308685302734375,-0.0030748858116567,0.004668787587434,-0.0351044572889804
1768736030113,-0.10382080078125,-0.9950103759765624,-0.0279541015625,0.001930525409989,0.0061199441552162,-0.0194133780896663
1768736030123,-0.100494384765625,-0.9900360107421876,-0.0299530029296875,0.0153904082253575,0.0023736753500998,-0.0041718417778611
1768736030133,-0.0958099365234375,-0.9937591552734376,-0.0291290283203125,0.0166162606328725,-0.0001427454262739,0.0102491751313209
1768736030143,-0.094268798828125,-1.001251220703125,-0.02197265625,0.0103154880926013,0.0029212213121354,0.0190067142248153
1768736030153,-0.105621337890625,-0.9951629638671876,-0.021026611328125,0.0138036962598562,0.0152087798342108,0.0153001267462968
1768736030163,-0.1210174560546875,-0.9853057861328124,-0.0263519287109375,0.0219982434064149,0.0179718099534511,0.0113610448315739
1768736030173,-0.1236114501953125,-0.9871368408203124,-0.0289306640625,0.0243151932954788,0.0092787193134427,0.0074525899253785
1768736030183,-0.1227569580078125,-0.9932708740234376,-0.0222930908203125,0.0140090258792042,0.0066512445919215,0.0060930461622774
1768736030193,-0.120025634765625,-0.9953155517578124,-0.020904541015625,0.0085391597822308,0.0088635329157114,0.0039292280562222
1768736030203,-0.1204833984375,-0.992218017578125,-0.022735595703125,0.0038437403272837,0.0067268786951899,0.0022618228103965
1768736030213,-0.1206512451171875,-0.9899749755859376,-0.0251312255859375,0.0003107908996753,0.0098805939778685,-9.480853623244911e-05
1768736030223,-0.1204681396484375,-0.98834228515625,-0.0268402099609375,0.0016482303617522,0.0095626125112175,-0.001709749456495
1768736030233,-0.1187744140625,-0.987396240234375,-0.0317840576171875,0.0099120195955038,0.0079335570335388,-0.0029113676864653
1768736030243,-0.1153411865234375,-0.9887237548828124,-0.0357666015625,0.0201454814523458,0.0058624162338674,-0.0001344896299997
1768736030253,-0.116424560546875,-0.9898223876953124,-0.037261962890625,0.0279765073210001,0.005527923349291,-0.0001315601548412
1768736030263,-0.120086669921875,-0.989166259765625,-0.035186767578125,0.0382389985024929,0.0093692671507596,-0.001580053474754
1768736030273,-0.1199493408203125,-0.987060546875,-0.0324554443359375,0.0490479692816734,0.0117828901857137,-0.0012349077733233
1768736030284,-0.119720458984375,-0.984619140625,-0.030609130859375,0.057005763053894,0.0126667926087975,-0.0018394453218206
1768736030294,-0.1174468994140625,-0.983642578125,-0.0277099609375,0.0663984641432762,0.0139885200187563,0.0001025317033054
1768736030304,-0.11376953125,-0.9873046875,-0.0222625732421875,0.0660898014903068,0.0165448877960443,0.0033422671258449
1768736030314,-0.1100616455078125,-0.990264892578125,-0.016998291015625,0.0624404735863208,0.0217601563781499,0.0078387483954429
1768736030324,-0.1098175048828125,-0.990509033203125,-0.0109405517578125,0.0523468293249607,0.0184352006763219,0.0104297380894422
1768736030334,-0.1119232177734375,-0.9954833984375,-0.005584716796875,0.0406385064125061,0.010644388385117,0.0101703461259603
1768736030344,-0.113922119140625,-0.9962005615234376,-0.0019073486328125,0.0277237724512815,0.0035942022223025,0.0110103068873286
1768736030354,-0.1130523681640625,-0.9969329833984376,-0.0014495849609375,0.0154053214937448,-0.0007062703371047,0.0088257156312465
1768736030364,-0.117889404296875,-0.99749755859375,-0.001190185546875,0.001146490802057,-0.0004953479510731,0.0040610544383525
1768736030374,-0.1247406005859375,-1.00006103515625,-0.000152587890625,-0.0148641671985387,-0.0050980891101062,-0.0009238505735993
1768736030384,-0.12408447265625,-1.0047454833984375,0.002410888671875,-0.0370853170752525,-0.0018024274613708,-0.0056887785904109
1768736030394,-0.1187286376953125,-1.0046539306640625,0.0004730224609375,-0.0575969852507114,0.0076464680023491,-0.0058906460180878
1768736030404,-0.12060546875,-0.9934844970703124,-0.0077667236328125,-0.0611208789050579,0.0078776301816105,-0.008274707943201
1768736030414,-0.121124267578125,-0.9860687255859376,-0.0172882080078125,-0.0547516606748104,0.0044176517985761,-0.0121053988113999
1768736030424,-0.1190032958984375,-0.9856719970703124,-0.0272216796875,-0.0462929308414459,-0.0004396878939587,-0.0112848784774541
1768736030434,-0.1151885986328125,-0.986297607421875,-0.0283966064453125,-0.0396725796163082,-0.0036549223586916,-0.0066168899647891
1768736030444,-0.1133270263671875,-0.98797607421875,-0.03057861328125,-0.0256976392120122,-0.0052299154922366,-0.0020793962758034
1768736030454,-0.1126556396484375,-0.9836578369140624,-0.0326995849609375,-0.0125770447775721,-0.0039667785167694,0.0055758603848516
1768736030465,-0.1140594482421875,-0.9803466796875,-0.03387451171875,0.0013928331900388,0.0016215987270697,0.0069122347049415
1768736030474,-0.1162109375,-0.9808197021484376,-0.0337371826171875,0.0127104688435792,0.0071796160191297,0.005543902516365
1768736030484,-0.1188507080078125,-0.984588623046875,-0.0314483642578125,0.0203849002718925,0.0050669303163886,0.0029957899823784
1768736030495,-0.119049072265625,-0.9859161376953124,-0.028167724609375,0.0221005082130432,0.0031835427507758,-9.933590627042577e-05
1768736030505,-0.1187286376953125,-0.989990234375,-0.0245361328125,0.0240472797304391,0.001145159243606,-0.0016197345685213
1768736030515,-0.1165771484375,-0.9928131103515624,-0.021728515625,0.0207841079682111,0.0014575480017811,-0.0030597057193517
1768736030525,-0.118438720703125,-0.9940032958984376,-0.019134521484375,0.0178162809461355,0.0016604809788987,-0.004554271697998
1768736030535,-0.117034912109375,-0.99652099609375,-0.016693115234375,0.011901400052011,0.0051556136459112,-0.0022839268203824
1768736030545,-0.11334228515625,-0.99871826171875,-0.0151214599609375,0.0050227218307554,0.0121203120797872,-0.0003107908996753
1768736030555,-0.113433837890625,-1.0004119873046875,-0.014129638671875,0.0018394453218206,0.015156315639615,0.0008178567513823
1768736030565,-0.1174468994140625,-0.9971466064453124,-0.0148162841796875,0.0003579288604669,0.0158812291920185,-0.000406664708862
1768736030575,-0.11517333984375,-0.9926300048828124,-0.0200653076171875,0.0034892736002802,0.016516126692295,0.0047215181402862
1768736030585,-0.1126251220703125,-0.9884033203125,-0.0233154296875,0.0065878615714609,0.0164018757641315,0.0100169479846954
1768736030595,-0.1130218505859375,-0.9890594482421876,-0.024139404296875,0.0097365165129303,0.0123416213318705,0.0113357454538345
1768736030605,-0.1166534423828125,-0.9873809814453124,-0.0238037109375,0.0145254135131835,0.0050951596349477,0.0099873868748545
1768736030615,-0.1190643310546875,-0.9884185791015624,-0.0215911865234375,0.0158764347434043,0.0015347796725109,0.0082206455990672
1768736030625,-0.1186676025390625,-0.98675537109375,-0.0194091796875,0.0183172225952148,0.0001520664955023,0.0060224724002182
1768736030635,-0.117401123046875,-0.9887847900390624,-0.0169677734375,0.0154894776642322,-0.00542858755216,0.0032807481475174
1768736030645,-0.1191253662109375,-0.9917144775390624,-0.010986328125,0.0093618100509047,-0.0094989631325006,0.0003296993381809
1768736030655,-0.119476318359375,-0.9912872314453124,-0.011566162109375,0.0039915456436574,-0.0056882458738982,-0.0003962783666793
1768736030665,-0.1227569580078125,-0.9893341064453124,-0.008544921875,-0.0029270802624523,0.0012002866715192,-0.0042858249507844
1768736030675,-0.126251220703125,-0.9890594482421876,-0.00933837890625,-0.0095530254766345,-0.0019587550777941,-0.0073532541282474
1768736030685,-0.1267547607421875,-0.98809814453125,-0.011566162109375,-0.0132654719054698,0.0008034756756387,-0.0107000488787889
1768736030695,-0.1262969970703125,-0.9886627197265624,-0.0124664306640625,-0.0170205291360616,-0.0001834917929954,-0.0152908051386475
1768736030706,-0.12188720703125,-0.9956207275390624,-0.013580322265625,-0.0240139905363321,-0.0071852086111903,-0.0157387498766183
1768736030716,-0.1187744140625,-0.9967803955078124,-0.0118255615234375,-0.0354085899889469,-0.0028626318089663,-0.0183518435806036
1768736030726,-0.12109375,-0.989532470703125,-0.012054443359375,-0.0374491028487682,0.0004689826746471,-0.0198605228215456
1768736030736,-0.121795654296875,-0.988128662109375,-0.0184783935546875,-0.0355974100530147,0.001023452845402,-0.0210791863501071
1768736030746,-0.1153564453125,-0.9914398193359376,-0.0205535888671875,-0.0367215275764465,-0.0039286953397095,-0.0170551501214504
1768736030756,-0.110443115234375,-0.99285888671875,-0.02349853515625,-0.032251413911581,-0.0049526807852089,-0.0090483557432889
1768736030766,-0.10992431640625,-0.987396240234375,-0.028289794921875,-0.0234914775937795,-0.0016559535870328,-0.0048996838741004
1768736030776,-0.1123046875,-0.98638916015625,-0.0321502685546875,-0.0133634759113192,4.394215648062527e-05,-0.006950850598514
1768736030786,-0.1170501708984375,-0.9845733642578124,-0.03204345703125,-0.0053329798392951,0.0023515713401138,-0.0122100608423352
1768736030796,-0.11883544921875,-0.9856414794921876,-0.0331268310546875,0.0054757255129516,0.0003259709046687,-0.0172825846821069
1768736030806,-0.115386962890625,-0.9932403564453124,-0.0311737060546875,0.0161166526377201,-0.0144724166020751,-0.0105586349964141
1768736030816,-0.1085052490234375,-1.0000152587890625,-0.0229339599609375,0.0145094338804483,-0.0111943315714597,-0.002280997345224
1768736030827,-0.1062774658203125,-0.9979400634765624,-0.0187225341796875,0.012794891372323,-0.005585447885096,0.0073101106099784
1768736030836,-0.1071624755859375,-0.994873046875,-0.01702880859375,0.0103224124759435,-0.0055377772077918,0.0107003152370452
1768736030846,-0.1064910888671875,-1.000823974609375,-0.01171875,-0.0004980111261829,-0.0051002199761569,0.0108933942392468
1768736030856,-0.1105194091796875,-1.000823974609375,-0.0066986083984375,-0.0074161044321954,0.0015009575290605,0.00706536648795
1768736030866,-0.1152496337890625,-0.99139404296875,-0.0097503662109375,-0.0054474961943924,0.0073340791277587,0.000327036192175
1768736030876,-0.1226348876953125,-0.984527587890625,-0.0164031982421875,-0.0020495688077062,0.0056685381568968,-0.0044781053438782
1768736030886,-0.12139892578125,-0.990234375,-0.014129638671875,-0.0070283482782542,-0.001211738330312,-0.0036429380998015
1768736030896,-0.1151275634765625,-0.992156982421875,-0.0114593505859375,-0.0206634663045406,-0.0052421661093831,-0.002011751756072
1768736030906,-0.1149444580078125,-0.98944091796875,-0.014495849609375,-0.0241024065762758,-0.008420648984611,0.0009757822263054
1768736030916,-0.117767333984375,-0.9864349365234376,-0.018951416015625,-0.0236520655453205,-0.0071404674090445,0.0028495823498815
1768736030927,-0.1171722412109375,-0.983612060546875,-0.024444580078125,-0.0205486845225095,-0.0121357589960098,0.0036509274505078
1768736030936,-0.11669921875,-0.9862213134765624,-0.0264739990234375,-0.0198594592511653,-0.0149645684286952,0.0006370281334966
1768736030947,-0.1181793212890625,-0.9904632568359376,-0.0289764404296875,-0.0163438189774751,-0.0161864273250103,0.0012359730899333
1768736030957,-0.12213134765625,-0.9936676025390624,-0.029205322265625,-0.0118188429623842,-0.015125423669815,-0.0050261840224266
1768736030967,-0.123748779296875,-0.995361328125,-0.0274200439453125,-0.0072576464153826,-0.0122105935588479,-0.0069511164911091
1768736030977,-0.1236419677734375,-0.9925079345703124,-0.0269317626953125,0.0019267969764769,-0.0079189091920852,-0.0103144226595759
1768736030987,-0.12109375,-0.9884033203125,-0.028564453125,0.0107969874516129,0.0008082693675532,-0.0092403702437877
1768736030997,-0.1150665283203125,-0.988525390625,-0.0265655517578125,0.0225806757807731,0.0055180699564516,-0.0012069445801898
1768736031007,-0.1089935302734375,-0.986480712890625,-0.027313232421875,0.0289381742477417,0.0114987306296825,0.0092520881444215
1768736031017,-0.104888916015625,-0.9875030517578124,-0.0248565673828125,0.0360296405851841,0.0076781595125794,0.0191334802657365
1768736031027,-0.1033782958984375,-0.9879150390625,-0.0204315185546875,0.0344024486839771,0.0048786448314785,0.0264976546168327
1768736031037,-0.107086181640625,-0.99176025390625,-0.015380859375,0.0307110399007797,0.0010186590952798,0.0281781088560819
1768736031047,-0.112579345703125,-0.9945220947265624,-0.0098876953125,0.023691214621067,-0.0030716899782419,0.0285504180938005
1768736031057,-0.12005615234375,-0.99664306640625,-0.0058746337890625,0.0087924264371395,-0.0022876553703099,0.0228733569383621
1768736031067,-0.12298583984375,-0.9979095458984376,-0.003204345703125,-0.0054725296795368,-0.0018961706664413,0.0143445841968059
1768736031077,-0.1251373291015625,-0.99835205078125,-0.00054931640625,-0.0194306895136833,-0.0086776437237858,0.0053875748999416
1768736031087,-0.124603271484375,-1.001434326171875,-0.0012969970703125,-0.0365755893290042,-0.018877550959587,0.0019771307706832
1768736031097,-0.1181182861328125,-1.0047454833984375,-0.000396728515625,-0.0589426793158054,-0.0178106892853975,0.0027158916927874
1768736031107,-0.11456298828125,-0.997589111328125,-0.0048828125,-0.0644642114639282,-0.0139499036595225,0.0061431135982275
1768736031117,-0.1170196533203125,-0.9898834228515624,-0.01617431640625,-0.0600838437676429,-0.0127568077296018,0.004980111028999
1768736031128,-0.120025634765625,-0.9876556396484376,-0.02490234375,-0.0545372776687145,-0.0106963198632001,-0.0002218413137597
1768736031137,-0.11822509765625,-0.990997314453125,-0.026702880859375,-0.048584047704935,-0.0158910825848579,0.0006325007416307
1768736031148,-0.119140625,-0.9904022216796876,-0.028564453125,-0.0385279506444931,-0.0136550916358828,0.0006170544074848
1768736031158,-0.116790771484375,-0.98492431640625,-0.0330047607421875,-0.0240603294223546,-0.0077050575055181,0.0070200925692915
1768736031168,-0.110992431640625,-0.98199462890625,-0.036376953125,-0.0043793022632598,8.096009696600959e-05,0.0153403403237462
1768736031178,-0.1128692626953125,-0.9796905517578124,-0.0367584228515625,0.0090853739529848,0.001479918602854,0.0172463655471801
1768736031188,-0.1164703369140625,-0.9814910888671876,-0.0348968505859375,0.019519105553627,0.0023632892407476,0.016603210940957
1768736031198,-0.1167449951171875,-0.985321044921875,-0.0303802490234375,0.0227662995457649,0.0015795208746567,0.0188224241137504
1768736031208,-0.114410400390625,-0.986907958984375,-0.02569580078125,0.0278308317065238,0.0016002934426069,0.0198163148015737
1768736031218,-0.11376953125,-0.9878692626953124,-0.027130126953125,0.0330327861011028,-0.0010093380697071,0.0222038384526968
1768736031228,-0.119232177734375,-0.9905853271484376,-0.0224609375,0.0335169471800327,0.0010010822443291,0.0224776118993759
1768736031238,-0.1229095458984375,-0.9959259033203124,-0.017425537109375,0.0269754249602556,0.0017185378819704,0.0213034246116876
1768736031248,-0.1251373291015625,-0.9987945556640624,-0.012420654296875,0.0178149491548538,-0.0001185106666525,0.0173608809709548
1768736031258,-0.126861572265625,-0.9973907470703124,-0.01019287109375,0.0084989462047815,0.0043966127559542,0.0125839682295918
1768736031268,-0.123870849609375,-0.99835205078125,-0.01031494140625,-0.0001206411980092,0.006115416996181,0.0128116691485047
1768736031278,-0.1184539794921875,-0.9944000244140624,-0.0104217529296875,-0.0055058193393051,0.003654389642179,0.0143690854310989
1768736031288,-0.11651611328125,-0.99005126953125,-0.012908935546875,-0.0079846894368529,-0.0008471515611745,0.0151853440329432
1768736031298,-0.11822509765625,-0.988861083984375,-0.0162200927734375,-0.0095759285613894,-0.0036298886407166,0.0136633478105068
1768736031308,-0.1203765869140625,-0.9857177734375,-0.0177764892578125,-0.0073069152422249,-0.0095141427591443,0.0123248435556888
1768736031318,-0.1238250732421875,-0.9868011474609376,-0.018218994140625,-0.009949835948646,-0.00626215711236,0.0066776098683476
1768736031328,-0.127410888671875,-0.9907684326171876,-0.0152740478515625,-0.0120558636263012,-0.0007893609581515,0.0019776634871959
1768736031338,-0.12762451171875,-0.991058349609375,-0.0162811279296875,-0.0101042995229363,-0.008396946825087,-0.0022437132429331
1768736031349,-0.123199462890625,-0.9887542724609376,-0.0147247314453125,-0.0132244592532515,-0.0089325085282325,-0.0038954056799411
1768736031358,-0.117767333984375,-0.9868316650390624,-0.0150909423828125,-0.0106137618422508,-0.006476807873696,-0.0011430287268012
1768736031369,-0.119476318359375,-0.9856414794921876,-0.017730712890625,-0.0085881622508168,-0.0023459785152226,-0.0026623620651662
1768736031379,-0.121734619140625,-0.986053466796875,-0.0220794677734375,-0.0020908478181809,0.0046930224634706,0.00202107289806
1768736031389,-0.124664306640625,-0.9857940673828124,-0.023345947265625,0.0058216699399054,0.0029537118971347,0.0002985403698403
1768736031399,-0.124725341796875,-0.9869537353515624,-0.02392578125,0.0074446005746722,0.0051146009936928,0.0017936390358954
1768736031409,-0.1239471435546875,-0.995086669921875,-0.0208740234375,0.0014820491196587,0.0044778389856219,0.0024506407789885
1768736031419,-0.122161865234375,-0.997222900390625,-0.01654052734375,-0.0024762072134763,0.0029129656031727,0.0030786141287535
1768736031429,-0.1233062744140625,-0.9892578125,-0.0192108154296875,0.0004625910660251,0.0047494815662503,0.0022349248174577
1768736031439,-0.1187896728515625,-0.9870452880859376,-0.02392578125,0.0038320224266499,-0.0018748653819784,0.0079679116606712
1768736031449,-0.1164398193359375,-0.9913330078125,-0.0204315185546875,0.0010926949325948,-0.0038461373187601,0.0100680803880095
1768736031459,-0.1178436279296875,-0.9931793212890624,-0.0186309814453125,-0.0009773800848051,-0.0005949501646682,0.0126462867483496
1768736031469,-0.1199798583984375,-0.9891815185546876,-0.018768310546875,7.98948312876746e-05,-0.0007368966471403,0.0089008165523409
1768736031479,-0.1256866455078125,-0.985382080078125,-0.01800537109375,-0.0007025419035926,-0.0030708911363035,0.0017153420485556
1768736031489,-0.1288909912109375,-0.981231689453125,-0.0181427001953125,0.0002953445655293,-0.0004511394945438,-0.0121754398569464
1768736031499,-0.1287841796875,-0.9804840087890624,-0.021820068359375,0.0131083447486162,-0.0054062171839177,-0.0126593364402651
1768736031510,-0.1209869384765625,-0.992919921875,-0.0211334228515625,0.0166649967432022,-0.0141118243336677,-0.0040860879234969
1768736031519,-0.11126708984375,-1.0050201416015625,-0.0096893310546875,0.0077021280303597,-0.0120060630142688,0.0013925669481977
1768736031529,-0.1152191162109375,-1.000152587890625,-0.004638671875,0.0024240091443061,-0.0010735202813521,0.0056712012737989
1768736031539,-0.1197052001953125,-0.9963836669921876,-0.00701904296875,-0.0045697181485593,-0.0003954794083256,0.0042597260326147
1768736031549,-0.1164703369140625,-1.0008697509765625,-0.0033111572265625,-0.0185699556022882,0.0059617524966597,0.0044109937734901
1768736031560,-0.117034912109375,-0.997314453125,-0.00494384765625,-0.0221766754984855,0.0135333854705095,0.000278832972981
1768736031569,-0.1256103515625,-0.98455810546875,-0.0155029296875,-0.0116345519199967,0.0167419612407684,-0.0059833237901329
1768736031580,-0.1299896240234375,-0.98095703125,-0.02239990234375,-0.0045326999388635,0.0117048593237996,-0.0112478611990809
1768736031590,-0.124420166015625,-0.987274169921875,-0.0215911865234375,-0.0073364758864045,-0.0032671659719198,-0.0116643793880939
1768736031600,-0.11859130859375,-0.98602294921875,-0.021484375,-0.0073489928618073,-0.0070898672565817,-0.0057937069796025
1768736031610,-0.1158447265625,-0.9813385009765624,-0.025238037109375,-0.0039982036687433,-0.0088028125464916,-7.403588097076863e-05
1768736031620,-0.1204376220703125,-0.9821929931640624,-0.026641845703125,-0.001465537585318,-0.0132737271487712,0.000532632227987
1768736031630,-0.124298095703125,-0.988372802734375,-0.0244140625,-0.0045848982408642,-0.0117474701255559,-0.0023896545171737
1768736031640,-0.1224822998046875,-0.9920654296875,-0.0213165283203125,-0.006141782272607,-0.0095234643667936,-0.0023281353060156
1768736031650,-0.1226043701171875,-0.9963531494140624,-0.020355224609375,-0.0041398839093744,-0.0106864664703607,0.001006941194646
1768736031660,-0.1233673095703125,-0.9951019287109376,-0.020233154296875,-0.004522047471255,-0.0021968416403979,0.0018636800814419
1768736031670,-0.124481201171875,-0.993011474609375,-0.019287109375,0.0001438106992281,0.0013805826893076,0.0009028115891851
1768736031680,-0.12493896484375,-0.9925689697265624,-0.0214385986328125,0.0058744004927575,0.0054032877087593,-0.0031294806394726
1768736031690,-0.1258697509765625,-0.9890289306640624,-0.0190277099609375,0.012076636776328,0.0085588674992322,-0.0036655748263001
1768736031700,-0.12384033203125,-0.9881134033203124,-0.019775390625,0.015712384134531,0.0063931844197213,-0.0070355390198528
1768736031710,-0.1228179931640625,-0.990325927734375,-0.01776123046875,0.0191859453916549,-0.0033638386521488,-0.0127626666799187
1768736031720,-0.1260223388671875,-0.996002197265625,-0.0124359130859375,0.014420217834413,-0.0102736763656139,-0.0198128540068864
1768736031730,-0.124725341796875,-0.9916839599609376,-0.0086822509765625,0.002266083844006,0.0009030779474414,-0.0159089248627424
1768736031740,-0.1096343994140625,-0.9858245849609376,-0.010406494140625,-0.0045079328119754,-0.0043377568945288,-0.005755890160799
1768736031750,-0.106475830078125,-0.9913177490234376,-0.0085906982421875,-0.0098265316337347,-0.0113346800208091,0.0034149715211242
1768736031760,-0.11187744140625,-0.9936981201171876,-0.006103515625,-0.0227457918226718,-0.0067737502977252,0.0009624664089642
1768736031770,-0.11944580078125,-0.9908294677734376,-0.0044403076171875,-0.0300116948783397,-0.0059945094399154,-0.0009544769418425
1768736031780,-0.124420166015625,-0.9903411865234376,-0.0077667236328125,-0.0389375463128089,-0.0097325220704078,-0.0048256479203701
1768736031791,-0.124847412109375,-0.9975128173828124,-0.009613037109375,-0.0493614226579666,-0.0155408764258027,-0.0072110411711037
1768736031801,-0.120513916015625,-1.0044403076171875,-0.0068511962890625,-0.0618125014007091,-0.014872689731419,-0.0071670990437269
1768736031811,-0.1188507080078125,-0.997802734375,-0.01373291015625,-0.0582523867487907,-0.0065311361104249,-0.007912783883512
1768736031821,-0.1190338134765625,-0.989715576171875,-0.02691650390625,-0.0444920994341373,-0.0067436564713716,-0.0047385622747242
1768736031831,-0.116729736328125,-0.9887237548828124,-0.0333709716796875,-0.0327550172805786,-0.0135805234313011,0.0004362257895991
1768736031841,-0.111663818359375,-0.9929046630859376,-0.030853271484375,-0.0251764599233865,-0.0149722918868064,0.0088896313682198
1768736031851,-0.1102294921875,-0.9864654541015624,-0.032470703125,-0.0076541914604604,-0.0147877344861626,0.0097173424437642
1768736031861,-0.1127471923828125,-0.984283447265625,-0.0347747802734375,0.0099072251468896,-0.0095136100426316,0.0172841809689998
1768736031871,-0.114410400390625,-0.9832305908203124,-0.0339508056640625,0.0198035314679145,-0.0083420854061841,0.0187212228775024
1768736031881,-0.1194915771484375,-0.9820709228515624,-0.0313873291015625,0.0296375211328268,0.0057617491111159,0.0194394774734973
1768736031891,-0.1238250732421875,-0.9798431396484376,-0.030609130859375,0.042644664645195,0.0115011278539896,0.0156524628400802
1768736031901,-0.1278839111328125,-0.9815521240234376,-0.028167724609375,0.0521481558680534,0.0121213775128126,0.009931992739439
1768736031911,-0.127105712890625,-0.9857940673828124,-0.0252532958984375,0.0546893440186977,0.0102382563054561,0.0073457970283925
1768736031921,-0.1217193603515625,-0.985321044921875,-0.0234527587890625,0.0568164102733135,0.0072184982709586,0.0074853468686342
1768736031931,-0.118011474609375,-0.9877777099609376,-0.0200653076171875,0.0548209026455879,-0.0056139435619115,0.0092353103682398
1768736031941,-0.12103271484375,-0.9934539794921876,-0.0121917724609375,0.0430654436349868,-0.0071338093839585,0.0077207703143358
1768736031951,-0.1232147216796875,-0.9960784912109376,-0.0048675537109375,0.027116572484374,0.0026639599818736,0.0068208882585167
1768736031961,-0.125946044921875,-0.998260498046875,-0.002838134765625,0.0191531889140605,0.0012109393719583,0.0031206922139972
1768736031971,-0.12664794921875,-0.9951171875,-0.0040435791015625,0.0119932796806097,0.0018096179701387,0.0052405684255063
1768736031982,-0.12176513671875,-0.9913482666015624,-0.00726318359375,0.0084534054622054,0.0043236417695879,0.0053974287584424
1768736031991,-0.1184844970703125,-0.988922119140625,-0.01287841796875,0.0080145169049501,0.0072789518162608,0.0088315745815634
1768736032001,-0.120941162109375,-0.98931884765625,-0.0148162841796875,0.0097343865782022,0.0032615733798593,0.0067873322404921
1768736032012,-0.125579833984375,-0.9877777099609376,-0.0167388916015625,0.0107567738741636,0.0003123887872789,0.001193895121105
1768736032022,-0.1280364990234375,-0.98626708984375,-0.0168609619140625,0.014854846522212,-0.0030866037122905,-0.0051963599398732
1768736032032,-0.125244140625,-0.985015869140625,-0.0189056396484375,0.0185132306069135,-0.0033933997619897,-0.0050485543906688
1768736032042,-0.1193695068359375,-0.989227294921875,-0.0191650390625,0.0196365509182214,-0.0058658784255385,-0.0041276332922279
1768736032052,-0.1172332763671875,-0.990631103515625,-0.015899658203125,0.0194200370460748,-0.0011076086666435,-0.0015337144723162
1768736032062,-0.1207733154296875,-0.9916534423828124,-0.011749267578125,0.0137677434831857,0.0070336745120584,-0.0023542344570159
1768736032072,-0.1273193359375,-0.9906158447265624,-0.0078582763671875,0.0128867700695991,0.0190647710114717,-0.0068320734426379
1768736032082,-0.1256103515625,-0.990020751953125,-0.011383056640625,0.0135296573862433,0.0198269672691822,-0.0046834349632263
1768736032092,-0.124053955078125,-0.987091064453125,-0.014404296875,0.0219537690281867,0.0188618376851081,-0.0034975295420736
1768736032102,-0.1222381591796875,-0.9883880615234376,-0.0169219970703125,0.0252374466508626,0.0118931448087096,-0.0020485036075115
1768736032112,-0.1229400634765625,-0.9930267333984376,-0.0117950439453125,0.0201982129365205,0.002019741339609,-0.0046533411368727
1768736032122,-0.12713623046875,-0.99468994140625,-0.0077972412109375,0.0101027013733983,0.0058791944757103,-0.0122332302853465
1768736032132,-0.129119873046875,-0.989013671875,-0.0070037841796875,0.0038948729634284,0.0052536176517605,-0.0164593998342752
1768736032143,-0.12872314453125,-0.9888763427734376,-0.007720947265625,0.0009614011505618,-0.0047292415983974,-0.0145714860409498
1768736032152,-0.119476318359375,-0.99261474609375,-0.00860595703125,-0.0032882050145417,-0.0069463229738175,-0.0114148408174514
1768736032164,-0.1116485595703125,-0.992401123046875,-0.0085601806640625,-0.0039433427155017,-0.00981215108186,-0.0094936368986964
1768736032172,-0.1158447265625,-0.9869842529296876,-0.0108489990234375,0.0011598066193982,-0.0078110513277351,-0.0100260023027658
1768736032182,-0.12176513671875,-0.9803619384765624,-0.0151824951171875,0.0018402442801743,-0.0021497036796063,-0.0188735555857419
1768736032192,-0.1290435791015625,-0.977294921875,-0.0166168212890625,0.0068176924251019,0.0014668691437691,-0.0358344316482543
1768736032203,-0.130950927734375,-0.979736328125,-0.0180206298828125,0.0160753726959228,-0.0047598676756024,-0.0393082574009895
1768736032213,-0.124298095703125,-0.9979400634765624,-0.0150909423828125,0.017005082219839,-0.0084243770688772,-0.0281767770648002
1768736032223,-0.112152099609375,-1.0083160400390625,-0.0084991455078125,0.0169334430247545,-0.0044549359008669,-0.0193803552538156
1768736032233,-0.109893798828125,-0.99993896484375,-0.0105438232421875,0.0187838077545166,0.006287723314017,-0.0103714140132069
1768736032243,-0.110565185546875,-0.9989471435546876,-0.0093994140625,0.0132516231387853,0.0070440610870718,-0.0031979237683117
1768736032253,-0.110198974609375,-1.001953125,-0.0049896240234375,0.0050022155046463,0.015656990930438,-0.0016905746888369
1768736032263,-0.114013671875,-0.99163818359375,-0.00958251953125,0.0093825832009315,0.0258726105093956,-0.0030663637444376
1768736032273,-0.1212158203125,-0.982757568359375,-0.017181396484375,0.0242161229252815,0.0218658838421106,-0.0076499301940202
1768736032283,-0.127777099609375,-0.9844818115234376,-0.0187835693359375,0.0304335393011569,0.0148170292377471,-0.0124793061986565
1768736032293,-0.122161865234375,-0.9897918701171876,-0.014617919921875,0.0242203846573829,0.0067628310061991,-0.0116047244518995
1768736032303,-0.11590576171875,-0.9888153076171876,-0.0110321044921875,0.0195406787097454,0.0050727892667055,-0.0049026133492589
1768736032313,-0.1174468994140625,-0.9864501953125,-0.0094757080078125,0.0137645481154322,0.0032344090286642,-0.0047337687574326
1768736032323,-0.1240234375,-0.9873199462890624,-0.0079193115234375,0.0050139334052801,0.0053441654890775,-0.0087833711877465
1768736032333,-0.12481689453125,-0.9877471923828124,-0.0059967041015625,-5.858954409632133e-06,0.0007219829712994,-0.0120800985023379
1768736032343,-0.122314453125,-0.9900665283203124,-0.0081329345703125,-0.0009640643256716,-0.0025899240281432,-0.0137877175584435
1768736032353,-0.11895751953125,-0.99212646484375,-0.0108489990234375,0.0001022653887048,-0.0030051108915358,-0.01554034370929
1768736032363,-0.1185455322265625,-0.9934539794921876,-0.011474609375,0.0014471617760136,-0.0111892716959118,-0.0231340806931257
1768736032373,-0.1312103271484375,-0.9968414306640624,-0.008087158203125,0.0006652576266787,-0.0033361418172717,-0.0326743237674236
1768736032383,-0.1313018798828125,-0.9925537109375,-0.0069427490234375,-0.0020509003661572,0.0107839377596974,-0.0314466059207916
1768736032393,-0.12213134765625,-0.9911346435546876,-0.00732421875,0.0045076664537191,0.009246495552361,-0.0291016921401023
1768736032403,-0.118408203125,-0.98846435546875,-0.00799560546875,0.0045723812654614,0.0043992758728563,-0.0285970233380794
1768736032413,-0.116455078125,-0.9884033203125,-0.0057830810546875,0.006982275750488,0.0038314899429678,-0.0243277102708816
1768736032423,-0.1118011474609375,-0.987457275390625,-0.005859375,0.0119994049891829,-0.0021164140198379,-0.0195982027798891
1768736032434,-0.103179931640625,-0.9865875244140624,-0.0057220458984375,0.0136068891733884,-0.0062043662182986,-0.0107085704803466
1768736032444,-0.0999298095703125,-0.988922119140625,-0.0054931640625,0.0114750284701585,-0.005281048361212,-0.003263437654823
1768736032454,-0.1003265380859375,-0.991973876953125,-0.002655029296875,0.0066757458262145,-0.0051795821636915,0.0007384945638477
1768736032464,-0.1095123291015625,-0.99554443359375,-0.0030059814453125,-0.0022197447251528,0.0006439523422159,-0.0046576024033129
1768736032474,-0.118682861328125,-0.9966888427734376,-0.0034637451171875,-0.009924535639584,0.0049090050160884,-0.0068283448927104
1768736032484,-0.125274658203125,-0.9961090087890624,-0.00140380859375,-0.0166562087833881,0.0089245187118649,-0.0135584194213151
1768736032494,-0.12548828125,-0.9992828369140624,-0.0061492919921875,-0.0225202217698097,0.004250671248883,-0.0147861363366246
1768736032504,-0.1180267333984375,-1.0023956298828125,-0.0089111328125,-0.0279799699783325,-0.0107671599835157,-0.0131613416597247
1768736032514,-0.11492919921875,-1.000396728515625,-0.0101165771484375,-0.0272230990231037,-0.0060283313505351,-0.0092092109844088
1768736032524,-0.1115570068359375,-0.99200439453125,-0.017608642578125,-0.0199862252920866,-0.0006167881074361,-0.0102353272959589
1768736032534,-0.1149444580078125,-0.9877777099609376,-0.0206146240234375,-0.0092829801142215,-0.0029734193813055,-0.005004612263292
1768736032544,-0.1109466552734375,-0.9911651611328124,-0.0210113525390625,-0.0031111047137528,-0.0021944446489214,-0.0034642398823052
1768736032554,-0.109222412109375,-0.9903411865234376,-0.0186614990234375,0.0073449984192848,0.0021670141723006,0.000242880283622
1768736032564,-0.11358642578125,-0.9881744384765624,-0.015960693359375,0.0205260477960109,-0.0103463809937238,-0.0047534760087728
1768736032574,-0.1221466064453125,-0.990020751953125,-0.0136566162109375,0.0300644244998693,-0.0171342454850673,-0.0218256693333387
1768736032584,-0.1309967041015625,-0.988494873046875,-0.0101318359375,0.0277264360338449,0.0112103102728724,-0.0219625569880008
1768736032594,-0.1175994873046875,-0.9782257080078124,-0.0108795166015625,0.0299837309867143,0.014338725246489,-0.0188165642321109
1768736032604,-0.11370849609375,-0.9810791015625,-0.011505126953125,0.034611240029335,0.0018421085551381,-0.0155914761126041
1768736032614,-0.1120452880859375,-0.98394775390625,-0.0093231201171875,0.0302164927124977,-8.708536915946752e-05,-0.0117639815434813
1768736032624,-0.111236572265625,-0.9894256591796876,-0.002899169921875,0.0198999382555484,-0.0006271744496189,-0.0113325491547584
1768736032634,-0.1170501708984375,-0.9929046630859376,0.0030975341796875,0.0108965896070003,-0.004081827122718,-0.0146559076383709
1768736032645,-0.117462158203125,-0.99755859375,0.0055694580078125,-0.0005286374944262,-0.0024706146214157,-0.0161009393632411
1768736032655,-0.115447998046875,-0.9975738525390624,0.0073699951171875,-0.0090251863002777,-0.0042320294305682,-0.0152966640889644
1768736032665,-0.1136627197265625,-0.9974517822265624,0.0061187744140625,-0.0200163181871175,-0.0031337416730821,-0.0134854484349489
1768736032675,-0.114349365234375,-0.997314453125,0.004608154296875,-0.0264097694307565,0.0018959043081849,-0.0127959558740258
1768736032685,-0.1161041259765625,-0.9950408935546876,0.001556396484375,-0.0311126448214054,0.0078877508640289,-0.0136881154030561
1768736032695,-0.11859130859375,-0.9924163818359376,-0.00274658203125,-0.0328218638896942,0.0105911251157522,-0.0149981239810585
1768736032705,-0.11871337890625,-0.990753173828125,-0.0066986083984375,-0.0324253179132938,0.0104355970397591,-0.0175893791019916
1768736032715,-0.114990234375,-0.9878387451171876,-0.0101318359375,-0.027475032955408,0.0122822327539324,-0.0145821385085582
1768736032725,-0.110015869140625,-0.9861907958984376,-0.014801025390625,-0.0235268976539373,0.0109754195436835,-0.0110784834250807
1768736032735,-0.1121063232421875,-0.9888916015625,-0.01318359375,-0.0191744938492774,0.005967877805233,-0.0075484635308384
1768736032745,-0.1102142333984375,-0.985809326171875,-0.01226806640625,-0.015098525211215,0.0048200553283095,-0.0055188685655593
1768736032755,-0.1104583740234375,-0.989227294921875,-0.0126190185546875,-0.0116944732144474,0.0046461508609354,-0.0064773401245474
1768736032765,-0.1125030517578125,-0.991058349609375,-0.010772705078125,-0.0107152285054326,0.0061090253293514,-0.011566374450922
1768736032775,-0.116119384765625,-0.99249267578125,-0.007476806640625,-0.0106148272752761,0.0045492118224501,-0.01659682020545
1768736032785,-0.1164398193359375,-0.9901275634765624,-0.0089263916015625,-0.0064320666715502,0.0140226082876324,-0.0179281346499919
1768736032795,-0.11151123046875,-0.98779296875,-0.01324462890625,-0.002273274352774,0.0191534552723169,-0.0127924941480159
1768736032805,-0.109375,-0.9883880615234376,-0.0154876708984375,0.0079673789441585,0.0171619430184364,-0.0101008368656039
1768736032815,-0.1103973388671875,-0.9911956787109376,-0.0154571533203125,0.0108792791143059,0.0166106689721345,-0.0100507698953151
1768736032825,-0.1122894287109375,-0.9944610595703124,-0.0155029296875,0.0109735550358891,0.0125701203942298,-0.0044144559651613
1768736032835,-0.112274169921875,-0.9954986572265624,-0.0096282958984375,0.0083394227549433,0.011716310866177,-0.0037670412566512
1768736032846,-0.1105194091796875,-0.98828125,-0.00909423828125,0.0075703016482293,0.0118715735152363,-0.0024011060595512
1768736032856,-0.110626220703125,-0.98651123046875,-0.010009765625,0.0112270880490541,0.0048623993061482,-0.0011917646043002
1768736032866,-0.1106719970703125,-0.9923248291015624,-0.00665283203125,0.0090574109926819,-0.001513474388048,4.181162876193411e-05
1768736032876,-0.1097869873046875,-0.9977264404296876,-0.0033416748046875,0.0003051982494071,-0.0004617921367753,-0.0022791333030909
1768736032886,-0.1152496337890625,-0.995635986328125,-0.0010833740234375,-0.0054427022114396,0.0049593383446335,-0.0043846284970641
1768736032896,-0.117767333984375,-0.99090576171875,-0.003662109375,-0.0084834992885589,0.007799866143614,-0.0094821853563189
1768736032906,-0.1197967529296875,-0.9862213134765624,-0.0071258544921875,-0.0093599455431103,0.0076419408433139,-0.0220341961830854
1768736032916,-0.12066650390625,-0.9822845458984376,-0.0096435546875,-0.0035481294617056,0.0040685110725462,-0.0309342145919799
1768736032926,-0.1144561767578125,-0.9857635498046876,-0.01141357421875,0.0025651566684246,-0.0069479211233556,-0.029144037514925
1768736032936,-0.1052093505859375,-1.000030517578125,-0.005889892578125,-0.0028772791847586,-0.0128870364278554,-0.0203060712665319
1768736032946,-0.105560302734375,-0.9994354248046876,3.0517578125e-05,-0.0071511198766529,-0.0034392061643302,-0.0206533465534448
1768736032956,-0.1124114990234375,-0.994232177734375,0.0026702880859375,-0.014527010731399,0.004964665044099,-0.0226890668272972
1768736032966,-0.1121063232421875,-1.0012359619140625,0.004913330078125,-0.0285118017345666,0.010547449812293,-0.0244693905115127
1768736032976,-0.10540771484375,-1.00390625,0.007476806640625,-0.0355172492563724,0.0139640187844634,-0.0278718452900648
1768736032986,-0.108154296875,-0.9933013916015624,0.000732421875,-0.0318708457052707,0.0189726259559392,-0.0271501280367374
1768736032996,-0.1137237548828125,-0.9801025390625,-0.009368896484375,-0.0162687189877033,0.0159627217799425,-0.0285208579152822
1768736033006,-0.112579345703125,-0.9859161376953124,-0.015106201171875,-0.0160966776311397,0.010325607843697,-0.0247114710509777
1768736033016,-0.106353759765625,-0.9918975830078124,-0.0108184814453125,-0.0233772285282611,0.005739111918956,-0.0173310525715351
1768736033026,-0.1038665771484375,-0.9918365478515624,-0.0127105712890625,-0.0215753335505723,-0.0003707120195031,-0.0096212020143866
1768736033036,-0.105255126953125,-0.987762451171875,-0.01361083984375,-0.020265057682991,0.0016935041639953,-0.0067497817799448
1768736033046,-0.1119232177734375,-0.986328125,-0.013916015625,-0.0216120854020118,0.0054581486620008,-0.007285876199603
1768736033056,-0.1146087646484375,-0.9889984130859376,-0.0144195556640625,-0.0160482078790664,0.0042440136894583,-0.0110374707728624
1768736033067,-0.1121978759765625,-0.99224853515625,-0.0169525146484375,-0.0113421371206641,0.0062355254776775,-0.011071559973061
1768736033077,-0.1081085205078125,-0.993072509765625,-0.021240234375,-0.0036764938849955,0.0029100361280143,-0.0090057458728551
1768736033087,-0.1080322265625,-0.9939117431640624,-0.02410888671875,0.0108369346708059,0.0016213324852287,-0.0072786854580044
1768736033097,-0.1087646484375,-0.992431640625,-0.0226593017578125,0.0158021319657564,0.0063013052567839,-0.0069881347008049
1768736033107,-0.1089630126953125,-0.9914093017578124,-0.020263671875,0.0229961294680833,0.0110089750960469,-0.0018618159228935
1768736033117,-0.1074371337890625,-0.9888763427734376,-0.01873779296875,0.0343025811016559,0.0153142418712377,0.0043816990219056
1768736033127,-0.10418701171875,-0.989593505859375,-0.014984130859375,0.0393055938184261,0.0169201269745826,0.009409480728209
1768736033137,-0.1014556884765625,-0.990814208984375,-0.0106048583984375,0.0394102558493614,0.0158079918473958,0.0122915534302592
1768736033147,-0.1050567626953125,-0.99053955078125,-0.0063629150390625,0.0372070223093032,0.0125480163842439,0.0126023441553115
1768736033157,-0.1074066162109375,-0.991058349609375,-0.001708984375,0.0321318358182907,0.0108497180044651,0.0085695199668407
1768736033167,-0.11224365234375,-0.9951324462890624,0.003692626953125,0.020265057682991,0.0090944282710552,0.0018010957865044
1768736033177,-0.119842529296875,-0.99688720703125,0.00830078125,0.007242732681334,0.0114846155047416,-0.0136758647859096
1768736033187,-0.1203460693359375,-0.996307373046875,0.00921630859375,-0.0083159869536757,0.0138087561354041,-0.021156683564186
1768736033197,-0.11663818359375,-0.994659423828125,0.0061187744140625,-0.0184442549943923,0.0125477500259876,-0.0259525049477815
1768736033207,-0.1101837158203125,-0.995880126953125,0.00408935546875,-0.0285813100636005,0.0068296766839921,-0.0246478226035833
1768736033217,-0.0997161865234375,-1.0009002685546875,0.0007781982421875,-0.0376365929841995,-4.846953015658073e-05,-0.0141557659953832
1768736033227,-0.093536376953125,-1.00323486328125,-6.103515625e-05,-0.0469214357435703,-0.0063489759340882,-0.0063761402852833
1768736033237,-0.0955047607421875,-0.9943389892578124,-0.00482177734375,-0.0479408949613571,-0.0068318070843815,0.0025558357592672
1768736033248,-0.1031951904296875,-0.9863128662109376,-0.0131988525390625,-0.0375718772411346,-0.0033526534680277,0.0014844459947198
1768736033257,-0.1141357421875,-0.98944091796875,-0.01654052734375,-0.0323211885988712,-0.0056102150119841,-0.0065492456778883
1768736033267,-0.118896484375,-0.9928436279296876,-0.015411376953125,-0.0252294559031724,-0.012237224727869,-0.0144452517852187
1768736033278,-0.1136932373046875,-0.9918060302734376,-0.0144500732421875,-0.0197582580149173,-0.0031531827989965,-0.0133384419605135
1768736033288,-0.1065521240234375,-0.9873199462890624,-0.0160369873046875,-0.0080400835722684,0.0080635193735361,-0.0065484466031193
1768736033298,-0.1046905517578125,-0.9825897216796876,-0.0177154541015625,0.0002119876153301,0.0137773314490914,-0.0026993800420314
1768736033308,-0.1046295166015625,-0.9839630126953124,-0.0176849365234375,0.0108518488705158,0.0164428893476724,0.0016644756542518
1768736033318,-0.10516357421875,-0.9864044189453124,-0.0178985595703125,0.0169371720403432,0.0141709465533494,0.0045412224717438
1768736033328,-0.103607177734375,-0.9884796142578124,-0.017578125,0.0224544424563646,0.0042738406918942,0.0080035980790853
1768736033338,-0.104034423828125,-0.9886322021484376,-0.0146026611328125,0.0213468335568904,-0.0070757525973021,0.0060608219355344
1768736033348,-0.1095123291015625,-0.993896484375,-0.00909423828125,0.0167403649538755,-0.0108822090551257,0.0031752870418131
1768736033358,-0.1154937744140625,-0.997100830078125,-0.001922607421875,0.0043526706285774,-0.0050304448232054,-0.0072579127736389
1768736033368,-0.1196746826171875,-1.0002288818359375,0.00335693359375,-0.006654973141849,-0.0009624664089642,-0.0145541755482554
1768736033378,-0.1185455322265625,-0.998992919921875,0.0048065185546875,-0.0162980128079652,0.003425890346989,-0.0198341589421033
1768736033388,-0.11175537109375,-0.996246337890625,0.002288818359375,-0.0216696094721555,0.0056826532818377,-0.0203063376247882
