timestamp_ms,acc_x,acc_y,acc_z,gyro_x,gyro_y,gyro_z
1768725499964,0.123260498046875,-0.3639984130859375,-0.9239501953125,-0.0256723407655954,0.0055236625485122,-0.0163235794752836
1768725499972,0.123687744140625,-0.36077880859375,-0.9266357421875,-0.0197484046220779,0.0059297946281731,-0.0142915872856974
1768725499982,0.124176025390625,-0.365234375,-0.9335784912109376,-0.005019792355597,0.0153182363137602,-0.0177206732332706
1768725499992,0.1241455078125,-0.36041259765625,-0.933929443359375,0.0137365851551294,0.0167813766747713,-0.0151371415704488
1768725500002,0.12359619140625,-0.3529205322265625,-0.933135986328125,0.0320484787225723,0.0053500244393944,-0.0085279745981097
1768725500012,0.1236572265625,-0.36102294921875,-0.93377685546875,0.0427549220621585,0.0067319385707378,-0.008970059454441
1768725500022,0.121826171875,-0.36529541015625,-0.9301300048828124,0.0457547046244144,0.0193848833441734,-0.0110353408381342
1768725500032,0.12078857421875,-0.363922119140625,-0.9195556640625,0.0408275909721851,0.0175228007137775,-0.0058485679328441
1768725500043,0.1222076416015625,-0.3634033203125,-0.9110107421875,0.0300492458045482,0.0082637891173362,0.0006119944155216
1768725500052,0.12518310546875,-0.368377685546875,-0.9041900634765624,0.0165930911898612,0.0092994924634695,0.0012767193838953
1768725500062,0.1233673095703125,-0.369110107421875,-0.8988189697265625,-0.0030027141328901,0.0052418997511267,-0.0005185174522921
1768725500072,0.119781494140625,-0.3706207275390625,-0.8949127197265625,-0.0204898286610841,-0.0072230254299938,-0.0038227012846618
1768725500082,0.1189727783203125,-0.36920166015625,-0.899078369140625,-0.0260672867298126,-0.0179198775440454,-0.0019451729021966
1768725500092,0.1220550537109375,-0.3671417236328125,-0.912017822265625,-0.0300055686384439,-0.0164426229894161,-0.0083524724468588
1768725500102,0.120147705078125,-0.3666534423828125,-0.914215087890625,-0.0396938845515251,-0.0057332529686391,-0.0144431218504905
1768725500112,0.11968994140625,-0.3650054931640625,-0.913909912109375,-0.0443781167268753,-0.0042943470180034,-0.0180474445223808
1768725500122,0.1195220947265625,-0.365570068359375,-0.91241455078125,-0.0481406301259994,-0.0064307348802685,-0.0224685575813055
1768725500132,0.1196136474609375,-0.3640289306640625,-0.9143524169921876,-0.0433445461094379,-0.0137650808319449,-0.0206895656883716
1768725500142,0.1199798583984375,-0.366668701171875,-0.9271697998046876,-0.0267429314553737,-0.0166162606328725,-0.0185297429561615
1768725500153,0.1238861083984375,-0.3659820556640625,-0.9391326904296876,-0.0048083374276757,-0.008943160995841,-0.0177592895925045
1768725500163,0.1253662109375,-0.3648223876953125,-0.942626953125,0.01201724819839,-0.0001211738272104,-0.0151195647194981
1768725500173,0.1284027099609375,-0.36175537109375,-0.9368896484375,0.0205295104533433,0.007128216791898,-0.0119096562266349
1768725500183,0.127960205078125,-0.362457275390625,-0.9319000244140624,0.0209526866674423,0.0159046649932861,-0.0083841634914278
1768725500193,0.1278533935546875,-0.3649749755859375,-0.92108154296875,0.0147757502272725,0.0180258713662624,-0.0081274351105093
1768725500203,0.1260833740234375,-0.3671875,-0.91400146484375,0.0091109406203031,0.0129192611202597,-0.0079242354258894
1768725500213,0.1236572265625,-0.369140625,-0.911163330078125,0.0042717102915048,-0.0013731258222833,-0.0094409063458442
1768725500223,0.1243896484375,-0.3694000244140625,-0.915374755859375,0.0030895331874489,-0.0087873665615916,-0.0057625477202236
1768725500233,0.1274871826171875,-0.367828369140625,-0.9169158935546876,-0.000341150938766,-0.0020812603179365,-0.0079271653667092
1768725500243,0.1270294189453125,-0.3664703369140625,-0.9132843017578124,-0.0115639781579375,0.0047335023991763,-0.0068930597044527
1768725500253,0.1260986328125,-0.363494873046875,-0.90924072265625,-0.0201793033629655,0.0090435622259974,-0.0052187303081154
1768725500263,0.1328887939453125,-0.3618011474609375,-0.9123077392578124,-0.0322578065097332,0.0280092637985944,-0.0043183155357837
1768725500273,0.1331787109375,-0.3578338623046875,-0.9139556884765624,-0.0316452793776989,0.0225825402885675,0.0004604605492204
1768725500283,0.1279449462890625,-0.36273193359375,-0.919281005859375,-0.0327401049435138,0.0186277460306882,0.0012354403734207
1768725500293,0.126434326171875,-0.3665008544921875,-0.9188995361328124,-0.0343585051596164,0.0196051262319087,-0.0008069378091022
1768725500303,0.1263885498046875,-0.363861083984375,-0.9213409423828124,-0.027679830789566,0.0163608640432357,0.0020556941162794
1768725500313,0.1257171630859375,-0.3685150146484375,-0.9283294677734376,-0.0168564785271883,0.0135312555357813,0.0009949569357559
1768725500323,0.1237030029296875,-0.3691558837890625,-0.9298248291015624,-0.0077833547256886,0.0140721434727311,-0.0039822249673306
1768725500333,0.1209716796875,-0.3702239990234375,-0.92950439453125,0.00154543237295,0.01735395565629,-0.0044243093580007
1768725500343,0.1194915771484375,-0.3711090087890625,-0.929931640625,0.0124814370647072,0.0153645751997828,-0.0060195429250597
1768725500353,0.1227264404296875,-0.3664398193359375,-0.927001953125,0.021392373368144,0.0102222776040434,-0.0010458233300596
1768725500363,0.124603271484375,-0.3650970458984375,-0.9239044189453124,0.0274132490158081,0.008878712542355,-0.0026738136075437
1768725500373,0.125823974609375,-0.36236572265625,-0.920074462890625,0.0244624651968479,0.0124878287315368,-0.0013323795283213
1768725500384,0.1241912841796875,-0.3608245849609375,-0.913116455078125,0.0173648763447999,0.012183429673314,-0.0045169875957071
1768725500394,0.123870849609375,-0.36376953125,-0.9046783447265624,0.0016735304379835,0.0079495357349514,-0.0049249837175011
1768725500404,0.12530517578125,-0.3638916015625,-0.9005584716796875,-0.0123637253418564,0.0008852347382344,-0.0023608922492712
1768725500414,0.1266021728515625,-0.3614044189453125,-0.8990020751953125,-0.0279826316982507,-0.004571315832436,-0.0018389127217233
1768725500424,0.1268157958984375,-0.3619537353515625,-0.90179443359375,-0.0379982478916645,-0.01361168269068,0.0023065637797117
1768725500434,0.1291351318359375,-0.36651611328125,-0.9116363525390624,-0.0424491912126541,-0.016465526074171,0.0015419702976942
1768725500444,0.1255035400390625,-0.371307373046875,-0.9168853759765624,-0.046271625906229,-0.0092648714780807,-0.0028077706228941
1768725500454,0.1233978271484375,-0.367919921875,-0.9198150634765624,-0.0434625223278999,-0.0059732040390372,-0.0071090422570705
1768725500464,0.129638671875,-0.35614013671875,-0.9295196533203124,-0.0215870514512062,0.0003621898940764,0.0034898063167929
1768725500474,0.1345672607421875,-0.355682373046875,-0.9403228759765624,-0.0015353123890236,0.0163376946002244,0.0072046495042741
1768725500484,0.13275146484375,-0.3615875244140625,-0.9403076171875,-0.0016588830621913,0.0305264834314584,-6.924218905624002e-05
1768725500494,0.124725341796875,-0.37548828125,-0.92889404296875,-0.0078315576538443,0.0381846688687801,-0.0119006019085645
1768725500504,0.124969482421875,-0.3688507080078125,-0.9182281494140624,-0.0072890720330178,0.0364181958138942,-0.0059795957058668
1768725500514,0.1318817138671875,-0.3595428466796875,-0.915771484375,-0.0022192120086401,0.0221612285822629,0.0042482744902372
1768725500524,0.132659912109375,-0.361602783203125,-0.9164581298828124,-0.0037902109324932,0.0176639482378959,0.0044687842018902
1768725500534,0.12738037109375,-0.3636016845703125,-0.9102630615234376,-0.0078707057982683,0.0211364440619945,0.0041135186329483
1768725500544,0.1259765625,-0.3584136962890625,-0.904083251953125,-0.0152718974277377,0.014608503319323,0.0096880476921796
1768725500554,0.130706787109375,-0.351898193359375,-0.901824951171875,-0.0232049208134412,0.0010530138388276,0.02206402271986
1768725500564,0.134765625,-0.3524017333984375,-0.906341552734375,-0.0331132113933563,-0.0069684274494647,0.0287048816680908
1768725500574,0.1344757080078125,-0.36090087890625,-0.9101104736328124,-0.0433804951608181,0.0020314592402428,0.0257245376706123
1768725500585,0.1256561279296875,-0.3664703369140625,-0.908172607421875,-0.0561069436371326,0.0062805325724184,0.0194804910570383
1768725500594,0.1238250732421875,-0.3698883056640625,-0.9142913818359376,-0.0552131868898868,-0.0002806971897371,0.013275858014822
1768725500605,0.1241607666015625,-0.370880126953125,-0.9252166748046876,-0.0487978979945182,0.000235157116549,0.0113365435972809
1768725500615,0.1262664794921875,-0.368988037109375,-0.933319091796875,-0.0360442884266376,0.0089524826034903,0.0110569121316075
1768725500625,0.1281585693359375,-0.3634490966796875,-0.9368743896484376,-0.026022545993328,0.0165890958160161,0.0117730358615517
1768725500635,0.1270751953125,-0.3613128662109375,-0.9323883056640624,-0.0244949571788311,0.0198368206620216,0.0143869286403059
1768725500645,0.1260528564453125,-0.35980224609375,-0.924530029296875,-0.019495403394103,0.0147222205996513,0.0144995804876089
1768725500655,0.1246795654296875,-0.358734130859375,-0.92315673828125,-0.0155675075948238,0.0168775171041488,0.0151930674910545
1768725500665,0.1239776611328125,-0.3572998046875,-0.9246978759765624,-0.0062517705373466,0.0082938829436898,0.012467854656279
1768725500675,0.12548828125,-0.358612060546875,-0.9290924072265624,-0.0018777948571369,0.011347996070981,0.0083356937393546
1768725500685,0.1259002685546875,-0.35699462890625,-0.9315338134765624,-0.0003328951424919,0.0224610995501279,0.0076557891443371
1768725500695,0.1249542236328125,-0.3584442138671875,-0.927581787109375,-0.0030317425262182,0.0272438712418079,0.0047066044062376
1768725500705,0.1212921142578125,-0.3619842529296875,-0.9222869873046876,-0.0047598676756024,0.0182991120964288,0.0017382452497258
1768725500715,0.11993408203125,-0.3671722412109375,-0.9213104248046876,-0.0016136092599481,0.0030844730790704,-0.0021491709630936
1768725500725,0.119659423828125,-0.3691864013671875,-0.919586181640625,0.0007904262165538,-0.0033249566331505,-0.0052304482087492
1768725500735,0.1208953857421875,-0.3673858642578125,-0.9210205078125,-0.0029185581952333,-0.0065985140390694,-0.0082933502271771
1768725500745,0.1240386962890625,-0.3680877685546875,-0.917694091796875,-0.009449427947402,-0.0082941483706235,-0.0122516062110662
1768725500755,0.12615966796875,-0.3653411865234375,-0.9159393310546876,-0.0143088977783918,-0.0070216902531683,-0.0147368684411048
1768725500765,0.1254730224609375,-0.3590545654296875,-0.9163360595703124,-0.0184935238212347,0.0036160401068627,-0.0129967583343386
1768725500775,0.1301116943359375,-0.354644775390625,-0.920379638671875,-0.012835637666285,0.0079452749341726,-0.0120476083829998
1768725500785,0.1322784423828125,-0.356964111328125,-0.9294281005859376,-0.0016202671686187,0.0153991961851716,-0.0124161895364522
1768725500795,0.13177490234375,-0.35137939453125,-0.93115234375,0.0116188395768404,0.0143677536398172,-0.0055348477326333
1768725500806,0.1329803466796875,-0.349151611328125,-0.9318389892578124,0.020535634830594,0.0054000918753445,0.0015030881622806
1768725500816,0.12969970703125,-0.3539886474609375,-0.9293670654296876,0.0253735333681106,0.0089490199461579,-0.0008522115531377
1768725500826,0.1256866455078125,-0.3607635498046875,-0.9261474609375,0.028401281684637,0.0142764076590538,-0.0001006674865493
1768725500836,0.1268463134765625,-0.3618927001953125,-0.9210052490234376,0.025966353714466,0.0119820944964885,0.0016029566759243
1768725500846,0.128326416015625,-0.3624267578125,-0.9132232666015624,0.0147038446739315,0.010686732828617,0.0012072109384462
1768725500856,0.1280059814453125,-0.361907958984375,-0.909820556640625,0.0038693067617714,0.0045492118224501,0.0051715923473238
1768725500866,0.131011962890625,-0.36248779296875,-0.910125732421875,0.0004290352517273,-0.0025070998817682,0.0028000476304441
1768725500876,0.128662109375,-0.3621368408203125,-0.9138031005859376,-0.0054490938782691,0.0014974954538047,0.0012980246683582
1768725500886,0.129730224609375,-0.3612213134765625,-0.918548583984375,-0.0079937446862459,0.0097149452194571,0.0012109393719583
1768725500896,0.1302947998046875,-0.3582305908203125,-0.91888427734375,-0.0112542519345879,0.015083079226315,0.0011518171522766
1768725500906,0.1316680908203125,-0.3569183349609375,-0.9175262451171876,-0.0154234310612082,0.0248507540673017,0.000835966260638
1768725500916,0.1294097900390625,-0.3580474853515625,-0.9178009033203124,-0.016865799203515,0.0254129488021135,0.0017156084068119
1768725500926,0.1256561279296875,-0.3611602783203125,-0.919281005859375,-0.0172556862235069,0.021813154220581,-0.0028274781070649
1768725500936,0.119049072265625,-0.365936279296875,-0.916473388671875,-0.0127014145255088,0.0133269904181361,-0.0044751758687198
1768725500946,0.1221466064453125,-0.3666534423828125,-0.922576904296875,-0.0062025021761655,0.0028389296494424,-0.0022176143247634
1768725500956,0.1243896484375,-0.3675689697265625,-0.922119140625,-0.0015033544041216,-7.243797881528735e-05,-0.0028802086599171
1768725500966,0.1237335205078125,-0.365264892578125,-0.9160003662109376,-0.0021835258230566,0.0001957423373823,-0.0039108521305024
1768725500976,0.1271209716796875,-0.363983154296875,-0.9173583984375,-0.000720385054592,-2.50337143370416e-05,-0.0047529437579214
1768725500986,0.1288299560546875,-0.3608856201171875,-0.9210662841796876,-0.000998685369268,0.0031696942169219,-0.0030682277865707
1768725500996,0.1315155029296875,-0.3600006103515625,-0.9232940673828124,-0.0005115932435728,0.0089173289015889,-0.0068128984421491
1768725501006,0.130462646484375,-0.3592529296875,-0.92236328125,-0.0028091021813452,0.0130452280864119,-0.0076667079702019
1768725501017,0.13018798828125,-0.3591461181640625,-0.921234130859375,-0.0049777142703533,0.012058793567121,-0.0056062205694615
1768725501026,0.130828857421875,-0.3611907958984375,-0.9193878173828124,-0.0095769930630922,0.0134452348574996,-0.0099279982969164
1768725501037,0.1250152587890625,-0.3625640869140625,-0.9150238037109376,-0.0127514814957976,0.0082571310922503,-0.0141672175377607
1768725501047,0.1262664794921875,-0.365081787109375,-0.91845703125,-0.0085506113246083,0.0014543522847816,-0.0135459024459123
1768725501057,0.129119873046875,-0.3638153076171875,-0.9224700927734376,-0.009721603244543,0.0009867012267932,-0.0123304361477494
1768725501067,0.1291351318359375,-0.3607025146484375,-0.9219818115234376,-0.008453938178718,0.0048786448314785,-0.0073026539757847
1768725501077,0.1298370361328125,-0.35919189453125,-0.9237060546875,-0.0040448089130222,0.0115493303164839,-0.0049114017747342
1768725501087,0.1290740966796875,-0.3617706298828125,-0.9220733642578124,-0.0025078987237066,0.0107770143076777,-0.0045814360491931
1768725501097,0.1292572021484375,-0.362884521484375,-0.9165802001953124,-0.0087705887854099,0.00566694047302,-0.0034605115652084
1768725501107,0.1279449462890625,-0.361114501953125,-0.913360595703125,-0.0092187980189919,0.0021576930303126,-0.0038139128591865
1768725501117,0.1288299560546875,-0.3638916015625,-0.9163818359375,-0.0123871611431241,0.003981692250818,-0.0063079632818698
1768725501127,0.1319732666015625,-0.363983154296875,-0.9217681884765624,-0.0098899146541953,0.0056179384700953,-0.0077087860554456
1768725501138,0.1341094970703125,-0.3617706298828125,-0.9290771484375,-0.004694087896496,0.014550712890923,-0.0078275632113218
1768725501147,0.132659912109375,-0.360137939453125,-0.9326171875,0.0046008769422769,0.0280047357082366,-0.006876281928271
1768725501157,0.13189697265625,-0.359771728515625,-0.930908203125,0.0098180100321769,0.0288524199277162,-0.0042030005715787
1768725501167,0.13134765625,-0.36163330078125,-0.92474365234375,0.0127727864310145,0.0260806027799844,-0.0024109596852213
1768725501177,0.1315155029296875,-0.3596649169921875,-0.91748046875,0.0103059010580182,0.0168775171041488,-0.0012101404136046
1768725501187,0.130401611328125,-0.3590850830078125,-0.9135894775390624,0.0091309137642383,0.0059292619116604,-4.181162876193411e-05
1768725501197,0.1307220458984375,-0.3636322021484375,-0.9185333251953124,0.0141507061198353,0.0073460633866488,0.0018383801216259
1768725501207,0.128326416015625,-0.3635101318359375,-0.9194488525390624,0.0104031059890985,0.0112601108849048,0.0007408913807012
1768725501217,0.1277618408203125,-0.3597259521484375,-0.914794921875,0.0108989868313074,-0.0011598066193982,0.0021403825376182
1768725501228,0.1302032470703125,-0.3611907958984375,-0.9139404296875,0.0076880133710801,-0.007897337898612,0.0068035777658224
1768725501238,0.1298828125,-0.3618621826171875,-0.913238525390625,0.0014117417158558,-0.0100102899596095,0.0042261704802513
1768725501248,0.129241943359375,-0.365234375,-0.91278076171875,-0.0074824173934757,-0.0030365362763404,0.0016263924771919
1768725501258,0.129241943359375,-0.3661651611328125,-0.91748046875,-0.0147315422073006,0.014412228949368,-0.0028503811918199
1768725501268,0.1304473876953125,-0.3551788330078125,-0.9163360595703124,-0.0160841606557369,0.0136913107708096,0.0067077036947011
1768725501278,0.1378326416015625,-0.3506011962890625,-0.9156036376953124,-0.0114073837175965,0.0077572553418576,0.0122798355296254
1768725501288,0.1314544677734375,-0.3560791015625,-0.921844482421875,-0.0127954240888357,0.0133142070844769,0.0080968085676431
1768725501298,0.12725830078125,-0.3653564453125,-0.922576904296875,-0.0141325965523719,0.0097426418215036,-0.0053854444995522
1768725501308,0.1243438720703125,-0.3704071044921875,-0.9268646240234376,-0.0036336169578135,0.0165323708206415,-0.0109866047278046
1768725501318,0.130584716796875,-0.3630218505859375,-0.930877685546875,0.011806059628725,0.0147248841822147,-0.0064006415195763
1768725501328,0.13543701171875,-0.3613128662109375,-0.932647705078125,0.0242872294038534,0.0164559390395879,-0.0017776599852368
1768725501338,0.1341094970703125,-0.3610076904296875,-0.930023193359375,0.0337984450161457,0.0187292136251926,0.0004234426014591
1768725501348,0.1335906982421875,-0.3575286865234375,-0.9227294921875,0.0393439419567585,0.0084299696609377,0.0063255401328206
1768725501358,0.1364593505859375,-0.3519744873046875,-0.918060302734375,0.0379902571439743,0.0056363139301538,0.0194011274725198
1768725501368,0.14031982421875,-0.3514251708984375,-0.9127960205078124,0.0292127467691898,0.011608718894422,0.0263924580067396
1768725501378,0.139984130859375,-0.3546905517578125,-0.9069061279296876,0.0067551080137491,0.0224134307354688,0.0278049986809492
1768725501388,0.13458251953125,-0.361541748046875,-0.89910888671875,-0.0125011447817087,0.0268079116940498,0.0233223661780357
1768725501398,0.1294097900390625,-0.366424560546875,-0.9036102294921876,-0.0300409886986017,0.0257048308849334,0.0170452967286109
1768725501408,0.1294097900390625,-0.3699951171875,-0.910980224609375,-0.0337270721793174,0.0204331036657094,0.0125903598964214
1768725501418,0.1279144287109375,-0.3722381591796875,-0.918487548828125,-0.0327728614211082,0.0122050009667873,0.0060935788787901
1768725501428,0.127166748046875,-0.3682861328125,-0.9206390380859376,-0.0267594419419765,-0.0025337315164506,0.0033997914288192
1768725501438,0.12994384765625,-0.3663482666015625,-0.9281158447265624,-0.0121703799813985,-0.0086078690364956,0.0076078521087765
1768725501448,0.131927490234375,-0.362945556640625,-0.9368743896484376,0.0084134582430124,-0.005158809479326,0.0111503889784216
1768725501459,0.13189697265625,-0.3628997802734375,-0.9394378662109376,0.0270513240247964,0.0048426920548081,0.0123235117644071
1768725501469,0.1317138671875,-0.3641204833984375,-0.9401702880859376,0.0376512371003627,0.0079553946852684,0.0134785240516066
1768725501479,0.1353607177734375,-0.3605499267578125,-0.934600830078125,0.0437866300344467,0.0075697689317166,0.0173560865223407
1768725501489,0.135467529296875,-0.3618316650390625,-0.927642822265625,0.0418997779488563,0.0173297207802534,0.0178937800228595
1768725501499,0.1333465576171875,-0.3642425537109375,-0.92071533203125,0.0354014001786708,0.0266811456531286,0.0111168334260582
1768725501509,0.127044677734375,-0.3667449951171875,-0.909912109375,0.0253964364528656,0.0238187797367572,0.0061353906057775
1768725501519,0.127593994140625,-0.3688201904296875,-0.9063568115234376,0.017878333106637,0.013130716048181,0.0024687503464519
1768725501529,0.12841796875,-0.369293212890625,-0.909027099609375,0.0140660181641578,0.0063279368914663,0.0016362462192773
1768725501539,0.128570556640625,-0.36944580078125,-0.9121246337890624,0.0108678275719285,0.0074200993403792,-0.0028506475500762
1768725501549,0.128662109375,-0.367919921875,-0.91351318359375,0.0068626999855041,0.002371278591454,-0.0045825014822185
1768725501559,0.1295013427734375,-0.3695831298828125,-0.9107513427734376,-0.0006852313526906,-0.0052621401846408,-0.0070837419480085
1768725501569,0.1302032470703125,-0.3680267333984375,-0.90936279296875,-0.0070656328462064,-0.0047476170584559,-0.0105631621554493
1768725501579,0.134063720703125,-0.35992431640625,-0.917236328125,0.0004799016169272,0.0106393285095691,-0.0073439329862594
1768725501589,0.1379547119140625,-0.3614959716796875,-0.9319000244140624,0.0172144062817096,0.0286420304328203,-0.0051806471310555
1768725501599,0.137176513671875,-0.3615570068359375,-0.9346771240234376,0.0309587139636278,0.0359883606433868,-0.0051111388020217
1768725501609,0.1349334716796875,-0.3591461181640625,-0.92901611328125,0.0397247746586799,0.0337766073644161,-0.0019089538836851
1768725501619,0.134552001953125,-0.3633575439453125,-0.92376708984375,0.0456463135778903,0.0277211107313632,-0.000409327854868
1768725501629,0.1341552734375,-0.3668365478515625,-0.9192962646484376,0.0446114093065261,0.0294511001557111,0.0028021780308336
1768725501639,0.13336181640625,-0.3674774169921875,-0.9087677001953124,0.0330724641680717,0.0240323655307292,0.007146859075874
1768725501649,0.135101318359375,-0.3685760498046875,-0.9005279541015625,0.0176524966955184,0.0157992038875818,0.0106960535049438
1768725501659,0.1358795166015625,-0.3721466064453125,-0.8963165283203125,-0.0021337247453629,0.010416155681014,0.0083980122581124
1768725501670,0.1343841552734375,-0.3711395263671875,-0.899139404296875,-0.0158423464745283,0.0067053069360554,0.0074909394606947
1768725501679,0.13623046875,-0.36688232421875,-0.9089508056640624,-0.018523083999753,0.011806858703494,0.0062770708464086
1768725501690,0.13848876953125,-0.3663482666015625,-0.920562744140625,-0.0151928011327981,0.0174490306526422,0.0053087454289197
1768725501700,0.134429931640625,-0.369354248046875,-0.9261627197265624,-0.0072363414801657,0.0209215264767408,0.0035103126429021
1768725501710,0.1355133056640625,-0.3713531494140625,-0.9290313720703124,0.0005315669695846,0.0177361201494932,0.0029166939202696
1768725501720,0.13433837890625,-0.3732757568359375,-0.9258575439453124,0.0090805804356932,0.0128340395167469,-0.0024495755787938
1768725501730,0.1309814453125,-0.3739166259765625,-0.925140380859375,0.0162340980023145,0.0111844772472977,-0.002649845322594
1768725501740,0.1300048828125,-0.372283935546875,-0.923583984375,0.0184160247445106,0.0112049840390682,-0.0009768474847078
1768725501750,0.1317291259765625,-0.3699951171875,-0.92059326171875,0.0224749483168125,0.0132050178945064,-0.0027079021092504
1768725501760,0.1330108642578125,-0.370086669921875,-0.9211273193359376,0.0232488643378019,0.0242134612053632,-0.0038320224266499
1768725501770,0.133270263671875,-0.371795654296875,-0.91754150390625,0.0222445856779813,0.0292601510882377,-0.0032511870376765
1768725501780,0.1365966796875,-0.36968994140625,-0.9149627685546876,0.0199404191225767,0.0198586601763963,-0.0018357168883085
1768725501790,0.1380462646484375,-0.3688201904296875,-0.9106597900390624,0.0167632680386304,0.0107120331376791,-0.000711330329068
1768725501800,0.13763427734375,-0.3686981201171875,-0.9085845947265624,0.0126332370564341,0.0038874163292348,0.0006253102328628
1768725501810,0.137786865234375,-0.3697662353515625,-0.910491943359375,0.0085735144093632,0.0021174794528633,0.0033398703671991
1768725501820,0.136444091796875,-0.3662872314453125,-0.914581298828125,0.0107200220227241,0.0062286010943353,0.0032506543211638
1768725501830,0.136444091796875,-0.367431640625,-0.9189605712890624,0.0154977329075336,0.0176857858896255,0.0018226674292236
1768725501840,0.1368560791015625,-0.370635986328125,-0.9225311279296876,0.0248907022178173,0.0238733738660812,0.0017744642682373
1768725501850,0.1384429931640625,-0.370361328125,-0.9249114990234376,0.0287530850619077,0.0288678668439388,0.00154649768956
1768725501861,0.1382598876953125,-0.368743896484375,-0.9212493896484376,0.029772276058793,0.0322990827262401,0.0024008397012948
1768725501870,0.1367645263671875,-0.371490478515625,-0.9172821044921876,0.027966920286417,0.0277216434478759,0.0003523362101987
1768725501880,0.1363372802734375,-0.3721466064453125,-0.908447265625,0.0208416320383548,0.0222541727125644,0.0035723643377423
1768725501891,0.1357421875,-0.37213134765625,-0.901947021484375,0.0063100936822593,0.0117240343242883,0.0020700751338154
1768725501900,0.1324005126953125,-0.371734619140625,-0.8975067138671875,-0.0103879263624548,0.0041212416253983,0.0003440804139245
1768725501911,0.1324005126953125,-0.37103271484375,-0.898101806640625,-0.0203268434852361,6.444849714171141e-05,-0.0005400890368036
1768725501921,0.134368896484375,-0.371368408203125,-0.90777587890625,-0.0218784008175134,0.0089319758117198,-0.0019979034550487
1768725501931,0.1317901611328125,-0.3713836669921875,-0.914306640625,-0.0192794222384691,0.0167230535298585,-0.0036096484400331
1768725501941,0.1318511962890625,-0.367919921875,-0.9166259765625,-0.0162601955235004,0.0201920866966247,-0.0040655815973877
1768725501951,0.135589599609375,-0.370361328125,-0.9154815673828124,-0.0104180201888084,0.0166809763759374,-0.0033625070936977
1768725501961,0.134613037109375,-0.3700408935546875,-0.9134674072265624,-0.0090451603755354,0.0063479105010628,-0.0022780678700655
1768725501971,0.132080078125,-0.3689117431640625,-0.911376953125,-0.0089255841448903,-0.005266667343676,0.0018421085551381
1768725501981,0.1366729736328125,-0.3689117431640625,-0.9118194580078124,-0.009557818993926,-0.0126265790313482,0.0020844561513513
1768725501991,0.137176513671875,-0.36920166015625,-0.912506103515625,-0.0190517213195562,-0.0059769325889647,-0.0002934803487733
1768725502001,0.135986328125,-0.3699493408203125,-0.9088592529296876,-0.0283621326088905,0.0016381103778257,-0.0033148366492241
1768725502011,0.1349945068359375,-0.3707122802734375,-0.90643310546875,-0.0412920452654361,0.0042067291215062,-0.0043084621429443
1768725502021,0.136138916015625,-0.3713531494140625,-0.9052886962890624,-0.0440414920449256,-0.0065465825609862,0.0008042746339924
1768725502031,0.13763427734375,-0.3700714111328125,-0.912628173828125,-0.0410358496010303,-0.0155472680926322,0.0029838057234883
1768725502041,0.1353759765625,-0.37432861328125,-0.9192962646484376,-0.0366741232573986,-0.0116281602531671,-0.0053678676486015
1768725502051,0.131500244140625,-0.3766632080078125,-0.92669677734375,-0.0246353056281805,-0.0047039412893354,-0.0072248894721269
1768725502061,0.1351470947265625,-0.371795654296875,-0.932586669921875,-0.0052751894108951,-0.0004809668753296,-0.0028399948496371
1768725502071,0.1405029296875,-0.35955810546875,-0.9310302734375,0.0146963885053992,0.0001605886063771,0.0084440847858786
1768725502082,0.1448516845703125,-0.3570098876953125,-0.931854248046875,0.0285448264330625,0.0171179994940757,0.0130324447527527
1768725502091,0.1434783935546875,-0.3658905029296875,-0.928558349609375,0.0161808338016271,0.0266843419522047,0.0006732470938004
1768725502101,0.134002685546875,-0.3793182373046875,-0.915130615234375,0.0121336281299591,0.0244584716856479,-0.0079527320340275
1768725502112,0.134063720703125,-0.36846923828125,-0.9109344482421876,0.0159358233213424,0.0211119428277015,0.0020381172653287
1768725502122,0.139068603515625,-0.364990234375,-0.9080963134765624,0.0123357623815536,0.0074475300498306,0.0063479105010628
1768725502132,0.1359100341796875,-0.3690185546875,-0.9065704345703124,0.0046996804885566,0.0071497885510325,-0.0025987126864492
1768725502142,0.134552001953125,-0.3699798583984375,-0.9130859375,0.0057945060543715,0.0162351634353399,-0.0024844629224389
1768725502152,0.1410675048828125,-0.363555908203125,-0.9136505126953124,-0.0005888249143026,0.015180816873908,0.0063812001608312
1768725502162,0.1419677734375,-0.36016845703125,-0.904693603515625,-0.0194972679018974,0.0058235344476997,0.0143283391371369
1768725502172,0.14007568359375,-0.36431884765625,-0.8976898193359375,-0.0340367965400218,0.0054469634778797,0.0167693924158811
1768725502182,0.140106201171875,-0.37274169921875,-0.9040069580078124,-0.0398083999752998,0.0047223172150552,0.0154039897024631
1768725502192,0.136474609375,-0.3766937255859375,-0.912017822265625,-0.044683314859867,0.003223223844543,0.0057444386184215
1768725502202,0.1282501220703125,-0.3744049072265625,-0.9137725830078124,-0.0380152910947799,-0.0108811436221003,0.0030471889767795
1768725502212,0.136749267578125,-0.3725128173828125,-0.9278106689453124,-0.016540627926588,-0.0150386039167642,0.0066911922767758
1768725502222,0.1403350830078125,-0.3717041015625,-0.939208984375,0.0019923108629882,-0.0077330209314823,0.0101186800748109
1768725502232,0.136444091796875,-0.3673553466796875,-0.93804931640625,0.0163329001516103,-0.0017310547409579,0.0086819054558873
1768725502242,0.1366424560546875,-0.3651123046875,-0.935028076171875,0.0282817054539918,-0.0004604605492204,0.014779744669795
1768725502252,0.1373291015625,-0.365966796875,-0.93035888671875,0.0390187725424766,0.0104768760502338,0.0141131561249494
1768725502262,0.131591796875,-0.3687896728515625,-0.9240570068359376,0.0426851473748683,0.0103471800684928,0.010187922976911
1768725502272,0.1274566650390625,-0.369964599609375,-0.9122467041015624,0.040297619998455,-0.0001177117228507,0.0057257963344454
1768725502282,0.1288299560546875,-0.3697662353515625,-0.907501220703125,0.032897762954235,-0.0111083108931779,0.0053646718151867
1768725502292,0.13055419921875,-0.370208740234375,-0.905364990234375,0.0270526558160781,-0.0166591368615627,0.0010045443195849
1768725502302,0.131011962890625,-0.3729248046875,-0.9039459228515624,0.0142423193901777,-0.013874003663659,-0.0041364217177033
1768725502313,0.1301727294921875,-0.371734619140625,-0.8991546630859375,-0.0063074305653572,-0.0093836477026343,-0.0062104915268719
1768725502322,0.1333465576171875,-0.3687286376953125,-0.8936614990234375,-0.0265453234314918,-0.0048458878882229,-0.0077114491723477
1768725502333,0.1370697021484375,-0.366729736328125,-0.895538330078125,-0.0459581688046455,0.0009219863568432,-0.0119080580770969
1768725502343,0.13916015625,-0.36602783203125,-0.89630126953125,-0.0599869042634964,0.0004924184759147,-0.0071023842319846
1768725502354,0.1399688720703125,-0.3678131103515625,-0.9019012451171876,-0.0746342912316322,-0.0010759170399978,-0.0088243838399648
1768725502363,0.136383056640625,-0.3716888427734375,-0.9034423828125,-0.0860693678259849,-0.0076850838959217,-0.0070696272887289
1768725502373,0.13616943359375,-0.36846923828125,-0.906341552734375,-0.0868022739887237,-0.0113490605726838,-0.0067670922726392
1768725502383,0.1355438232421875,-0.370880126953125,-0.916046142578125,-0.0751586630940437,-0.01804930716753,-0.0147078400477766
1768725502393,0.12921142578125,-0.3721466064453125,-0.92620849609375,-0.054081343114376,-0.0252502281218767,-0.0206224545836448
1768725502403,0.136444091796875,-0.3632965087890625,-0.9359130859375,-0.025114407762885,-0.0134537573903799,-0.0136178079992532
1768725502413,0.139404296875,-0.361968994140625,-0.9474639892578124,-0.0006641923682764,0.0017819210188463,-0.0103953825309872
1768725502423,0.13592529296875,-0.367401123046875,-0.9479827880859376,0.0199236404150724,0.0199159178882837,-0.0104909902438521
1768725502433,0.1383056640625,-0.3658905029296875,-0.944000244140625,0.033222135156393,0.0296558961272239,-0.005683185532689
1768725502443,0.1414337158203125,-0.364044189453125,-0.9355010986328124,0.0431354865431785,0.0299586970359087,0.0008777778712101
1768725502453,0.142974853515625,-0.36895751953125,-0.9256591796875,0.0452694781124591,0.0305190272629261,0.0040229712612926
1768725502463,0.1399383544921875,-0.3696136474609375,-0.917144775390625,0.0394557975232601,0.0281027406454086,0.0026362631469964
1768725502473,0.139404296875,-0.369842529296875,-0.9094390869140624,0.0337643548846244,0.0161017384380102,0.008542088791728
1768725502483,0.1421966552734375,-0.3698883056640625,-0.9108734130859376,0.0277464091777801,0.0117794275283813,0.009972739033401
1768725502493,0.140106201171875,-0.3691864013671875,-0.9142608642578124,0.0217982400208711,0.0171571485698223,0.0087298415601253
1768725502503,0.1381072998046875,-0.3711090087890625,-0.9120941162109376,0.0135560221970081,0.0151318153366446,0.0092560825869441
1768725502513,0.1371307373046875,-0.3704071044921875,-0.907318115234375,0.0075852153822779,0.0109389340505003,0.0076648439280688
1768725502523,0.13482666015625,-0.3702239990234375,-0.9063568115234376,0.0009800433181226,0.009557019919157,0.0016090818680822
1768725502533,0.1327056884765625,-0.369659423828125,-0.908233642578125,-0.002829608740285,0.0054568168707191,-0.0017997642280533
1768725502543,0.1355438232421875,-0.371124267578125,-0.9131011962890624,-0.0041414815932512,0.0073391394689679,-0.0044381581246852
1768725502554,0.1363983154296875,-0.36871337890625,-0.91265869140625,-0.0066981161944568,0.0117991352453827,-0.0071295485831797
1768725502564,0.1384735107421875,-0.366607666015625,-0.917205810546875,-0.0038815571460872,0.0150425992906093,-0.0036645096261054
1768725502574,0.1413726806640625,-0.36883544921875,-0.91961669921875,0.0006689860601909,0.0215431079268455,-0.0026290726382285
1768725502584,0.140625,-0.3684539794921875,-0.9179840087890624,0.0043534692376852,0.0217058286070823,0.0014612764352932
1768725502594,0.1410675048828125,-0.370697021484375,-0.91552734375,0.0045910235494375,0.0220557674765586,0.0016903083305805
1768725502604,0.1394500732421875,-0.3724212646484375,-0.909912109375,-0.0013813816476613,0.0212144739925861,0.0006639260682277
1768725502614,0.1377410888671875,-0.36834716796875,-0.905609130859375,-0.0097096189856529,0.0120060630142688,0.0029108349699527
1768725502624,0.137908935546875,-0.369964599609375,-0.9052276611328124,-0.011461978778243,0.0036370791494846,0.0041880873031914
1768725502634,0.140350341796875,-0.37322998046875,-0.9123382568359376,-0.009214537218213,0.0032237565610557,0.0053281863220036
1768725502644,0.1386871337890625,-0.3744354248046875,-0.912994384765625,-0.0131823811680078,0.0087407613173127,0.0022517025936394
1768725502654,0.1336212158203125,-0.374420166015625,-0.907684326171875,-0.0181419849395751,0.0090960264205932,-0.0018216022290289
1768725502664,0.13421630859375,-0.3747100830078125,-0.9069061279296876,-0.0222616288810968,-0.0022224078420549,-0.0010354369878768
1768725502674,0.1343994140625,-0.3745574951171875,-0.9060821533203124,-0.0224637631326913,-0.0072821476496756,-0.0040392163209617
1768725502684,0.1356658935546875,-0.3727264404296875,-0.91156005859375,-0.0231077168136835,-0.0079375514760613,-0.0014383733505383
1768725502694,0.13800048828125,-0.3709716796875,-0.912811279296875,-0.0274998005479574,-0.0085572693496942,0.0005083974683657
1768725502704,0.1364593505859375,-0.3694000244140625,-0.9104461669921876,-0.0356293655931949,-0.0099538303911685,-0.0091732582077384
1768725502714,0.13458251953125,-0.368682861328125,-0.912109375,-0.0304005164653062,-0.0139965089038014,-0.0103799365460872
1768725502724,0.1416778564453125,-0.3692626953125,-0.92938232421875,-0.0130683975294232,-0.0102478433400392,-0.0106350677087903
1768725502734,0.1412353515625,-0.3691253662109375,-0.938323974609375,0.0043878243304789,0.0012474246323108,-0.0124790398404002
1768725502745,0.139862060546875,-0.3662872314453125,-0.9352569580078124,0.0142316659912467,0.013619671575725,-0.0106981843709945
1768725502754,0.1440277099609375,-0.36346435546875,-0.9339752197265624,0.0300686862319707,0.0122015383094549,-0.0042884880676865
1768725502765,0.1464996337890625,-0.36322021484375,-0.92767333984375,0.0382760167121887,0.0118577247485518,0.001775263226591
1768725502775,0.14337158203125,-0.3648529052734375,-0.9176025390625,0.0354972742497921,0.0131727932021021,0.0056464341469109
1768725502785,0.1376953125,-0.368560791015625,-0.9076080322265624,0.0279378909617662,0.0150394029915332,0.0044946167618036
1768725502795,0.1384735107421875,-0.3678131103515625,-0.9024810791015624,0.0156207708641886,0.0079167792573571,0.0051721250638365
1768725502805,0.1403656005859375,-0.3664093017578125,-0.900543212890625,0.0026700852904468,-0.0037872814573347,0.0084153227508068
1768725502815,0.138671875,-0.3680267333984375,-0.9026336669921876,-0.0060126185417175,-0.0049044773913919,0.0103628924116492
1768725502825,0.138092041015625,-0.371490478515625,-0.905059814453125,-0.0100752711296081,-0.0029965888243168,0.0082933502271771
1768725502835,0.135162353515625,-0.375640869140625,-0.903564453125,-0.0279844962060451,-0.0033124396577477,0.0011068097082898
1768725502845,0.1329803466796875,-0.3766632080078125,-0.8973846435546875,-0.0426971316337585,-0.0052030179649591,-0.005951898638159
1768725502855,0.1326904296875,-0.372650146484375,-0.90087890625,-0.0483395680785179,-0.0124707845970988,-0.0113400062546134
1768725502865,0.137237548828125,-0.3627471923828125,-0.914947509765625,-0.0304678939282894,-0.0102110924199223,-0.0020311928819864
1768725502875,0.14453125,-0.3587188720703125,-0.9322967529296876,-0.0078435419127345,0.0057023605331778,0.0071503212675452
1768725502885,0.1413421630859375,-0.3617401123046875,-0.9369964599609376,-0.0016133430181071,0.0106822056695818,-0.0036834180355072
1768725502895,0.1271209716796875,-0.3831787109375,-0.9273834228515624,0.0003312972257845,0.0170610081404447,-0.021575866267085
1768725502905,0.1268157958984375,-0.3783721923828125,-0.924163818359375,0.018213091418147,0.016032762825489,-0.0136684076860547
1768725502915,0.139251708984375,-0.3616790771484375,-0.9219818115234376,0.0333395823836326,-0.0032194955274462,0.0005294363945722
1768725502925,0.139495849609375,-0.3615570068359375,-0.9171142578125,0.0368184670805931,-0.0064616277813911,-0.0012173309223726
1768725502935,0.1378173828125,-0.365478515625,-0.9132843017578124,0.0292862504720687,0.0003640541108325,-0.0022943131625652
1768725502945,0.139739990234375,-0.361053466796875,-0.9029998779296876,0.007849134504795,-0.0013443636707961,0.005502357147634
1768725502956,0.144866943359375,-0.3544921875,-0.8907928466796875,-0.0181177519261837,-0.0059156795032322,0.016250342130661
1768725502965,0.1435394287109375,-0.362030029296875,-0.886993408203125,-0.0464423336088657,-0.0112374741584062,0.0167187917977571
1768725502976,0.1379241943359375,-0.3719482421875,-0.88800048828125,-0.0701066479086875,-0.0159832276403903,0.0121099259704351
1768725502986,0.1364898681640625,-0.374176025390625,-0.8945465087890625,-0.0842914432287216,-0.0201569329947233,0.0065987803973257
1768725502996,0.1367034912109375,-0.3767547607421875,-0.9143218994140624,-0.0803017616271972,-0.0172972306609153,0.0011832424206659
1768725503006,0.13702392578125,-0.3756866455078125,-0.928070068359375,-0.072097897529602,-0.009843842126429,0.0005004079430364
1768725503016,0.1358489990234375,-0.3697967529296875,-0.9340057373046876,-0.0520932935178279,0.0019542276859283,0.0043393545784056
1768725503026,0.1363067626953125,-0.3661041259765625,-0.943572998046875,-0.0202613286674022,0.0191651731729507,0.0076989321969449
1768725503036,0.1379241943359375,-0.365325927734375,-0.9485321044921876,0.0027547737117856,0.0153049202635884,0.0108252167701721
1768725503046,0.1369781494140625,-0.36297607421875,-0.9402008056640624,0.019622704014182,0.0001416801678715,0.0145320706069469
1768725503056,0.1353607177734375,-0.361968994140625,-0.9342193603515624,0.0321054719388484,-0.0037891454994678,0.0133538888767361
1768725503066,0.1348419189453125,-0.367431640625,-0.931365966796875,0.0413415804505348,0.0037246970459818,0.0126260463148355
1768725503076,0.135650634765625,-0.3692779541015625,-0.92449951171875,0.0379428565502166,0.0074784224852919,0.0090672643855214
1768725503086,0.1325836181640625,-0.3708038330078125,-0.9121246337890624,0.0296335257589817,0.0007736482657492,0.0087655279785394
1768725503096,0.1348419189453125,-0.3723907470703125,-0.9027252197265624,0.0200884900987148,-0.0120409503579139,0.0095048220828175
1768725503106,0.1368408203125,-0.37115478515625,-0.9005889892578125,0.0080099897459149,-0.0181094948202371,0.0083759082481265
1768725503116,0.1332550048828125,-0.3719329833984375,-0.8994293212890625,-0.0025808694772422,-0.0159121211618185,0.0052038165740668
1768725503126,0.1328125,-0.370819091796875,-0.9040069580078124,-0.0121930167078971,-0.0111128380522131,0.000637560733594
1768725503136,0.1330718994140625,-0.3724822998046875,-0.9098358154296876,-0.0160913523286581,-0.0130079435184597,-0.0017227989155799
1768725503146,0.1324310302734375,-0.3745269775390625,-0.91363525390625,-0.0165147949010133,-0.0086832363158464,-0.0062179486267268
1768725503156,0.1348724365234375,-0.3745574951171875,-0.9178009033203124,-0.0143448505550622,-0.0014777880860492,-0.0075228973291814
1768725503166,0.139312744140625,-0.367919921875,-0.920867919921875,-0.0099189430475234,0.0063226106576621,-0.0027997812721878
1768725503176,0.1399383544921875,-0.3662109375,-0.9214935302734376,-0.0077687073498964,0.0057859835214912,-0.0078784292563796
1768725503186,0.1361083984375,-0.3701934814453125,-0.922576904296875,-0.0028559740167111,0.0090110721066594,-0.0104515757411718
1768725503196,0.13861083984375,-0.3614959716796875,-0.926666259765625,0.0120300315320491,0.0032005868852138,0.0006173207075335
1768725503207,0.1417694091796875,-0.3535308837890625,-0.9251251220703124,0.018551580607891,0.0012247877893969,0.0106473183259367
1768725503217,0.1372833251953125,-0.363250732421875,-0.9181671142578124,0.0139003694057464,0.003877029987052,0.0094507597386837
1768725503227,0.1324920654296875,-0.370513916015625,-0.907012939453125,0.0015768576413393,0.0062006381340324,0.0040828920900821
1768725503237,0.1331939697265625,-0.3692626953125,-0.9021453857421876,-0.0106715522706508,0.0021238708868622,0.0045428201556205
1768725503247,0.1357879638671875,-0.369110107421875,-0.90277099609375,-0.0191763583570718,-0.005803560372442,0.0025822010356932
1768725503257,0.136962890625,-0.3719329833984375,-0.9115753173828124,-0.0178857892751693,0.0005755090969614,0.0054400390945374
1768725503267,0.1373443603515625,-0.372344970703125,-0.9196014404296876,-0.0159390196204185,0.0047327033244073,0.0035739622544497
1768725503277,0.1357421875,-0.3695068359375,-0.9203643798828124,-0.0173307862132787,0.0067021111026406,0.0040131174027919
1768725503287,0.1310272216796875,-0.3705902099609375,-0.915191650390625,-0.0121607920154929,-0.0016138756182044,-0.0003518035809975
1768725503297,0.12945556640625,-0.3736724853515625,-0.9206085205078124,2.0772657080669887e-05,-0.011528025381267,-0.0037723677232861
1768725503307,0.1291046142578125,-0.3770599365234375,-0.92755126953125,0.0132143385708332,-0.0040863542817533,-0.0125621305778622
1768725503317,0.1285247802734375,-0.37188720703125,-0.9277191162109376,0.0214882474392652,0.0057548247277736,-0.0153262251988053
1768725503327,0.1325836181640625,-0.3690338134765625,-0.92486572265625,0.0253743324428796,0.0012399677652865,-0.0104696853086352
1768725503337,0.1364593505859375,-0.3698577880859375,-0.9207305908203124,0.0220363270491361,0.0127405626699328,-0.0112603772431612
1768725503347,0.1351318359375,-0.3685302734375,-0.9126739501953124,0.0150151681154966,0.0222059693187475,-0.0090965591371059
1768725503357,0.1324462890625,-0.3713226318359375,-0.9063568115234376,0.0059521649964153,0.012304070405662,-0.0102888569235801
1768725503367,0.1305694580078125,-0.372650146484375,-0.8996429443359375,-0.0044480115175247,-0.001096157124266,-0.0127267139032483
1768725503378,0.1299285888671875,-0.374053955078125,-0.9024810791015624,-0.0095077510923147,-0.007089068647474,-0.0153560526669025
1768725503387,0.1292724609375,-0.37030029296875,-0.906524658203125,-0.0139501700177788,-0.0098353205248713,-0.0198796987533569
1768725503397,0.1287841796875,-0.372161865234375,-0.9114532470703124,-0.0101775359362363,-0.0081484736874699,-0.022056033834815
1768725503408,0.133392333984375,-0.37139892578125,-0.918792724609375,-0.0039939428679645,-0.0048370994627475,-0.0205465536564588
1768725503418,0.1346435546875,-0.36865234375,-0.92059326171875,-0.0042927493341267,0.0033345439005643,-0.0200698487460613
1768725503427,0.1366119384765625,-0.3681488037109375,-0.91796875,0.0005275722360238,0.0116545250639319,-0.0178543645888566
1768725503438,0.137115478515625,-0.3681488037109375,-0.9177703857421876,-0.0027433221694082,0.0065066353417932,-0.0149584431201219
1768725503448,0.134307861328125,-0.3704071044921875,-0.9095306396484376,-0.0082547338679432,-0.002470081904903,-0.0112406704574823
1768725503458,0.1377105712890625,-0.3728790283203125,-0.907379150390625,-0.0135123468935489,-0.0017986990278586,-0.0095516936853528
1768725503468,0.1401214599609375,-0.368865966796875,-0.9103240966796876,-0.0206291116774082,0.0051063448190689,-0.0080134514719247
1768725503478,0.1417999267578125,-0.366973876953125,-0.9119873046875,-0.0238131880760192,0.0115490639582276,-0.0060387179255485
1768725503488,0.1424560546875,-0.3693389892578125,-0.918548583984375,-0.0218706782907247,0.0201774407178163,-0.0045079328119754
1768725503498,0.1374359130859375,-0.3711395263671875,-0.91650390625,-0.0224195551127195,0.0146492505446076,-0.0033129723742604
1768725503508,0.1367950439453125,-0.372833251953125,-0.9182281494140624,-0.0184040404856205,0.0067223510704934,0.0001326254277955
1768725503518,0.1398468017578125,-0.370208740234375,-0.920654296875,-0.0158274322748184,0.009572465904057,0.0039888825267553
1768725503528,0.142486572265625,-0.3684539794921875,-0.9193878173828124,-0.0186328068375587,0.0151363424956798,0.0045055360533297
1768725503538,0.14031982421875,-0.36773681640625,-0.917205810546875,-0.0208778511732816,0.0114776911213994,0.0079604545608162
1768725503548,0.1394195556640625,-0.367218017578125,-0.91754150390625,-0.0173409078270196,0.0107804760336875,0.0119818281382322
1768725503558,0.1385345458984375,-0.3674774169921875,-0.9225006103515624,-0.016482038423419,0.0190860759466886,0.0085333008319139
1768725503568,0.1348114013671875,-0.3653564453125,-0.9212646484375,-0.0107559747993946,0.0213580187410116,0.0080318273976445
1768725503578,0.1332855224609375,-0.367034912109375,-0.919525146484375,-0.0035372106358408,0.0217148829251527,0.0049377670511603
1768725503588,0.1304473876953125,-0.36993408203125,-0.9237823486328124,0.0068608354777097,0.0246832426637411,0.0017963021527975
1768725503598,0.129608154296875,-0.371826171875,-0.92181396484375,0.0083455480635166,0.0182525068521499,-0.002535329433158
1768725503608,0.1273345947265625,-0.3717803955078125,-0.9140777587890624,0.004235491156578,0.0095375785604119,-0.0045848982408642
1768725503619,0.1299591064453125,-0.3679656982421875,-0.9073486328125,-0.000908670539502,-0.0037726340815424,-0.0042261704802513
1768725503628,0.1324920654296875,-0.3656158447265625,-0.90802001953125,-0.0048416266217827,-0.0078027956187725,-0.0035366779193282
1768725503639,0.13494873046875,-0.363983154296875,-0.91015625,-0.0093668699264526,-0.004619519226253,-0.0060480386018753
1768725503649,0.134307861328125,-0.366363525390625,-0.912139892578125,-0.0212261918932199,-0.0033209619577974,-0.0146838715299963
1768725503659,0.132537841796875,-0.3699188232421875,-0.909759521484375,-0.0275504011660814,-0.0011744539951905,-0.0201777070760726
1768725503669,0.1346893310546875,-0.3636322021484375,-0.9138641357421876,-0.0258662179112434,-0.0043449471704661,-0.0171741936355829
1768725503679,0.1392974853515625,-0.3543701171875,-0.916473388671875,-0.0181944500654935,-0.0103865945711731,-0.0101186800748109
1768725503689,0.1410369873046875,-0.3564910888671875,-0.9220428466796876,-0.0129027487710118,-0.0122891571372747,-0.00830639898777
1768725503699,0.1410980224609375,-0.3635406494140625,-0.9259033203125,-0.0094797881320118,-0.008192416280508,-0.0179254710674285
1768725503709,0.133697509765625,-0.374237060546875,-0.93072509765625,-0.0010791128734126,0.0235820244997739,-0.0245285127311944
1768725503719,0.138275146484375,-0.362060546875,-0.928955078125,0.0078400801867246,0.0254465043544769,-0.0155483335256576
1768725503729,0.139862060546875,-0.3606109619140625,-0.9216461181640624,0.0146609684452414,0.0134494956582784,-0.010767426341772
1768725503739,0.1357879638671875,-0.3663482666015625,-0.914459228515625,0.0192277561873197,0.0134585509076714,-0.0184631627053022
1768725503749,0.13372802734375,-0.366241455078125,-0.910675048828125,0.0170865748077631,0.0025747441686689,-0.0138961086049675
1768725503759,0.1450653076171875,-0.3566131591796875,-0.902618408203125,0.0063343285582959,-0.0094667384400963,-0.000482564792037
1768725503769,0.1491241455078125,-0.3527984619140625,-0.8987884521484375,-0.0057452372275292,-0.0127200558781623,0.0089021483436226
1768725503779,0.1478118896484375,-0.3600921630859375,-0.9030303955078124,-0.0169691294431686,-0.0086510125547647,0.0112260226160287
1768725503789,0.142852783203125,-0.369232177734375,-0.9073638916015624,-0.0316583290696144,0.0064746770076453,0.0043204464018344
1768725503799,0.1395263671875,-0.3718719482421875,-0.9085235595703124,-0.036573190242052,0.0102039016783237,-0.0017776599852368
1768725503809,0.138397216796875,-0.372039794921875,-0.914276123046875,-0.0427959337830543,0.0053785201162099,-0.0034685009159147
1768725503819,0.1390228271484375,-0.37127685546875,-0.91461181640625,-0.0405349098145961,0.000300670886645,-0.0018572885310277
1768725503829,0.1395111083984375,-0.3686065673828125,-0.920074462890625,-0.0353675782680511,-0.0010825749486684,0.0005209143273532
1768725503839,0.1385498046875,-0.36883544921875,-0.9260101318359376,-0.0263013783842325,-7.483482477255166e-05,-0.0009283779654651
1768725503850,0.138458251953125,-0.3680877685546875,-0.93109130859375,-0.0107410615310072,-0.0017805894603952,0.0031941954512149
1768725503860,0.13787841796875,-0.3638763427734375,-0.9340057373046876,0.0015419702976942,0.0018032263033092,0.006484530866146
1768725503870,0.141357421875,-0.3620758056640625,-0.9374237060546876,0.0142649561166763,0.0092499572783708,0.0078438082709908
1768725503880,0.139007568359375,-0.3634033203125,-0.9348602294921876,0.0207348391413688,0.0205153953284025,0.0022730079945176
1768725503890,0.135406494140625,-0.3653411865234375,-0.930511474609375,0.0276883523911237,0.0299179516732692,0.0006181196658872
1768725503900,0.1344451904296875,-0.369903564453125,-0.92822265625,0.0343116335570812,0.0303179584443569,-0.0005840312223881
1768725503910,0.1336822509765625,-0.372894287109375,-0.918609619140625,0.0291048884391784,0.0239596609026193,-0.0051034153439104
1768725503920,0.1292877197265625,-0.371826171875,-0.9105224609375,0.0241226460784673,0.0180703476071357,-0.009884588420391
1768725503930,0.129364013671875,-0.3718719482421875,-0.90863037109375,0.018411498516798,0.0060738716274499,-0.0109202917665243
1768725503940,0.131317138671875,-0.373077392578125,-0.9073028564453124,0.0093482276424765,0.0025446503423154,-0.0106363985687494
1768725503950,0.132904052734375,-0.373504638671875,-0.9057769775390624,-0.0065593658946454,0.0017715347930788,-0.0159336924552917
1768725503960,0.12933349609375,-0.3720245361328125,-0.901214599609375,-0.020886905491352,-0.0030530479270964,-0.021336181089282
1768725503970,0.132232666015625,-0.370697021484375,-0.9028778076171876,-0.0299672205001115,-0.0190927349030971,-0.0195372160524129
1768725503980,0.139495849609375,-0.3671417236328125,-0.9096221923828124,-0.0289711970835924,-0.0219657532870769,-0.0176828559488058
1768725503990,0.138671875,-0.368682861328125,-0.920166015625,-0.0235785637050867,-0.0098907137289643,-0.0223753470927476
1768725504000,0.138916015625,-0.361724853515625,-0.9242095947265624,-0.0066373962908983,-0.0034876756835728,-0.0174002964049577
1768725504010,0.1443023681640625,-0.3521881103515625,-0.9279022216796876,0.0068419273011386,0.0008370315190404,-0.0077359504066407
1768725504020,0.1443023681640625,-0.3567047119140625,-0.926971435546875,0.0138833252713084,0.0035665053874254,-0.0069844061508774
1768725504030,0.14093017578125,-0.3665008544921875,-0.9217376708984376,0.0169555470347404,0.0091378381475806,-0.0131080783903598
1768725504040,0.1387786865234375,-0.367767333984375,-0.9180450439453124,0.0123477466404438,0.0186487846076488,-0.0091511541977524
1768725504051,0.1427764892578125,-0.3651885986328125,-0.9162139892578124,0.0103429183363914,0.0236579254269599,-0.0033606430515646
1768725504061,0.1438751220703125,-0.3672637939453125,-0.9152679443359376,0.008756473660469,0.022613700479269,-0.0011510181939229
1768725504070,0.1439361572265625,-0.3690185546875,-0.9122314453125,0.0055585498921573,0.019328424707055,-0.0020615530665963
1768725504081,0.14141845703125,-0.367645263671875,-0.90960693359375,0.0056749298237264,0.0145603008568286,-0.0006910903030075
1768725504091,0.14111328125,-0.3692474365234375,-0.9111328125,0.0028983182273805,0.0023403859231621,0.0031947279348969
1768725504101,0.1391143798828125,-0.3707122802734375,-0.9093017578125,-0.0024250745773315,-0.0062099588103592,0.000851945253089
1768725504111,0.1376190185546875,-0.37005615234375,-0.9088897705078124,-0.0011797803454101,-0.0114489290863275,0.0001251685753231
1768725504121,0.1368865966796875,-0.3708343505859375,-0.9157867431640624,0.0033169670496135,-0.0082688489928841,-0.004734834190458
1768725504131,0.1380462646484375,-0.3714752197265625,-0.921966552734375,0.0066081015393137,0.0058765313588082,-0.0087226517498493
1768725504141,0.140716552734375,-0.367828369140625,-0.9210968017578124,0.0029326728545129,0.0144804054871201,-0.007791344076395
1768725504151,0.1431732177734375,-0.3665771484375,-0.91839599609375,-5.5393749789800495e-05,0.0167635343968868,-0.0086337020620703
1768725504161,0.139617919921875,-0.3660736083984375,-0.916259765625,0.0004756405542138,0.0172077491879463,-0.006924485322088
1768725504171,0.1408843994140625,-0.367340087890625,-0.919677734375,0.0029553098138421,0.0224983841180801,-0.0034160367213189
1768725504181,0.137786865234375,-0.3696746826171875,-0.9193878173828124,0.0010910971323028,0.0222302041947841,-0.0030871361959725
1768725504191,0.1373443603515625,-0.372161865234375,-0.913421630859375,-0.0036730316933244,0.0248499568551778,-0.006246977020055
1768725504201,0.1378936767578125,-0.3690338134765625,-0.90814208984375,-0.0115887457504868,0.0210821162909269,-0.0098606199026107
1768725504211,0.14117431640625,-0.368011474609375,-0.9104766845703124,-0.0185885988175869,0.0212118122726678,-0.0085564702749252
1768725504221,0.141815185546875,-0.366973876953125,-0.9116058349609376,-0.021842448040843,0.021601166576147,-0.0120769031345844
1768725504231,0.142333984375,-0.3660430908203125,-0.9163818359375,-0.020053869113326,0.0204357672482728,-0.0147461891174316
1768725504241,0.1416168212890625,-0.3671722412109375,-0.9221954345703124,-0.0149387354031205,0.0245998855680227,-0.0141208786517381
1768725504253,0.1425628662109375,-0.3681640625,-0.9308319091796876,0.0047012781724333,0.0387268885970115,-0.0081127872690558
1768725504261,0.148223876953125,-0.3685150146484375,-0.9374847412109376,0.0118880849331617,0.0655470490455627,-0.0038557245861738
1768725504272,0.151397705078125,-0.36474609375,-0.9257659912109376,-0.0249511562287807,0.1274338513612747,-0.0062515041790902
1768725504282,0.1507110595703125,-0.355133056640625,-0.9013214111328124,-0.0424276180565357,0.1220204457640647,-0.0036717001348733
1768725504292,0.1398773193359375,-0.3594207763671875,-0.89703369140625,-0.0502708926796913,0.0967214852571487,-0.0091210603713989
1768725504302,0.1354827880859375,-0.376678466796875,-0.8924102783203125,-0.0558131970465183,0.0743400081992149,-0.018182199448347
1768725504312,0.140167236328125,-0.3681488037109375,-0.8988189697265625,-0.0597440227866172,0.0640104115009307,-0.0212656073272228
1768725504322,0.1434173583984375,-0.36981201171875,-0.90716552734375,-0.0553170517086982,0.0470772311091423,-0.0219495072960853
1768725504332,0.1440277099609375,-0.37060546875,-0.9197235107421876,-0.0443605408072471,0.0487880446016788,-0.0251106787472963
1768725504342,0.1399078369140625,-0.372344970703125,-0.9158935546875,-0.0392291620373725,0.0357284359633922,-0.0244715213775634
1768725504352,0.1396484375,-0.3686370849609375,-0.90972900390625,-0.0298092942684888,-0.002503637690097,-0.0195545256137847
1768725504362,0.144500732421875,-0.3729400634765625,-0.9127960205078124,-0.0159043986350297,-0.0233263615518808,-0.0172522235661745
1768725504372,0.1489410400390625,-0.366943359375,-0.9247283935546876,-0.0013672668719664,-0.020265057682991,-0.0169558133929967
1768725504382,0.149627685546875,-0.3654022216796875,-0.93316650390625,0.0153363458812236,-0.0007845672662369,-0.0155339520424604
1768725504392,0.152099609375,-0.3618011474609375,-0.9319305419921876,0.0262941885739564,0.0129261845722794,-0.0097306575626134
1768725504402,0.1544647216796875,-0.3612060546875,-0.9256744384765624,0.0319022722542285,0.0123179191723465,-0.0060528325848281
1768725504412,0.1506500244140625,-0.364959716796875,-0.9150848388671876,0.0263298749923706,0.0062714777886867,-0.0057662762701511
1768725504422,0.147613525390625,-0.3634796142578125,-0.9057464599609376,0.020317256450653,-0.013253754004836,-0.0036061864811927
1768725504432,0.149139404296875,-0.3657989501953125,-0.9072265625,0.0162098631262779,-0.0163105297833681,-0.0009598032338544
1768725504442,0.150390625,-0.365142822265625,-0.9105072021484376,0.0054328483529388,-0.0061274007894098,-0.0007914914749562
1768725504452,0.1544036865234375,-0.3653717041015625,-0.910614013671875,-0.0125325694680213,0.0121338944882154,-0.0019869843963533
1768725504462,0.1473388671875,-0.3646240234375,-0.9016265869140624,-0.0396653860807418,0.0169342420995235,-0.0061138188466429
1768725504472,0.147430419921875,-0.35906982421875,-0.89459228515625,-0.0514400228857994,0.009360478259623,-0.0021174794528633
1768725504482,0.152587890625,-0.3538055419921875,-0.9011993408203124,-0.050303116440773,0.0051135355606675,0.0022439796011894
1768725504493,0.14862060546875,-0.3557891845703125,-0.906494140625,-0.0534286051988601,-0.0013648699969053,-0.0014650048688054
1768725504503,0.1478424072265625,-0.36187744140625,-0.91412353515625,-0.055346880108118,-0.0120888873934745,-0.0098305260762572
1768725504513,0.14508056640625,-0.3721466064453125,-0.9250946044921876,-0.0509896799921989,0.0044019389897584,-0.0219899881631135
1768725504523,0.1424713134765625,-0.3614349365234375,-0.929107666015625,-0.0329393073916435,0.01342339720577,-0.016140354797244
1768725504533,0.1484375,-0.361480712890625,-0.9339752197265624,-0.0221574995666742,0.0197878200560808,-0.0107069723308086
1768725504543,0.14947509765625,-0.3610992431640625,-0.9274444580078124,-0.0230744257569313,0.0229298174381256,-0.0167789794504642
1768725504553,0.1469268798828125,-0.3600616455078125,-0.914825439453125,-0.0270412042737007,0.0068866680376231,-0.0085087995976209
1768725504563,0.150360107421875,-0.3583526611328125,-0.9080352783203124,-0.0280710496008396,-0.019007246941328,0.0057359160855412
1768725504573,0.1542816162109375,-0.356597900390625,-0.9087982177734376,-0.0265586394816637,-0.0177094880491495,0.0160665847361087
1768725504583,0.149810791015625,-0.360504150390625,-0.90667724609375,-0.0283722523599863,-0.006436061579734,0.0157904140651226
1768725504593,0.148162841796875,-0.36834716796875,-0.91015625,-0.0329185351729393,0.0013624732382595,0.0134769268333911
1768725504603,0.147308349609375,-0.3725128173828125,-0.9148101806640624,-0.0438619963824749,0.005355617031455,0.0080523341894149
1768725504613,0.1478271484375,-0.370880126953125,-0.915679931640625,-0.0551090575754642,0.0126132639124989,0.0058054248802363
1768725504623,0.1470794677734375,-0.3673553466796875,-0.917694091796875,-0.0630460754036903,0.0121583957225084,-0.0002601908345241
1768725504633,0.145263671875,-0.363739013671875,-0.92095947265625,-0.0601205937564373,0.0009717874927446,-0.0008474178612232
1768725504643,0.1464385986328125,-0.3623504638671875,-0.92474365234375,-0.0416459813714027,-0.0033326798584312,-0.0012849752092733
1768725504653,0.152069091796875,-0.359100341796875,-0.935089111328125,-0.0160024017095565,-0.003189668059349,0.0016903083305805
1768725504663,0.1540985107421875,-0.3556976318359375,-0.9353790283203124,0.0008327704854309,-0.001242897240445,0.0077950726263225
1768725504673,0.152496337890625,-0.3530731201171875,-0.9315338134765624,0.0028293423820286,0.0143397906795144,0.006623547989875
1768725504684,0.147003173828125,-0.3537445068359375,-0.922271728515625,-0.0072943982668221,0.024735439568758,0.0052879727445542
1768725504693,0.1483612060546875,-0.3538970947265625,-0.9125518798828124,-0.0161147881299257,0.0155246313661336,0.007546333130449
1768725504704,0.1473236083984375,-0.357696533203125,-0.911651611328125,-0.0270846150815486,0.0090219909325242,0.0062432484701275
1768725504713,0.14569091796875,-0.35870361328125,-0.9097137451171876,-0.032545693218708,0.0025632926262915,0.0043209786526858
1768725504724,0.1457366943359375,-0.360595703125,-0.9105377197265624,-0.032926257699728,-0.004302336834371,0.0039776973426342
1768725504734,0.1451568603515625,-0.3602294921875,-0.91302490234375,-0.0359553359448909,0.0020463729742914,0.0044799693860113
1768725504744,0.14398193359375,-0.3601837158203125,-0.909698486328125,-0.0410033576190471,0.0011113371001556,0.0013174657942727
1768725504754,0.1419525146484375,-0.363739013671875,-0.90899658203125,-0.0475848279893398,0.0018306568963453,-0.0032258869614452
1768725504764,0.14263916015625,-0.367431640625,-0.9083251953125,-0.0582593120634555,-0.0004474110610317,-0.0097799263894557
1768725504774,0.1439361572265625,-0.3590850830078125,-0.908905029296875,-0.0609978400170803,-0.0011768508702516,-0.008021974004805
1768725504784,0.1531219482421875,-0.353546142578125,-0.9208984375,-0.0534863956272602,0.0100377202033996,-0.0062027685344219
1768725504794,0.15264892578125,-0.35284423828125,-0.929779052734375,-0.0471286289393901,0.0256827268749475,-0.0052839778363704
1768725504804,0.1536712646484375,-0.3448638916015625,-0.92724609375,-0.0354922153055667,0.0319219790399074,0.0014399711508303
1768725504814,0.15252685546875,-0.3447113037109375,-0.9260406494140624,-0.0335310623049736,0.0193236302584409,0.0064062341116368
1768725504824,0.1510009765625,-0.352447509765625,-0.9235076904296876,-0.0299943834543228,0.0171323809772729,0.0062051652930676
1768725504834,0.1474609375,-0.3571319580078125,-0.9187469482421876,-0.0324314422905445,0.0216080900281667,0.0017968347528949
1768725504844,0.14361572265625,-0.3541259765625,-0.9135894775390624,-0.0350274927914142,0.0145786767825484,0.0035944685805588
1768725504854,0.1472015380859375,-0.3569488525390625,-0.911651611328125,-0.0420212186872959,0.0095548890531063,0.0034160367213189
1768725504864,0.145843505859375,-0.355682373046875,-0.913482666015625,-0.0521649345755577,0.0034506577067077,0.000998685369268
1768725504874,0.1461181640625,-0.3553924560546875,-0.9176788330078124,-0.0503409355878829,-0.0005408879951573,-0.0021710088476538
1768725504884,0.144775390625,-0.358673095703125,-0.9247589111328124,-0.0441022142767906,0.0051556136459112,-0.0086451536044478
1768725504894,0.1433258056640625,-0.3570098876953125,-0.9272918701171876,-0.0384752191603183,0.0060387179255485,-0.009295230731368
1768725504904,0.146484375,-0.35394287109375,-0.9261932373046876,-0.0324836410582065,0.0056392434053123,-0.0107940584421157
1768725504914,0.14923095703125,-0.3530426025390625,-0.9243011474609376,-0.0319107957184314,0.0095964344218373,-0.0113509250804781
1768725504924,0.1484375,-0.3538970947265625,-0.921051025390625,-0.0340956524014472,0.0125016765668988,-0.0130020845681428
1768725504934,0.1467742919921875,-0.355865478515625,-0.919464111328125,-0.0375186130404472,0.0109860720112919,-0.0142210135236382
1768725504945,0.145965576171875,-0.3541717529296875,-0.9198150634765624,-0.0378363281488418,-0.0023632892407476,-0.010685933753848
1768725504955,0.1519927978515625,-0.3511810302734375,-0.9216156005859376,-0.0324186608195304,-0.0103495763614773,-0.0048006139695644
1768725504965,0.1498870849609375,-0.3543243408203125,-0.926025390625,-0.0288311149924993,-0.0033904702868312,-0.008461395278573
1768725504975,0.14862060546875,-0.352325439453125,-0.9257659912109376,-0.0247487556189298,0.0005757753970101,-0.0068786786869168
1768725504985,0.1533203125,-0.3502349853515625,-0.925689697265625,-0.0209779869765043,0.0054155378602445,-0.0075351479463279
1768725504995,0.1518402099609375,-0.3478851318359375,-0.9245452880859376,-0.019112441688776,0.0045199170708656,-0.0096805905923247
1768725505005,0.1493682861328125,-0.34808349609375,-0.9243316650390624,-0.0116667756810784,-0.0007107976707629,-0.0086712520569562
1768725505015,0.1520233154296875,-0.3489990234375,-0.9290008544921876,-0.004113252274692,-0.0004820321628358,-0.0062035676091909
1768725505025,0.154144287109375,-0.3484649658203125,-0.93170166015625,0.0010250506456941,0.0078419437631964,-0.006623547989875
1768725505035,0.1541290283203125,-0.3491363525390625,-0.92626953125,-0.0011896340874955,0.018612565472722,-0.005975600797683
1768725505045,0.148345947265625,-0.3506622314453125,-0.9160308837890624,-0.0059140818193554,0.0192426703870296,-0.0075657744891941
1768725505055,0.147979736328125,-0.351531982421875,-0.911895751953125,-0.0109708923846483,0.0118531975895166,-0.0083916205912828
1768725505065,0.150054931640625,-0.352203369140625,-0.911346435546875,-0.0158657822757959,0.0092691322788596,-0.00682701356709
1768725505075,0.1504364013671875,-0.3480987548828125,-0.9114837646484376,-0.023215839639306,0.000155528599862,-0.0058104847557842
1768725505086,0.155517578125,-0.346588134765625,-0.9154815673828124,-0.0250539537519216,0.0011843077372759,-0.0003446130431257
1768725505095,0.1578216552734375,-0.3466033935546875,-0.9207916259765624,-0.0218507032841444,0.0080741718411445,0.0042637209407985
1768725505105,0.1572723388671875,-0.345611572265625,-0.9191131591796876,-0.0270198993384838,0.0112015213817358,0.0038397456519305
1768725505115,0.1555328369140625,-0.345428466796875,-0.9146881103515624,-0.0359374955296516,0.010661432519555,0.002682069549337
1768725505126,0.1553802490234375,-0.349517822265625,-0.9199371337890624,-0.0391319543123245,0.0104529075324535,0.0025814019609242
1768725505135,0.1545867919921875,-0.3484344482421875,-0.928253173828125,-0.0300343316048383,0.0168165303766727,0.0008657936705276
1768725505145,0.1539764404296875,-0.3490447998046875,-0.93255615234375,-0.0192349478602409,0.0212530903518199,0.0044679851271212
1768725505156,0.152862548828125,-0.3484954833984375,-0.932159423828125,-0.0032107068691402,0.0151587128639221,0.0068632322363555
1768725505165,0.1535186767578125,-0.3466033935546875,-0.9354705810546876,0.0104758106172084,0.0171142723411321,0.0102624911814928
1768725505176,0.153472900390625,-0.3479766845703125,-0.9376220703125,0.0217415150254964,0.0269250907003879,0.0104523748159408
1768725505186,0.15069580078125,-0.34759521484375,-0.9322052001953124,0.022778283804655,0.0371303260326385,0.0088451569899916
1768725505196,0.148284912109375,-0.347259521484375,-0.9178924560546876,0.0149014517664909,0.0346237570047378,0.0090715251863002
1768725505206,0.1463775634765625,-0.34747314453125,-0.91046142578125,0.0071889371611177,0.0231644418090581,0.0068786786869168
1768725505216,0.1449127197265625,-0.3480377197265625,-0.90985107421875,-0.0019643476698547,0.0115450695157051,0.0080960094928741
1768725505226,0.1488189697265625,-0.3479461669921875,-0.91302490234375,-0.0034546526148915,0.0142873264849185,0.0071013187989592
1768725505236,0.147308349609375,-0.3522491455078125,-0.917724609375,-0.0115466676652431,0.0035651738289743,0.0055420380085706
1768725505246,0.14996337890625,-0.3518218994140625,-0.9127960205078124,-0.0220674853771924,0.0017467673169448,-0.002306830137968
1768725505256,0.14849853515625,-0.352020263671875,-0.915283203125,-0.0292787924408912,0.0086454199627041,-0.0041566616855561
1768725505266,0.1501312255859375,-0.3511199951171875,-0.9159088134765624,-0.0434819646179676,0.0083242421969771,-0.0049220542423427
1768725505276,0.1548919677734375,-0.3365020751953125,-0.91302490234375,-0.0384493879973888,0.0033087113406509,0.004056526813656
1768725505286,0.1574249267578125,-0.340606689453125,-0.9235992431640624,-0.0272814221680164,0.0041433461010456,0.0057708038948476
1768725505296,0.1558990478515625,-0.3446197509765625,-0.9335479736328124,-0.0144915906712412,-0.0031595742329955,0.0001206411980092
1768725505306,0.149200439453125,-0.360565185546875,-0.93646240234375,-0.0065833339467644,-0.0040424121543765,-0.013342703692615
1768725505318,0.14825439453125,-0.355010986328125,-0.9363861083984376,0.0122348284348845,0.0096475668251514,-0.0082635227590799
1768725505326,0.1515960693359375,-0.3465728759765625,-0.93994140625,0.0243325028568506,0.0143262082710862,-0.0024309335276484
1768725505336,0.1520233154296875,-0.348968505859375,-0.93157958984375,0.028133101761341,0.0152521897107362,-0.0039870184846222
1768725505346,0.1514739990234375,-0.34619140625,-0.923492431640625,0.034305777400732,0.0145725514739751,0.0014524880098178
1768725505357,0.15521240234375,-0.3401031494140625,-0.918487548828125,0.0344413295388221,0.0077370153740048,0.0090829767286777
1768725505367,0.1620025634765625,-0.3344879150390625,-0.9129180908203124,0.0291379112750291,0.0027774106711149,0.0234949402511119
1768725505377,0.1634368896484375,-0.337646484375,-0.9089508056640624,0.0127685256302356,0.0007408913807012,0.0273096524178981
1768725505387,0.158660888671875,-0.346405029296875,-0.90802001953125,-0.0079716397449374,0.0079524656757712,0.0260411873459815
1768725505397,0.1543426513671875,-0.3523406982421875,-0.908416748046875,-0.0264728870242834,0.0134439030662179,0.0261181537061929
1768725505407,0.1528778076171875,-0.3522796630859375,-0.9055633544921876,-0.0428121797740459,-0.000390685716411,0.0217348560690879
1768725505417,0.150390625,-0.356536865234375,-0.9116363525390624,-0.0459475181996822,-0.0075817531906068,0.0217487048357725
1768725505427,0.1461944580078125,-0.357208251953125,-0.9195098876953124,-0.0407200008630752,-0.0125251123681664,0.0172924380749464
1768725505437,0.1421966552734375,-0.35504150390625,-0.9243316650390624,-0.0231109112501144,-0.0309145059436559,0.0156202390789985
1768725505447,0.148345947265625,-0.3506927490234375,-0.933441162109375,-0.0027534421533346,-0.0436334982514381,0.0193726327270269
1768725505457,0.151947021484375,-0.34521484375,-0.9371337890625,0.0087543427944183,-0.0315613895654678,0.0197689104825258
1768725505467,0.149566650390625,-0.3416900634765625,-0.942413330078125,0.0256672799587249,-0.0134407076984643,0.0206701252609491
1768725505477,0.1530303955078125,-0.3463897705078125,-0.944000244140625,0.0365952961146831,0.0041758366860449,0.0206831749528646
1768725505487,0.1527252197265625,-0.34686279296875,-0.9370574951171876,0.0384392663836479,0.011754659935832,0.0199619904160499
1768725505497,0.15093994140625,-0.3441925048828125,-0.9289093017578124,0.0322476848959922,0.0136471027508378,0.017330253496766
1768725505507,0.14788818359375,-0.3503570556640625,-0.9158935546875,0.0187840741127729,0.0047295079566538,0.009972739033401
1768725505517,0.14581298828125,-0.3560943603515625,-0.9061279296875,0.0072669675573706,-0.0100758038461208,0.0052664009854197
1768725505527,0.1412506103515625,-0.35919189453125,-0.9082489013671876,0.0006588660762645,-0.0228965263813734,0.000121440141811
1768725505537,0.141448974609375,-0.3585357666015625,-0.909912109375,-0.0022783342283219,-0.0199428144842386,-0.0027164241764694
1768725505547,0.1414642333984375,-0.3573150634765625,-0.91265869140625,-0.0042671831324696,-0.0167009495198726,-0.0065383268520236
1768725505557,0.1450958251953125,-0.3557891845703125,-0.9139862060546876,-0.0125586688518524,-0.0175435729324817,-0.0088062742725014
1768725505567,0.14874267578125,-0.3499603271484375,-0.9120025634765624,-0.0174884460866451,-0.0170439649373292,-0.0027001791168004
1768725505578,0.15277099609375,-0.3441619873046875,-0.91583251953125,-0.0154726998880505,-0.007407050114125,0.0028983182273805
1768725505588,0.15106201171875,-0.3507843017578125,-0.923858642578125,-0.0105112306773662,0.0001941444352269,-0.0015472965314984
1768725505598,0.150604248046875,-0.34423828125,-0.926116943359375,-0.0037252297624945,-0.0002199771115556,0.003271160647273
1768725505608,0.1568756103515625,-0.336944580078125,-0.924407958984375,0.0043473439291119,-0.0055779907852411,0.0099210739135742
1768725505618,0.1541900634765625,-0.342681884765625,-0.926727294921875,0.0040096552111208,0.0029198897536844,0.0010066748363897
1768725505628,0.151519775390625,-0.34600830078125,-0.927001953125,0.0020050939638167,0.0149603076279163,0.0015406386228278
1768725505638,0.154937744140625,-0.3455810546875,-0.9235687255859376,-0.0036346821580082,0.0239018704742193,0.0031212246976792
1768725505648,0.1538848876953125,-0.34918212890625,-0.9176788330078124,-0.0120374877005815,0.0298678837716579,-0.0009856359101831
1768725505658,0.149200439453125,-0.3534088134765625,-0.9169921875,-0.0165595356374979,0.0238691139966249,-0.0006343649583868
1768725505668,0.145538330078125,-0.3557586669921875,-0.9194793701171876,-0.0135570876300334,0.016062056645751,0.0014138722326606
1768725505678,0.14459228515625,-0.3569488525390625,-0.9261016845703124,-0.0052509545348584,0.0180309321731328,-0.0005752427969127
1768725505688,0.14263916015625,-0.3553619384765625,-0.9270782470703124,0.0028157602064311,0.0108617022633552,-0.0012221246724948
1768725505698,0.14068603515625,-0.35211181640625,-0.9261627197265624,0.0121759725734591,-0.000157392816618,-0.0045231129042804
1768725505708,0.1420135498046875,-0.352142333984375,-0.92156982421875,0.0142617598176002,0.0004279699933249,-0.0080677801743149
1768725505718,0.14154052734375,-0.35247802734375,-0.9175872802734376,0.0077822892926633,-0.0103796701878309,-0.0100915161892771
1768725505728,0.1455078125,-0.3503265380859375,-0.9123992919921876,0.0032642364967614,-0.0114691695198416,-0.008340754546225
1768725505738,0.146759033203125,-0.3487091064453125,-0.911895751953125,-0.0023228090722113,-0.005608350969851,-0.0060813282616436
1768725505748,0.152252197265625,-0.3477783203125,-0.91387939453125,-0.0087929591536521,-0.0070427292957901,-0.0062704128213226
1768725505758,0.153350830078125,-0.3455047607421875,-0.9100799560546876,-0.0226448588073253,-0.0083191823214292,-0.0067154271528124
1768725505768,0.1526031494140625,-0.3456268310546875,-0.9114227294921876,-0.0245189256966114,-0.0074880099855363,-0.0043044672347605
1768725505778,0.153778076171875,-0.3495635986328125,-0.923614501953125,-0.0172285214066505,0.000291083502816,-0.0052847769111394
1768725505789,0.151824951171875,-0.351104736328125,-0.929656982421875,-0.0167411640286445,0.0029750172980129,-0.0060861217789351
1768725505798,0.1509246826171875,-0.3498687744140625,-0.9287261962890624,-0.0089823100715875,6.231796578504145e-05,-0.0057692057453095
1768725505809,0.1489410400390625,-0.35125732421875,-0.925384521484375,-0.0017819210188463,-0.002870887517929,-0.003539873752743
1768725505819,0.1457977294921875,-0.35040283203125,-0.9286956787109376,0.0131600107997655,-0.00664645107463,-0.0007305050967261
1768725505829,0.151092529296875,-0.3506927490234375,-0.93231201171875,0.0275418795645236,-0.0071175643242895,0.0037321539130061
1768725505839,0.1537933349609375,-0.3488311767578125,-0.9286041259765624,0.0298543013632297,-0.007447796408087,0.0106648951768875
1768725505849,0.156585693359375,-0.3471527099609375,-0.9195556640625,0.0267679654061794,-0.0026104305870831,0.0160990748554468
1768725505859,0.155548095703125,-0.345916748046875,-0.9122161865234376,0.0136436400935053,0.0034400052390992,0.014765896834433
1768725505869,0.1505279541015625,-0.347686767578125,-0.90740966796875,0.0031414648983627,-0.0035172367934137,0.0153259597718715
1768725505879,0.1549835205078125,-0.34912109375,-0.911590576171875,-0.0051779840141534,0.0059505673125386,0.0147669622674584
1768725505889,0.15557861328125,-0.3479766845703125,-0.9132232666015624,-0.0136481681838631,0.0124891605228185,0.0098507665097713
1768725505899,0.155303955078125,-0.349273681640625,-0.9132537841796876,-0.0234363507479429,0.0078525971621274,0.0099466405808925
1768725505909,0.1489410400390625,-0.3512725830078125,-0.9129180908203124,-0.0265447907149791,0.003131611039862,0.0093562174588441
1768725505919,0.14788818359375,-0.3513336181640625,-0.9186859130859376,-0.0183366630226373,0.007145260926336,0.0107056414708495
1768725505929,0.1499176025390625,-0.351806640625,-0.9267730712890624,-0.0140817305073142,0.0122516062110662,0.0146979857236146
1768725505939,0.146209716796875,-0.353485107421875,-0.9246673583984376,-0.0111067136749625,0.0129259182140231,0.0137757332995533
1768725505949,0.144561767578125,-0.35504150390625,-0.920135498046875,-0.0072046495042741,0.0072243572212755,0.0134761277586221
1768725505959,0.146484375,-0.355316162109375,-0.9170989990234376,-0.009287241846323,-0.00164556724485,0.0106803411617875
1768725505969,0.1467132568359375,-0.352874755859375,-0.91302490234375,-0.0203034076839685,-0.0014817827614024,0.0110481232404708
1768725505979,0.1497344970703125,-0.3511199951171875,-0.90985107421875,-0.0319672524929046,-0.0041678468696773,0.0078094536438584
1768725505989,0.150054931640625,-0.352783203125,-0.9085540771484376,-0.0460564419627189,-0.0132556175813078,0.0055897086858749
1768725505999,0.1485137939453125,-0.352935791015625,-0.9079742431640624,-0.0626050606369972,-0.0187020488083362,0.0020325244404375
1768725506009,0.1481170654296875,-0.3500213623046875,-0.9139404296875,-0.0652194842696189,-0.014421815983951,0.0064160875044763
1768725506020,0.150726318359375,-0.3484954833984375,-0.927276611328125,-0.0575160235166549,-0.0088262483477592,0.0051790494471788
1768725506030,0.1475677490234375,-0.3506927490234375,-0.9348297119140624,-0.0562387704849243,-0.0052426988258957,0.0006511429091915
1768725506040,0.143890380859375,-0.3551177978515625,-0.9333343505859376,-0.0516117960214614,-0.0112731605768203,-0.0047121969982981
1768725506050,0.140716552734375,-0.3565826416015625,-0.936431884765625,-0.0400073379278183,-0.0074928035028278,-0.0067979851737618
1768725506060,0.1459503173828125,-0.34979248046875,-0.942779541015625,-0.0179486405104398,0.0055984971113502,-0.0054158042185008
1768725506070,0.151580810546875,-0.3387603759765625,-0.9499969482421876,0.012116583995521,0.0123988790437579,0.0086222505196928
1768725506080,0.1531219482421875,-0.3387451171875,-0.9487152099609376,0.0320349000394344,0.0051987566985189,0.0135991657152771
1768725506090,0.148223876953125,-0.3514251708984375,-0.93487548828125,0.0259929839521646,-0.0061990399844944,-0.0045390916056931
1768725506100,0.1370697021484375,-0.361663818359375,-0.92138671875,0.0267168320715427,0.0007856325246393,-0.0094717983156442
1768725506110,0.1463775634765625,-0.3415069580078125,-0.9228515625,0.0419146940112113,0.000646349217277,0.0067495154216885
1768725506120,0.156524658203125,-0.3370819091796875,-0.92828369140625,0.0430364161729812,0.0003669835859909,0.0113370763137936
1768725506130,0.1535797119140625,-0.3397064208984375,-0.9224700927734376,0.038865640759468,0.0040559940971434,0.0092904372140765
1768725506140,0.1479949951171875,-0.3391571044921875,-0.9153900146484376,0.0305762849748134,0.0096728671342134,0.0094350473955273
1768725506150,0.14556884765625,-0.3393707275390625,-0.9058074951171876,0.0166239831596612,0.006956975441426,0.0139581598341465
1768725506160,0.1500091552734375,-0.341064453125,-0.902130126953125,0.0053423009812831,0.0005789712304249,0.0235689748078584
1768725506170,0.1517181396484375,-0.344818115234375,-0.904022216796875,-0.0132918367162346,-0.0014705975772812,0.0254931095987558
1768725506180,0.146331787109375,-0.350677490234375,-0.90106201171875,-0.0333190746605396,-0.00215929094702,0.0186772812157869
1768725506190,0.1439208984375,-0.3528594970703125,-0.9022216796875,-0.0475536696612834,-0.0105778090655803,0.0091479578986763
1768725506200,0.143218994140625,-0.353790283203125,-0.908050537109375,-0.0520131327211856,-0.0256800632923841,0.009050752967596
1768725506210,0.144134521484375,-0.35272216796875,-0.9165496826171876,-0.0509819574654102,-0.0233852174133062,0.0011440940434113
1768725506220,0.1457672119140625,-0.3492279052734375,-0.9237060546875,-0.0463643036782741,-0.0154868140816688,0.0045766420662403
1768725506230,0.1499786376953125,-0.3426513671875,-0.9376678466796876,-0.0293253976851701,-0.0134745296090841,0.0122686503455042
1768725506241,0.1520233154296875,-0.344390869140625,-0.94482421875,-0.0106409266591072,-0.0032471923623234,0.0170221272855997
1768725506251,0.15118408203125,-0.3406982421875,-0.942138671875,0.0051260525360703,-0.005560147576034,0.0231452658772468
1768725506261,0.1492767333984375,-0.3442840576171875,-0.935333251953125,0.0136785274371504,-0.0092435656115412,0.0232509933412075
1768725506271,0.1456756591796875,-0.3468170166015625,-0.926177978515625,0.0073897391557693,-0.0108276139944791,0.0197092555463314
1768725506281,0.145843505859375,-0.3475799560546875,-0.9208526611328124,0.001439438550733,-0.0170879065990448,0.0183467827737331
1768725506291,0.1445465087890625,-0.349884033203125,-0.9206695556640624,-0.0033800839446485,-0.011420433409512,0.0132745262235403
1768725506301,0.1436614990234375,-0.3523101806640625,-0.9206390380859376,-0.0110739562660455,-0.011502725072205,0.0094603467732667
1768725506311,0.1376190185546875,-0.3525390625,-0.9157562255859376,-0.0188847407698631,-0.0197715740650892,0.0078086545690894
1768725506321,0.1377716064453125,-0.3530426025390625,-0.9143829345703124,-0.0180136207491159,-0.0351603850722312,0.0015353123890236
1768725506331,0.1361541748046875,-0.3553466796875,-0.9164581298828124,-0.0160466115921735,-0.0379055701196193,-0.0075758942402899
1768725506341,0.1361236572265625,-0.354400634765625,-0.9215850830078124,-0.0097178751602768,-0.0292891785502433,-0.0102489087730646
1768725506351,0.1425933837890625,-0.3509979248046875,-0.9305877685546876,-0.0046088667586445,-0.026020148769021,-0.0071218251250684
1768725506361,0.1475830078125,-0.341949462890625,-0.9270782470703124,-0.0018911106744781,-0.0274137817323207,-0.001923334901221
1768725506371,0.1520233154296875,-0.3368988037109375,-0.928192138671875,0.0081868236884474,-0.0278806332498788,0.0022144184913486
1768725506381,0.1510009765625,-0.340179443359375,-0.936187744140625,0.0182165540754795,-0.0164905600249767,0.0067242155782878
1768725506391,0.156585693359375,-0.3308258056640625,-0.9332733154296876,0.0223353989422321,-0.0088030789047479,0.0202016737312078
1768725506401,0.1529693603515625,-0.329254150390625,-0.925079345703125,0.0165329035371541,0.0058216699399054,0.0204717200249433
1768725506411,0.143463134765625,-0.3410797119140625,-0.91632080078125,0.0036780918017029,0.0153318187221884,0.0150894708931446
1768725506421,0.1394500732421875,-0.346282958984375,-0.912750244140625,-0.0071745561435818,0.0089759184047579,0.0134790567681193
1768725506431,0.1417388916015625,-0.3475799560546875,-0.912567138671875,-0.0102246738970279,0.0073822825215756,0.0113463979214429
1768725506441,0.1433868408203125,-0.35028076171875,-0.921112060546875,-0.0139869218692183,0.0206834413111209,0.0077612502500414
1768725506452,0.1399993896484375,-0.354034423828125,-0.922637939453125,-0.0248478259891271,0.0209601428359746,0.0006807039608247
1768725506462,0.133819580078125,-0.3500213623046875,-0.915283203125,-0.0357734449207782,0.0067886640317738,-0.0010503507219254
1768725506472,0.1359100341796875,-0.3500518798828125,-0.9188690185546876,-0.0221332646906375,-0.0075940038077533,-0.0046445527113974
1768725506482,0.134246826171875,-0.3536529541015625,-0.9338531494140624,-0.0009976201690733,0.0046727824956178,-0.0137147465720772
1768725506492,0.1318817138671875,-0.35272216796875,-0.9405059814453124,0.0093514239415526,0.0091772526502609,-0.0173337161540985
1768725506502,0.131378173828125,-0.349609375,-0.937225341796875,0.0169254541397094,0.0021361215040087,-0.0190509222447872
1768725506512,0.1331024169921875,-0.347808837890625,-0.932098388671875,0.0224648285657167,0.0002218413137597,-0.01890205219388
1768725506522,0.1349639892578125,-0.3484954833984375,-0.9293365478515624,0.0251074843108654,-0.0048544099554419,-0.0171366427093744
1768725506532,0.136688232421875,-0.3491973876953125,-0.9205322265625,0.0227892026305198,-0.0078462054952979,-0.0206341724842786
1768725506542,0.136932373046875,-0.3516693115234375,-0.9144744873046876,0.0155014619231224,-0.0095354486256837,-0.0249381065368652
1768725506552,0.1389007568359375,-0.3512725830078125,-0.9147186279296876,0.0065447185188531,-0.008576444350183,-0.0237250365316867
1768725506562,0.14312744140625,-0.35040283203125,-0.9140777587890624,-0.003670901292935,-0.0093618100509047,-0.02523691393435
1768725506572,0.141937255859375,-0.3491058349609375,-0.9118499755859376,-0.0141632230952382,-0.0195009969174861,-0.0240869596600532
1768725506582,0.1443634033203125,-0.348480224609375,-0.916473388671875,-0.0153174372389912,-0.0204243157058954,-0.0206421613693237
1768725506592,0.14849853515625,-0.350006103515625,-0.923431396484375,-0.0136074218899011,-0.0133339148014783,-0.018661567941308
1768725506602,0.145904541015625,-0.34637451171875,-0.9218597412109376,-0.0194085855036973,-0.0112968627363443,-0.0192013904452323
1768725506612,0.147125244140625,-0.3452606201171875,-0.9176788330078124,-0.0199832953512668,-0.010767426341772,-0.015409049578011
1768725506622,0.148895263671875,-0.3449249267578125,-0.9261627197265624,-0.0117141800001263,-0.0025113609153777,-0.0134947700425982
1768725506632,0.1501922607421875,-0.3438873291015625,-0.93634033203125,0.0049042110331356,0.0078834891319274,-0.0127128660678863
1768725506642,0.1472320556640625,-0.3461456298828125,-0.93994140625,0.0156370159238576,0.0129371033981442,-0.010789530351758
1768725506652,0.1449737548828125,-0.347015380859375,-0.934661865234375,0.0223226156085729,0.0117037938907742,-0.0077873491682112
1768725506662,0.14569091796875,-0.3485565185546875,-0.9334259033203124,0.0244038756936788,0.0119469407945871,-0.0051875715143978
1768725506673,0.14385986328125,-0.3476715087890625,-0.922576904296875,0.0209750570356845,0.0084693850949406,-0.0022610237356275
1768725506682,0.144073486328125,-0.350250244140625,-0.914093017578125,0.0159059949219226,0.0098246671259403,-0.0020578245166689
1768725506693,0.1393890380859375,-0.3515777587890625,-0.908355712890625,-8.442220860160887e-05,0.0060520335100591,-0.0033358754590153
1768725506703,0.1393890380859375,-0.349090576171875,-0.9050445556640624,-0.012280368246138,-0.0073151709511876,-0.0040730386972427
1768725506713,0.144744873046875,-0.3496856689453125,-0.9105987548828124,-0.0166375655680894,-0.0082997418940067,-0.0045681199990212
1768725506723,0.1435546875,-0.348114013671875,-0.9150238037109376,-0.0236246362328529,0.001725462032482,-0.0074043865315616
1768725506733,0.1412353515625,-0.348114013671875,-0.915069580078125,-0.0292068868875503,0.0008745820960029,-0.0072219599969685
1768725506743,0.1454620361328125,-0.34796142578125,-0.91717529296875,-0.0306572448462247,0.0019070896087214,-0.006532734259963
1768725506753,0.1464996337890625,-0.345123291015625,-0.91998291015625,-0.029120335355401,0.0049795787781476,-0.006785468198359
1768725506763,0.148101806640625,-0.3419342041015625,-0.92193603515625,-0.0268353428691625,0.0019310581265017,-0.0007094661123119
1768725506773,0.1483612060546875,-0.344268798828125,-0.9275054931640624,-0.0228368733078241,0.0118324244394898,-0.0020495688077062
1768725506783,0.1462554931640625,-0.3484039306640625,-0.9306640625,-0.0130689302459359,0.0190429333597421,-0.0046384274028241
1768725506793,0.14306640625,-0.350616455078125,-0.9308319091796876,-0.0055881110019981,0.0223260782659053,-0.0038293593097478
1768725506803,0.141845703125,-0.3519439697265625,-0.9289093017578124,0.0007225155713967,0.0284151304513216,-0.004912999458611
1768725506813,0.1376190185546875,-0.3548431396484375,-0.92730712890625,0.0009456885163672,0.0188647676259279,-0.0042256377637386
1768725506823,0.1438751220703125,-0.3540191650390625,-0.9270477294921876,0.0055963667109608,-0.0020154803059995,-0.0015486282063648
1768725506833,0.1458282470703125,-0.35357666015625,-0.926788330078125,0.0047092675231397,0.0046717170625925,-0.0085815042257308
1768725506843,0.1408843994140625,-0.354034423828125,-0.921295166015625,0.0004069310089107,0.0203297734260559,-0.0190546512603759
1768725506854,0.1395721435546875,-0.35076904296875,-0.9167633056640624,-0.0037302896380424,0.0097309239208698,-0.014363226480782
1768725506863,0.1479644775390625,-0.341339111328125,-0.91510009765625,-0.0028743497096002,0.0049367016181349,-0.0033374733757227
1768725506873,0.1507415771484375,-0.3383331298828125,-0.91668701171875,-0.0073492592200636,0.0102787362411618,0.0015491608064621
1768725506884,0.1480560302734375,-0.3396759033203125,-0.9148101806640624,-0.0207044798880815,-0.0035800873301923,-0.0072419340722262
1768725506894,0.137939453125,-0.358856201171875,-0.913055419921875,-0.0302031766623258,0.0001363538467558,-0.016653012484312
1768725506904,0.13970947265625,-0.3511810302734375,-0.917572021484375,-0.0229500569403171,0.012312326580286,-0.0097093526273965
1768725506914,0.1445770263671875,-0.341552734375,-0.9217529296875,-0.0130010200664401,0.0025843314360827,-0.0025507756508886
1768725506924,0.145599365234375,-0.346038818359375,-0.92626953125,-0.0015395734226331,0.0009510148083791,-0.0027089675422757
1768725506934,0.14251708984375,-0.348968505859375,-0.9293670654296876,0.005052815657109,0.0201377589255571,-0.0053787864744663
1768725506944,0.14349365234375,-0.342987060546875,-0.924774169921875,0.0025499768089503,0.0221079643815755,0.0016503608785569
1768725506954,0.1531524658203125,-0.3374786376953125,-0.91400146484375,-0.0205955561250448,0.0074882763437926,0.0174000300467014
1768725506964,0.1541290283203125,-0.3391876220703125,-0.90399169921875,-0.0376999750733375,0.0039414782077074,0.0202000774443149
1768725506974,0.1518402099609375,-0.345123291015625,-0.9068450927734376,-0.0545244961977005,0.0109376022592186,0.0136566897854208
1768725506984,0.1471099853515625,-0.351959228515625,-0.91375732421875,-0.0638588741421699,0.0116108497604727,0.0080177122727036
1768725506994,0.14776611328125,-0.354156494140625,-0.9234771728515624,-0.0642309188842773,0.00771837355569,0.0066752131097018
1768725507004,0.147979736328125,-0.3525238037109375,-0.930755615234375,-0.0624173060059547,0.0069271484389901,0.0079484703019261
1768725507014,0.145660400390625,-0.3491058349609375,-0.9324493408203124,-0.052012600004673,0.0063764066435396,0.0086137279868125
1768725507024,0.1433258056640625,-0.34698486328125,-0.93682861328125,-0.0327616743743419,-0.0002575276885181,0.0142609616741538
1768725507034,0.1468353271484375,-0.3482208251953125,-0.9434661865234376,-0.0105634285137057,-0.001716939965263,0.0189553145319223
1768725507044,0.1455841064453125,-0.3471527099609375,-0.9462738037109376,0.0084278397262096,0.0057785268872976,0.0214786604046821
1768725507054,0.1444854736328125,-0.3421630859375,-0.942718505859375,0.0179012361913919,0.01507562212646,0.0215218029916286
1768725507064,0.1430816650390625,-0.3419189453125,-0.93572998046875,0.0235308930277824,0.0158213078975677,0.0209894385188817
1768725507074,0.14239501953125,-0.3443450927734375,-0.928497314453125,0.0235849544405937,0.0130660012364387,0.0187633018940687
1768725507084,0.140899658203125,-0.3436279296875,-0.91778564453125,0.0163534060120582,0.005707686766982,0.0159627217799425
1768725507095,0.140045166015625,-0.3455657958984375,-0.91168212890625,0.0116302911192178,0.0030386666767299,0.0146407280117273
1768725507104,0.13916015625,-0.3459625244140625,-0.909759521484375,-0.0037755635567009,-0.0024546354543417,0.0100848581641912
1768725507115,0.1381683349609375,-0.3465118408203125,-0.907470703125,-0.0215521641075611,-0.0033678335603326,0.0074384752660989
1768725507125,0.1389923095703125,-0.34832763671875,-0.9049072265625,-0.0357532054185867,-0.0082438150420784,0.0032056469935923
1768725507135,0.13653564453125,-0.3513031005859375,-0.905059814453125,-0.0540019832551479,-0.0094646085053682,-0.0062815980054438
1768725507145,0.1350555419921875,-0.3529815673828125,-0.90570068359375,-0.0701143741607666,-0.0136526953428983,-0.0152617767453193
1768725507155,0.138458251953125,-0.3444976806640625,-0.9094085693359376,-0.0655278787016868,0.0018490327056497,-0.0149725582450628
1768725507165,0.1409454345703125,-0.341766357421875,-0.92108154296875,-0.0689694806933403,0.0111666340380907,-0.02200623229146
1768725507175,0.1375579833984375,-0.343414306640625,-0.9244232177734376,-0.0735714212059974,0.0056062205694615,-0.0291704013943672
1768725507185,0.139434814453125,-0.3334503173828125,-0.930908203125,-0.05729391425848,-0.0189262870699167,-0.017104685306549
1768725507195,0.151580810546875,-0.3248748779296875,-0.9451904296875,-0.0285682622343301,-0.0287541504949331,-0.0048749162815511
1768725507205,0.1489410400390625,-0.3334808349609375,-0.9554443359375,-0.0110369380563497,-0.0064935856498777,-0.0044019389897584
1768725507215,0.14288330078125,-0.33843994140625,-0.9499359130859376,-0.0014303837670013,0.0131738586351275,-0.003344397759065
1768725507225,0.138885498046875,-0.3382110595703125,-0.9393768310546876,0.0012767193838953,0.0157323572784662,-0.0046354979276657
1768725507235,0.139068603515625,-0.341278076171875,-0.9296875,-0.0047537423670291,0.007382548879832,-0.0078035946935415
1768725507245,0.1407623291015625,-0.3408355712890625,-0.92547607421875,-0.0070853400975465,0.0055079497396945,-0.0116092516109347
1768725507255,0.140655517578125,-0.3406219482421875,-0.928375244140625,-0.0047343014739453,0.0037633129395544,-0.0160737745463848
1768725507265,0.1403656005859375,-0.343475341796875,-0.9335784912109376,-0.0029465213883668,0.0078773638233542,-0.019708190113306
1768725507275,0.1422576904296875,-0.342132568359375,-0.9351654052734376,0.0046328348107635,0.0122726447880268,-0.0164873637259006
1768725507285,0.146636962890625,-0.3402862548828125,-0.932342529296875,0.0084262415766716,0.0111266868188977,-0.013243899680674
1768725507295,0.143585205078125,-0.3413543701171875,-0.9284515380859376,0.0115573201328516,0.0101327951997518,-0.0122412201017141
1768725507306,0.1436920166015625,-0.3437042236328125,-0.926239013671875,0.0121235083788633,0.0033388049341738,-0.0122822327539324
1768725507315,0.142303466796875,-0.3419342041015625,-0.921234130859375,0.0076248962432146,-0.0033374733757227,-0.012246279977262
1768725507326,0.14715576171875,-0.3399200439453125,-0.919830322265625,0.0056925066746771,-0.0026282735634595,-0.0120846256613731
1768725507336,0.1454315185546875,-0.340179443359375,-0.92120361328125,-0.0008847020799294,0.0035049861762672,-0.0139142172411084
1768725507346,0.147705078125,-0.3386383056640625,-0.918212890625,-0.0101450458168983,0.0007254450465552,-0.0120057966560125
1768725507356,0.14935302734375,-0.3390655517578125,-0.917999267578125,-0.0180154852569103,0.00890161562711,-0.0084669878706336
1768725507366,0.1467437744140625,-0.341156005859375,-0.922210693359375,-0.0231655072420835,0.0149885369464755,-0.0094590159133076
1768725507376,0.14404296875,-0.343597412109375,-0.92547607421875,-0.0195252317935228,0.0151398042216897,-0.012393020093441
1768725507386,0.14031982421875,-0.34503173828125,-0.92633056640625,-0.015737684443593,0.0062965117394924,-0.0103370593860745
1768725507396,0.14178466796875,-0.3448333740234375,-0.928314208984375,-0.0109804794192314,0.0018295916961506,-0.0117285614833235
1768725507406,0.141387939453125,-0.3436279296875,-0.92547607421875,-0.0121583957225084,0.0009289105655625,-0.0147259486839175
1768725507416,0.139404296875,-0.3417205810546875,-0.92486572265625,-0.0131136709824204,-0.0084589980542659,-0.0154122458770871
1768725507426,0.140228271484375,-0.3449249267578125,-0.92816162109375,-0.0102193476632237,-0.0063540358096361,-0.0169683303683996
1768725507436,0.1399993896484375,-0.3444366455078125,-0.930267333984375,-0.0015643407823517,0.000507065851707,-0.0153882773593068
1768725507446,0.1428985595703125,-0.342498779296875,-0.93536376953125,0.0075423386879265,0.0047436226159334,-0.0167153310030698
1768725507456,0.1420135498046875,-0.345367431640625,-0.9348602294921876,0.0165313053876161,0.0223705526441335,-0.0206280462443828
1768725507466,0.139984130859375,-0.3447418212890625,-0.9320220947265624,0.0210088789463043,0.0280332323163747,-0.0252800565212965
1768725507476,0.1429290771484375,-0.3428802490234375,-0.9275970458984376,0.0175318550318479,0.0176170766353607,-0.0198903512209653
1768725507486,0.1463470458984375,-0.3426055908203125,-0.9195709228515624,0.007620102725923,0.0071481904014945,-0.017781127244234
1768725507496,0.1468658447265625,-0.3411407470703125,-0.911376953125,-0.0035747610963881,-0.0001981391833396,-0.0158732384443283
1768725507506,0.143646240234375,-0.345306396484375,-0.9078826904296876,-0.0188099071383476,-0.0110036488622426,-0.0143943857401609
1768725507516,0.1428985595703125,-0.3498077392578125,-0.9037017822265624,-0.038042988628149,-0.0090286489576101,-0.0196517314761877
1768725507526,0.1430816650390625,-0.346435546875,-0.900634765625,-0.0508117824792861,0.011554124765098,-0.0187827423214912
1768725507537,0.144439697265625,-0.3446807861328125,-0.9150390625,-0.0535013079643249,0.018977154046297,-0.0180900543928146
1768725507547,0.1473388671875,-0.342864990234375,-0.9231109619140624,-0.0580393336713314,0.0065100970678031,-0.0150971934199333
1768725507557,0.1498565673828125,-0.337860107421875,-0.92767333984375,-0.0503561161458492,-0.0119565278291702,-0.0076384786516427
1768725507567,0.154052734375,-0.334686279296875,-0.9399566650390624,-0.034805916249752,-0.0171092115342617,-0.0056970342993736
1768725507577,0.1511688232421875,-0.3365631103515625,-0.94482421875,-0.0211974307894706,-0.0091889705508947,-0.0079327579587697
1768725507587,0.1468353271484375,-0.3388519287109375,-0.94073486328125,-0.0123067339882254,-0.00290257926099,-0.0110563794150948
1768725507597,0.1476898193359375,-0.3377685546875,-0.932525634765625,-0.0067090354859828,0.012195679359138,-0.0117021957412362
1768725507607,0.147369384765625,-0.3316497802734375,-0.92919921875,-0.0035686357878148,0.0189017858356237,-0.0084336986765265
1768725507617,0.1498260498046875,-0.3327789306640625,-0.930267333984375,-0.0008998821140266,0.0159664489328861,0.000713194545824
1768725507627,0.1529693603515625,-0.331817626953125,-0.9281158447265624,0.002830940298736,0.0217630863189697,0.0035097799263894
1768725507637,0.154205322265625,-0.3345794677734375,-0.9252166748046876,0.003337207250297,0.0304846726357936,0.0056645437143743
1768725507647,0.1512603759765625,-0.33673095703125,-0.9241790771484376,-0.0042948797345161,0.0327174663543701,0.0085359634831547
1768725507657,0.153350830078125,-0.330169677734375,-0.9196319580078124,-0.0098827248439192,0.0238065291196107,0.0182658229023218
1768725507667,0.1570892333984375,-0.323272705078125,-0.91851806640625,-0.0093468967825174,0.0233772285282611,0.0273381471633911
1768725507677,0.1531982421875,-0.3314208984375,-0.920379638671875,-0.0176413115113973,0.0397950820624828,0.021662950515747
1768725507687,0.144805908203125,-0.3381805419921875,-0.9184722900390624,-0.0390408746898174,0.0369473658502101,0.0038815571460872
1768725507697,0.1380462646484375,-0.3499298095703125,-0.914794921875,-0.0432156473398208,0.0342184230685234,-0.0052432315424084
1768725507707,0.14483642578125,-0.3389892578125,-0.926666259765625,-0.0240275710821151,0.0381271466612815,0.0015483618481084
1768725507717,0.1465911865234375,-0.3360595703125,-0.9384613037109376,-0.0064115603454411,0.0403218567371368,-0.0001986718125408
1768725507727,0.143890380859375,-0.3381805419921875,-0.9394683837890624,0.0115852830931544,0.0378573685884475,-0.0039422772824764
1768725507737,0.1462860107421875,-0.33758544921875,-0.94024658203125,0.028194885700941,0.0290910396724939,0.0027608990203589
1768725507748,0.1492462158203125,-0.32830810546875,-0.9344482421875,0.0384533815085887,0.0252997633069753,0.01333524659276
1768725507758,0.15008544921875,-0.3256683349609375,-0.9275970458984376,0.0346751548349857,0.0260901898145675,0.0219598934054374
1768725507767,0.149810791015625,-0.3336029052734375,-0.919708251953125,0.0202876944094896,0.0299323331564664,0.0186767484992742
1768725507778,0.1434783935546875,-0.343475341796875,-0.91265869140625,-0.0005406216951087,0.034479945898056,0.0096651446074247
1768725507788,0.1410064697265625,-0.35009765625,-0.911712646484375,-0.018386198207736,0.0301935877650976,-0.0020852552261203
1768725507798,0.1407928466796875,-0.3484649658203125,-0.912322998046875,-0.032120119780302,0.0151914693415164,-0.0114942034706473
1768725507808,0.1419219970703125,-0.3471832275390625,-0.91973876953125,-0.0338461138308048,0.0050000851042568,-0.0172029547393322
1768725507818,0.142578125,-0.346343994140625,-0.9325714111328124,-0.0285786483436822,0.0039297603070735,-0.0242076013237237
1768725507828,0.141143798828125,-0.3423614501953125,-0.9384613037109376,-0.0165273118764162,0.0063969129696488,-0.0282614659518003
1768725507838,0.14312744140625,-0.3367156982421875,-0.9425048828125,-0.0015081481542438,0.0029209549538791,-0.0284715890884399
1768725507848,0.145172119140625,-0.336578369140625,-0.947540283203125,0.015931561589241,-0.0005222458858042,-0.0258979089558124
1768725507858,0.149261474609375,-0.335357666015625,-0.94781494140625,0.0318974778056144,-0.0009145294898189,-0.024442758411169
1768725507868,0.1497955322265625,-0.334564208984375,-0.9452972412109376,0.0448249951004982,0.0009012137306854,-0.0217756032943725
1768725507878,0.150665283203125,-0.3323822021484375,-0.9403228759765624,0.0500519834458828,0.0022759374696761,-0.0257290657609701
1768725507888,0.1503143310546875,-0.334564208984375,-0.9310150146484376,0.0473707094788551,0.0074888090603053,-0.0309651065617799
1768725507898,0.1516876220703125,-0.33880615234375,-0.925018310546875,0.0419051051139831,0.0091937649995088,-0.0337116234004497
1768725507908,0.1512908935546875,-0.3455810546875,-0.9202117919921876,0.033389113843441,0.0082475431263446,-0.038614235818386
1768725507918,0.150299072265625,-0.347808837890625,-0.910797119140625,0.0249871090054512,0.0034160367213189,-0.0418600998818874
1768725507928,0.1485748291015625,-0.3458099365234375,-0.9116058349609376,0.019596604630351,-0.0048765144310891,-0.0402488857507705
1768725507938,0.1527099609375,-0.34765625,-0.9145965576171876,0.0175680741667747,-0.0114784901961684,-0.0389798879623413
1768725507948,0.1561126708984375,-0.3441925048828125,-0.917205810546875,0.0176959056407213,-0.0157230366021394,-0.0344298779964447
1768725507958,0.159881591796875,-0.335784912109375,-0.9178009033203124,0.0209886394441127,-0.0139927808195352,-0.0230621751397848
1768725507968,0.16424560546875,-0.3345794677734375,-0.9209747314453124,0.0249431673437356,-0.0050365701317787,-0.0199484080076217
1768725507979,0.1595001220703125,-0.337005615234375,-0.9221954345703124,0.0256257355213165,0.0029270802624523,-0.0213934388011693
1768725507989,0.1632232666015625,-0.328887939453125,-0.9186859130859376,0.0271551888436079,-0.0027651600539684,-0.0077737672254443
1768725507999,0.1685791015625,-0.328277587890625,-0.917205810546875,0.0188972577452659,-0.0038831550627946,-0.0020431771408766
1768725508009,0.1637725830078125,-0.335662841796875,-0.91558837890625,0.008551144041121,0.0101229418069124,-0.0063404538668692
1768725508019,0.160614013671875,-0.3370513916015625,-0.9149017333984376,-0.0012897689593955,0.0154972001910209,-0.003967311233282
1768725508029,0.1622467041015625,-0.3399505615234375,-0.91778564453125,-0.0041236383840441,0.0153118446469306,-0.000298806669889
1768725508039,0.1634521484375,-0.3424072265625,-0.921173095703125,-0.0074800206348299,0.0181177519261837,0.0030051108915358
1768725508049,0.15838623046875,-0.3449859619140625,-0.9220428466796876,-0.0085207838565111,0.0227005183696746,0.0017795242602005
1768725508059,0.15350341796875,-0.348602294921875,-0.9228515625,-0.0111218933016061,0.0181491766124963,0.0027462516445666
1768725508070,0.1516265869140625,-0.3494110107421875,-0.9215545654296876,-0.0112633071839809,0.0094859134405851,0.004220045171678
1768725508079,0.1528167724609375,-0.34503173828125,-0.9235992431640624,-0.0085849659517407,0.0045976811088621,0.0024599619209766
1768725508089,0.150909423828125,-0.3443756103515625,-0.926239013671875,-0.0063527044840157,0.0033680999185889,0.0048442902043461
1768725508099,0.1546783447265625,-0.3425140380859375,-0.92803955078125,-0.0053460295312106,0.0058102183975279,0.0039007319137454
1768725508109,0.1564483642578125,-0.338531494140625,-0.9272308349609376,-0.0091487569734454,0.0072714951820671,0.003933488857001
1768725508119,0.1569061279296875,-0.33807373046875,-0.92242431640625,-0.0194844845682382,0.0065463162027299,0.0016865798970684
1768725508129,0.1551361083984375,-0.341033935546875,-0.919189453125,-0.0254467707127332,0.0138971731066703,0.0005528722540475
1768725508139,0.150146484375,-0.344757080078125,-0.9191131591796876,-0.0351883471012115,0.0061449776403605,-0.0043726442381739
1768725508149,0.14605712890625,-0.34808349609375,-0.91741943359375,-0.0354477390646934,-0.0123986126855015,-0.0071761538274586
1768725508159,0.149566650390625,-0.3465576171875,-0.925445556640625,-0.0216174107044935,-0.0146034434437751,-0.0053122071549296
1768725508169,0.149139404296875,-0.3459014892578125,-0.9344940185546876,-0.011363442055881,-0.0099202748388051,-0.0080589912831783
1768725508179,0.147064208984375,-0.34454345703125,-0.9339447021484376,0.0035872780717909,-0.0113658383488655,-0.0098909800872206
1768725508190,0.1476287841796875,-0.343902587890625,-0.93695068359375,0.0175632815808057,-0.0078256987035274,-0.0087048085406422
1768725508200,0.1483154296875,-0.3459930419921875,-0.936920166015625,0.0304175596684217,-0.0086238477379083,-0.0110422642901539
1768725508210,0.1461639404296875,-0.3471832275390625,-0.931060791015625,0.0342682264745235,-0.0134098147973418,-0.0132702654227614
1768725508220,0.1514739990234375,-0.3455352783203125,-0.9276123046875,0.0356051325798034,-0.0184141602367162,-0.0130343092605471
1768725508230,0.156402587890625,-0.34075927734375,-0.9242095947265624,0.0335909835994243,-0.0142982453107833,-0.0126028768718242
1768725508240,0.1584014892578125,-0.336669921875,-0.9181365966796876,0.0240645892918109,-0.0022032330743968,-0.0111147025600075
1768725508250,0.159576416015625,-0.3392181396484375,-0.916046142578125,0.0144883953034877,0.0045630601234734,-0.0092491582036018
1768725508260,0.159088134765625,-0.339019775390625,-0.9139404296875,0.0039382823742926,0.0051614725962281,-0.0065010422840714
1768725508270,0.1576690673828125,-0.3401336669921875,-0.9106292724609376,-0.0046376287937164,0.0010346380295231,-0.0063417856581509
1768725508280,0.1558837890625,-0.339874267578125,-0.910125732421875,-0.0115141766145825,-0.0011209244839847,-0.0034059167373925
1768725508290,0.1548004150390625,-0.3391265869140625,-0.914947509765625,-0.0173464994877576,-0.0024612934794276,-0.0007824367494322
1768725508300,0.1540679931640625,-0.339752197265625,-0.9150848388671876,-0.0247673988342285,-0.0093285208567976,-0.0002356897603021
1768725508310,0.15289306640625,-0.341064453125,-0.9156341552734376,-0.0283663943409919,-0.0154873467981815,-0.0020716730505228
1768725508320,0.1538238525390625,-0.340789794921875,-0.9176025390625,-0.0304801445454359,-0.0054419031366705,-0.0006583334179595
1768725508330,0.1547088623046875,-0.3411102294921875,-0.9224700927734376,-0.0246089398860931,0.0006756439688615,-0.0011891013709828
1768725508340,0.1553955078125,-0.34381103515625,-0.928436279296875,-0.0191899389028549,0.0030788804870098,-0.0012852415675297
1768725508350,0.1588134765625,-0.339569091796875,-0.9305572509765624,-0.0137698743492364,0.0054392400197684,0.0066744145005941
1768725508360,0.1622161865234375,-0.33734130859375,-0.930908203125,-0.0074187680147588,0.0087839039042592,0.0128361703827977
1768725508370,0.157257080078125,-0.3380889892578125,-0.927276611328125,-0.0060246028006076,0.0160940140485763,0.01488733664155
1768725508380,0.1568450927734375,-0.3390045166015625,-0.922760009765625,-0.0120324278250336,0.0148505847901105,0.0173603482544422
1768725508390,0.155242919921875,-0.337615966796875,-0.9183197021484376,-0.0130428317934274,0.0150737576186656,0.0196927450597286
1768725508400,0.1538238525390625,-0.3413238525390625,-0.9190826416015624,-0.0172690022736787,0.0197353549301624,0.0220373906195163
1768725508411,0.15325927734375,-0.344024658203125,-0.91998291015625,-0.0205012802034616,0.0139448437839746,0.0231713652610778
1768725508421,0.1511993408203125,-0.344696044921875,-0.9207763671875,-0.0252611488103866,0.0058573563583195,0.02079982124269
1768725508431,0.14764404296875,-0.348663330078125,-0.9171142578125,-0.0316990725696086,0.0007970841252245,0.0172495599836111
1768725508441,0.1459808349609375,-0.348114013671875,-0.91986083984375,-0.0345944613218307,-0.0028269453905522,0.0132178012281656
1768725508451,0.14697265625,-0.3435211181640625,-0.92144775390625,-0.0315539315342903,-0.00860973354429,0.0134676052257418
1768725508461,0.1480560302734375,-0.335235595703125,-0.925506591796875,-0.0210781209170818,-0.0188815463334321,0.0157603211700916
1768725508471,0.1497802734375,-0.337554931640625,-0.9374847412109376,-0.0054664043709635,-0.0139648178592324,0.0175638142973184
1768725508481,0.1521453857421875,-0.3395843505859375,-0.943145751953125,0.0014767227694392,-0.0060219396837055,0.0141786690801382
1768725508491,0.1463165283203125,-0.346771240234375,-0.9393768310546876,0.0029273466207087,0.0096845850348472,0.0058078216388821
1768725508501,0.1478729248046875,-0.339996337890625,-0.931243896484375,0.0109762186184525,0.0138811944052577,0.0120670488104224
1768725508511,0.1541900634765625,-0.3381195068359375,-0.9283905029296876,0.0109916646033525,0.0095447693020105,0.0142923863604664
1768725508521,0.1514434814453125,-0.33978271484375,-0.9245147705078124,0.008862467482686,0.0022285331506282,0.0097964378073811
1768725508531,0.1469268798828125,-0.3405303955078125,-0.9183197021484376,0.0098124165087938,-0.0003752393822651,0.0105951195582747
1768725508541,0.14691162109375,-0.332855224609375,-0.918731689453125,0.0092659359797835,0.0057479003444314,0.0164351668208837
1768725508551,0.147247314453125,-0.3303680419921875,-0.918182373046875,0.0046711843460798,-0.0082704471424222,0.0246313102543354
1768725508561,0.1497650146484375,-0.3364105224609375,-0.916046142578125,-0.0050240531563758,-0.007872836664319,0.0258257389068603
1768725508571,0.147674560546875,-0.3415985107421875,-0.9121246337890624,-0.0214685406535863,-0.0007390272221527,0.0175702050328254
1768725508581,0.145965576171875,-0.34539794921875,-0.9069366455078124,-0.0413783341646194,-0.0088020134717226,0.0111152352765202
1768725508591,0.1507568359375,-0.34552001953125,-0.9089813232421876,-0.0535103641450405,-0.0199534688144922,0.009549562819302
1768725508601,0.149139404296875,-0.341705322265625,-0.9169158935546876,-0.0516331009566783,-0.0201374925673007,0.0092305159196257
1768725508611,0.149169921875,-0.3437652587890625,-0.9332733154296876,-0.0432737059891223,-0.0112350778654217,0.0078011979348957
1768725508621,0.1477203369140625,-0.34600830078125,-0.9447784423828124,-0.0261059030890464,-0.0027153589762747,0.0056099486537277
1768725508631,0.145660400390625,-0.3416748046875,-0.944244384765625,-0.0087444894015789,-0.0048669269308447,0.0056751961819827
1768725508642,0.144195556640625,-0.3366241455078125,-0.943756103515625,0.0075524584390223,-0.009264338761568,0.0067324712872505
1768725508652,0.145111083984375,-0.335968017578125,-0.944549560546875,0.0284801106899976,0.0007640608819201,0.0069383336231112
1768725508662,0.144805908203125,-0.33673095703125,-0.94482421875,0.0457230135798454,0.0096848513931036,0.0046948865056037
1768725508672,0.1450958251953125,-0.337371826171875,-0.940093994140625,0.0506456010043621,0.0121645210310816,0.0088978875428438
1768725508682,0.1478729248046875,-0.3377532958984375,-0.93011474609375,0.0488213337957859,0.0145741486921906,0.0090837758034467
1768725508692,0.1449432373046875,-0.3391571044921875,-0.9171142578125,0.0373154133558273,0.0173558201640844,0.0065276739187538
1768725508702,0.144561767578125,-0.3408355712890625,-0.90655517578125,0.0128058101981878,0.0114577179774641,0.0017451694002375
1768725508712,0.1438751220703125,-0.3452911376953125,-0.89874267578125,-0.010479805059731,0.0046448190696537,-0.001267664716579
1768725508722,0.1436614990234375,-0.3474578857421875,-0.89642333984375,-0.034510038793087,-0.0010349043877795,-0.0057066213339567
1768725508732,0.1428375244140625,-0.3460235595703125,-0.8994293212890625,-0.0549407452344894,-0.0104513093829154,-0.0086355656385421
1768725508742,0.1450347900390625,-0.34307861328125,-0.90618896484375,-0.0634271726012229,-0.015417305752635,-0.0104142911732196
1768725508752,0.1500701904296875,-0.3368072509765625,-0.91729736328125,-0.0612106248736381,-0.0216680113226175,-0.0063963802531361
1768725508762,0.149444580078125,-0.3365020751953125,-0.92901611328125,-0.0487739294767379,-0.0179307963699102,-0.0072097098454833
1768725508772,0.14886474609375,-0.338226318359375,-0.94287109375,-0.0280377604067325,0.0014982944121584,-0.0107003152370452
1768725508782,0.15203857421875,-0.3316802978515625,-0.9535064697265624,-0.0050256513059139,0.0160434152930974,-0.0053665358573198
1768725508792,0.15423583984375,-0.330718994140625,-0.951873779296875,0.0106814065948128,0.0209524203091859,-0.0039313584566116
1768725508802,0.150054931640625,-0.334564208984375,-0.94219970703125,0.0193460006266832,0.0223556384444236,-0.0019523634109646
1768725508812,0.1511993408203125,-0.33892822265625,-0.937896728515625,0.0269107092171907,0.0204789098352193,0.0022847258951514
1768725508822,0.1501922607421875,-0.34222412109375,-0.928985595703125,0.0218866560608148,0.0223750807344913,0.0015574166318401
1768725508833,0.147491455078125,-0.345489501953125,-0.9190673828125,0.0095974998548626,0.0137333888560533,0.0005472796037793
1768725508843,0.146148681640625,-0.344451904296875,-0.9152679443359376,-9.960222087102012e-05,0.0050650658085942,0.0021361215040087
1768725508853,0.1475830078125,-0.3437042236328125,-0.9145965576171876,-0.0058557586744427,-0.003344930242747,0.003171824850142
1768725508863,0.147003173828125,-0.34375,-0.9178466796875,-0.0084960162639617,-0.0045425537973642,0.0012697952333837
1768725508873,0.1455230712890625,-0.344085693359375,-0.92120361328125,-0.0128319086506962,-0.0012231898726895,-0.0032107068691402
1768725508883,0.1437530517578125,-0.3418121337890625,-0.91925048828125,-0.0152295529842376,-0.0023837955668568,-0.0081165162846446
1768725508893,0.1485443115234375,-0.3409423828125,-0.9240570068359376,-0.0138409808278083,-0.0029712887480854,-0.0082174502313137
1768725508903,0.14947509765625,-0.3433074951171875,-0.9271087646484376,-0.0136345857754349,-0.0019773971289396,-0.0133014246821403
1768725508913,0.14599609375,-0.3409576416015625,-0.9249420166015624,-0.0060208747163414,0.0008908273885026,-0.0144082335755229
1768725508923,0.1529083251953125,-0.340972900390625,-0.932647705078125,0.0018370485631749,0.0010143980616703,-0.0079415459185838
1768725508933,0.15576171875,-0.3388671875,-0.9331817626953124,0.0048304414376616,0.0004290352517273,-0.0022623552940785
1768725508943,0.1535491943359375,-0.335418701171875,-0.9232635498046876,-0.0028570392169058,0.0040216394700109,-0.0005619269795715
1768725508953,0.1517486572265625,-0.3373260498046875,-0.918365478515625,-0.0070832096971571,0.0125520108267664,0.0006532734259963
1768725508963,0.1529693603515625,-0.337127685546875,-0.918670654296875,-0.0166263803839683,0.0168282482773065,0.002404301892966
1768725508973,0.152587890625,-0.33746337890625,-0.9163055419921876,-0.0245279800146818,0.0097804591059684,0.0022921827621757
1768725508983,0.1534271240234375,-0.3376312255859375,-0.917816162109375,-0.028969332575798,0.0111019192263484,0.0015448997728526
1768725508993,0.151580810546875,-0.34149169921875,-0.923095703125,-0.0298055652529001,0.0155310230329632,-0.0015395734226331
1768725509003,0.14996337890625,-0.342529296875,-0.925537109375,-0.0308268889784812,0.0127986194565892,-0.0022991069126874
1768725509013,0.151031494140625,-0.3425140380859375,-0.9253692626953124,-0.0274577233940362,0.0046141929924488,-0.0046059372834861
1768725509023,0.14776611328125,-0.3442840576171875,-0.9274444580078124,-0.0244792439043521,0.0033249566331505,-0.0082211783155798
1768725509033,0.147003173828125,-0.3408050537109375,-0.9293365478515624,-0.0140151511877775,0.0033510555513203,-0.0063492422923445
1768725509043,0.1497039794921875,-0.3396148681640625,-0.933837890625,-0.0020809939596801,0.0025957829784601,-0.0042442795820534
1768725509054,0.154022216796875,-0.3360443115234375,-0.939208984375,0.0142788039520382,0.0051007522270083,0.0027190875262022
1768725509064,0.1562652587890625,-0.335418701171875,-0.94085693359375,0.0250789877027273,0.0195374824106693,0.0074754930101335
1768725509074,0.154693603515625,-0.3363189697265625,-0.9365234375,0.0286606736481189,0.0246696602553129,0.0086139943450689
1768725509084,0.15283203125,-0.3368072509765625,-0.9232330322265624,0.0210597459226846,0.0135344509035348,0.0109594408422708
1768725509094,0.1514892578125,-0.339447021484375,-0.916412353515625,0.0167377013713121,0.003541205311194,0.0085719162598252
1768725509104,0.1529693603515625,-0.34039306640625,-0.9212799072265624,0.0182924550026655,-0.0024847292806953,0.0134987644851207
1768725509114,0.1555023193359375,-0.3422393798828125,-0.9261932373046876,0.0179411843419075,0.0073322150856256,0.0121607920154929
1768725509124,0.15576171875,-0.3365325927734375,-0.9260406494140624,0.0163267757743597,0.0136218024417757,0.0155113153159618
1768725509134,0.1554412841796875,-0.334442138671875,-0.9242706298828124,0.0182735454291105,0.0138039626181125,0.0172650068998336
1768725509144,0.1543731689453125,-0.3376617431640625,-0.9259033203125,0.0158495362848043,0.0165065377950668,0.0160450134426355
1768725509154,0.1526031494140625,-0.338348388671875,-0.9235076904296876,0.0123235117644071,0.0166167933493852,0.0136907780542969
1768725509164,0.15289306640625,-0.3404541015625,-0.9223785400390624,0.0050219227559864,0.0182852633297443,0.0117567908018827
1768725509174,0.1531524658203125,-0.3454437255859375,-0.92132568359375,8.069378236541525e-05,0.0189396031200885,0.0088749844580888
1768725509184,0.1480560302734375,-0.3447113037109375,-0.9212646484375,-0.0002503371506463,0.0187055114656686,0.010588196106255
1768725509194,0.150543212890625,-0.3422698974609375,-0.9250946044921876,0.0087508810684084,0.0115330852568149,0.0102864596992731
1768725509204,0.15045166015625,-0.3450927734375,-0.9322967529296876,0.0181169528514146,0.0080818952992558,0.0117133809253573
1768725509214,0.1483306884765625,-0.3465576171875,-0.9300689697265624,0.0172474291175603,0.0109879365190863,0.0090960264205932
1768725509224,0.1483306884765625,-0.34686279296875,-0.9289093017578124,0.0175158772617578,0.0171201303601264,0.0069135660305619
1768725509234,0.1488189697265625,-0.34600830078125,-0.926849365234375,0.0189031176269054,0.0166615340858697,0.0065151574090123
1768725509244,0.1508331298828125,-0.339813232421875,-0.9217071533203124,0.0203492138534784,0.006670952308923,0.0121000725775957
1768725509255,0.153167724609375,-0.334991455078125,-0.9183807373046876,0.0217489711940288,0.0063223442994058,0.0136018292978405
1768725509264,0.15496826171875,-0.332427978515625,-0.920166015625,0.0160468779504299,0.0002964098239317,0.0136942407116293
1768725509275,0.15252685546875,-0.342681884765625,-0.92034912109375,0.0007547398563474,0.0002668487431947,-0.0006993460701778
1768725509285,0.14886474609375,-0.3451690673828125,-0.9217071533203124,-0.0008982842555269,0.0243333019316196,-0.0033819482196122
1768725509295,0.153350830078125,-0.3384857177734375,-0.924835205078125,0.0008053398923948,0.0237846914678812,0.0045428201556205
1768725509305,0.1515655517578125,-0.3410186767578125,-0.92047119140625,0.0002298307954333,0.0137096866965293,0.0027542412281036
1768725509315,0.1490936279296875,-0.34478759765625,-0.9199066162109376,0.0057479003444314,0.009557818993926,0.0025052356068044
1768725509325,0.150543212890625,-0.340484619140625,-0.9249267578125,0.0108364019542932,0.0039254995062947,0.0099141495302319
1768725509335,0.1553955078125,-0.333984375,-0.9203338623046876,0.0125115308910608,-0.0106800748035311,0.021712752059102
1768725509345,0.1573638916015625,-0.33734130859375,-0.9185943603515624,0.0099271992221474,-0.0138971731066703,0.0272260289639234
1768725509355,0.1539306640625,-0.342376708984375,-0.9182281494140624,0.0022730079945176,-0.0070896008983254,0.0253447704017162
