timestamp_ms,acc_x,acc_y,acc_z,gyro_x,gyro_y,gyro_z
1768646870953,-0.375152587890625,-0.9261322021484376,0.1458587646484375,0.0261735469102859,-0.0113091133534908,-0.0042248386889696
1768646870960,-0.3755035400390625,-0.9240264892578124,0.1521759033203125,0.0014671353856101,-0.013629525899887,0.0001872202265076
1768646870971,-0.36810302734375,-0.9189605712890624,0.148529052734375,-0.0116223013028502,0.0077953389845788,0.0084227798506617
1768646870981,-0.366119384765625,-0.914764404296875,0.1458282470703125,-0.0277746394276618,0.0189326778054237,0.01136424113065
1768646870991,-0.3683319091796875,-0.9150390625,0.1452484130859375,-0.03965899720788,0.0138329910114407,0.0124105969443917
1768646871001,-0.3697662353515625,-0.919464111328125,0.1410675048828125,-0.0532123558223247,0.0232768263667821,0.0104039050638675
1768646871011,-0.3746337890625,-0.9217376708984376,0.1338348388671875,-0.0612122230231761,0.0353742353618145,0.0088872350752353
1768646871021,-0.3747711181640625,-0.92108154296875,0.129302978515625,-0.0667966082692146,0.0367982275784015,0.0092161353677511
1768646871031,-0.369476318359375,-0.9205322265625,0.1273040771484375,-0.0691559016704559,0.0352775640785694,0.010946923866868
1768646871041,-0.367919921875,-0.919586181640625,0.1233673095703125,-0.0692552402615547,0.032102808356285,0.0094345146790146
1768646871051,-0.371490478515625,-0.9216461181640624,0.1171112060546875,-0.0698832124471664,0.019381420686841,0.0051082093268632
1768646871061,-0.3724822998046875,-0.9249725341796876,0.110870361328125,-0.0646112188696861,0.0212749280035495,-0.0026903252582997
1768646871071,-0.3712158203125,-0.923858642578125,0.10784912109375,-0.057796187698841,0.0175843201577663,-0.0061998390592634
1768646871081,-0.3662261962890625,-0.924468994140625,0.102630615234375,-0.0500991195440292,0.0149773517623543,-0.0069295451976358
1768646871091,-0.3619842529296875,-0.923187255859375,0.1009521484375,-0.0419431887567043,0.0163480807095766,-0.0029007149860262
1768646871101,-0.354095458984375,-0.9247283935546876,0.0981597900390625,-0.0342399962246418,0.0201042033731937,0.0054560182616114
1768646871111,-0.3561859130859375,-0.92626953125,0.0981597900390625,-0.0262246802449226,0.0172056183218956,0.0038882151711732
1768646871121,-0.3597869873046875,-0.927490234375,0.0956573486328125,-0.0158894844353199,0.0144180878996849,0.0040714405477046
1768646871131,-0.360870361328125,-0.927276611328125,0.092742919921875,-0.0041675809770822,0.0156676433980464,0.00019467707898
1768646871141,-0.3630218505859375,-0.926971435546875,0.0924072265625,0.0069990535266697,0.0086914924904704,-0.0068206219002604
1768646871151,-0.36431884765625,-0.927215576171875,0.09375,0.0177664794027805,-0.0077649787999689,-0.0103391902521252
1768646871161,-0.3615264892578125,-0.9283447265625,0.094482421875,0.0270505268126726,-0.0132580148056149,-0.0154077187180519
1768646871172,-0.3603973388671875,-0.92822265625,0.097625732421875,0.0359500125050544,-0.011315238662064,-0.0179835278540849
1768646871182,-0.357635498046875,-0.927947998046875,0.1023101806640625,0.0387697666883468,-0.0096257291734218,-0.0166026782244443
1768646871192,-0.3528594970703125,-0.9289093017578124,0.1053619384765625,0.0401285104453563,-0.0151946656405925,-0.0134926391765475
1768646871202,-0.3491058349609375,-0.927032470703125,0.1085205078125,0.0396994762122631,-0.0071734907105565,-0.0076560555025935
1768646871212,-0.3480224609375,-0.928253173828125,0.1092987060546875,0.0390366166830062,-0.0048717204481363,-0.0041457428596913
1768646871222,-0.350250244140625,-0.9278564453125,0.110809326171875,0.0364935621619224,-0.0051273838616907,-0.0056059542112052
1768646871232,-0.354278564453125,-0.928131103515625,0.112396240234375,0.0358498767018318,-0.0005816344055347,-0.0066062374971807
1768646871242,-0.351318359375,-0.9258880615234376,0.1150054931640625,0.029356824234128,0.0077402112074196,-0.0045055360533297
1768646871252,-0.3500518798828125,-0.9255523681640624,0.1179351806640625,0.0246771164238452,-0.0006777744856663,-0.001447694376111
1768646871262,-0.352203369140625,-0.9235076904296876,0.1154632568359375,0.0227218233048915,-0.0025939189363271,-0.0010828413069248
1768646871272,-0.3529052734375,-0.922454833984375,0.116851806640625,0.0249636732041835,0.0095223989337682,0.0039084553718566
1768646871282,-0.352935791015625,-0.920654296875,0.1209716796875,0.0221428535878658,0.0065556373447179,0.006999319884926
1768646871292,-0.3547210693359375,-0.91864013671875,0.1220855712890625,0.0147738857194781,-0.0049340385012328,0.0129456259310245
1768646871303,-0.3537445068359375,-0.9178619384765624,0.1221923828125,0.0143618946895003,-0.0026024410035461,0.0169068109244108
1768646871312,-0.35662841796875,-0.9154052734375,0.1193084716796875,0.0132795860990881,-0.0029321403708308,0.0251109451055526
1768646871322,-0.360321044921875,-0.9168853759765624,0.1192779541015625,0.013416739180684,-0.0039132488891482,0.0285347048193216
1768646871332,-0.3695831298828125,-0.9183502197265624,0.120208740234375,0.017215471714735,0.0004431499983184,0.0289901066571474
1768646871342,-0.3744964599609375,-0.920135498046875,0.1189117431640625,0.0221476461738348,0.0121461451053619,0.0271338820457458
1768646871352,-0.3832855224609375,-0.92095947265625,0.1176910400390625,0.0277184471487998,0.0179539658129215,0.021200094372034
1768646871362,-0.387939453125,-0.9185943603515624,0.1221466064453125,0.0318977460265159,0.0159992072731256,0.0154146421700716
1768646871372,-0.390380859375,-0.916229248046875,0.1253814697265625,0.0321193188428878,0.0107573065906763,0.0115927401930093
1768646871382,-0.3919677734375,-0.91729736328125,0.1299285888671875,0.0241524744778871,-0.0029060414526611,0.0057574878446757
1768646871392,-0.39056396484375,-0.913818359375,0.1359710693359375,0.0150457946583628,-0.0153624443337321,0.0046759783290326
1768646871403,-0.3885345458984375,-0.9121551513671876,0.1348419189453125,0.0056325858458876,-0.0169470254331827,0.000397077325033
1768646871413,-0.38555908203125,-0.912933349609375,0.1356658935546875,-0.0037569212727248,0.0012005530297756,-0.0004703142330981
1768646871423,-0.38873291015625,-0.9174957275390624,0.1376953125,-0.0210288520902395,0.0002151834196411,-0.0034234935883432
1768646871433,-0.390045166015625,-0.92169189453125,0.1386566162109375,-0.0393671132624149,0.0015670040156692,-0.0069646988995373
1768646871443,-0.3880615234375,-0.9231414794921876,0.1367340087890625,-0.055648349225521,0.0072115738876163,-0.0125051392242312
1768646871453,-0.3831329345703125,-0.9230194091796876,0.129638671875,-0.0658964589238166,0.0073372749611735,-0.0165579374879598
1768646871463,-0.376495361328125,-0.9232330322265624,0.12493896484375,-0.0713122636079788,0.0065668225288391,-0.0201595965772867
1768646871473,-0.3714752197265625,-0.923828125,0.116180419921875,-0.0726289302110672,0.0191790200769901,-0.023025956004858
1768646871483,-0.3668365478515625,-0.923309326171875,0.11077880859375,-0.0706312954425811,0.0301789417862892,-0.0256302617490291
1768646871493,-0.3599395751953125,-0.9248809814453124,0.108154296875,-0.067505806684494,0.0334482379257679,-0.0232342164963483
1768646871503,-0.35064697265625,-0.9248199462890624,0.101898193359375,-0.0604383088648319,0.0371268615126609,-0.0146188903599977
1768646871513,-0.3470916748046875,-0.92376708984375,0.096954345703125,-0.0529327243566513,0.0253804568201303,-0.0071215592324733
1768646871523,-0.34625244140625,-0.92547607421875,0.0928497314453125,-0.0371897146105766,0.0128015493974089,-0.0072248894721269
1768646871533,-0.3466033935546875,-0.9257659912109376,0.0866546630859375,-0.0154703026637434,0.008814264088869,-0.0089604714885354
1768646871543,-0.345123291015625,-0.9273834228515624,0.083038330078125,0.009893643669784,0.0112414695322513,-0.0061745387502014
1768646871553,-0.343109130859375,-0.92742919921875,0.0843353271484375,0.0289893075823783,0.0013246563030406,-0.0036815537605434
1768646871563,-0.342803955078125,-0.9283447265625,0.0905609130859375,0.0450079552829265,-0.0050312438979744,-0.0031212246976792
1768646871573,-0.3456573486328125,-0.9313812255859376,0.095458984375,0.0566126778721809,-0.0093413041904568,-0.0057606836780905
1768646871583,-0.34979248046875,-0.93359375,0.101959228515625,0.0599195249378681,-0.0095668733119964,-0.0084073329344391
1768646871593,-0.3499603271484375,-0.9330596923828124,0.112518310546875,0.0575035065412521,-0.018043715506792,-0.0101160174235701
1768646871605,-0.3522796630859375,-0.936309814453125,0.1171875,0.0519705228507518,-0.0183092318475246,-0.0122321648523211
1768646871613,-0.3578033447265625,-0.9365997314453124,0.1206207275390625,0.0471952073276042,-0.0001611212501302,-0.0149254202842712
1768646871624,-0.3560333251953125,-0.9323577880859376,0.123077392578125,0.0473177134990692,-0.0003459446306806,-0.0118651818484067
1768646871634,-0.34979248046875,-0.920684814453125,0.1230316162109375,0.0446508266031742,-0.0071042482741177,0.0009965548524633
1768646871644,-0.33837890625,-0.9074554443359376,0.125335693359375,0.0439541414380073,-0.00715351710096,0.017990717664361
1768646871654,-0.3430633544921875,-0.910888671875,0.127105712890625,0.0408161394298076,-0.0064749433659017,0.0191771574318408
1768646871664,-0.3589630126953125,-0.9240875244140624,0.1291961669921875,0.0327725932002067,0.0159150511026382,0.017478059977293
1768646871674,-0.3663787841796875,-0.926025390625,0.1319427490234375,0.0202807709574699,0.0269250907003879,0.0154218329116702
1768646871686,-0.3733673095703125,-0.93072509765625,0.1412506103515625,-0.0022793996613472,0.0321789756417274,0.0049303099513053
1768646871694,-0.381866455078125,-0.927001953125,0.1462554931640625,-0.0208506863564252,0.0330682061612606,0.0004229099722579
1768646871704,-0.373199462890625,-0.9141998291015624,0.141265869140625,-0.0268499907106161,0.021630460396409,0.0113075152039527
1768646871714,-0.3549957275390625,-0.9005889892578125,0.1352996826171875,-0.0269040521234273,0.0107445232570171,0.0278830304741859
1768646871724,-0.35137939453125,-0.9010009765625,0.1312713623046875,-0.0283855684101581,0.0182264074683189,0.0358312353491783
1768646871734,-0.364715576171875,-0.9129791259765624,0.1312103271484375,-0.0347995273768901,0.0276137851178646,0.0351944714784622
1768646871744,-0.38238525390625,-0.9266357421875,0.1312408447265625,-0.0519337728619575,0.0223859995603561,0.0255104191601276
1768646871754,-0.3909759521484375,-0.9322357177734376,0.13275146484375,-0.0722877755761146,0.0198706444352865,0.0128819765523076
1768646871764,-0.3977203369140625,-0.9286956787109376,0.132598876953125,-0.0864874869585037,0.0198653172701597,0.0036525253672152
1768646871774,-0.3915252685546875,-0.92041015625,0.120269775390625,-0.082905538380146,0.0059055597521364,0.0019965718965977
1768646871784,-0.38330078125,-0.91510009765625,0.1086578369140625,-0.076731264591217,-0.0057867825962603,-0.0012373046483844
1768646871794,-0.38128662109375,-0.9152069091796876,0.1015167236328125,-0.0665428042411804,-0.0120167154818773,-0.0054437676444649
1768646871805,-0.380279541015625,-0.9163665771484376,0.0960540771484375,-0.051463458687067,-0.0097005637362599,-0.0060853231698274
1768646871814,-0.373626708984375,-0.9218902587890624,0.0918121337890625,-0.0330756604671478,0.0036429380998015,-0.0059979711659252
1768646871825,-0.3677215576171875,-0.917510986328125,0.0909881591796875,-0.0181331969797611,0.0233295578509569,-0.0038469361606985
1768646871834,-0.36517333984375,-0.92156982421875,0.09332275390625,-0.0093484940007328,0.0120478747412562,-0.0032980586402118
1768646871845,-0.3656005859375,-0.926483154296875,0.0953521728515625,-0.0040647825226187,-0.0038378813769668,-0.0018026937032118
1768646871855,-0.3624420166015625,-0.9279022216796876,0.095458984375,0.0106561062857508,-0.0127482861280441,-0.001888447557576
1768646871864,-0.3613433837890625,-0.929901123046875,0.0934600830078125,0.0264835394918918,-0.0070794811472296,-0.0052043492905795
1768646871875,-0.358551025390625,-0.9296417236328124,0.094879150390625,0.0391215682029724,-0.009737049229443,-0.0105618303641676
1768646871885,-0.3596038818359375,-0.9310150146484376,0.100067138671875,0.0474319644272327,-0.015207715332508,-0.0133043536916375
1768646871895,-0.3563995361328125,-0.9286651611328124,0.10491943359375,0.0529521629214286,-0.0067612333223223,-0.0198045969009399
1768646871905,-0.354583740234375,-0.92620849609375,0.11297607421875,0.0506589151918888,-0.0109591744840145,-0.019569706171751
1768646871915,-0.351776123046875,-0.926910400390625,0.120361328125,0.0409524925053119,-0.0153326168656349,-0.0154908094555139
1768646871925,-0.3461456298828125,-0.9243621826171876,0.127532958984375,0.0292052887380123,-0.0172889754176139,-0.0106110991910099
1768646871935,-0.348480224609375,-0.9259796142578124,0.1304168701171875,0.0190040506422519,-0.0146308746188879,-0.0096275936812162
1768646871945,-0.3533172607421875,-0.9279937744140624,0.129547119140625,0.0103993779048323,-0.0067476513795554,-0.0065590995363891
1768646871955,-0.3527069091796875,-0.9246978759765624,0.1284637451171875,0.0032501218374818,-0.0027475832030177,-0.0044003408402204
1768646871965,-0.351287841796875,-0.923431396484375,0.12786865234375,-0.0044112601317465,-0.005421130452305,-0.0006191849242895
1768646871975,-0.3504486083984375,-0.9226837158203124,0.1294403076171875,-0.0138945104554295,-0.0100907171145081,0.0053052832372486
1768646871985,-0.3560791015625,-0.9279022216796876,0.1291656494140625,-0.025840651243925,0.004873052239418,0.0009310410823673
1768646871995,-0.3684844970703125,-0.930816650390625,0.13018798828125,-0.037085048854351,0.0154673727229237,-0.0051284492947161
1768646872005,-0.3673248291015625,-0.92498779296875,0.1286773681640625,-0.0454620234668254,0.0075873457826673,-0.0002016012876993
1768646872015,-0.3598480224609375,-0.918609619140625,0.1203155517578125,-0.0440958216786384,0.0124665228649973,0.0118422787636518
1768646872025,-0.3553466796875,-0.9122772216796876,0.1143035888671875,-0.0384525842964649,0.0225721541792154,0.0210200641304254
1768646872035,-0.358917236328125,-0.9144744873046876,0.108551025390625,-0.0359795726835727,0.0192088484764099,0.0206197910010814
1768646872045,-0.3719635009765625,-0.923065185546875,0.10888671875,-0.0311520602554082,0.0101256044581532,0.0159970764070749
1768646872055,-0.3808135986328125,-0.9260711669921876,0.106353759765625,-0.0242643263190984,0.0169158671051263,0.0078017301857471
1768646872065,-0.3797760009765625,-0.922607421875,0.104644775390625,-0.014911038801074,0.0177097544074058,0.0013323795283213
1768646872076,-0.3773193359375,-0.91912841796875,0.10430908203125,-0.0079974727705121,0.0072917351499199,-0.001163002452813
1768646872086,-0.3756256103515625,-0.917236328125,0.1034698486328125,0.0030376014765352,0.003385144053027,-0.0025555694010108
1768646872096,-0.371368408203125,-0.917755126953125,0.104827880859375,0.0114750284701585,-0.0006777744856663,-0.0051297806203365
1768646872107,-0.3744964599609375,-0.9197235107421876,0.10723876953125,0.0161110591143369,-0.006149505265057,-0.0076933396048843
1768646872116,-0.372283935546875,-0.9186553955078124,0.1102752685546875,0.0177702084183692,-0.007808388210833,-0.0101490402594208
1768646872126,-0.373199462890625,-0.9203948974609376,0.112518310546875,0.0177116189152002,-0.005354817956686,-0.0115317534655332
1768646872136,-0.3723297119140625,-0.9220123291015624,0.117218017578125,0.0118851549923419,-0.0117722367867827,-0.0118856877088546
1768646872146,-0.3719940185546875,-0.92413330078125,0.1184539794921875,0.0098827248439192,-0.0197310931980609,-0.0130130043253302
1768646872156,-0.366912841796875,-0.9210052490234376,0.11529541015625,0.0111802164465188,0.002167813014239,-0.0136415101587772
1768646872166,-0.362152099609375,-0.9194793701171876,0.1180267333984375,0.0122193815186619,0.0084976144134998,-0.0103535717353224
1768646872176,-0.36358642578125,-0.9242095947265624,0.1172027587890625,0.0089104045182466,0.000283360335743,-0.0093000251799821
1768646872186,-0.359771728515625,-0.9217681884765624,0.1202392578125,0.0062914518639445,0.0208522845059633,-0.0091879060491919
1768646872196,-0.3637237548828125,-0.923126220703125,0.1215667724609375,-0.0011073424248024,0.0154458014294505,-0.0076206354424357
1768646872207,-0.3611907958984375,-0.92510986328125,0.1234588623046875,-0.00716896308586,0.0031427964568138,-0.0068645640276372
1768646872216,-0.3570556640625,-0.923858642578125,0.1245880126953125,-0.0117871509864926,-0.003697266569361,-0.0020383833907544
1768646872226,-0.3559112548828125,-0.924835205078125,0.121673583984375,-0.0148724233731627,-0.0089109372347593,0.0038932752795517
1768646872236,-0.35443115234375,-0.9246826171875,0.120574951171875,-0.0134593499824404,0.0016948357224464,0.0062176822684705
1768646872246,-0.3548126220703125,-0.924163818359375,0.1183929443359375,-0.0126702552661299,0.0045742453075945,0.0053492253646254
1768646872256,-0.358123779296875,-0.9251861572265624,0.115997314453125,-0.0101977763697505,0.0033947313204407,0.0060957092791795
1768646872266,-0.3592376708984375,-0.92431640625,0.113189697265625,-0.0057042245753109,0.0048437574878335,0.0061692125163972
1768646872277,-0.357147216796875,-0.922515869140625,0.1136627197265625,-0.0020892499014735,0.0063234097324311,0.0059284628368914
1768646872286,-0.3570098876953125,-0.9211578369140624,0.1124114990234375,0.0019989686552435,-0.0029265477787703,0.0077383471652865
1768646872297,-0.357635498046875,-0.9213714599609376,0.1114349365234375,0.0062578958459198,-0.0116491988301277,0.0096702044829726
1768646872307,-0.360748291015625,-0.9197235107421876,0.1121368408203125,0.0079077240079641,-0.0034237599465996,0.0081032002344727
1768646872317,-0.3638763427734375,-0.92120361328125,0.113189697265625,0.010310161858797,0.0037398771382868,0.0039904806762933
1768646872327,-0.368194580078125,-0.92047119140625,0.1126708984375,0.0118039287626743,0.0020892499014735,0.0030855385120958
1768646872337,-0.366607666015625,-0.9233551025390624,0.11370849609375,0.0129610719159245,0.0120550645515322,0.0015190670965239
1768646872347,-0.3626861572265625,-0.92254638671875,0.1140289306640625,0.0115216337144374,0.0070648337714374,0.0047148605808615
1768646872357,-0.36492919921875,-0.924041748046875,0.1158599853515625,0.0074126427061855,0.0003275688213761,0.0056296563707292
1768646872367,-0.365264892578125,-0.923248291015625,0.1190338134765625,0.0027683558873832,0.0030194919090718,0.0040557282045483
1768646872377,-0.368011474609375,-0.9258270263671876,0.119354248046875,-0.0028935244772583,0.0060368534177541,0.0030754182953387
1768646872387,-0.3686981201171875,-0.925079345703125,0.1207427978515625,-0.0134047549217939,0.007497064769268,0.001005609636195
1768646872397,-0.3680572509765625,-0.925262451171875,0.1236724853515625,-0.0219790674746036,0.0122231105342507,-0.0015265239635482
1768646872407,-0.3682708740234375,-0.9273834228515624,0.1187286376953125,-0.0291709341108798,0.0165134631097316,-0.0025635587517172
1768646872417,-0.364166259765625,-0.9256744384765624,0.1149139404296875,-0.0290665384382009,0.0105727491900324,0.0003576625313144
1768646872427,-0.363616943359375,-0.92510986328125,0.1114501953125,-0.0287195295095443,0.0158532653003931,0.0040932786650955
1768646872437,-0.3603668212890625,-0.9222412109375,0.110443115234375,-0.0253133457154035,0.0179979093372821,0.0062938486225903
1768646872447,-0.36090087890625,-0.92156982421875,0.1076507568359375,-0.0200820993632078,0.0193462669849395,0.0082296999171376
1768646872457,-0.362335205078125,-0.920166015625,0.107177734375,-0.0108827417716383,0.0172903072088956,0.0081231743097305
1768646872467,-0.364013671875,-0.9218902587890624,0.1056365966796875,-0.0050834417343139,0.0156782958656549,0.008583634160459
1768646872477,-0.36346435546875,-0.920928955078125,0.1068878173828125,0.0009150621481239,-0.0004394215648062,0.0108185596764087
1768646872487,-0.363922119140625,-0.9198455810546876,0.1060028076171875,0.0097426418215036,-0.0065191518515348,0.0081490064039826
1768646872497,-0.368621826171875,-0.921539306640625,0.105133056640625,0.0189467929303646,-0.0079053277149796,0.0052855759859085
1768646872508,-0.37005615234375,-0.9226531982421876,0.1043853759765625,0.027485953643918,-0.0135738654062151,0.0002524676674511
1768646872517,-0.3734588623046875,-0.923187255859375,0.1062469482421875,0.036045353859663,-0.0142282042652368,-0.0062067629769444
1768646872528,-0.3745269775390625,-0.9242095947265624,0.111572265625,0.0402403622865676,-0.0107413278892636,-0.0110880713909864
1768646872538,-0.3690185546875,-0.9219970703125,0.1125946044921875,0.0430430732667446,-0.0127682592719793,-0.011650264263153
1768646872548,-0.36578369140625,-0.9218597412109376,0.1150665283203125,0.0413575582206249,-0.0105328019708395,-0.0123890256509184
1768646872558,-0.369415283203125,-0.922882080078125,0.1212310791015625,0.0367111414670944,-0.0097969705238938,-0.0157525986433029
1768646872568,-0.36724853515625,-0.925262451171875,0.1259307861328125,0.0303264800459146,-0.0132159367203712,-0.0111775528639554
1768646872578,-0.35845947265625,-0.9237823486328124,0.1298675537109375,0.0242843013256788,-0.0044139232486486,-0.0049761165864765
1768646872588,-0.35968017578125,-0.9209136962890624,0.1318206787109375,0.0140881221741437,0.001758751575835,-0.0052703958936035
1768646872598,-0.364105224609375,-0.923004150390625,0.13330078125,0.0040413467213511,0.0111080445349216,-0.0009321063989773
1768646872608,-0.3656005859375,-0.9250335693359376,0.1332550048828125,-0.0015765913994982,0.013841513544321,-0.0035931370221078
1768646872618,-0.36590576171875,-0.9241790771484376,0.131256103515625,-0.0098995026201009,0.0170937664806842,-0.0012215919559821
1768646872628,-0.362030029296875,-0.9237060546875,0.1332855224609375,-0.0201763752847909,0.0192514583468437,0.0015803198330104
1768646872638,-0.361480712890625,-0.9217071533203124,0.133758544921875,-0.029395705088973,0.020878117531538,0.002486593555659
1768646872648,-0.3621826171875,-0.922943115234375,0.1327362060546875,-0.0364197939634323,0.0189095083624124,0.0031683626584708
1768646872658,-0.363525390625,-0.9227142333984376,0.1305999755859375,-0.0416523702442646,0.0166639313101768,0.0021294634789228
1768646872668,-0.362762451171875,-0.9210357666015624,0.1233673095703125,-0.0437746457755565,0.0124694528058171,0.0034554514568299
1768646872678,-0.3627777099609375,-0.922027587890625,0.1226959228515625,-0.043292611837387,0.004546548705548,0.0051401671953499
1768646872688,-0.3617401123046875,-0.9205169677734376,0.1187744140625,-0.0409138761460781,0.0059015648439526,0.0072539183311164
1768646872698,-0.36395263671875,-0.9217529296875,0.114013671875,-0.0354741029441356,0.0091247884556651,0.0080328928306698
1768646872708,-0.3651885986328125,-0.9240875244140624,0.1101531982421875,-0.0261879283934831,0.0079013323411345,0.0074699004180729
1768646872718,-0.364654541015625,-0.9232330322265624,0.106964111328125,-0.0181113593280315,0.0147187588736414,0.0047444212250411
1768646872728,-0.36761474609375,-0.9272308349609376,0.1067352294921875,-0.0151046505197882,0.0216437764465808,0.0018911106744781
1768646872738,-0.3769989013671875,-0.927032470703125,0.1104888916015625,-0.0160008035600185,0.0151675008237361,-0.0060837250202894
1768646872749,-0.3773956298828125,-0.922271728515625,0.110687255859375,-0.013751764781773,-0.0017454357584938,-0.0106497146189212
1768646872759,-0.368682861328125,-0.913177490234375,0.1098175048828125,-0.0070081083104014,0.0061875884421169,-0.0011864382540807
1768646872769,-0.3568267822265625,-0.907623291015625,0.105804443359375,0.0044192494824528,0.0063753412105143,0.0053172674961388
1768646872779,-0.362030029296875,-0.9140472412109376,0.1027984619140625,0.0080499369651079,0.0060301953926682,0.0022266688756644
1768646872789,-0.371185302734375,-0.9232025146484376,0.1075592041015625,0.0073242257349193,0.0164737813174724,-0.0016745956381782
1768646872799,-0.377593994140625,-0.9361419677734376,0.11248779296875,-0.0021137509029358,0.0179664827883243,-0.0139680132269859
1768646872809,-0.3796234130859375,-0.9354095458984376,0.11944580078125,-0.0128659978508949,-4.420847471919842e-05,-0.0218046307563781
1768646872819,-0.3720855712890625,-0.9264984130859376,0.1207733154296875,-0.0080581931397318,-0.0064568337984383,-0.019708190113306
1768646872829,-0.351409912109375,-0.9059295654296876,0.1099700927734375,0.0097666103392839,-0.0230155698955059,-0.0055457665584981
1768646872839,-0.337493896484375,-0.90087890625,0.104644775390625,0.0294364523142576,-0.0228600427508354,0.0089354384690523
1768646872849,-0.3383941650390625,-0.906768798828125,0.10418701171875,0.0438345670700073,-0.0261876620352268,0.0145057057961821
1768646872859,-0.3516998291015625,-0.925140380859375,0.107818603515625,0.0442106053233146,-0.007245129905641,0.0127493506297469
1768646872869,-0.3626708984375,-0.936859130859375,0.117919921875,0.0317850932478904,0.0051905009895563,0.006851780693978
1768646872879,-0.367919921875,-0.939117431640625,0.127227783203125,0.0111008547246456,0.0098177436739206,0.0024812670890241
1768646872889,-0.3663330078125,-0.9303741455078124,0.13494873046875,-0.0085870968177914,0.0118776988238096,0.0040298951789736
1768646872899,-0.3557891845703125,-0.92437744140625,0.1310272216796875,-0.018661567941308,0.0219894554466009,0.0128316422924399
1768646872909,-0.35498046875,-0.9201202392578124,0.127044677734375,-0.0319539383053779,0.0218048971146345,0.0216592233628034
1768646872919,-0.359130859375,-0.920989990234375,0.1265106201171875,-0.0390781611204147,0.0178687460720539,0.0246350392699241
1768646872929,-0.363922119140625,-0.9234161376953124,0.121429443359375,-0.0415668860077858,0.0177789963781833,0.0261080339550972
1768646872939,-0.3674163818359375,-0.92291259765625,0.1163482666015625,-0.0360346995294094,0.0205132644623518,0.0263410601764917
1768646872949,-0.369293212890625,-0.9222412109375,0.11004638671875,-0.0269871428608894,0.0179387871176004,0.0231189019978046
1768646872959,-0.3672332763671875,-0.9235076904296876,0.106231689453125,-0.0136463036760687,0.0177134834229946,0.0176855195313692
1768646872969,-0.3727874755859375,-0.925537109375,0.103302001953125,-0.0024812670890241,0.0097500989213585,0.0145267443731427
1768646872980,-0.37506103515625,-0.9253387451171876,0.1026611328125,0.0066682891920208,0.0018937737913802,0.012507801875472
1768646872990,-0.375640869140625,-0.9242401123046876,0.1060943603515625,0.0147222205996513,-0.0090054795145988,0.0059207398444414
1768646873000,-0.37664794921875,-0.923583984375,0.1068267822265625,0.0252353157848119,-0.00650823302567,-0.0013366405619308
1768646873010,-0.3771820068359375,-0.922271728515625,0.106964111328125,0.0339947193861007,-0.0039507993496954,-0.0057303234934806
1768646873021,-0.3752593994140625,-0.923431396484375,0.1107330322265625,0.0369497612118721,-0.0144620295614004,-0.0121804997324943
1768646873030,-0.372314453125,-0.919677734375,0.116241455078125,0.0382592380046844,-0.0113618439063429,-0.0140036996454
1768646873040,-0.3703460693359375,-0.9194488525390624,0.1204071044921875,0.0366115421056747,-0.0115152420476078,-0.0161619260907173
1768646873050,-0.3692169189453125,-0.91912841796875,0.1246185302734375,0.0308489929884672,-0.0170759223401546,-0.0154705690219998
1768646873060,-0.3655242919921875,-0.91851806640625,0.128326416015625,0.0238920170813798,-0.0146652292460203,-0.0132300518453121
1768646873070,-0.3604278564453125,-0.9185333251953124,0.1282806396484375,0.0167454238981008,-0.0099146822467446,-0.0103964479640126
1768646873080,-0.36053466796875,-0.919189453125,0.135345458984375,0.0012530173407867,-0.0160162504762411,-0.0050248522311449
1768646873090,-0.3612823486328125,-0.9223175048828124,0.135894775390625,-0.0125863654538989,-0.0030397321097552,-0.002682602033019
1768646873100,-0.3614959716796875,-0.924163818359375,0.134674072265625,-0.0283645298331975,0.0179057642817497,-0.0018964370246976
1768646873110,-0.3688201904296875,-0.931121826171875,0.134307861328125,-0.0463829450309276,0.0277024675160646,-0.0037422738969326
1768646873120,-0.368865966796875,-0.92584228515625,0.132843017578125,-0.0590912848711013,0.0214078202843666,0.0001344896299997
1768646873130,-0.3608551025390625,-0.920501708984375,0.1261749267578125,-0.0604098141193389,0.0333259999752044,0.0061843926087021
1768646873140,-0.3586273193359375,-0.9156036376953124,0.1178436279296875,-0.057918693870306,0.0403357036411762,0.0131679996848106
1768646873150,-0.360687255859375,-0.9163818359375,0.1147003173828125,-0.0554723143577575,0.0267088431864976,0.0145057057961821
1768646873160,-0.36077880859375,-0.9182281494140624,0.110931396484375,-0.0490522310137748,0.0292732007801532,0.0149059789255261
1768646873172,-0.3630523681640625,-0.92340087890625,0.10833740234375,-0.0420326702296733,0.0303232837468385,0.0141094271093606
1768646873180,-0.368927001953125,-0.925872802734375,0.106658935546875,-0.0384142324328422,0.0337371900677681,0.0135299237444996
1768646873190,-0.3676605224609375,-0.924652099609375,0.1085968017578125,-0.0321523435413837,0.0289203319698572,0.0109069757163524
1768646873201,-0.36688232421875,-0.920501708984375,0.105072021484375,-0.0260236114263534,0.0182517077773809,0.0105927232652902
1768646873211,-0.3665008544921875,-0.920440673828125,0.1051483154296875,-0.0195212364196777,0.0099146822467446,0.0097780618816614
1768646873221,-0.3696136474609375,-0.9217071533203124,0.106414794921875,-0.0134708015248179,0.0103016393259167,0.0013949638232588
1768646873231,-0.37139892578125,-0.9226837158203124,0.1068878173828125,-0.0114723648875951,0.0003976099542342,2.5300030756625347e-05
1768646873241,-0.371795654296875,-0.92291259765625,0.1059112548828125,-0.0081106573343276,-0.001514539704658,-0.0031699605751782
1768646873251,-0.3701629638671875,-0.921173095703125,0.1085052490234375,-0.0029878003988415,-0.002092711860314,-0.0064704162068665
1768646873261,-0.3704681396484375,-0.9229736328125,0.1092376708984375,-0.0034690336324274,-0.0077631142921745,-0.0076738987118005
1768646873271,-0.3686676025390625,-0.9251708984375,0.109588623046875,-0.0014953649369999,-0.0045848982408642,-0.009679258801043
1768646873281,-0.3683929443359375,-0.9239044189453124,0.1090850830078125,0.001340635237284,-0.003148122690618,-0.0075157070532441
1768646873291,-0.3675537109375,-0.9239654541015624,0.1091766357421875,0.00140721432399,0.0021574266720563,-0.0085751125589013
1768646873301,-0.3663177490234375,-0.923004150390625,0.1121368408203125,0.0036906085442751,0.0038240330759435,-0.0065441858023405
1768646873311,-0.36614990234375,-0.92230224609375,0.1114654541015625,0.0037963360082358,0.002935602562502,-0.005928995553404
1768646873321,-0.3642578125,-0.9225006103515624,0.1119232177734375,0.004661863669753,-0.0062626893632113,-0.005126851145178
1768646873331,-0.366302490234375,-0.9217987060546876,0.111114501953125,0.0075125112198293,-0.0064831990748643,-0.0032495891209691
1768646873341,-0.36328125,-0.922119140625,0.1121978759765625,0.01342339720577,0.006982275750488,-0.0010431602131575
1768646873351,-0.36334228515625,-0.922760009765625,0.1113739013671875,0.0150705622509121,0.0102419843897223,-0.0010735202813521
1768646873361,-0.364654541015625,-0.92388916015625,0.1158294677734375,0.011863850057125,0.0054578823037445,0.000291083502816
1768646873371,-0.3659820556640625,-0.92138671875,0.1204986572265625,0.0091122714802622,0.0062315305694937,0.0018048242200165
1768646873381,-0.365264892578125,-0.921600341796875,0.121124267578125,0.0079711070284247,-0.0036565200425684,0.0002543318842072
1768646873391,-0.3700714111328125,-0.9228515625,0.120086669921875,0.0031454595737159,-0.0108316084370017,-0.0040043289773166
1768646873401,-0.3715972900390625,-0.9216461181640624,0.1207275390625,0.0007635282818228,-0.0031372036319226,-0.0055004931055009
1768646873412,-0.3660125732421875,-0.919586181640625,0.1201324462890625,-0.0019070896087214,0.0021497036796063,-0.0032157669775187
1768646873421,-0.364105224609375,-0.9181976318359376,0.121063232421875,-0.0082938829436898,0.0002783003437798,-6.897587445564568e-05
1768646873432,-0.3661346435546875,-0.9216461181640624,0.123992919921875,-0.0155691057443618,0.0009944243356585,-0.0015411713393405
1768646873442,-0.3675994873046875,-0.9197845458984376,0.122283935546875,-0.0172703340649604,0.0011526161106303,-0.0030722226947546
1768646873452,-0.36810302734375,-0.9224700927734376,0.119598388671875,-0.0217002350836992,0.0022042985074222,-0.0045321676880121
1768646873462,-0.367034912109375,-0.9224700927734376,0.120147705078125,-0.0249530207365751,0.0120545318350195,-0.0027843348216265
1768646873472,-0.365875244140625,-0.9210357666015624,0.1157073974609375,-0.0254385136067867,0.0140417832881212,-0.0009510148083791
1768646873482,-0.3653717041015625,-0.921112060546875,0.1139373779296875,-0.0253359824419021,0.011730957776308,0.000127831735881
1768646873492,-0.365936279296875,-0.9211578369140624,0.113006591796875,-0.0226736199110746,0.0141539024189114,-0.0009779128013178
1768646873502,-0.367584228515625,-0.92327880859375,0.111297607421875,-0.0217734724283218,0.0157986711710691,-0.0039404132403433
1768646873512,-0.3659210205078125,-0.9227752685546876,0.11016845703125,-0.0209649372845888,0.0116771627217531,-0.0008178567513823
1768646873522,-0.36773681640625,-0.9219970703125,0.11041259765625,-0.023185746744275,0.0065108961425721,-0.0028783443849533
1768646873532,-0.3670654296875,-0.921539306640625,0.1092529296875,-0.0200416184961795,0.0011033476330339,-0.003107376396656
1768646873542,-0.3660888671875,-0.922882080078125,0.1056365966796875,-0.014151238836348,0.0011225224006921,-0.0008199872681871
1768646873552,-0.361968994140625,-0.920501708984375,0.105804443359375,-0.0051252534613013,0.0103620933368802,0.0009262474486604
1768646873562,-0.365386962890625,-0.9219512939453124,0.1035919189453125,0.0031364047899842,0.0049904976040124,0.0003376888344064
1768646873572,-0.36724853515625,-0.9224700927734376,0.1045684814453125,0.0077841533347964,-0.0025872609112411,-0.0021616879384964
1768646873582,-0.3701171875,-0.9223175048828124,0.1060333251953125,0.0187380015850067,-0.0055260593071579,-0.0064168865792453
1768646873592,-0.37066650390625,-0.9226837158203124,0.1030426025390625,0.0263679586350917,-0.0150489909574389,-0.0088531468063592
1768646873602,-0.3675689697265625,-0.922027587890625,0.103759765625,0.033812291920185,-0.0233375467360019,-0.0133949015289545
1768646873612,-0.368682861328125,-0.922515869140625,0.1054840087890625,0.0398001447319984,-0.0175992343574762,-0.014174141921103
1768646873622,-0.366363525390625,-0.92193603515625,0.109954833984375,0.0394589938223362,-0.0064445836469531,-0.0133541552349925
1768646873632,-0.365325927734375,-0.922637939453125,0.118377685546875,0.031132087111473,-0.0078376829624176,-0.0132657382637262
1768646873643,-0.3630523681640625,-0.92279052734375,0.1230316162109375,0.0256619546562433,-0.0031486554071307,-0.00842144805938
1768646873653,-0.36114501953125,-0.9219818115234376,0.1230926513671875,0.0188029818236827,-0.0050924965180456,-0.0034442662727087
1768646873663,-0.360382080078125,-0.9200592041015624,0.1226043701171875,0.0125312376767396,-0.0034570493735373,-0.001635979861021
1768646873673,-0.3614501953125,-0.9218292236328124,0.1237030029296875,0.0071761538274586,0.0049297772347927,0.0006327670416794
1768646873683,-0.363128662109375,-0.9222869873046876,0.1243896484375,0.0024224112275987,0.0119988722726702,0.000646349217277
1768646873693,-0.363555908203125,-0.924041748046875,0.12603759765625,-0.0061801318079233,0.0148010505363345,0.0022972426377236
1768646873705,-0.3668212890625,-0.9244537353515624,0.127716064453125,-0.0140239400789141,0.0154479322955012,0.0001877528557088
1768646873713,-0.3712921142578125,-0.924468994140625,0.1275634765625,-0.0221689511090517,0.0194133780896663,-0.0008255799184553
1768646873723,-0.3712921142578125,-0.9264678955078124,0.1252288818359375,-0.0319864302873611,0.0208837110549211,-0.0046996804885566
1768646873733,-0.371124267578125,-0.9270782470703124,0.12530517578125,-0.0413397178053855,0.02042325027287,-0.0055263256654143
1768646873743,-0.3699493408203125,-0.9263916015625,0.1214447021484375,-0.0384099744260311,0.0085713835433125,-0.0051960935816168
1768646873753,-0.3640899658203125,-0.9202728271484376,0.11444091796875,-0.0291349813342094,0.0030535804107785,0.0001515338663011
1768646873763,-0.35418701171875,-0.90643310546875,0.106658935546875,-0.0130497552454471,0.0074975974857807,0.0089471563696861
1768646873773,-0.35345458984375,-0.908966064453125,0.1002044677734375,0.0021206750534474,-0.0041433461010456,0.0095607480034232
1768646873783,-0.3654632568359375,-0.9201812744140624,0.1045379638671875,0.0066840015351772,0.0001347559446003,0.0068970546126365
1768646873793,-0.376373291015625,-0.930206298828125,0.1086578369140625,0.0068089039996266,0.0085841668769717,-0.0014642059104517
1768646873803,-0.378692626953125,-0.9355926513671876,0.115142822265625,-0.0069567095488309,0.017624532803893,-0.0137171437963843
1768646873813,-0.3779144287109375,-0.9337158203125,0.124542236328125,-0.01792973279953,0.0270127095282077,-0.018017616122961
1768646873823,-0.365081787109375,-0.9177398681640624,0.124847412109375,-0.0177398491650819,0.0115538584068417,-0.005494900047779
1768646873833,-0.3462677001953125,-0.9042510986328124,0.1162261962890625,-0.0098166782408952,-0.0086965523660182,0.0089508844539523
1768646873843,-0.341339111328125,-0.9032135009765624,0.110748291015625,0.0016495619202032,-0.0144828027114272,0.0210517551749944
1768646873854,-0.351806640625,-0.911865234375,0.1089630126953125,0.0087908282876014,-0.0142455147579312,0.0199465434998273
1768646873863,-0.3650054931640625,-0.92620849609375,0.111663818359375,0.0066051720641553,-0.0078262314200401,0.0123458821326494
1768646873874,-0.37420654296875,-0.9333038330078124,0.114715576171875,-0.0011640676530078,-1.5978966985130683e-05,0.0074158385396003
1768646873884,-0.375732421875,-0.9310150146484376,0.11907958984375,-0.0112792858853936,-0.0002934803487733,0.0080217076465487
1768646873894,-0.368499755859375,-0.923431396484375,0.1209259033203125,-0.0174189377576112,3.009372085216455e-05,0.0103474464267492
1768646873904,-0.3645172119140625,-0.9207763671875,0.116912841796875,-0.0198781006038188,-0.0029334719292819,0.0119338911026716
1768646873914,-0.367401123046875,-0.9213409423828124,0.113189697265625,-0.0207316428422927,0.001236772048287,0.0143890595063567
1768646873924,-0.3693084716796875,-0.9224090576171876,0.1082763671875,-0.0154548566788434,0.0005339637864381,0.0125504126772284
1768646873934,-0.3703460693359375,-0.9228057861328124,0.1047210693359375,-0.0102688828483223,-0.0021891184151172,0.0139424474909901
1768646873944,-0.369476318359375,-0.9234619140625,0.1018218994140625,0.0010849718237295,-0.0067761470563709,0.0140625555068254
1768646873954,-0.36767578125,-0.9230499267578124,0.09912109375,0.0123994117602705,-0.0012695288751274,0.0144883953034877
1768646873964,-0.3665008544921875,-0.924285888671875,0.1029052734375,0.0159395523369312,0.0090137347579002,0.0134931718930602
1768646873974,-0.3722686767578125,-0.9268035888671876,0.1122283935546875,0.0143368616700172,-0.0049066077917814,0.0088078724220395
1768646873984,-0.37353515625,-0.9260711669921876,0.1162261962890625,0.0127781126648187,-0.015532087534666,0.0040208403952419
1768646873994,-0.371795654296875,-0.924591064453125,0.1114654541015625,0.0207356382161378,-0.0037388119380921,-0.0032514533959329
1768646874004,-0.371429443359375,-0.926361083984375,0.1092987060546875,0.0252275913953781,-0.0006585997180081,-0.0048107341863214
1768646874014,-0.367431640625,-0.922882080078125,0.11346435546875,0.0272329524159431,0.0004577973741106,-0.0045569348149001
1768646874024,-0.3653411865234375,-0.9211578369140624,0.1172637939453125,0.0289533548057079,0.0035992620978504,-0.0044104610569775
1768646874034,-0.36322021484375,-0.920257568359375,0.1199951171875,0.0259762071073055,0.0086560724303126,-0.0008620652370154
1768646874045,-0.363311767578125,-0.9193267822265624,0.1253814697265625,0.0190826151520013,0.0024471788201481,-0.0026423884555697
1768646874054,-0.367034912109375,-0.9216766357421876,0.12872314453125,0.0074983960948884,-0.0010894992155954,-0.0035156388767063
1768646874064,-0.3648834228515625,-0.921051025390625,0.13165283203125,-0.0031411985401064,-0.006066414527595,-0.0022461100015789
1768646874075,-0.3649444580078125,-0.9192657470703124,0.13055419921875,-0.0118441423401236,-0.0024852619972079,-0.0053039514459669
1768646874084,-0.3629608154296875,-0.919219970703125,0.13006591796875,-0.0215931758284568,0.0085692536085844,-0.0023614249657839
1768646874094,-0.3634490966796875,-0.9213714599609376,0.128936767578125,-0.0338948480784893,0.0053199306130409,0.0007305050967261
1768646874105,-0.3651580810546875,-0.9276123046875,0.1274566650390625,-0.0488743335008621,0.0224176906049251,-0.0012591425329446
1768646874115,-0.3714141845703125,-0.92962646484375,0.126953125,-0.0580894015729427,0.0291237961500883,-0.0078299595043063
1768646874125,-0.3721160888671875,-0.925079345703125,0.1222381591796875,-0.0632799044251442,0.0159797649830579,-0.0031385354232043
1768646874135,-0.3621063232421875,-0.9186248779296876,0.1163482666015625,-0.0607949085533618,0.0128044784069061,0.006149505265057
1768646874145,-0.358978271484375,-0.912353515625,0.1075897216796875,-0.0467746965587139,0.0111045828089118,0.0107176257297396
1768646874155,-0.36224365234375,-0.91351318359375,0.0989990234375,-0.0307105090469121,0.0175331868231296,0.0080669810995459
1768646874165,-0.3707122802734375,-0.9218292236328124,0.0965576171875,-0.0186783466488122,0.0216080900281667,0.0047774445265531
1768646874175,-0.3763885498046875,-0.925079345703125,0.0959930419921875,-0.0085604647174477,0.025332786142826,-0.000901480030734
1768646874185,-0.37298583984375,-0.9227294921875,0.1003570556640625,-0.0011512845521792,0.0154095822945237,0.0019438412273302
1768646874195,-0.3683013916015625,-0.92120361328125,0.1042022705078125,0.0032320122700184,8.57537888805382e-05,0.0014570154016837
1768646874207,-0.368438720703125,-0.918121337890625,0.10479736328125,0.0099003016948699,-0.0091178650036454,0.0010860371403396
1768646874215,-0.3709869384765625,-0.921417236328125,0.1051025390625,0.0164831019937992,-0.0114068519324064,-0.0035862126387655
1768646874225,-0.3709564208984375,-0.9216766357421876,0.10498046875,0.0215036943554878,-0.0194461364299058,-0.0059886504895985
1768646874235,-0.3701171875,-0.921844482421875,0.108123779296875,0.0209729261696338,-0.0273916777223348,-0.0097836544737219
1768646874245,-0.3687896728515625,-0.92254638671875,0.1138916015625,0.0197249688208103,-0.0194786265492439,-0.012518455274403
1768646874255,-0.368560791015625,-0.9232635498046876,0.1128997802734375,0.0244760476052761,-0.0120566627010703,-0.0121871577575802
1768646874265,-0.3667449951171875,-0.922882080078125,0.1122283935546875,0.0253522284328937,0.0004737763665616,-0.0110920658335089
1768646874275,-0.36480712890625,-0.9222412109375,0.117767333984375,0.0194655768573284,0.0099258674308657,-0.0100667485967278
1768646874285,-0.3633880615234375,-0.924652099609375,0.1250457763671875,0.0086608659476041,0.0103165535256266,-0.0058810585178434
1768646874295,-0.3625640869140625,-0.923004150390625,0.12713623046875,-0.0046693203039467,0.015541941858828,-0.0010812433902174
1768646874306,-0.3626708984375,-0.9228515625,0.127655029296875,-0.0132247256115078,0.0142532382160425,0.0006159891490824
1768646874316,-0.3667144775390625,-0.9226531982421876,0.12603759765625,-0.0170935001224279,0.0134809212759137,0.0017654094845056
1768646874326,-0.3661041259765625,-0.921966552734375,0.1227264404296875,-0.021555358543992,0.0104411896318197,0.00192306865938
1768646874336,-0.36553955078125,-0.922607421875,0.11968994140625,-0.0194418746978044,0.0224429909139871,0.0003866909828502
1768646874346,-0.365570068359375,-0.9235992431640624,0.11724853515625,-0.0201952829957008,0.0186024457216262,8.788431296125054e-05
1768646874356,-0.3673095703125,-0.92236328125,0.1156158447265625,-0.0214914437383413,0.0143858632072806,0.0022029669489711
1768646874366,-0.3641204833984375,-0.919921875,0.1165618896484375,-0.0224576387554407,0.014071344397962,8.788431841821875e-06
1768646874376,-0.36639404296875,-0.9210357666015624,0.11822509765625,-0.0241431538015604,0.0086507461965084,0.0012064119800925
1768646874386,-0.3628082275390625,-0.9218902587890624,0.116943359375,-0.0277016684412956,0.0061644189991056,0.0042261704802513
1768646874396,-0.3607025146484375,-0.921173095703125,0.1162872314453125,-0.026771692559123,0.0103604951873421,0.00768375210464
1768646874407,-0.3639068603515625,-0.92120361328125,0.1131134033203125,-0.0235442072153091,0.0064091635867953,0.0057673417031764
1768646874416,-0.3659515380859375,-0.92132568359375,0.109771728515625,-0.0211407057940959,0.010602843016386,0.0077165090478956
1768646874426,-0.366302490234375,-0.9209442138671876,0.109161376953125,-0.0154993310570716,0.023202259093523,0.0056099486537277
1768646874436,-0.371063232421875,-0.91943359375,0.10791015625,-0.0132670691236853,0.0166351702064275,0.0015547533985227
1768646874446,-0.3719940185546875,-0.921112060546875,0.107818603515625,-0.0091365063562989,0.0078770974650979,0.0003089266829192
1768646874456,-0.37188720703125,-0.9214935302734376,0.1050262451171875,-0.0017816547770053,0.013054815120995,-0.0029870015569031
1768646874466,-0.368743896484375,-0.9211273193359376,0.1046905517578125,0.0015571502735838,0.0065939868800342,-0.002649046247825
1768646874476,-0.3675994873046875,-0.922332763671875,0.10888671875,0.0006460828590206,0.0012029499048367,-0.0010439591715112
1768646874486,-0.36761474609375,-0.92327880859375,0.1110076904296875,0.0024604944046586,0.0029915287159383,-0.0029241507872939
1768646874496,-0.3662261962890625,-0.9227447509765624,0.1108245849609375,0.0022072279825806,-0.0007438209140673,0.0003470098890829
1768646874507,-0.3675689697265625,-0.923095703125,0.1120452880859375,0.0015720640076324,-0.0033230923581868,0.0004724447790067
1768646874516,-0.369415283203125,-0.9226837158203124,0.1126861572265625,0.0020487697329372,-0.0008623315370641,-0.0026208166964352
1768646874526,-0.372283935546875,-0.9225616455078124,0.114593505859375,-0.0009390306076966,0.002510295715183,-0.0056488309055566
1768646874538,-0.369354248046875,-0.922210693359375,0.1147308349609375,-0.0053566819988191,0.0110633037984371,-0.0028812738601118
1768646874546,-0.365631103515625,-0.9196929931640624,0.1173553466796875,-0.0082688489928841,0.0099519668146967,-0.0015837819082662
1768646874557,-0.3672943115234375,-0.921478271484375,0.117095947265625,-0.0145003795623779,0.0032525185961276,0.0016844493802636
1768646874567,-0.3685760498046875,-0.922393798828125,0.1166534423828125,-0.0160346273332834,-0.0024192156270146,0.0003347593592479
1768646874577,-0.36773681640625,-0.9228515625,0.1140289306640625,-0.0157597884535789,-0.0092126727104187,0.0007611314067617
1768646874587,-0.3654327392578125,-0.9234466552734376,0.1124267578125,-0.012859339825809,0.0030815436039119,-0.0012713931500911
1768646874597,-0.3651275634765625,-0.9214630126953124,0.1106414794921875,-0.0084483455866575,0.0095721995458006,-0.0010753844399005
1768646874607,-0.3671417236328125,-0.9221954345703124,0.1098480224609375,-0.0061532338149845,0.0076011945493519,9.00148443179205e-05
1768646874617,-0.3663482666015625,-0.921630859375,0.109039306640625,-0.0006838997360318,0.0047801076434552,-0.0007227819296531
1768646874627,-0.3660736083984375,-0.9210662841796876,0.108978271484375,-0.0007169229793362,0.0008857673965394,-0.002322542713955
1768646874637,-0.368316650390625,-0.9235076904296876,0.1091461181640625,-0.0001083906536223,-0.0053420346230268,-0.0027654264122247
1768646874647,-0.3674468994140625,-0.92156982421875,0.110443115234375,0.0003744404530152,-0.0076621808111667,-0.0034469293896108
1768646874657,-0.366973876953125,-0.9217376708984376,0.113555908203125,0.0007816377910785,0.001415736391209,-0.0020146814640611
1768646874667,-0.3652191162109375,-0.923370361328125,0.1133575439453125,-0.0034378746058791,-0.0014524880098178,-0.0007765777409076
1768646874677,-0.3671875,-0.92218017578125,0.11395263671875,-0.0053084790706634,0.0002740392810665,-0.0009318400407209
1768646874687,-0.3641357421875,-0.923004150390625,0.1148529052734375,-0.0092425001785159,0.0226581748574972,0.0038559909444302
1768646874697,-0.3630523681640625,-0.9232330322265624,0.118927001953125,-0.0281906258314847,0.0172839146107435,0.0078315576538443
1768646874707,-0.3643035888671875,-0.91864013671875,0.1306915283203125,-0.0376933179795742,-0.0092555498704314,0.006107959896326
1768646874717,-0.3690643310546875,-0.9226531982421876,0.1226654052734375,-0.040424920618534,0.0037792918737977,0.0050810449756681
1768646874727,-0.3702850341796875,-0.9234161376953124,0.116790771484375,-0.0405833795666694,0.0055090151727199,0.0041199102997779
1768646874738,-0.3702545166015625,-0.922607421875,0.1126251220703125,-0.0387971960008144,-0.0089146653190255,0.001832521171309
1768646874747,-0.3698883056640625,-0.9212493896484376,0.11041259765625,-0.0319597981870174,-0.0086115980520844,0.0009145294898189
1768646874757,-0.3675994873046875,-0.9219207763671876,0.1089630126953125,-0.0258350595831871,0.0015129417879506,-0.0027861990965902
1768646874767,-0.3670196533203125,-0.9212799072265624,0.10614013671875,-0.0250443667173385,0.000630370224826,-0.0001954760227818
1768646874778,-0.366363525390625,-0.9216766357421876,0.1091766357421875,-0.0208312459290027,0.0151627073064446,1.25168571685208e-05
1768646874788,-0.3669891357421875,-0.92413330078125,0.1094207763671875,-0.0218408498913049,0.0261375941336154,-0.0006250438746064
1768646874798,-0.367462158203125,-0.92498779296875,0.11077880859375,-0.0266260188072919,0.0139938462525606,-0.0001677791442489
1768646874808,-0.366943359375,-0.9233856201171876,0.1120452880859375,-0.0301943868398666,0.0067753479816019,-0.0029747509397566
1768646874818,-0.371795654296875,-0.9256744384765624,0.1098785400390625,-0.0311086513102054,0.0084406230598688,-0.0057047572918236
1768646874828,-0.3783111572265625,-0.927764892578125,0.1020355224609375,-0.0247482229024171,0.007849134504795,-0.0072946646250784
1768646874838,-0.3729248046875,-0.9212188720703124,0.0987701416015625,-0.007881891913712,0.0008612662786617,-0.0086145270615816
1768646874848,-0.362335205078125,-0.91107177734375,0.094879150390625,0.008608934469521,0.0048687909729778,0.0046184537932276
1768646874858,-0.3500213623046875,-0.9050750732421876,0.092498779296875,0.0249154698103666,0.0053931674920022,0.013398895971477
1768646874868,-0.3614044189453125,-0.9134521484375,0.09613037109375,0.0313645787537097,0.0082480758428573,0.0060477722436189
1768646874878,-0.3737640380859375,-0.9260406494140624,0.105682373046875,0.0282233823090791,0.0090464921668171,0.0013014868600293
1768646874888,-0.3764801025390625,-0.9326629638671876,0.11212158203125,0.017537448555231,0.0016908409306779,-0.0102185485884547
1768646874898,-0.383392333984375,-0.936279296875,0.1189117431640625,0.008543686941266,0.0018895127577707,-0.0227907989174127
1768646874908,-0.378173828125,-0.9253692626953124,0.1201629638671875,0.0060499031096696,0.0051050134934484,-0.0176333226263523
1768646874918,-0.35430908203125,-0.9066314697265624,0.1142120361328125,0.0130665330216288,-0.0082054659724235,-0.0008255799184553
1768646874928,-0.3385772705078125,-0.90142822265625,0.1131134033203125,0.0175369158387184,-0.0171614103019237,0.0171808507293462
1768646874938,-0.34490966796875,-0.9092559814453124,0.114410400390625,0.0203830357640981,-0.0103719467297196,0.0232563205063343
1768646874948,-0.360992431640625,-0.924102783203125,0.1175384521484375,0.0093186665326356,1.5446334145963192e-05,0.0168391671031713
1768646874958,-0.3760986328125,-0.9355010986328124,0.12481689453125,-0.0115493303164839,0.0065977154299616,0.0115128457546234
1768646874968,-0.3777313232421875,-0.9360809326171876,0.1320648193359375,-0.035413384437561,0.0186317414045333,0.0039380164816975
1768646874978,-0.3722686767578125,-0.9295501708984376,0.1343994140625,-0.0552653856575489,0.0228717606514692,0.0080504696816205
1768646874989,-0.3694305419921875,-0.9224700927734376,0.127838134765625,-0.0691207498311996,0.0206951592117548,0.0094222640618681
1768646874998,-0.3701629638671875,-0.9189300537109376,0.1182708740234375,-0.0739924684166908,0.0195643808692693,0.0109735550358891
1768646875009,-0.369171142578125,-0.9206695556640624,0.108673095703125,-0.0686898455023765,0.0285293795168399,0.0143419215455651
1768646875019,-0.367889404296875,-0.9210662841796876,0.1011199951171875,-0.0620383359491825,0.0272971354424953,0.0189185626804828
1768646875029,-0.3677978515625,-0.9201507568359376,0.0953826904296875,-0.0511100552976131,0.0175691395998001,0.0221159551292657
1768646875039,-0.3716583251953125,-0.9201507568359376,0.08905029296875,-0.0326266512274742,0.0059979711659252,0.0170447640120983
1768646875049,-0.3761138916015625,-0.9238128662109376,0.082611083984375,-0.0097991013899445,-0.0061236727051436,0.0090289153158664
1768646875059,-0.3756561279296875,-0.92449951171875,0.078765869140625,0.0118848886340856,-0.0150772202759981,0.0043247072026133
1768646875069,-0.376312255859375,-0.9245452880859376,0.0797119140625,0.0297629553824663,-0.0216938443481922,0.0008077367674559
1768646875079,-0.373779296875,-0.924224853515625,0.0818328857421875,0.0525039546191692,-0.0098981708288192,-0.0033659692853689
1768646875089,-0.371734619140625,-0.9236907958984376,0.0868988037109375,0.0661057829856872,0.0024410535115748,-0.006778810173273
1768646875099,-0.3719329833984375,-0.9228668212890624,0.0954437255859375,0.0689649507403373,-0.0137922447174787,-0.0088627338409423
1768646875109,-0.37054443359375,-0.9236297607421876,0.105804443359375,0.0677510872483253,-0.01764184422791,-0.0127349700778722
1768646875119,-0.3688201904296875,-0.92108154296875,0.114349365234375,0.0640839114785194,-0.0128228543326258,-0.0117589216679334
1768646875129,-0.36627197265625,-0.920440673828125,0.1214599609375,0.054987084120512,-0.0133765256032347,-0.0117727695032954
1768646875139,-0.3629913330078125,-0.9201812744140624,0.126495361328125,0.0402693934738636,-0.0096590192988514,-0.0066421898081898
1768646875149,-0.3617095947265625,-0.9210357666015624,0.1319580078125,0.0228160992264747,-0.0049068741500377,-0.0040916805155575
1768646875159,-0.365997314453125,-0.9207611083984376,0.1371612548828125,0.0015302523970603,0.0060099554248154,-0.0049950247630476
1768646875169,-0.3615570068359375,-0.920135498046875,0.13983154296875,-0.0179358571767807,0.0096425069496035,0.0010159959783777
1768646875179,-0.3609619140625,-0.92181396484375,0.1384124755859375,-0.0398539379239082,0.0058163437061011,0.0036924728192389
1768646875189,-0.366424560546875,-0.92510986328125,0.1350250244140625,-0.0579589083790779,0.0181875266134738,0.0038844866212457
1768646875199,-0.3721466064453125,-0.931304931640625,0.131195068359375,-0.0753645300865173,0.0305501855909824,-0.001479918602854
1768646875210,-0.3732452392578125,-0.9252166748046876,0.1255950927734375,-0.0836773216724395,0.0353803597390651,0.0056408415548503
1768646875219,-0.3592987060546875,-0.9174041748046876,0.11737060546875,-0.0850413888692855,0.0493904538452625,0.0153962671756744
1768646875230,-0.358551025390625,-0.9136199951171876,0.1064605712890625,-0.0793504789471626,0.043798878788948,0.0239671189337968
1768646875240,-0.362762451171875,-0.91339111328125,0.10174560546875,-0.0718100070953369,0.0296143516898155,0.0213857162743806
1768646875250,-0.3714752197265625,-0.9208526611328124,0.0984649658203125,-0.0648010969161987,0.031563252210617,0.0152921369299292
1768646875260,-0.378387451171875,-0.9239501953125,0.092620849609375,-0.0507081858813762,0.0240235775709152,0.0100419810041785
1768646875270,-0.3795013427734375,-0.92254638671875,0.08648681640625,-0.0339398570358753,0.0090526174753904,0.0062128882855176
1768646875280,-0.374114990234375,-0.919769287109375,0.0832672119140625,-0.0127195231616497,0.0114643760025501,0.0032586439047008
1768646875290,-0.37115478515625,-0.9181671142578124,0.0825653076171875,0.0075236964039504,0.0128590734675526,0.0034487936645746
1768646875300,-0.37255859375,-0.9208526611328124,0.0842132568359375,0.0170575473457574,-0.0008223841432482,-0.001348891062662
1768646875310,-0.3758392333984375,-0.9214019775390624,0.0902557373046875,0.025619875639677,-0.0167587399482727,-0.0086283758282661
1768646875320,-0.3759765625,-0.9210052490234376,0.0936431884765625,0.038571361452341,-0.0241623278707265,-0.0133088808506727
1768646875330,-0.373016357421875,-0.92156982421875,0.095428466796875,0.043842289596796,-0.0196064580231905,-0.0159398186951875
1768646875340,-0.371002197265625,-0.9222564697265624,0.1007080078125,0.0480668619275093,-0.0151475276798009,-0.0159640535712242
1768646875350,-0.369232177734375,-0.9218902587890624,0.104248046875,0.0484029538929462,-0.0089077409356832,-0.0126931583508849
1768646875360,-0.3656158447265625,-0.9227294921875,0.1078033447265625,0.0466298200190067,-0.0141800008714199,-0.0103919208049774
1768646875370,-0.3660125732421875,-0.9246978759765624,0.112274169921875,0.0403575412929058,-0.0152633748948574,-0.0069548450410366
1768646875380,-0.367279052734375,-0.9246368408203124,0.1195220947265625,0.0255013648420572,-0.0082014705985784,-0.0056634782813489
1768646875390,-0.3640289306640625,-0.923309326171875,0.125762939453125,0.0113823506981134,-0.0039891488850116,-0.0006828344776295
1768646875400,-0.362548828125,-0.9222564697265624,0.1284027099609375,-0.0035180358681827,-0.0018767296569421,0.0014807175612077
1768646875410,-0.36309814453125,-0.9219818115234376,0.1278076171875,-0.0098209390416741,0.0134926391765475,0.0044370926916599
1768646875420,-0.367523193359375,-0.9243316650390624,0.1217193603515625,-0.0197113864123821,0.0171036198735237,0.004415254574269
1768646875431,-0.3672637939453125,-0.924652099609375,0.12060546875,-0.0241426210850477,0.0221484452486038,0.0055875782854855
1768646875441,-0.3671112060546875,-0.92303466796875,0.1179351806640625,-0.0265815425664186,0.0231924038380384,0.0062544336542487
1768646875451,-0.368011474609375,-0.9214019775390624,0.1157989501953125,-0.0329470299184322,0.0176636818796396,0.0061146179214119
1768646875461,-0.366546630859375,-0.9217376708984376,0.1149139404296875,-0.0360464192926883,0.0107650300487875,0.0079260999336838
1768646875473,-0.366424560546875,-0.9204559326171876,0.1129302978515625,-0.0372243337333202,0.0099607547745108,0.0101077612489461
1768646875481,-0.365936279296875,-0.9203338623046876,0.1088714599609375,-0.0330514274537563,0.0161406211555004,0.0110076433047652
1768646875491,-0.366546630859375,-0.9203643798828124,0.103912353515625,-0.0301373954862356,0.0110475914552807,0.0111029846593737
1768646875501,-0.3715972900390625,-0.920654296875,0.1018829345703125,-0.0277410838752985,0.01162576302886,0.0054179350845515
1768646875511,-0.374267578125,-0.9186859130859376,0.1021881103515625,-0.024362064898014,0.0136255305260419,0.0032882050145417
1768646875521,-0.374969482421875,-0.9212646484375,0.1003875732421875,-0.0209502894431352,0.0043910201638937,0.0027020431589335
1768646875531,-0.3736114501953125,-0.9215087890625,0.098876953125,-0.0166697911918163,-0.0017488978337496,-0.0023675502743571
1768646875541,-0.37530517578125,-0.9212188720703124,0.0972747802734375,-0.0074952007271349,0.0103549025952816,-0.0053297844715416
1768646875551,-0.3731536865234375,-0.92071533203125,0.09564208984375,-0.0016873788554221,0.005961219780147,-0.0045324340462684
1768646875561,-0.3729400634765625,-0.9214019775390624,0.0982208251953125,0.0051718587055802,0.0001379517489112,-0.0072153024375438
1768646875571,-0.374359130859375,-0.9226837158203124,0.100860595703125,0.0120233735069632,0.0017339842161163,-0.0082989428192377
1768646875581,-0.3729095458984375,-0.9225311279296876,0.0995941162109375,0.0168271828442811,0.0002836266648955,-0.0052016861736774
1768646875591,-0.3690185546875,-0.921783447265625,0.1005401611328125,0.0199103243649005,-0.0067740166559815,-0.0058597531169652
1768646875601,-0.3724365234375,-0.9219970703125,0.103790283203125,0.0229615084826946,-0.0113892750814557,-0.0081974761560559
1768646875611,-0.371002197265625,-0.9215850830078124,0.107086181640625,0.0230613760650157,-0.0122809009626507,-0.0079071912914514
1768646875622,-0.3650360107421875,-0.9204254150390624,0.1064453125,0.0237916149199008,-0.0182935204356908,-0.0090102730318903
1768646875631,-0.366943359375,-0.9217681884765624,0.1092529296875,0.0221255421638488,-0.006727943662554,-0.0074030552059412
1768646875641,-0.369049072265625,-0.9229278564453124,0.1112823486328125,0.0190932676196098,-0.0066355322487652,-0.0060943779535591
1768646875651,-0.3678436279296875,-0.9229736328125,0.1123504638671875,0.0157952085137367,-0.0084091974422335,-0.0062696137465536
1768646875661,-0.366790771484375,-0.92242431640625,0.111083984375,0.0150460610166192,-0.00919003598392,-0.0025973808951675
1768646875672,-0.366790771484375,-0.9211883544921876,0.113311767578125,0.0136718703433871,-0.0057790596038103,-0.0050003509968519
1768646875682,-0.365875244140625,-0.92059326171875,0.1145172119140625,0.0120824957266449,0.0061367219313979,-0.0047593349590897
1768646875692,-0.365234375,-0.9189453125,0.1170196533203125,0.0047497479245066,0.0098094874992966,-0.0039433427155017
1768646875702,-0.3662261962890625,-0.9233856201171876,0.118865966796875,-0.0044914209283888,0.0086174570024013,-0.0017973673529922
1768646875712,-0.3664398193359375,-0.922393798828125,0.1214141845703125,-0.0106750149279832,0.005429386626929,-0.000835966260638
1768646875722,-0.3659210205078125,-0.92327880859375,0.1198883056640625,-0.0186578407883644,0.0084925545379519,0.0027923244051635
1768646875732,-0.364410400390625,-0.922271728515625,0.1182861328125,-0.0268968623131513,0.0044892905279994,0.0023260049056261
1768646875742,-0.3652191162109375,-0.9215850830078124,0.116485595703125,-0.0299451164901256,0.0098374504595994,0.0021877868566662
1768646875752,-0.3667449951171875,-0.9231719970703124,0.1162109375,-0.0320556722581386,0.0111434645950794,0.0040365532040596
1768646875762,-0.36737060546875,-0.9241180419921876,0.109039306640625,-0.0308588463813066,0.0125080682337284,0.0056291236542165
1768646875773,-0.36956787109375,-0.9222869873046876,0.103759765625,-0.0225764159113168,0.01590146869421,0.0033060482237488
1768646875782,-0.3693389892578125,-0.9209747314453124,0.1017608642578125,-0.0143951848149299,0.0222264751791954,0.0022655511274933
1768646875792,-0.3718414306640625,-0.9222412109375,0.0995941162109375,-0.0083735110238194,0.0252760611474514,0.0024778051301836
1768646875802,-0.3712615966796875,-0.9210662841796876,0.103057861328125,-0.005518602207303,0.0251948349177837,-0.0001632517669349
1768646875812,-0.372589111328125,-0.9209136962890624,0.1063690185546875,-0.0068389978259801,0.0199140533804893,-0.0011246529174968
1768646875822,-0.37127685546875,-0.9232025146484376,0.1069793701171875,-0.0073244920931756,0.0082363579422235,-0.0023012375459074
1768646875832,-0.37091064453125,-0.9226837158203124,0.1070404052734375,-0.008732771500945,0.0093588810414075,-0.0030714236199855
1768646875842,-0.36798095703125,-0.920379638671875,0.108367919921875,-0.0105442535132169,0.0063505740836262,-0.0007502124644815
1768646875852,-0.3673553466796875,-0.919708251953125,0.1084136962890625,-0.0100438455119729,-0.0005938849062658,0.0001589907187735
1768646875862,-0.3682861328125,-0.920196533203125,0.106475830078125,-0.0062397862784564,0.0018447716720402,-0.0008498146780766
1768646875872,-0.3671875,-0.921722412109375,0.10113525390625,0.0026067020371556,0.0042131207883358,0.0007659250986762
1768646875883,-0.366973876953125,-0.919647216796875,0.1005401611328125,0.008952216245234,0.0131317805498838,0.0043702474795281
1768646875893,-0.36669921875,-0.920135498046875,0.1050872802734375,0.0063306000083684,0.0161962807178497,0.0018144116038456
1768646875903,-0.373077392578125,-0.924468994140625,0.1079254150390625,-0.0008679241873323,0.0081055974587798,0.0004002731002401
1768646875913,-0.3765869140625,-0.9253692626953124,0.1114959716796875,0.0006543386843986,0.0096813896670937,-0.0041763694025576
1768646875923,-0.3741607666015625,-0.9246978759765624,0.1102142333984375,-0.0020314592402428,0.0136505644768476,-0.0074440678581595
1768646875933,-0.3777008056640625,-0.927398681640625,0.10888671875,-0.0081969434395432,0.0135083515197038,-0.0161504745483398
1768646875943,-0.3800506591796875,-0.9281005859375,0.110992431640625,-0.0091229248791933,0.0124840997159481,-0.0221300702542066
1768646875953,-0.372772216796875,-0.924163818359375,0.1114501953125,-0.0062874569557607,0.0014298511669039,-0.0169187951833009
1768646875963,-0.36065673828125,-0.9146270751953124,0.10650634765625,-0.0008293083519674,-0.0132633410394191,-0.0022074941080063
1768646875973,-0.3546142578125,-0.9070892333984376,0.1001739501953125,0.0122223114594817,-0.013439642265439,0.0050994209013879
1768646875983,-0.3597259521484375,-0.9131011962890624,0.0985107421875,0.0244723204523324,-0.0055148741230368,0.0035595810040831
1768646875993,-0.36749267578125,-0.923858642578125,0.098541259765625,0.0281344316899776,0.0004503405361901,-0.0002266350056743
1768646876003,-0.3777313232421875,-0.9319915771484376,0.104644775390625,0.019496202468872,0.0095389103516936,-0.0111053818836808
1768646876013,-0.3829803466796875,-0.934722900390625,0.113983154296875,0.010389257222414,0.017624532803893,-0.0206805113703012
1768646876023,-0.3727569580078125,-0.9242706298828124,0.1176300048828125,0.0077226343564689,0.0093098785728216,-0.0117216370999813
1768646876033,-0.353271484375,-0.904205322265625,0.1111297607421875,0.0188237559050321,-0.004996889270842,0.0042216428555548
1768646876043,-0.341552734375,-0.89971923828125,0.109405517578125,0.0280377604067325,-0.0112710306420922,0.0146359344944357
1768646876053,-0.349090576171875,-0.90960693359375,0.1107025146484375,0.0281179212033748,-0.0074973311275243,0.0205857027322053
1768646876063,-0.3591461181640625,-0.9248809814453124,0.1169891357421875,0.0133554860949516,-0.0030959248542785,0.0198189783841371
1768646876073,-0.3694305419921875,-0.9344940185546876,0.1252899169921875,-0.0072227590717375,0.0015363775892183,0.0139131527394056
1768646876083,-0.3792266845703125,-0.933746337890625,0.1270599365234375,-0.0284375008195638,0.010758638381958,0.0076462016440927
1768646876094,-0.3737640380859375,-0.9277496337890624,0.126129150390625,-0.0420222841203212,0.0200884900987148,0.0095303878188133
1768646876103,-0.3671722412109375,-0.9226531982421876,0.1216888427734375,-0.0521140657365322,0.0210930351167917,0.014299577102065
1768646876114,-0.367828369140625,-0.9210662841796876,0.1129913330078125,-0.0568643473088741,0.0273338854312896,0.0166495498269796
1768646876124,-0.3716888427734375,-0.92071533203125,0.106048583984375,-0.0529305934906005,0.0232464671134948,0.016463927924633
1768646876134,-0.374298095703125,-0.921844482421875,0.0989227294921875,-0.0424918010830879,0.0178708769381046,0.0165608674287796
1768646876144,-0.37457275390625,-0.9203948974609376,0.0923919677734375,-0.028161596506834,0.0098118847236037,0.0126851685345172
1768646876154,-0.3769073486328125,-0.9222564697265624,0.088470458984375,-0.0119959423318505,0.0057521616108715,0.0093996273353695
1768646876164,-0.3761138916015625,-0.9241180419921876,0.08758544921875,0.0052325790748,-0.0023411849979311,0.0056951697915792
1768646876174,-0.37530517578125,-0.92529296875,0.084075927734375,0.0238683149218559,-0.0147927943617105,0.0021446435712277
1768646876184,-0.3746490478515625,-0.9241180419921876,0.083770751953125,0.045857235789299,-0.026772491633892,-0.0023246733471751
1768646876194,-0.3744659423828125,-0.9248046875,0.086181640625,0.0585783571004867,-0.0135981002822518,-0.0075138425454497
1768646876205,-0.3745269775390625,-0.92413330078125,0.0941619873046875,0.0670354962348938,-0.0080336919054389,-0.0107045760378241
1768646876214,-0.375457763671875,-0.924896240234375,0.1042633056640625,0.0629669800400734,-0.0206474885344505,-0.0136396456509828
1768646876224,-0.3709869384765625,-0.9227447509765624,0.1118621826171875,0.0621331445872783,-0.0193553213030099,-0.0163504779338836
1768646876234,-0.367919921875,-0.92138671875,0.1170501708984375,0.0555130615830421,-0.0140215428546071,-0.017103087157011
1768646876244,-0.3681793212890625,-0.9215240478515624,0.1235198974609375,0.0429661087691783,-0.0157462060451507,-0.0164189208298921
1768646876254,-0.3665618896484375,-0.9206085205078124,0.1275634765625,0.0287890378385782,-0.0055537559092044,-0.0138787971809506
1768646876264,-0.3625946044921875,-0.9201202392578124,0.132904052734375,0.014403972774744,-0.0028679580427706,-0.0108547778800129
1768646876274,-0.3662567138671875,-0.92218017578125,0.133056640625,-0.0039641153998672,-0.0087807085365057,-0.0074840150773525
1768646876284,-0.3637542724609375,-0.9205169677734376,0.132965087890625,-0.0176122821867465,-0.0090140011161565,-0.0049028797075152
1768646876294,-0.362884521484375,-0.9209442138671876,0.128265380859375,-0.026952788233757,0.0021736719645559,-0.0020639498252421
1768646876306,-0.365692138671875,-0.9241485595703124,0.1262054443359375,-0.0410014949738979,0.0143041042611002,-0.0028836708515882
1768646876314,-0.3723297119140625,-0.928070068359375,0.1243743896484375,-0.054657120257616,0.0242387596517801,-0.0079545956104993
1768646876324,-0.3694305419921875,-0.9239349365234376,0.121612548828125,-0.0590617209672927,0.017317472025752,-0.0027233485598117
1768646876334,-0.362213134765625,-0.920135498046875,0.1140899658203125,-0.0567868500947952,0.0192474648356437,0.0079974727705121
1768646876345,-0.3585205078125,-0.913665771484375,0.106536865234375,-0.0490237362682819,0.0205497499555349,0.0145248807966709
1768646876355,-0.362548828125,-0.9149932861328124,0.1015777587890625,-0.040717601776123,0.0196578577160835,0.0158351548016071
1768646876365,-0.3684539794921875,-0.9183807373046876,0.099395751953125,-0.0323957577347755,0.0081215761601924,0.0117456056177616
1768646876375,-0.3757781982421875,-0.9242401123046876,0.0967254638671875,-0.0222331341356039,0.0072904033586382,0.0056411079131066
1768646876385,-0.378265380859375,-0.924163818359375,0.0928802490234375,-0.0076872142963111,0.0106196207925677,0.0024897893890738
1768646876395,-0.3758544921875,-0.9215545654296876,0.09063720703125,0.0046192528679966,0.0064477794803678,-0.0026141589041799
1768646876405,-0.3759307861328125,-0.9199371337890624,0.092742919921875,0.0156713705509901,-0.0043172505684196,-0.0044794371351599
1768646876415,-0.372344970703125,-0.921142578125,0.0958251953125,0.0280036721378564,-0.0111389374360442,-0.0085000116378068
1768646876425,-0.3718109130859375,-0.9206390380859376,0.0976409912109375,0.0339811369776725,-0.0125291077420115,-0.0111309476196765
1768646876435,-0.3728790283203125,-0.9217529296875,0.101531982421875,0.035940159112215,-0.0132012898102402,-0.0140316626057028
1768646876445,-0.373046875,-0.923309326171875,0.110595703125,0.0344583764672279,-0.0092323804274201,-0.0153344813734292
1768646876455,-0.3716583251953125,-0.9230194091796876,0.1073760986328125,0.0378613620996475,-0.0038874163292348,-0.0170506220310926
1768646876465,-0.3744659423828125,-0.923370361328125,0.1104888916015625,0.0277277678251266,-0.0187241528183221,-0.0128151308745145
1768646876475,-0.3592376708984375,-0.9221038818359376,0.1193389892578125,0.0254606194794178,-0.0057114153169095,-0.0085364961996674
1768646876485,-0.3663482666015625,-0.9220733642578124,0.11871337890625,0.0183132272213697,-0.0008061388507485,-0.0064690844155848
1768646876495,-0.368560791015625,-0.9261016845703124,0.1183929443359375,0.014027401804924,-0.0017321199411526,-0.0041987397707998
1768646876505,-0.3690185546875,-0.920867919921875,0.1225738525390625,0.0062230085022747,0.0204432234168052,-0.0096345180645585
1768646876515,-0.36248779296875,-0.922576904296875,0.1225128173828125,-0.0012932310346513,0.0223388615995645,-0.0022828616201877
1768646876525,-0.3611297607421875,-0.9209747314453124,0.125457763671875,-0.0123741114512085,0.013442039489746,-0.0021955100819468
1768646876535,-0.369781494140625,-0.9245452880859376,0.1254730224609375,-0.02007757127285,0.0111117735505104,-0.0042546661570668
1768646876546,-0.3688507080078125,-0.92584228515625,0.1210174560546875,-0.0211963653564453,0.0204821061342954,-0.0042123217135667
1768646876556,-0.3669281005859375,-0.92266845703125,0.1166839599609375,-0.0235774982720613,0.0162564683705568,-0.0077471355907619
1768646876565,-0.365692138671875,-0.9225006103515624,0.1169891357421875,-0.0239282362163066,0.0098939100280404,-0.0055726645514369
1768646876576,-0.366058349609375,-0.921661376953125,0.11273193359375,-0.0244078710675239,0.0106060393154621,-0.0035843485966324
1768646876586,-0.370880126953125,-0.921875,0.10748291015625,-0.0200687833130359,0.0068794777616858,-0.0086475498974323
1768646876596,-0.369049072265625,-0.917022705078125,0.10443115234375,-0.0093631418421864,-0.0031241541728377,-0.0075042550452053
1768646876606,-0.3671112060546875,-0.91949462890625,0.102203369140625,-0.0014852449530735,-0.0036376116331666,-0.0055742622353136
1768646876616,-0.365997314453125,-0.92047119140625,0.1030120849609375,0.0065287393517792,0.0019616845529526,-0.0045462823472917
1768646876626,-0.3669586181640625,-0.921112060546875,0.1029052734375,0.0111791510134935,-0.0011986887548118,-0.0062768044881522
1768646876636,-0.369354248046875,-0.922149658203125,0.10711669921875,0.0128098046407103,0.0019656792283058,-0.009155148640275
1768646876646,-0.3704681396484375,-0.9217376708984376,0.11029052734375,0.0136212697252631,0.0130968932062387,-0.0108787463977932
1768646876656,-0.368743896484375,-0.9209442138671876,0.112579345703125,0.009614011272788,0.0150234242901206,-0.0072363414801657
1768646876666,-0.3655548095703125,-0.9214630126953124,0.1174774169921875,0.0022828616201877,0.0125810392200946,-0.0045462823472917
1768646876676,-0.3627471923828125,-0.921844482421875,0.1204071044921875,-0.0066198194399476,0.0105021754279732,0.0005592638044618
1768646876686,-0.3649444580078125,-0.9214630126953124,0.1201629638671875,-0.0148785486817359,0.0055617457255721,0.002288986928761
1768646876696,-0.367645263671875,-0.9214935302734376,0.1184844970703125,-0.018172612413764,0.0030655646696686,0.0044751758687198
1768646876706,-0.3680267333984375,-0.92242431640625,0.1115570068359375,-0.0191915370523929,-0.0006402239087037,0.0035180358681827
1768646876716,-0.3707275390625,-0.9242095947265624,0.110015869140625,-0.013864416629076,0.0086872316896915,-0.0007752461824566
1768646876726,-0.372344970703125,-0.9223480224609376,0.10784912109375,-0.0096691390499472,0.0061987736262381,-0.0033414682839065
1768646876736,-0.3737640380859375,-0.9224700927734376,0.1076507568359375,-0.0076270271092653,-0.00215929094702,-0.0050967577844858
1768646876746,-0.36895751953125,-0.921142578125,0.107757568359375,-0.0011611381778493,-0.0024586303625255,-0.0039276299066841
1768646876756,-0.369232177734375,-0.92181396484375,0.1028289794921875,0.0080304956063628,0.0105498461052775,-0.0070342072285711
1768646876766,-0.367218017578125,-0.92181396484375,0.1016082763671875,0.0142766740173101,0.0126311061903834,-0.0068712220527231
1768646876777,-0.3691864013671875,-0.92034912109375,0.1090087890625,0.0119157815352082,0.0012154667638242,-0.0081258369609713
1768646876786,-0.3658294677734375,-0.921295166015625,0.112823486328125,0.0080733727663755,0.0046275085769593,-0.0066610984504222
1768646876797,-0.36376953125,-0.92254638671875,0.1134490966796875,0.0064802695997059,0.0051942295394837,-0.0041518681682646
1768646876807,-0.365692138671875,-0.923065185546875,0.116424560546875,0.0017630126094445,-0.0008362325606867,-0.0034450651146471
1768646876817,-0.365325927734375,-0.9235992431640624,0.1188812255859375,-0.0041092573665082,-0.0062094265595078,-0.0025606292765587
1768646876827,-0.365875244140625,-0.92205810546875,0.118255615234375,-0.0078525971621274,0.0096480995416641,-0.002829608740285
1768646876837,-0.3648529052734375,-0.9220428466796876,0.1173248291015625,-0.011224690824747,0.0119179124012589,-0.001848233747296
1768646876847,-0.36798095703125,-0.9228363037109376,0.115936279296875,-0.0156474020332098,0.0132942339405417,-0.0012958941515535
1768646876857,-0.3673248291015625,-0.9201507568359376,0.116607666015625,-0.0180375892668962,0.0092291850596666,-0.0006964165950194
1768646876867,-0.36651611328125,-0.921783447265625,0.1114654541015625,-0.0174096170812845,0.0047414917498826,-0.0010386328212916
1768646876877,-0.3661956787109375,-0.922637939453125,0.109893798828125,-0.0118097877129912,0.0015339808305725,-0.0010365023044869
1768646876887,-0.367523193359375,-0.92181396484375,0.1067352294921875,-0.0050118030048906,-0.0008655273704789,-0.0033404028508812
1768646876897,-0.366180419921875,-0.91986083984375,0.10443115234375,0.0016149408183991,-0.0087737841531634,-0.0010253170039504
1768646876907,-0.367218017578125,-0.9224853515625,0.1045989990234375,0.0064853299409151,-0.0028767467010766,-0.0027068369090557
1768646876917,-0.3673095703125,-0.922607421875,0.1071319580078125,0.0128505509346723,0.0137280626222491,-0.0031491878908127
1768646876927,-0.370697021484375,-0.922637939453125,0.1080780029296875,0.0100230732932686,0.0063524381257593,-0.0026458504144102
1768646876937,-0.3681640625,-0.924346923828125,0.110015869140625,0.0063148876652121,0.0086448872461915,-0.0010649980977177
1768646876947,-0.3664398193359375,-0.92559814453125,0.1137542724609375,0.0010958907660096,0.0269732940942049,-0.0030874025542289
1768646876957,-0.3720703125,-0.9269561767578124,0.1179656982421875,-0.0122201805934309,0.0311190374195575,-0.0066507123410701
1768646876967,-0.3746795654296875,-0.9286346435546876,0.121734619140625,-0.0227894689887762,0.0290782563388347,-0.0100747384130954
1768646876977,-0.372222900390625,-0.9246063232421876,0.1217803955078125,-0.0265871360898017,0.0180019028484821,-0.0067836036905646
1768646876987,-0.35986328125,-0.912750244140625,0.11468505859375,-0.0222491137683391,0.0108305430039763,0.0044464138336479
1768646876997,-0.351593017578125,-0.903533935546875,0.107757568359375,-0.0153328832238912,0.0064831990748643,0.0111368065699934
1768646877008,-0.356719970703125,-0.9152679443359376,0.1044769287109375,-0.0111695639789104,0.0091660674661397,0.0099058942869305
1768646877018,-0.36907958984375,-0.9256591796875,0.1076507568359375,-0.0111125726252794,0.0071604410186409,0.0085372952744364
1768646877028,-0.375213623046875,-0.931732177734375,0.1088104248046875,-0.0161589961498975,0.0017164073651656,-0.0014247911749407
1768646877038,-0.3817901611328125,-0.934844970703125,0.1148834228515625,-0.0215212702751159,0.0210448317229747,-0.0186570417135953
1768646877048,-0.3801116943359375,-0.92535400390625,0.112762451171875,-0.0179374553263187,0.0049803773872554,-0.0106470519676804
1768646877058,-0.352386474609375,-0.909027099609375,0.105316162109375,-0.0042045987211167,-0.0151461958885192,0.0061047640629112
1768646877068,-0.3378448486328125,-0.8985748291015625,0.100921630859375,0.0145871983841061,-0.0123155219480395,0.0243918914347887
1768646877078,-0.3443450927734375,-0.90972900390625,0.1001129150390625,0.0273008625954389,0.0079506011679768,0.0287890378385782
1768646877088,-0.35980224609375,-0.9264678955078124,0.104766845703125,0.0291349813342094,0.0190645046532154,0.0260696839541196
1768646877098,-0.372283935546875,-0.9365081787109376,0.1150360107421875,0.0073484601452946,0.0153832174837589,0.0155877480283379
1768646877108,-0.38006591796875,-0.933990478515625,0.127960205078125,-0.0123408222571015,0.0059244679287076,0.0072573800571262
1768646877118,-0.3753204345703125,-0.9286651611328124,0.128631591796875,-0.0297797340899705,1.4913702216290403e-05,0.0046927561052143
1768646877128,-0.3701171875,-0.922119140625,0.1225738525390625,-0.0389884114265441,0.0091154677793383,0.0084352968260645
1768646877138,-0.3668975830078125,-0.9195556640625,0.115325927734375,-0.0418600998818874,0.0181270726025104,0.0127506824210286
1768646877148,-0.371612548828125,-0.9229278564453124,0.1085052490234375,-0.0412281304597854,0.0167970899492502,0.0117783620953559
1768646877158,-0.3727569580078125,-0.9261627197265624,0.1057891845703125,-0.0352325551211833,0.022839268669486,0.009974337182939
1768646877168,-0.3727264404296875,-0.921722412109375,0.1014556884765625,-0.0280665215104818,0.0296878535300493,0.0119964750483632
1768646877178,-0.3689117431640625,-0.9209442138671876,0.1006317138671875,-0.0199052654206752,0.0234126485884189,0.0112710306420922
1768646877188,-0.371734619140625,-0.92242431640625,0.0999603271484375,-0.0134337833151221,0.0167427603155374,0.0115911420434713
1768646877198,-0.372589111328125,-0.9261322021484376,0.1009368896484375,-0.0080898841843009,0.0223196875303983,0.0081338267773389
1768646877208,-0.3706207275390625,-0.924407958984375,0.1006317138671875,-0.0065146246924996,0.0153272906318306,0.0080845579504966
1768646877218,-0.3720703125,-0.9239501953125,0.1010589599609375,-0.0026948526501655,0.0076765618287026,0.0057433731853961
1768646877229,-0.3691558837890625,-0.9237823486328124,0.1038665771484375,0.0040115197189152,-0.0013603427214547,0.0083556678146123
1768646877239,-0.367645263671875,-0.9235382080078124,0.0988006591796875,0.0144377946853637,-0.0134076848626136,0.0044232443906366
1768646877249,-0.3705291748046875,-0.9215087890625,0.097930908203125,0.0255077574402093,-0.0029489181470125,-0.0011062771081924
1768646877259,-0.372039794921875,-0.921112060546875,0.1032257080078125,0.0308977290987968,0.0036903421860188,-0.0065492456778883
1768646877269,-0.372467041015625,-0.9219207763671876,0.106475830078125,0.031724639236927,-0.0006724481936544,-0.0107218865305185
1768646877279,-0.370269775390625,-0.9202423095703124,0.1129608154296875,0.0254102852195501,-0.0026170883793383,-0.012304070405662
1768646877289,-0.3640899658203125,-0.918548583984375,0.119384765625,0.0206051431596279,-0.0077226343564689,-0.0084382258355617
1768646877299,-0.36474609375,-0.9200286865234376,0.121856689453125,0.0103080309927463,-0.0120300315320491,-0.0065191518515348
1768646877309,-0.3663177490234375,-0.920135498046875,0.1205902099609375,0.0024152207188308,-0.0049241846427321,-0.0047446875832974
1768646877319,-0.3641204833984375,-0.921112060546875,0.1209259033203125,-0.006156163290143,0.0047287088818848,-0.0029438582714647
1768646877329,-0.36981201171875,-0.92449951171875,0.123077392578125,-0.0234259646385908,0.0199785009026527,-0.0052128713577985
1768646877339,-0.373138427734375,-0.92987060546875,0.1265106201171875,-0.042677953839302,0.0268926005810499,-0.0070957262068986
1768646877349,-0.372039794921875,-0.926025390625,0.124542236328125,-0.0532722771167755,0.0262984484434127,-0.0029278793372213
1768646877359,-0.3647003173828125,-0.9191436767578124,0.1171112060546875,-0.0580965913832187,0.0255762003362178,0.00696523161605
1768646877369,-0.3605804443359375,-0.914581298828125,0.110260009765625,-0.0558787137269973,0.0268947314471006,0.0149978576228022
1768646877379,-0.3616943359375,-0.9121246337890624,0.1064605712890625,-0.0511020645499229,0.0175313223153352,0.0158138498663902
1768646877389,-0.3704071044921875,-0.9200439453125,0.10198974609375,-0.046767771244049,0.0189044494181871,0.0108158960938453
1768646877399,-0.374542236328125,-0.9252777099609376,0.1015472412109375,-0.0456316657364368,0.0309145059436559,0.0126992836594581
1768646877409,-0.37359619140625,-0.9257354736328124,0.10443115234375,-0.044168259948492,0.0200661197304725,0.0111298831179738
1768646877419,-0.3745269775390625,-0.921356201171875,0.100372314453125,-0.0378384590148925,0.0144476490095257,0.0075969332829117
1768646877429,-0.37408447265625,-0.919952392578125,0.0965118408203125,-0.0292284581810235,0.0163044054061174,0.0072057149372994
1768646877439,-0.3700408935546875,-0.9188995361328124,0.09576416015625,-0.0164016094058752,0.0179467760026454,0.0069543123245239
1768646877449,-0.368499755859375,-0.9194488525390624,0.0951080322265625,-0.0045761098153889,0.0186897981911897,0.004440554883331
1768646877460,-0.3729400634765625,-0.923187255859375,0.0951690673828125,-0.0018391790799796,0.0125578697770833,-0.0013813816476613
1768646877470,-0.3740692138671875,-0.924896240234375,0.10089111328125,0.001365668955259,0.0151685662567615,-0.0026421220973134
1768646877480,-0.37200927734375,-0.92303466796875,0.10467529296875,-0.0040852888487279,0.0058557586744427,-0.0045777074992656
1768646877490,-0.3718719482421875,-0.92431640625,0.10552978515625,-0.0021086910273879,-0.0059028966352343,-0.0073489928618073
1768646877500,-0.37042236328125,-0.9228057861328124,0.10498046875,-0.0009190568816848,-0.0101580955088138,-0.0057726679369807
1768646877510,-0.36834716796875,-0.9223785400390624,0.10272216796875,0.0013646037550643,-0.0073082465678453,-0.0061010355129837
1768646877520,-0.3675537109375,-0.92169189453125,0.1029052734375,0.0039161783643066,-0.0052123386412858,-0.0059673450887203
1768646877530,-0.368072509765625,-0.921966552734375,0.1030426025390625,0.0045774411410093,-0.0039185751229524,-0.0051060789264738
1768646877540,-0.3674774169921875,-0.9225006103515624,0.1051483154296875,0.0063417856581509,0.0058642807416617,-0.0038975363131612
1768646877550,-0.365386962890625,-0.92327880859375,0.105438232421875,0.0058493670076131,0.0023861923255026,-0.0008889631717465
1768646877560,-0.3691864013671875,-0.922882080078125,0.1089935302734375,0.0009201221400871,0.00091692636488,-0.0018508969806134
1768646877570,-0.368988037109375,-0.923858642578125,0.111175537109375,-0.0023100259713828,0.0115099158138036,0.0032011196017265
1768646877580,-0.3659210205078125,-0.92218017578125,0.109771728515625,-0.005837382748723,0.0161805674433708,0.0023070964962244
1768646877590,-0.365142822265625,-0.922027587890625,0.111785888671875,-0.0119416145607829,0.0179877895861864,0.0033249566331505
1768646877600,-0.36859130859375,-0.9214630126953124,0.114715576171875,-0.0185907278209924,0.0186943262815475,0.0029502499382942
1768646877610,-0.3682403564453125,-0.9219512939453124,0.113250732421875,-0.025424400344491,0.0167616698890924,0.0062445802614092
1768646877620,-0.36639404296875,-0.9222259521484376,0.1118927001953125,-0.0315432772040367,0.0048757153563201,0.0092291850596666
1768646877630,-0.3668060302734375,-0.9204254150390624,0.110107421875,-0.0322807095944881,0.0078027956187725,0.006034989375621
1768646877640,-0.369140625,-0.918609619140625,0.105072021484375,-0.0306684300303459,0.0140268690884113,0.0099532986059784
1768646877650,-0.3698272705078125,-0.9200897216796876,0.1029205322265625,-0.0272529255598783,0.0124284401535987,0.0073066488839685
1768646877660,-0.3713836669921875,-0.9213104248046876,0.1023406982421875,-0.0233167745172977,0.0076366141438484,0.0046994141303002
1768646877671,-0.37359619140625,-0.920745849609375,0.0985565185546875,-0.0179566293954849,0.0049763829447329,0.0016559535870328
1768646877680,-0.375030517578125,-0.921905517578125,0.09844970703125,-0.0142732113599777,0.0074667045846581,-9.853696246864274e-05
1768646877691,-0.3740997314453125,-0.92193603515625,0.099853515625,-0.0142953163012862,3.808320252574049e-05,-0.0040045953355729
1768646877701,-0.374267578125,-0.92266845703125,0.100830078125,-0.010399111546576,0.0081135863438248,-0.007113036699593
1768646877711,-0.37255859375,-0.92218017578125,0.1003875732421875,-0.0126460203900933,0.0184538420289754,-0.0069370018318295
1768646877721,-0.3725433349609375,-0.9224853515625,0.1037139892578125,-0.0157789625227451,0.0173789896070957,-0.0027148264925926
1768646877731,-0.367095947265625,-0.9221343994140624,0.1050872802734375,-0.0160732418298721,0.0151011887937784,0.0006732470938004
1768646877741,-0.3682403564453125,-0.92254638671875,0.104400634765625,-0.0195675753057003,0.0219068974256515,0.0046237800270318
1768646877751,-0.3657379150390625,-0.9217529296875,0.106201171875,-0.024091487750411,0.0242635272443294,0.0066267438232898
1768646877761,-0.3686370849609375,-0.922027587890625,0.10833740234375,-0.0289839804172515,0.0199305657297372,0.0094014909118413
1768646877771,-0.3691253662109375,-0.9224700927734376,0.109954833984375,-0.0364501513540744,0.0290676038712263,0.0082105258479714
1768646877781,-0.36895751953125,-0.9229736328125,0.1090240478515625,-0.0430526621639728,0.016144348308444,0.0095879128202795
1768646877791,-0.3707275390625,-0.9242401123046876,0.108062744140625,-0.0454990416765213,0.0159009359776973,0.0068086376413702
1768646877801,-0.3711700439453125,-0.9216461181640624,0.1056060791015625,-0.0413711406290531,0.0163946859538555,0.0056826532818377
1768646877811,-0.3708343505859375,-0.9205474853515624,0.0984344482421875,-0.0396177172660827,0.0092286523431539,0.0065673552453517
1768646877821,-0.36993408203125,-0.9219207763671876,0.0963134765625,-0.0360094010829925,0.0048301750794053,0.0066909259185194
1768646877831,-0.3711395263671875,-0.9204559326171876,0.0949859619140625,-0.0286990217864513,0.0090401004999876,0.0067148944362998
1768646877841,-0.3691864013671875,-0.91986083984375,0.0960540771484375,-0.0260923206806182,0.0108201568946242,0.0055542886257171
1768646877851,-0.370819091796875,-0.92236328125,0.0939178466796875,-0.0226890668272972,0.0108483862131834,0.0042490735650062
1768646877861,-0.373931884765625,-0.9221038818359376,0.0934295654296875,-0.0167217217385768,0.0021353224292397,0.0014032195322215
1768646877871,-0.37432861328125,-0.921966552734375,0.0902099609375,-0.0130462935194373,0.0055404403246939,-1.5446334145963192e-05
1768646877881,-0.3729705810546875,-0.922149658203125,0.091888427734375,-0.0110401343554258,0.0024397219531238,-0.0023121563717722
1768646877891,-0.3737030029296875,-0.9239044189453124,0.0947265625,-0.0123370932415127,0.0035241609439253,-0.0011528824688866
1768646877901,-0.3734283447265625,-0.922088623046875,0.0980987548828125,-0.0104044377803802,-0.0025827335193753,-0.0038123151753097
1768646877912,-0.3744049072265625,-0.92291259765625,0.0961761474609375,-0.006899984087795,-0.0008607336785644,-0.0035926043055951
1768646877922,-0.370208740234375,-0.921905517578125,0.094268798828125,0.0013630058383569,-0.0027659591287374,-0.0040599890053272
1768646877932,-0.3715972900390625,-0.9195404052734376,0.0925750732421875,0.009172991849482,-0.0070507191121578,-0.004759601317346
1768646877942,-0.3700408935546875,-0.921905517578125,0.0919189453125,0.0172988288104534,-0.0065553709864616,-0.0053620086982846
1768646877952,-0.369659423828125,-0.9224700927734376,0.095458984375,0.0202043373137712,-0.0004021373169962,-0.0063026370480656
1768646877962,-0.37103271484375,-0.9226837158203124,0.1002197265625,0.0173121448606252,0.001857821131125,-0.0063287359662353
1768646877972,-0.3693695068359375,-0.92315673828125,0.10504150390625,0.0125136608257889,-0.0008157262345775,-0.0046799727715551
1768646877982,-0.3691253662109375,-0.9219818115234376,0.106414794921875,0.0074200993403792,0.0013683321885764,-0.0039313584566116
1768646877992,-0.3679351806640625,-0.9248809814453124,0.10687255859375,0.0008082693675532,0.0041358890011906,-0.0030234868172556
1768646878002,-0.36920166015625,-0.9240875244140624,0.108062744140625,-0.0058253984898328,0.0020498351659625,-0.0013510215794667
1768646878012,-0.371307373046875,-0.9247894287109376,0.107177734375,-0.0135427070781588,-0.0001091896047,0.0007715177489444
1768646878022,-0.3738861083984375,-0.9261627197265624,0.1088409423828125,-0.01836808770895,0.0114878118038177,-0.0034051176626235
1768646878032,-0.3777618408203125,-0.9255523681640624,0.105743408203125,-0.0214293915778398,0.0181518401950597,-0.0074208984151482
1768646878042,-0.37200927734375,-0.9195709228515624,0.10321044921875,-0.0213146097958087,0.0222400575876235,-0.0022977753542363
1768646878052,-0.3572540283203125,-0.9077606201171876,0.10107421875,-0.0190961956977844,0.0170607417821884,0.0163134597241878
1768646878062,-0.3538970947265625,-0.907379150390625,0.097808837890625,-0.0173185355961322,0.0060669472441077,0.0184581037610769
1768646878072,-0.369598388671875,-0.9201202392578124,0.0976715087890625,-0.0193180385977029,0.0094662057235836,0.0103735448792576
1768646878082,-0.381256103515625,-0.927581787109375,0.0985870361328125,-0.01785702817142,0.0065878615714609,0.0056118131615221
1768646878092,-0.3824310302734375,-0.932830810546875,0.097930908203125,-0.0224557742476463,0.012172776274383,-0.0051715923473238
1768646878102,-0.3834991455078125,-0.93328857421875,0.1030731201171875,-0.0229375399649143,0.0140404514968395,-0.0119847571477293
1768646878112,-0.373016357421875,-0.9174346923828124,0.0976409912109375,-0.0110843423753976,-0.0041766352951526,-0.0013222594279795
1768646878122,-0.35302734375,-0.904541015625,0.089447021484375,0.0084523409605026,-0.0145027758553624,0.0122516062110662
1768646878133,-0.347412109375,-0.9040679931640624,0.0870513916015625,0.0256792642176151,-0.0130292493849992,0.0217005014419555
1768646878143,-0.3599395751953125,-0.914886474609375,0.0881195068359375,0.0344882011413574,-0.012516058050096,0.0192930046468973
1768646878153,-0.3722381591796875,-0.9281005859375,0.095306396484375,0.0280886255204677,-0.0130103407427668,0.0090371705591678
1768646878163,-0.381988525390625,-0.935638427734375,0.10333251953125,0.0161131899803876,-0.0050658648833632,0.0001861549535533
1768646878173,-0.3850250244140625,-0.933349609375,0.108245849609375,0.0048666605725884,0.0012468920322135,-0.0016112125013023
1768646878183,-0.374053955078125,-0.9251251220703124,0.1079864501953125,-0.003915645647794,-0.0009976201690733,-0.0006719155353493
1768646878193,-0.369110107421875,-0.9178466796875,0.104949951171875,-0.0102331964299082,0.0031715584918856,0.0044663874432444
1768646878203,-0.3676605224609375,-0.9177703857421876,0.1059722900390625,-0.0187822096049785,0.0107447896152734,0.0121006052941083
1768646878213,-0.3683013916015625,-0.919158935546875,0.1047210693359375,-0.0260366611182689,0.0050956923514604,0.017210679128766
1768646878223,-0.3710174560546875,-0.920654296875,0.100341796875,-0.02842977643013,0.0032629049383103,0.0193776916712522
1768646878233,-0.3746490478515625,-0.91888427734375,0.09326171875,-0.0217857230454683,0.0069132996723055,0.0211952999234199
1768646878243,-0.3735198974609375,-0.9187164306640624,0.087310791015625,-0.0108846053481101,0.0059769325889647,0.0211465638130903
1768646878253,-0.3724212646484375,-0.92010498046875,0.08599853515625,0.0022234732750803,0.0071822791360318,0.0198264345526695
1768646878263,-0.373504638671875,-0.9229583740234376,0.084014892578125,0.0133738620206713,0.0085000116378068,0.0183036401867866
1768646878273,-0.375396728515625,-0.9267578125,0.086181640625,0.0217529665678739,0.0019680759869515,0.017691645771265
1768646878283,-0.3802947998046875,-0.9267578125,0.08770751953125,0.0284601375460624,-0.0089365029707551,0.0108694257214665
1768646878293,-0.38092041015625,-0.927978515625,0.0921783447265625,0.0339561030268669,-0.0121109914034605,0.0030437267851084
1768646878303,-0.3799285888671875,-0.9268646240234376,0.09637451171875,0.0401450209319591,-0.0185345355421304,-0.0052991579286754
1768646878313,-0.37701416015625,-0.9238128662109376,0.0960540771484375,0.0455179512500762,-0.0171241257339715,-0.0049108690582215
1768646878323,-0.37103271484375,-0.9206390380859376,0.0980224609375,0.0494461134076118,-0.0203047394752502,-0.007620901800692
1768646878334,-0.37176513671875,-0.9201812744140624,0.1021270751953125,0.0528024956583976,-0.0096622146666049,-0.0072243572212755
1768646878343,-0.36932373046875,-0.9202880859375,0.1080322265625,0.0470996014773845,-0.007095992565155,-0.0065345983020961
1768646878354,-0.3703155517578125,-0.9218597412109376,0.1141204833984375,0.0340996459126472,-0.0044765076600015,-0.0055188685655593
1768646878364,-0.368621826171875,-0.920745849609375,0.120391845703125,0.0216056928038597,0.0007142598042264,-0.0034189661964774
1768646878374,-0.3708038330078125,-0.92010498046875,0.123138427734375,0.001455950201489,0.0045153894461691,-0.0014548848848789
1768646878384,-0.36871337890625,-0.9220123291015624,0.127655029296875,-0.0233764294534921,0.0074922712519764,-0.0002551308425609
1768646878394,-0.3750457763671875,-0.927825927734375,0.1290283203125,-0.0501129664480686,0.0183816701173782,-0.0039864857681095
1768646878404,-0.377471923828125,-0.93206787109375,0.129119873046875,-0.0717572793364524,0.0311736315488815,-0.0047955540940165
1768646878414,-0.3685150146484375,-0.92376708984375,0.1228179931640625,-0.0867301002144813,0.0304745528846979,0.0076917419210076
1768646878424,-0.36260986328125,-0.91632080078125,0.1125640869140625,-0.0927309989929199,0.0324415639042854,0.0191531889140605
1768646878434,-0.3638458251953125,-0.91400146484375,0.1041107177734375,-0.0891602337360382,0.0399050712585449,0.021254688501358
1768646878444,-0.3715057373046875,-0.91876220703125,0.09576416015625,-0.0864283666014671,0.0442753173410892,0.0168599393218755
1768646878454,-0.381011962890625,-0.9218902587890624,0.0883026123046875,-0.0765962377190589,0.0391045249998569,0.0141847943887114
1768646878464,-0.3844757080078125,-0.9246826171875,0.0791778564453125,-0.0605517588555812,0.0333547592163085,0.0076797576621174
1768646878474,-0.3816680908203125,-0.9232177734375,0.0752410888671875,-0.0404315777122974,0.026823891326785,0.0067444555461406
1768646878484,-0.3803863525390625,-0.9205169677734376,0.074554443359375,-0.0231881439685821,0.0087080039083957,-0.000573112280108
1768646878494,-0.379730224609375,-0.9192047119140624,0.0741119384765625,-0.0013837785227224,-0.0085215829312801,-0.0035049861762672
1768646878504,-0.3771820068359375,-0.92071533203125,0.071075439453125,0.0240323655307292,-0.0084443511441349,-0.0070834755897521
1768646878514,-0.3741607666015625,-0.9190826416015624,0.0718231201171875,0.0436071306467056,-0.0070158313028514,-0.0112017877399921
1768646878525,-0.37689208984375,-0.91998291015625,0.0789031982421875,0.0528008975088596,-0.0139184789732098,-0.0164175890386104
1768646878534,-0.3756866455078125,-0.92340087890625,0.0898895263671875,0.054737813770771,-0.0268364083021879,-0.0184293407946825
1768646878544,-0.3753814697265625,-0.9233245849609376,0.096710205078125,0.0518469512462616,-0.0208586771041154,-0.0167060084640979
1768646878554,-0.371337890625,-0.9226837158203124,0.10107421875,0.0498461201786994,-0.0167486201971769,-0.0166367664933204
1768646878564,-0.3723907470703125,-0.9207305908203124,0.1063079833984375,0.0398006774485111,-0.0179819297045469,-0.0125845009461045
1768646878575,-0.369140625,-0.922821044921875,0.1084442138671875,0.0311187710613012,-0.0089719230309128,-0.0144388601183891
1768646878585,-0.3684844970703125,-0.92138671875,0.112640380859375,0.0211324486881494,0.0057372478768229,-0.0115714352577924
1768646878595,-0.3677520751953125,-0.9217987060546876,0.11541748046875,0.0058845207095146,0.009525061585009,-0.0064943847246468
1768646878605,-0.363525390625,-0.9219512939453124,0.118316650390625,-0.0085870968177914,0.0110244220122694,-0.0001677791442489
1768646878615,-0.3637237548828125,-0.9229583740234376,0.1186676025390625,-0.0171230603009462,0.0160793680697679,0.0048845037817955
1768646878625,-0.368011474609375,-0.9233245849609376,0.1146240234375,-0.0280579999089241,0.0163052044808864,0.0077878818847239
1768646878635,-0.368133544921875,-0.9224090576171876,0.11639404296875,-0.0376626886427402,0.0132263228297233,0.0066477828659117
1768646878645,-0.3714447021484375,-0.9228363037109376,0.1141815185546875,-0.0469635128974914,0.0133474972099065,0.0086635295301675
1768646878655,-0.3719940185546875,-0.9235992431640624,0.1106414794921875,-0.0528301931917667,0.0092329131439328,0.005535380449146
1768646878665,-0.3728790283203125,-0.9213104248046876,0.1059417724609375,-0.052366267889738,0.0036032570060342,0.0051849083974957
1768646878675,-0.37255859375,-0.9208984375,0.0986175537109375,-0.0464764200150966,0.0007776430575177,0.0046354979276657
1768646878685,-0.3730010986328125,-0.9178924560546876,0.09429931640625,-0.0372072905302047,0.0057758637703955,0.0055745285935699
1768646878695,-0.3737640380859375,-0.91937255859375,0.0902557373046875,-0.0294830575585365,-0.0011017497163265,0.0049782469868659
1768646878705,-0.3739166259765625,-0.9193267822265624,0.088653564453125,-0.0207912977784872,-0.0055359126999974,0.0007906925166025
1768646878715,-0.3743133544921875,-0.918975830078125,0.0886688232421875,-0.010750382207334,0.0069878683425486,0.0001627191377338
1768646878725,-0.3715362548828125,-0.919708251953125,0.087677001953125,-0.0033752904273569,0.0212256591767072,0.0013020194601267
1768646878735,-0.375762939453125,-0.9202423095703124,0.0922393798828125,-0.0026109630707651,0.0172149389982223,-0.0002258360618725
1768646878745,-0.37799072265625,-0.9229583740234376,0.09527587890625,-0.0028767467010766,0.0073569826781749,-0.0041108555160462
1768646878755,-0.37945556640625,-0.92462158203125,0.0958709716796875,-0.0021670141723006,0.0111605087295174,-0.0067487163469195
1768646878765,-0.37933349609375,-0.9251861572265624,0.09442138671875,-0.003115898463875,0.0066376626491546,-0.0075290226377546
1768646878775,-0.3739776611328125,-0.922760009765625,0.0959320068359375,-0.0044714473187923,0.0053779873996973,-0.0063473782502114
1768646878785,-0.3704376220703125,-0.9223175048828124,0.0982513427734375,-0.0074150394648313,0.0142244761809706,-0.0033305492252111
1768646878795,-0.3701629638671875,-0.9216766357421876,0.101165771484375,-0.0189294833689928,0.015156315639615,-0.0004495415778364
1768646878806,-0.3720245361328125,-0.9202423095703124,0.1021575927734375,-0.0264126993715763,0.0110688963904976,0.0014128069160506
1768646878815,-0.3730621337890625,-0.9182281494140624,0.0990447998046875,-0.0305278152227401,0.0121176494285464,0.0002577939885668
1768646878826,-0.375396728515625,-0.91729736328125,0.096588134765625,-0.0267599746584892,0.0192621108144521,-0.000190149701666
1768646878836,-0.37762451171875,-0.9180908203125,0.0913848876953125,-0.020002469420433,0.0134849157184362,-0.0032141690608114
1768646878846,-0.37786865234375,-0.9198455810546876,0.0873565673828125,-0.0071196947246789,0.004986769054085,-0.0062906527891755
1768646878856,-0.378204345703125,-0.9203033447265624,0.0848236083984375,0.0077881482429802,0.0056373793631792,-0.0071031833067536
1768646878866,-0.3761749267578125,-0.9211883544921876,0.0850830078125,0.0203292407095432,0.0125541416928172,-0.0106457201763987
1768646878876,-0.3734588623046875,-0.9222412109375,0.0903167724609375,0.0249144043773412,0.0061686797998845,-0.0094158723950386
1768646878886,-0.3701171875,-0.922393798828125,0.094970703125,0.02893284894526,-0.005477056838572,-0.0095636779442429
1768646878896,-0.3706817626953125,-0.92132568359375,0.0988311767578125,0.0275410804897546,-0.0113647738471627,-0.0078256987035274
1768646878906,-0.3668212890625,-0.9233856201171876,0.10333251953125,0.0274774301797151,-0.0127083379775285,-0.0058794608339667
1768646878916,-0.3660125732421875,-0.9228363037109376,0.103607177734375,0.02257108874619,-0.0086520779877901,-0.006492253858596
1768646878926,-0.36651611328125,-0.922576904296875,0.10662841796875,0.0157153140753507,-0.0074438014999032,-0.0017997642280533
1768646878936,-0.3631134033203125,-0.920623779296875,0.110260009765625,0.0048211202956736,-0.0089002838358283,0.0030503845773637
1768646878946,-0.3620452880859375,-0.9237060546875,0.11419677734375,-0.0073292856104671,-0.0027044401504099,0.0089215897023677
1768646878956,-0.367767333984375,-0.9215545654296876,0.11297607421875,-0.0162213146686553,6.338323146337643e-05,0.0067681577056646
1768646878966,-0.371826171875,-0.92376708984375,0.108795166015625,-0.0247586090117692,0.0114044547080993,0.0070451265200972
1768646878976,-0.3738555908203125,-0.923553466796875,0.1082763671875,-0.0298620257526636,0.0183712840080261,0.0035169704351574
1768646878986,-0.3744354248046875,-0.921844482421875,0.105499267578125,-0.0379710830748081,0.0207617375999689,0.004302336834371
1768646878996,-0.373687744140625,-0.923828125,0.10284423828125,-0.0440835729241371,0.0336663499474525,0.0022953785955905
1768646879006,-0.378814697265625,-0.9266357421875,0.1015777587890625,-0.050211239606142,0.0413333252072334,-0.0021369203459471
1768646879016,-0.3819122314453125,-0.92767333984375,0.1025543212890625,-0.0558406300842762,0.0296777337789535,-0.0043292348273098
1768646879026,-0.37701416015625,-0.9219818115234376,0.097259521484375,-0.0499316081404686,0.020211262628436,-0.0008498146780766
1768646879037,-0.3672943115234375,-0.9106903076171876,0.08984375,-0.0361335016787052,0.0300670880824327,0.011354386806488
1768646879047,-0.365631103515625,-0.9061126708984376,0.079864501953125,-0.0147296776995062,0.0218730736523866,0.0124774426221847
1768646879057,-0.3748626708984375,-0.91552734375,0.0766143798828125,-0.0014354437589645,0.011607919819653,0.0091759217903018
1768646879067,-0.3829498291015625,-0.9246826171875,0.0789031982421875,0.0081830946728587,0.0108513161540031,-0.0023036343045532
1768646879077,-0.391021728515625,-0.9324951171875,0.0822906494140625,0.0094286557286977,0.0076840184628963,-0.0167278479784727
1768646879087,-0.39373779296875,-0.935272216796875,0.0905914306640625,0.007220628671348,0.006286924239248,-0.0298556331545114
1768646879097,-0.38470458984375,-0.92425537109375,0.0935516357421875,0.015377358533442,-0.0012436961987987,-0.0286598745733499
1768646879107,-0.3605804443359375,-0.906890869140625,0.089691162109375,0.0333337225019931,-0.0193896759301424,-0.0111874071881175
1768646879117,-0.346221923828125,-0.9003753662109375,0.0849456787109375,0.054156444966793,-0.0288564153015613,0.0044988780282437
1768646879127,-0.349273681640625,-0.9069671630859376,0.0858917236328125,0.0658131018280983,-0.0195244327187538,0.0123562682420015
1768646879138,-0.362213134765625,-0.9232330322265624,0.0940399169921875,0.0617235526442527,-0.0131504228338599,0.0080760363489389
1768646879147,-0.3763885498046875,-0.9340057373046876,0.1051177978515625,0.0419988483190536,0.0039265644736588,0.0011060107499361
1768646879157,-0.3774261474609375,-0.9322357177734376,0.116973876953125,0.0133032882586121,0.0019912454299628,0.0001488707057433
1768646879167,-0.3736419677734375,-0.926116943359375,0.1224212646484375,-0.0162476785480976,0.0054070157930254,0.0080451434478163
1768646879177,-0.36602783203125,-0.9207305908203124,0.1215362548828125,-0.037190243601799,0.0169952288269996,0.0148492539301514
1768646879187,-0.3665008544921875,-0.9190826416015624,0.1154022216796875,-0.0537156909704208,0.0289275217801332,0.0226342063397169
1768646879197,-0.371063232421875,-0.919219970703125,0.1084136962890625,-0.0654575675725936,0.0308284871280193,0.0275298953056335
1768646879209,-0.3720703125,-0.9217987060546876,0.10443115234375,-0.0689135566353797,0.0320737808942794,0.0316854901611804
1768646879217,-0.373199462890625,-0.9213714599609376,0.1015167236328125,-0.0687974393367767,0.0365673303604126,0.0304452572017908
1768646879227,-0.3770599365234375,-0.922332763671875,0.0955352783203125,-0.0615856014192104,0.0343286804854869,0.0274950079619884
1768646879237,-0.3828582763671875,-0.928558349609375,0.0874786376953125,-0.0499739497900009,0.0336144194006919,0.0236403476446867
1768646879247,-0.380889892578125,-0.9294891357421876,0.08544921875,-0.0424031168222427,0.0351278930902481,0.0243239812552928
1768646879258,-0.378143310546875,-0.9299163818359376,0.088104248046875,-0.0379630960524082,0.0473520681262016,0.026232935488224
1768646879268,-0.3715057373046875,-0.927886962890625,0.0944671630859375,-0.045169074088335,0.0542395375669002,0.0298175495117902
1768646879278,-0.3708648681640625,-0.9240570068359376,0.1051177978515625,-0.0547982677817344,0.0381527133285999,0.0262478496879339
1768646879288,-0.377410888671875,-0.9217681884765624,0.1041412353515625,-0.0604907758533954,0.0292311217635869,0.0222334004938602
1768646879298,-0.3766937255859375,-0.9206085205078124,0.098480224609375,-0.0619230233132839,0.0309829488396644,0.0173795223236084
1768646879308,-0.3788604736328125,-0.91827392578125,0.0900421142578125,-0.0550669804215431,0.0352056585252285,0.0119288312271237
1768646879318,-0.377838134765625,-0.918914794921875,0.0890655517578125,-0.0510538630187511,0.037072267383337,0.0063391220755875
1768646879328,-0.3797607421875,-0.920135498046875,0.087371826171875,-0.0442446917295455,0.0328413024544715,-0.0013158678775653
1768646879338,-0.377960205078125,-0.9200439453125,0.0865325927734375,-0.036327913403511,0.0336615554988384,-0.0003619235940277
1768646879348,-0.3746185302734375,-0.919189453125,0.08734130859375,-0.0347009897232055,0.021155085414648,-0.0012301141396164
1768646879358,-0.374542236328125,-0.919189453125,0.0889129638671875,-0.0351739674806594,0.015378157608211,-0.0008077367674559
1768646879368,-0.3702239990234375,-0.92138671875,0.092529296875,-0.0373124852776527,0.0105719501152634,-0.0018378474051132
1768646879378,-0.3802642822265625,-0.928619384765625,0.0910491943359375,-0.0485797859728336,0.0194788929075002,-0.0094635430723428
1768646879388,-0.3855743408203125,-0.9314117431640624,0.0930633544921875,-0.0534480437636375,0.0226437933743,-0.011258247308433
1768646879398,-0.37457275390625,-0.9257965087890624,0.087158203125,-0.0550888180732727,0.0178029648959636,-0.0064602959901094
1768646879408,-0.3646240234375,-0.9144287109375,0.0799713134765625,-0.0508517287671566,0.017320666462183,0.00981215108186
1768646879418,-0.3577728271484375,-0.910369873046875,0.0732879638671875,-0.04148406162858,0.0142423193901777,0.0216767992824316
1768646879428,-0.3582611083984375,-0.911346435546875,0.070068359375,-0.0329190678894519,0.0225010477006435,0.0301927905529737
1768646879438,-0.368408203125,-0.9174041748046876,0.0685577392578125,-0.0214211363345384,0.023026755079627,0.0256038960069417
1768646879448,-0.3738250732421875,-0.9265594482421876,0.06365966796875,-0.0085652582347393,0.0170413013547658,0.0297813303768634
1768646879459,-0.3722076416015625,-0.927459716796875,0.0636444091796875,0.0071676317602396,0.0037864823825657,0.0321874991059303
1768646879468,-0.371185302734375,-0.9226226806640624,0.0623016357421875,0.0290076825767755,-0.0028738172259181,0.0318841636180877
1768646879478,-0.377044677734375,-0.92535400390625,0.0630340576171875,0.0471041277050972,-0.0080600567162036,0.0291387103497982
1768646879489,-0.382049560546875,-0.9281463623046876,0.0653533935546875,0.0646594166755676,-0.018287394195795,0.0243364982306957
1768646879499,-0.3787841796875,-0.921966552734375,0.0702056884765625,0.0782165080308914,-0.0337875261902809,0.0266928635537624
1768646879509,-0.3729095458984375,-0.91973876953125,0.0730743408203125,0.0871394276618957,-0.0334514342248439,0.0244976188987493
1768646879519,-0.3666839599609375,-0.9159393310546876,0.0800933837890625,0.0870893597602844,-0.0408435687422752,0.0321653932332992
1768646879529,-0.3693389892578125,-0.9152984619140624,0.084747314453125,0.0843865200877189,-0.0443283170461654,0.0344876684248447
1768646879539,-0.3743896484375,-0.916656494140625,0.08746337890625,0.0808676853775978,-0.0383090376853942,0.0303115658462047
1768646879549,-0.3795623779296875,-0.9169464111328124,0.0894012451171875,0.0767935812473297,-0.0437187179923057,0.0244017466902732
1768646879559,-0.3840484619140625,-0.9172210693359376,0.0907440185546875,0.0729253366589546,-0.0338192172348499,0.0182168204337358
1768646879569,-0.387237548828125,-0.915863037109375,0.092681884765625,0.0721160024404525,-0.0280257761478424,0.0108696920797228
1768646879579,-0.3903961181640625,-0.9160919189453124,0.0947723388671875,0.0714001506567001,-0.0266760848462581,0.0039507993496954
1768646879589,-0.3884735107421875,-0.9149169921875,0.0935211181640625,0.0787190496921539,-0.0275599882006645,0.0040527987293899
1768646879599,-0.386138916015625,-0.911865234375,0.090972900390625,0.0916795879602432,-0.0315491370856761,0.0030692932195961
1768646879609,-0.3836517333984375,-0.9124603271484376,0.0911407470703125,0.1031104028224945,-0.0173710007220506,0.0017470336752012
1768646879619,-0.38629150390625,-0.9163055419921876,0.099517822265625,0.1092718988656997,-0.0039484025910496,0.0004729774082079
1768646879629,-0.3902130126953125,-0.9198760986328124,0.1110687255859375,0.103268064558506,-0.0001472728035878,-0.0037507959641516
1768646879639,-0.3885498046875,-0.92291259765625,0.121856689453125,0.089982084929943,-0.0027502465527504,-0.0059931776486337
1768646879649,-0.388916015625,-0.9223480224609376,0.1301116943359375,0.0710017383098602,-0.0020730046089738,-0.0101399859413504
1768646879660,-0.38592529296875,-0.9206695556640624,0.13739013671875,0.0480487532913684,0.0108854044228792,-0.01072668004781
1768646879669,-0.38287353515625,-0.9168701171875,0.1414337158203125,0.0222432538866996,0.0143025061115622,-0.0119003355503082
1768646879679,-0.3806304931640625,-0.91552734375,0.141754150390625,-0.0082528702914714,0.02216362580657,-0.0033920682035386
1768646879689,-0.376708984375,-0.91326904296875,0.1432342529296875,-0.0383164957165718,0.0269567817449569,0.004953745752573
1768646879700,-0.3764190673828125,-0.915313720703125,0.14215087890625,-0.0669004693627357,0.0402598045766353,0.0079617863520979
1768646879710,-0.37939453125,-0.91546630859375,0.142608642578125,-0.1031045466661453,0.0519114024937152,0.0075644426979124
1768646879720,-0.3813018798828125,-0.9163360595703124,0.1431427001953125,-0.1348297148942947,0.0588140487670898,0.0060741379857063
1768646879730,-0.382843017578125,-0.9166107177734376,0.1354217529296875,-0.1563185006380081,0.0609776005148887,0.0033201628830283
1768646879740,-0.3824462890625,-0.91705322265625,0.119598388671875,-0.1668273359537124,0.0579471886157989,0.00452950457111
1768646879750,-0.3815460205078125,-0.9128265380859376,0.106170654296875,-0.1621154099702835,0.0552414171397686,0.0044109937734901
1768646879760,-0.378082275390625,-0.9107666015625,0.0897674560546875,-0.1499016135931015,0.0454982444643974,0.0066025089472532
1768646879770,-0.377410888671875,-0.912841796875,0.080078125,-0.1316517740488052,0.0402049422264099,0.0031742216087877
1768646879780,-0.3797760009765625,-0.91400146484375,0.0737457275390625,-0.1183354333043098,0.0298425834625959,-0.0002181128947995
1768646879790,-0.3819122314453125,-0.916534423828125,0.070770263671875,-0.1046100333333015,0.0241740457713603,-0.00604351144284
1768646879800,-0.382110595703125,-0.91754150390625,0.0703887939453125,-0.0889272093772888,0.02235590480268,-0.0104300044476985
1768646879810,-0.381622314453125,-0.9180450439453124,0.0675811767578125,-0.0704483315348625,0.0187526494264602,-0.0133304530754685
1768646879820,-0.3809661865234375,-0.915679931640625,0.0635833740234375,-0.0495843291282653,0.01839498616755,-0.0148199591785669
1768646879830,-0.3765106201171875,-0.9145355224609376,0.064422607421875,-0.0293951723724603,0.0182919222861528,-0.011887552216649
1768646879841,-0.374786376953125,-0.913726806640625,0.0689544677734375,-0.0162735115736722,0.0227828100323677,-0.0113669037818908
1768646879850,-0.37322998046875,-0.9171600341796876,0.0778656005859375,-0.0143211483955383,0.0254781953990459,-0.0103948507457971
1768646879860,-0.377044677734375,-0.9212799072265624,0.085052490234375,-0.0187574420124292,0.0234496649354696,-0.010310960933566
1768646879870,-0.3809356689453125,-0.9242401123046876,0.0945892333984375,-0.0292795915156602,0.0230336803942918,-0.0155243650078773
1768646879880,-0.383514404296875,-0.92559814453125,0.0963592529296875,-0.0382374003529548,0.0311105158179998,-0.0186091046780347
1768646879891,-0.3777923583984375,-0.9263458251953124,0.09967041015625,-0.0476495437324047,0.0423735566437244,-0.0147320739924907
1768646879900,-0.3768310546875,-0.92913818359375,0.1023712158203125,-0.0659475922584533,0.0477440878748893,-0.0158250350505113
1768646879911,-0.382415771484375,-0.9302825927734376,0.108245849609375,-0.0884837955236435,0.0491145476698875,-0.0212725307792425
1768646879921,-0.382110595703125,-0.92669677734375,0.109588623046875,-0.1056776940822601,0.0466391406953334,-0.0175006967037916
1768646879930,-0.3688507080078125,-0.9150848388671876,0.1048431396484375,-0.1155273914337158,0.0374621525406837,-0.0043558664619922
1768646879943,-0.3627777099609375,-0.9091339111328124,0.0951995849609375,-0.118543155491352,0.0297363232821226,0.0017355820164084
1768646879951,-0.370697021484375,-0.9168853759765624,0.088897705078125,-0.1195330545306205,0.037137247622013,-0.0039417445659637
1768646879961,-0.378387451171875,-0.9247894287109376,0.0841064453125,-0.1238817274570465,0.0560856387019157,-0.0059814597479999
1768646879971,-0.37939453125,-0.9298248291015624,0.084564208984375,-0.1317473798990249,0.072198562324047,-0.0073407371528446
1768646879981,-0.37847900390625,-0.93255615234375,0.0871734619140625,-0.1451510637998581,0.07080839574337,-0.0140644200146198
1768646879991,-0.3773651123046875,-0.9278411865234376,0.0866241455078125,-0.1518742144107818,0.0604540221393108,-0.0076757627539336
1768646880001,-0.3627471923828125,-0.9109344482421876,0.0774993896484375,-0.1358148157596588,0.0405458286404609,0.0102614257484674
1768646880011,-0.3468475341796875,-0.9033966064453124,0.06195068359375,-0.1135713011026382,0.0220360606908798,0.026159431785345
1768646880021,-0.35107421875,-0.9073486328125,0.0556793212890625,-0.091602087020874,0.0120068620890378,0.0349473319947719
1768646880031,-0.366851806640625,-0.9202728271484376,0.0568695068359375,-0.0818040519952774,0.0091325119137763,0.0256643500179052
1768646880041,-0.3827667236328125,-0.9334259033203124,0.0601654052734375,-0.0802655443549156,0.0128010166808962,0.0189513210207223
1768646880051,-0.38555908203125,-0.9374237060546876,0.06396484375,-0.0892513170838356,0.0138982385396957,0.0141613585874438
1768646880061,-0.3841400146484375,-0.9315948486328124,0.0635833740234375,-0.0991372391581535,0.0129573438316583,0.0164689887315034
1768646880071,-0.37786865234375,-0.930755615234375,0.0625457763671875,-0.1025157198309898,0.007546333130449,0.0216208733618259
1768646880081,-0.3810272216796875,-0.9283294677734376,0.0555419921875,-0.0971987247467041,0.0068802768364548,0.0249607432633638
1768646880091,-0.383941650390625,-0.927490234375,0.0451812744140625,-0.0877048149704933,0.0098310587927699,0.0231742952018976
1768646880101,-0.391357421875,-0.9268646240234376,0.0401611328125,-0.0720289200544357,0.0129813123494386,0.0210661366581916
1768646880111,-0.3950653076171875,-0.9249725341796876,0.0352020263671875,-0.0618647001683712,0.0064746770076453,0.0277717094868421
1768646880121,-0.38372802734375,-0.919219970703125,0.0421142578125,-0.0635459497570991,-0.0192687697708606,0.0379745475947856
1768646880131,-0.387603759765625,-0.9169464111328124,0.0433502197265625,-0.0543753579258918,-0.0180884562432765,0.0236786976456642
1768646880142,-0.4072723388671875,-0.9209747314453124,0.03076171875,-0.0369111448526382,-0.0018668759148567,0.0047239148989319
1768646880152,-0.4133758544921875,-0.9227447509765624,0.023590087890625,-0.0148846739903092,0.0002221076283603,-0.0113501260057091
1768646880162,-0.4083099365234375,-0.91790771484375,0.0228118896484375,0.0060158143751323,-0.0027017768006771,-0.019702598452568
1768646880172,-0.4007110595703125,-0.919464111328125,0.02691650390625,0.0215340536087751,-0.0139248706400394,-0.0191803518682718
1768646880182,-0.399658203125,-0.9205780029296876,0.029754638671875,0.0387782901525497,-0.0123562682420015,-0.0215598866343498
1768646880192,-0.3972320556640625,-0.9170379638671876,0.0330810546875,0.0573660880327224,-0.0144575024023652,-0.0242904257029294
1768646880202,-0.397003173828125,-0.91754150390625,0.0328521728515625,0.0780055820941925,-0.0303373988717794,-0.0288913026452064
1768646880212,-0.3979339599609375,-0.9159088134765624,0.0363616943359375,0.0976818203926086,-0.0250936355441808,-0.0323030799627304
1768646880222,-0.3903656005859375,-0.9160919189453124,0.042327880859375,0.1194153428077697,-0.0249362420290708,-0.034555047750473
1768646880232,-0.389007568359375,-0.9185028076171876,0.048980712890625,0.1297718435525894,-0.0452420450747013,-0.0377551019191741
1768646880242,-0.3833465576171875,-0.920562744140625,0.06268310546875,0.1358979195356369,-0.0581128373742103,-0.0390914753079414
1768646880252,-0.3763427734375,-0.9193267822265624,0.071044921875,0.1441033780574798,-0.0673819705843925,-0.0368269905447959
1768646880262,-0.3729095458984375,-0.92156982421875,0.0752105712890625,0.146913006901741,-0.0718832463026046,-0.0354520007967948
1768646880272,-0.373077392578125,-0.927093505859375,0.082489013671875,0.1409850865602493,-0.0644921734929084,-0.0346559807658195
1768646880282,-0.3747711181640625,-0.928466796875,0.09222412109375,0.1294706463813781,-0.0577972531318664,-0.0331997647881507
1768646880292,-0.367095947265625,-0.9240875244140624,0.0956573486328125,0.1165362000465393,-0.0463035814464092,-0.021442174911499
1768646880302,-0.3597564697265625,-0.920166015625,0.098846435546875,0.1003407165408134,-0.0276452098041772,-0.0071018515154719
1768646880312,-0.3570556640625,-0.916168212890625,0.1064300537109375,0.0766761377453804,-0.0246395654976367,-0.0006567355012521
1768646880322,-0.3632659912109375,-0.9214630126953124,0.1110076904296875,0.0513113923370838,-0.019334016367793,0.0024501082953065
1768646880332,-0.36712646484375,-0.92523193359375,0.1085205078125,0.0292646773159503,-0.0060325926169753,0.0100462427362799
1768646880342,-0.3708953857421875,-0.92474365234375,0.106475830078125,-0.004332962911576,-0.0128191262483596,0.006034989375621
