timestamp_ms,acc_x,acc_y,acc_z,gyro_x,gyro_y,gyro_z
1769250476606,-0.0411529541015625,-0.0122222900390625,-1.0034942626953125,-0.0102177504450082,-0.0014436995843425,0.0370472334325313
1769250476610,-0.0422515869140625,-0.0100860595703125,-0.9994659423828124,-0.0102177504450082,-0.0014436995843425,0.0370472334325313
1769250476620,-0.0440673828125,-0.0254364013671875,-1.0019378662109375,-0.0073828152380883,0.0006836334359832,0.0339694172143936
1769250476630,-0.0426788330078125,-0.0435333251953125,-1.005767822265625,-0.0042557315900921,0.0159699115902185,0.0355281680822372
1769250476640,-0.0379486083984375,-0.0138702392578125,-1.0053558349609375,0.0028730181511491,0.0398416891694068,0.0322897620499134
1769250476650,-0.0404815673828125,0.0122222900390625,-0.9983978271484376,0.0079292962327599,0.0391359515488147,0.0280678533017635
1769250476660,-0.059600830078125,-0.00531005859375,-0.9965362548828124,0.0212443023920059,0.0329763256013393,0.0135536259040236
1769250476671,-0.068878173828125,-0.0198516845703125,-0.989654541015625,0.024441160261631,0.0099058942869305,0.0031174963805824
1769250476681,-0.058746337890625,-0.025177001953125,-0.9857330322265624,0.013839116320014,-0.0069156968966126,-0.0046461508609354
1769250476691,-0.053009033203125,-0.0093841552734375,-0.998199462890625,0.0084374267607927,0.0065316688269376,-0.0098475711420178
1769250476701,-0.0420684814453125,-0.022430419921875,-0.9902191162109376,-0.0101913847029209,0.0113458652049303,-0.0180309321731328
1769250476711,-0.0430145263671875,-0.01593017578125,-0.9970703125,-0.0032562471460551,0.0346162989735603,-0.0209809150546789
1769250476721,-0.041595458984375,0.0035247802734375,-0.99176025390625,0.0078299595043063,0.0207928959280252,-0.0165310390293598
1769250476731,-0.0427703857421875,-0.0037384033203125,-0.9881134033203124,0.0231657736003398,-0.0054914383217692,-0.0112635735422372
1769250476741,-0.04937744140625,-0.01641845703125,-0.988800048828125,0.031537152826786,-0.0221026390790939,-0.0149616384878754
1769250476751,-0.0545501708984375,-0.02642822265625,-0.98809814453125,0.0313427411019802,-0.0424798168241977,-0.0140332607552409
1769250476761,-0.051177978515625,-0.0355224609375,-0.98529052734375,0.0151744252070784,-0.0587328225374221,-0.0100837927311658
1769250476771,-0.0447540283203125,-0.032806396484375,-0.9805145263671876,-0.0115650435909628,-0.0460593700408935,-0.0068219532258808
1769250476781,-0.042144775390625,-0.024566650390625,-0.9871368408203124,-0.0340959168970584,-0.0245604701340198,-0.0090574109926819
1769250476791,-0.0407257080078125,-0.0216522216796875,-0.9879608154296876,-0.0518131293356418,-0.0156862847506999,-0.0083684511482715
1769250476801,-0.0443878173828125,-0.010711669921875,-0.9930877685546876,-0.0614937208592891,-0.0112910037860274,-0.0080059943720698
1769250476811,-0.0457916259765625,-0.0036773681640625,-1.000030517578125,-0.0640205293893814,-0.0156021295115351,-0.0063316654413938
1769250476821,-0.0453033447265625,-0.0069732666015625,-1.0052337646484375,-0.0588089898228645,-0.0139701440930366,-0.0059297946281731
1769250476831,-0.0525665283203125,-0.0095062255859375,-1.003936767578125,-0.0600849092006683,-0.0080549968406558,-0.0054640076123178
1769250476842,-0.0519561767578125,-0.0156402587890625,-1.0026397705078125,-0.0603227280080318,0.003319896524772,-0.005642439238727
1769250476851,-0.045166015625,-0.023040771484375,-1.0032196044921875,-0.0553346276283264,0.0115820877254009,-0.0010293117957189
1769250476861,-0.0395965576171875,-0.0216522216796875,-1.0018768310546875,-0.0424222908914089,0.0012042814632877,0.005381183233112
1769250476872,-0.0396575927734375,-0.0174713134765625,-1.005615234375,-0.0196421444416046,-0.0037318875547498,0.0074629760347306
1769250476882,-0.04278564453125,-0.014923095703125,-1.0072784423828125,-0.0088230529800057,-0.0083213131874799,0.0073218285106122
1769250476892,-0.0453948974609375,-0.006591796875,-1.0029296875,0.0006985471700318,-0.0030008498579263,0.0019310581265017
1769250476902,-0.050567626953125,0.00311279296875,-1.0042877197265625,0.0123011413961648,0.0117810256779193,-0.005396363325417
1769250476912,-0.04852294921875,-0.0042572021484375,-1.0014801025390625,0.0239833630621433,-0.0044328314252197,-0.0038336203433573
1769250476922,-0.0400238037109375,-0.0123138427734375,-1.002227783203125,0.0339672863483428,-0.0239178501069545,0.0026959178503602
1769250476932,-0.034393310546875,-0.01727294921875,-0.9999847412109376,0.0368296541273593,-0.0230366103351116,0.0124247120693326
1769250476942,-0.032684326171875,-0.022369384765625,-0.9896087646484376,0.0334407798945903,-0.013415141031146,0.0195361506193876
1769250476952,-0.03961181640625,-0.0217132568359375,-0.9893646240234376,0.0303416606038808,0.003033606801182,0.0205606687813997
1769250476962,-0.050506591796875,-0.02197265625,-0.9927825927734376,0.0262766107916831,0.005854426883161,0.0154093159362673
1769250476972,-0.05206298828125,-0.0140228271484375,-0.99322509765625,0.0237316954880952,-0.0035862126387655,0.0150708286091685
1769250476982,-0.0463714599609375,-0.0102386474609375,-0.989959716796875,0.0127890324220061,-0.0037276265211403,0.0181718133389949
1769250476992,-0.044219970703125,-0.0178680419921875,-0.99261474609375,0.0063841296359896,-0.0006074670236557,0.0222485810518264
1769250477002,-0.0423431396484375,-0.0239105224609375,-0.9928131103515624,-0.0009424926829524,-0.001782453735359,0.0205841045826673
1769250477012,-0.043975830078125,-0.02044677734375,-0.9951934814453124,-0.0022130869328975,0.0039593214169144,0.0224837381392717
1769250477022,-0.0461273193359375,-0.0186614990234375,-0.998504638671875,-0.0041779670864343,-0.0018692727899178,0.0250411704182624
1769250477032,-0.049896240234375,-0.01422119140625,-0.9954071044921876,-0.0058496333658695,-0.0018311894964426,0.0255844555795192
1769250477042,-0.052947998046875,-0.0120849609375,-0.9950103759765624,-0.00984304305166,0.0015720640076324,0.0248044151812791
1769250477052,-0.052734375,-0.016326904296875,-0.9978790283203124,-0.0052339104004204,0.0080312946811318,0.0237649846822023
1769250477062,-0.0562744140625,-0.014312744140625,-0.99957275390625,-0.001326254219748,0.0097293267026543,0.0195792932063341
1769250477073,-0.0600738525390625,-0.009857177734375,-1.0021820068359375,0.0062805325724184,0.001823200029321,0.0091029508039355
1769250477083,-0.0609283447265625,-0.0107269287109375,-1.0064697265625,0.018788069486618,0.0053715957328677,-0.0010740528814494
1769250477093,-0.0539398193359375,-0.0101470947265625,-1.0058441162109375,0.0241676531732082,0.012271580286324,-0.002412823960185
1769250477103,-0.05108642578125,-0.0257568359375,-0.999755859375,0.0180556997656822,0.0108867362141609,-0.0031212246976792
1769250477113,-0.0405426025390625,-0.03277587890625,-0.997589111328125,0.0154703026637434,0.0046173888258636,-0.000557665945962
1769250477123,-0.035797119140625,0.0005645751953125,-0.9960174560546876,0.0235801599919796,0.0125927571207284,0.0012458267156034
1769250477133,-0.041778564453125,0.0030517578125,-1.0017547607421875,0.0397508740425109,0.0201388243585824,0.000318780366797
1769250477143,-0.0600433349609375,-0.0166473388671875,-1.0008697509765625,0.058666244149208,0.0254166759550571,-0.0099269328638911
1769250477153,-0.062835693359375,-0.0128173828125,-0.991180419921875,0.0576257444918155,-0.0012487561907619,-0.0136178079992532
1769250477163,-0.0562286376953125,-0.027618408203125,-0.98748779296875,0.0485997609794139,-0.0194266941398382,-0.0225745514035224
1769250477173,-0.0511016845703125,-0.033355712890625,-0.99053955078125,0.0372581556439399,0.0015291870804503,-0.021705562248826
1769250477183,-0.034576416015625,-0.03631591796875,-0.985748291015625,0.0195904783904552,0.0180058982223272,-0.0150774866342544
1769250477193,-0.03863525390625,-0.018310546875,-0.99639892578125,0.0272457357496023,0.0358754433691501,-0.0142329977825284
1769250477203,-0.04998779296875,-0.005340576171875,-0.9873504638671876,0.0398206487298011,0.0057444386184215,-0.0175512973219156
1769250477213,-0.056365966796875,-0.00653076171875,-0.992584228515625,0.056308813393116,-0.0238733738660812,-0.0192682370543479
1769250477223,-0.059234619140625,-0.0154266357421875,-0.990875244140625,0.0602252557873725,-0.0451589561998844,-0.0215175431221723
1769250477233,-0.0565032958984375,-0.028717041015625,-0.983734130859375,0.0510818250477314,-0.0433235056698322,-0.015687083825469
1769250477243,-0.0445556640625,-0.0359649658203125,-0.983428955078125,0.0282580032944679,-0.0325893685221672,-0.0072645707987248
1769250477253,-0.0411224365234375,-0.0346221923828125,-0.9838104248046876,0.0065471152774989,-0.0267237555235624,-0.0061795990914106
1769250477263,-0.042022705078125,-0.0292816162109375,-0.987396240234375,-0.0080105224624276,-0.0227519180625677,-0.0054432349279522
1769250477274,-0.043304443359375,-0.026458740234375,-0.9911956787109376,-0.01599015109241,-0.0279469452798366,-0.0041790325194597
1769250477284,-0.0479583740234375,-0.0265350341796875,-0.9916839599609376,-0.0202187187969684,-0.0273685082793235,-0.0057255299761891
1769250477294,-0.051971435546875,-0.021728515625,-0.9990997314453124,-0.0198027323931455,-0.0192336160689592,-0.0073103769682347
1769250477304,-0.0598297119140625,-0.020660400390625,-1.0027923583984375,-0.0179880559444427,-0.0035188347101211,-0.0110667655244469
1769250477314,-0.0582122802734375,-0.0180511474609375,-1.0020294189453125,-0.0229732263833284,-0.005871205125004,-0.0130228577181696
1769250477324,-0.0582427978515625,-0.0200958251953125,-0.9974212646484376,-0.0267607737332582,-0.0006079996819607,-0.015688681975007
1769250477334,-0.0519256591796875,-0.0180206298828125,-0.9984893798828124,-0.0313627161085605,0.0062845274806022,-0.0189015194773674
1769250477344,-0.0472564697265625,-0.01715087890625,-1.001922607421875,-0.0243221167474985,0.0187313426285982,-0.0142194163054227
1769250477354,-0.0387420654296875,-0.0212554931640625,-1.0044097900390625,-0.0190836787223815,0.0282968860119581,-0.0107304081320762
1769250477364,-0.045013427734375,-0.026092529296875,-0.998748779296875,-0.0098094874992966,0.0184565056115388,-0.0146367335692048
1769250477374,-0.0480499267578125,-0.0160369873046875,-0.9957275390625,0.0003858920244965,0.0115152420476078,-0.0214781276881694
1769250477384,-0.0467987060546875,-0.0099334716796875,-0.98956298828125,0.0016074840677902,0.0155845526605844,-0.023720508441329
1769250477394,-0.0470123291015625,-0.0220794677734375,-0.9870147705078124,7.989483492565341e-07,0.0027992485556751,-0.0239500738680362
1769250477404,-0.0431976318359375,-0.0260467529296875,-0.9854736328125,0.0004926847759634,-0.0103684850037097,-0.0176724698394536
1769250477414,-0.0413360595703125,-0.0210113525390625,-0.985137939453125,-0.0047404267825186,-0.0112665025517344,-0.0117061911150813
1769250477424,-0.044158935546875,-0.02435302734375,-0.986907958984375,-0.0084339650347828,-0.0149472579360008,-0.0087018785998225
1769250477434,-0.0439605712890625,-0.02313232421875,-0.9925994873046876,-0.0109770176932215,-0.0077748326584696,-0.0061143515631556
1769250477444,-0.04827880859375,-0.0228118896484375,-0.989013671875,-0.0209404360502958,0.0025670209433883,-0.0075255604460835
1769250477454,-0.04608154296875,-0.019287109375,-0.9825897216796876,-0.0312404781579971,0.0037031255196779,-0.0013390374369919
1769250477464,-0.0452117919921875,-0.0208282470703125,-0.987701416015625,-0.0379353985190391,0.0016889767721295,0.0039691752754151
1769250477475,-0.0496063232421875,-0.02581787109375,-0.99407958984375,-0.0390874817967414,0.0038812910206615,0.0066411248408257
1769250477485,-0.0487823486328125,-0.02734375,-0.9902496337890624,-0.0478985495865345,-0.0018812569323927,0.0105573032051324
1769250477495,-0.045440673828125,-0.0200347900390625,-0.9903411865234376,-0.0538246147334575,-0.0024945829063653,0.0152929360046982
1769250477505,-0.05059814453125,-0.0184326171875,-0.9915924072265624,-0.0589160472154617,-0.007875233888626,0.0126292426139116
1769250477515,-0.0574493408203125,-0.026702880859375,-0.994964599609375,-0.0560310445725917,-0.0003773699281737,0.0086198532953858
1769250477525,-0.0592803955078125,-0.02392578125,-1.0029449462890625,-0.0501007176935672,0.0081913508474826,0.0043939496390521
1769250477535,-0.0578765869140625,-0.0126800537109375,-1.0055694580078125,-0.0406022891402244,-0.002404301892966,0.0061625544913113
1769250477545,-0.0562744140625,-0.003814697265625,-1.0064239501953125,-0.0410414412617683,0.0066488478332757,0.0078267641365528
1769250477555,-0.058197021484375,-0.0035858154296875,-1.0015411376953125,-0.0465174354612827,0.0094832498580217,-0.0009683253592811
1769250477565,-0.0565032958984375,-0.0080108642578125,-0.9974822998046876,-0.0454993061721324,0.0107517139986157,-0.0064645572565495
1769250477575,-0.053375244140625,-0.0177764892578125,-0.9987335205078124,-0.0403394326567649,0.0110198939219117,-0.0074557857587933
1769250477585,-0.0515899658203125,-0.03857421875,-1.004150390625,-0.0352922119200229,0.0048573394306004,-0.012761334888637
1769250477595,-0.04925537109375,-0.0306396484375,-1.0053558349609375,-0.0249655377119779,0.0087908282876014,-0.0132518894970417
1769250477605,-0.04376220703125,0.0094451904296875,-1.000640869140625,-0.0109131010249257,0.0111988587304949,-0.0162990782409906
1769250477615,-0.0572052001953125,0.0059814453125,-0.9992218017578124,0.0037449370138347,0.0121578630059957,-0.0242608655244112
1769250477625,-0.0595703125,-0.0063629150390625,-1.00299072265625,0.0151427341625094,0.0288992915302515,-0.0292755961418151
1769250477635,-0.05029296875,-0.0056610107421875,-0.9958648681640624,0.005667739547789,0.0084225134924054,-0.0254592876881361
1769250477645,-0.049774169921875,-0.0341949462890625,-0.9949188232421876,-3.6485307646216825e-05,0.0097945742309093,-0.0347289517521858
1769250477655,-0.0496063232421875,-0.0343780517578125,-1.0021209716796875,-0.0015949672088027,0.0332085527479648,-0.0379082337021827
1769250477665,-0.0390625,-0.025848388671875,-0.9984130859375,-0.0090741887688636,0.0469395443797111,-0.0346767529845237
1769250477675,-0.0440521240234375,-0.006103515625,-0.997650146484375,-0.0060520335100591,0.06039410084486,-0.032101210206747
1769250477685,-0.0453948974609375,-0.0037841796875,-0.99481201171875,0.00734952557832,0.0511745028197765,-0.0330860465764999
1769250477696,-0.0449676513671875,-0.005615234375,-0.998809814453125,0.0202179197221994,0.0344706252217292,-0.0210834480822086
1769250477706,-0.0444488525390625,-0.01629638671875,-0.9958953857421876,0.0290265921503305,0.0161392893642187,-0.0155882807448506
1769250477716,-0.042205810546875,-0.0236053466796875,-0.9902801513671876,0.0285157971084117,-0.0006913566030561,-0.003771036164835
1769250477726,-0.03216552734375,-0.0272674560546875,-0.987396240234375,0.0183305367827415,-0.0020900487434118,0.0115056550130248
1769250477736,-0.030853271484375,-0.0267181396484375,-0.98944091796875,0.0107245491817593,0.0034072482958436,0.0184599664062261
1769250477746,-0.039520263671875,-0.0216522216796875,-0.9974822998046876,0.0091335773468017,0.0061212759464979,0.02307815477252
1769250477756,-0.0367584228515625,-0.0171356201171875,-0.999237060546875,0.0040512005798518,0.00890161562711,0.0322074703872203
1769250477766,-0.038848876953125,-0.0151824951171875,-1.00457763671875,0.0043428167700767,0.038652054965496,0.0397159866988658
1769250477776,-0.0460662841796875,-0.0131378173828125,-1.003662109375,0.0007488809060305,0.0516679883003234,0.040775392204523
1769250477786,-0.0594329833984375,-0.018524169921875,-0.99713134765625,-0.0033201628830283,0.035157985985279,0.0341790094971656
1769250477796,-0.0587615966796875,-0.017669677734375,-0.9895172119140624,-0.0090440949425101,0.0120465429499745,0.0270726308226585
1769250477806,-0.0629425048828125,-0.019683837890625,-0.99267578125,-0.010301106609404,-0.0004721784498542,0.009778594598174
1769250477816,-0.0574188232421875,-0.0205841064453125,-0.990936279296875,-0.0182253420352935,0.0061092916876077,0.0074235615320503
1769250477826,-0.0457763671875,-0.0134124755859375,-0.996826171875,-0.0231663063168525,0.0280633252114057,0.0069532473571598
1769250477836,-0.0459747314453125,-0.019195556640625,-0.9986572265625,-0.0217753369361162,0.0296660158783197,0.0013968279818072
1769250477846,-0.0448760986328125,-0.017791748046875,-1.000244140625,-0.0180202797055244,0.0312221013009548,-0.0072967950254678
1769250477856,-0.039764404296875,-0.007171630859375,-0.9978179931640624,-0.0138889178633689,0.030230339616537,-0.0116382800042629
1769250477866,-0.0410308837890625,-0.012481689453125,-0.997833251953125,-0.0061340588144958,0.0233055893331766,-0.0130375046283006
1769250477876,-0.0385284423828125,-0.0222625732421875,-0.9979248046875,0.0035928706638514,0.0077766967006027,-0.0089897662401199
1769250477886,-0.037872314453125,-0.0236968994140625,-0.99481201171875,0.0104473149403929,0.0020018981304019,-0.0052871736697852
1769250477896,-0.041046142578125,-0.0224761962890625,-0.9965667724609376,0.0163736473768949,2.663161103555467e-05,-0.0033092440571635
1769250477907,-0.0435028076171875,-0.0213165283203125,-0.99652099609375,0.0166761819273233,-0.0035444011446088,0.0019414444686844
1769250477917,-0.0406646728515625,-0.0166473388671875,-0.9971466064453124,0.0206110030412673,-0.0011254518758505,0.0040357541292905
1769250477927,-0.0420074462890625,-0.0103607177734375,-1.0001983642578125,0.0238315630704164,0.0015736619243398,0.0072493907064199
1769250477937,-0.0405731201171875,-0.0115509033203125,-0.9947509765625,0.019457321614027,0.012719789519906,0.0095905754715204
1769250477947,-0.042633056640625,-0.0186920166015625,-0.9978790283203124,0.0192562527954578,0.0084475465118885,0.0070680296048521
1769250477957,-0.0433197021484375,-0.0238800048828125,-0.997528076171875,0.0177912469953298,0.0042778356000781,0.0076059880666434
1769250477967,-0.037261962890625,-0.0214385986328125,-0.99517822265625,0.0098510328680276,0.0086720511317253,0.0100917825475335
1769250477977,-0.0383148193359375,-0.0217437744140625,-0.9942169189453124,0.0037691718898713,0.007414773106575,0.0127024790272116
1769250477987,-0.040557861328125,-0.0235748291015625,-0.991607666015625,-0.0028477180749177,0.0010317085543647,0.0155206359922885
1769250477997,-0.0462646484375,-0.0157318115234375,-0.9888763427734376,-0.0125128626823425,-0.0017933726776391,0.0141387218609452
1769250478007,-0.0514373779296875,-0.0167236328125,-0.98944091796875,-0.0249050837010145,0.005314870737493,0.0141381891444325
1769250478017,-0.049652099609375,-0.0202178955078125,-0.993255615234375,-0.0302817393094301,0.0128422956913709,0.0113455988466739
1769250478027,-0.049407958984375,-0.01531982421875,-0.99871826171875,-0.0284063406288623,0.0112848784774541,0.0107184248045086
1769250478037,-0.0461273193359375,-0.0096893310546875,-1.0007171630859375,-0.0289174020290374,0.0038344194181263,0.0115160411223769
1769250478047,-0.045318603515625,-0.0116729736328125,-0.9946441650390624,-0.0288399029523134,-0.001628789352253,0.0093578156083822
1769250478057,-0.04852294921875,-0.01666259765625,-0.9947662353515624,-0.030868699774146,-0.0003299656673334,0.0088089378550648
1769250478067,-0.0482177734375,-0.036834716796875,-0.997100830078125,-0.0397474132478237,0.0025984463281929,0.0025744778104126
1769250478077,-0.043060302734375,-0.03131103515625,-1.000640869140625,-0.0357201807200908,0.0229439307004213,0.0024668860714882
1769250478087,-0.0323486328125,0.0161590576171875,-0.9990997314453124,-0.0321174561977386,0.0279101934283971,0.0038157771341502
1769250478097,-0.04150390625,0.0089263916015625,-0.999053955078125,-0.0165084023028612,0.0178921818733215,0.0007105313707143
1769250478108,-0.0534515380859375,-0.0241241455078125,-1.0092010498046875,0.0116156432777643,0.0112361432984471,-0.0055260593071579
1769250478118,-0.04827880859375,-0.0238494873046875,-0.99859619140625,0.0112926019355654,-0.0107032442465424,-0.0060437778010964
1769250478128,-0.045989990234375,-0.024200439453125,-0.9934539794921876,0.0058347196318209,0.00683473655954,-0.0148114366456866
1769250478138,-0.044036865234375,-0.02313232421875,-0.99072265625,-0.0072616413235664,0.0309331491589546,-0.0187896657735109
1769250478148,-0.0425567626953125,-0.03082275390625,-0.9911651611328124,-0.0114412065595388,0.0362445563077926,-0.0261437203735113
1769250478158,-0.0434722900390625,-0.011077880859375,-0.9951324462890624,0.0008823052630759,0.0313989371061325,-0.0245322417467832
1769250478168,-0.04095458984375,-0.0025787353515625,-0.9878387451171876,0.017486847937107,0.0055878446437418,-0.0205502826720476
1769250478178,-0.0459747314453125,-0.00958251953125,-0.9922027587890624,0.034110564738512,-0.0261461157351732,-0.0179268028587102
1769250478188,-0.0537567138671875,-0.020294189453125,-0.9898529052734376,0.0390387438237667,-0.0481843054294586,-0.0161557998508214
1769250478198,-0.0485382080078125,-0.027252197265625,-0.98443603515625,0.0215787943452596,-0.0369345806539058,-0.0107442568987607
1769250478208,-0.04095458984375,-0.0284576416015625,-0.9863433837890624,-0.0053209960460662,-0.0181206800043582,-0.0050072753801941
1769250478218,-0.0361328125,-0.025299072265625,-0.991851806640625,-0.0294849220663309,-0.0014069479657337,-0.0044088633731007
1769250478228,-0.03704833984375,-0.0224609375,-0.9931793212890624,-0.0426696985960006,-0.0005217132274992,-0.0019078885670751
1769250478238,-0.043426513671875,-0.021270751953125,-0.9929046630859376,-0.0472460761666297,-0.0100531671196222,-0.0013720606220886
1769250478248,-0.0489959716796875,-0.01513671875,-0.993072509765625,-0.0496767424046993,-0.0116867497563362,-9.161273919744416e-05
1769250478258,-0.0509033203125,-0.010009765625,-0.9950408935546876,-0.0495308004319667,-0.0142015730962157,0.0008266451768577
1769250478268,-0.053009033203125,-0.009307861328125,-0.999542236328125,-0.0514930188655853,-0.0008831042214296,-0.002707103267312
1769250478278,-0.05401611328125,-0.0135040283203125,-1.005340576171875,-0.0510642491281032,0.0126175247132778,-0.0046599991619586
1769250478288,-0.0486297607421875,-0.0190582275390625,-1.0030975341796875,-0.0506767593324184,0.0179387871176004,-0.0096579538658261
1769250478298,-0.0460968017578125,-0.0175628662109375,-0.9962921142578124,-0.0488876476883888,0.0143959838896989,-0.0119533324614167
1769250478308,-0.0460205078125,-0.0151214599609375,-0.9950408935546876,-0.044933121651411,-0.0020213392563164,-0.0123783722519874
1769250478318,-0.045562744140625,-0.01416015625,-0.995452880859375,-0.0421519801020622,-0.0102289356291294,-0.015393603593111
1769250478329,-0.042694091796875,-0.01220703125,-1.003173828125,-0.0377247408032417,0.0024093617685139,-0.0205707885324955
1769250478339,-0.0429229736328125,-0.0048675537109375,-1.0064849853515625,-0.0277469418942928,0.017967015504837,-0.0258768703788518
1769250478349,-0.043731689453125,-0.0151214599609375,-1.0055694580078125,-0.0104318680241703,0.0021560951136052,-0.0266451928764581
1769250478359,-0.0412750244140625,-0.021881103515625,-1.003204345703125,0.0041755703277885,-0.0209399033337831,-0.0263522453606128
1769250478369,-0.0358428955078125,-0.0197296142578125,-0.997100830078125,0.0084110619500279,-0.0292465686798095,-0.021820344030857
1769250478379,-0.0323028564453125,-0.0182342529296875,-0.9910888671875,0.0062317969277501,-0.019357718527317,-0.0135754635557532
1769250478389,-0.0363922119140625,-0.0168609619140625,-0.995880126953125,0.0067399279214441,-0.0020256002899259,-0.0125469509512186
1769250478399,-0.0388031005859375,-0.0084075927734375,-0.998260498046875,0.0086800409480929,-0.0012583435745909,-0.0106864664703607
1769250478409,-0.042755126953125,-0.0091552734375,-0.9993438720703124,0.0155286258086562,-0.0070105050690472,-0.0105586349964141
1769250478419,-0.0453948974609375,-0.0162811279296875,-1.001220703125,0.0226541794836521,-0.0092156026512384,-0.0122888907790184
1769250478429,-0.0442657470703125,-0.012420654296875,-0.996734619140625,0.0192919392138719,0.0025776736438274,-0.0096528939902782
1769250478439,-0.042205810546875,-0.0115814208984375,-0.9888153076171876,0.00995809212327,-0.0002902845444623,-0.0092124063521623
1769250478449,-0.0462493896484375,-0.0164794921875,-0.98583984375,0.0037124464288353,0.0011954930378124,-0.0111762220039963
1769250478459,-0.048492431640625,-0.0124053955078125,-0.9909820556640624,-0.0003640541108325,0.0025220136158168,-0.0150692304596304
1769250478469,-0.0539093017578125,-0.0121612548828125,-0.99560546875,0.0005933523061685,0.0039630499668419,-0.0207939613610506
1769250478479,-0.0509796142578125,-0.0114593505859375,-1.0020599365234375,0.0002918824611697,0.014820490963757,-0.0226294118911027
1769250478489,-0.05023193359375,-0.0104217529296875,-0.992919921875,-0.0073314160108566,0.014217285439372,-0.0225905291736125
1769250478499,-0.0466156005859375,-0.0097503662109375,-0.98736572265625,-0.0126276444643735,0.008110923692584,-0.0195033941417932
1769250478509,-0.0411224365234375,-0.0117645263671875,-0.990478515625,-0.0237737726420164,0.0117112509906291,-0.01643942669034
1769250478520,-0.042449951171875,-0.0164031982421875,-0.985595703125,-0.0362866334617137,0.0004852279380429,-0.0173875130712986
1769250478530,-0.0423431396484375,-0.0158538818359375,-0.9846343994140624,-0.0442931614816188,-0.0024706146214157,-0.0148476557806134
1769250478540,-0.036529541015625,-0.0113983154296875,-0.9940032958984376,-0.0544893406331539,0.0031920648179948,-0.0099458415061235
1769250478550,-0.03302001953125,-0.0276641845703125,-0.991455078125,-0.0740958005189895,0.0083380909636616,0.0012660667998716
1769250478560,-0.0282745361328125,-0.029632568359375,-0.9936676025390624,-0.076127789914608,0.0271586496382951,0.0061921156011521
1769250478570,-0.035614013671875,0.006256103515625,-1.0094757080078125,-0.0589549280703067,0.0310322176665067,0.0060949102044105
1769250478580,-0.0413818359375,0.01263427734375,-1.0025482177734375,-0.0398531407117843,0.0172176025807857,0.0084342313930392
1769250478590,-0.0536651611328125,-0.023193359375,-1.0041046142578125,-0.0286510866135358,-0.0004372910480014,0.0061258031055331
1769250478600,-0.0535736083984375,-0.0377960205078125,-1.00677490234375,-0.0198320280760526,0.0016434367280453,0.0008098672842606
1769250478610,-0.0449371337890625,-0.01544189453125,-1.0062713623046875,-0.0240334309637546,0.0191172361373901,0.0017888452857732
1769250478620,-0.0414581298828125,-0.0191650390625,-0.9974517822265624,-0.037306360900402,0.0234408769756555,-0.0009518137667328
1769250478630,-0.0443878173828125,-0.0155487060546875,-1.000396728515625,-0.0379745475947856,0.0281983483582735,-0.0090848412364721
1769250478640,-0.0411224365234375,0.0157012939453125,-1.006500244140625,-0.0144148916006088,0.0265562441200017,-0.005740710068494
1769250478650,-0.04736328125,0.01318359375,-1.001190185546875,0.0169859081506729,-0.0031281490810215,-0.0037784930318593
1769250478660,-0.0631866455078125,-0.00048828125,-0.994537353515625,0.0439994148910045,-0.0357031375169754,-0.0100164152681827
1769250478670,-0.0654449462890625,-0.0077362060546875,-0.98486328125,0.0514821000397205,-0.0433860905468463,-0.0100630205124616
1769250478680,-0.0625,-0.0220794677734375,-0.9813232421875,0.0410145446658134,-0.0431261658668518,-0.0165728516876697
1769250478690,-0.0561370849609375,-0.02459716796875,-0.9847869873046876,0.0214528273791074,-0.039454199373722,-0.0235159788280725
1769250478700,-0.0470123291015625,-0.0143280029296875,-0.98486328125,0.0034599788486957,-0.0398805700242519,-0.0305933281779289
1769250478710,-0.04827880859375,-0.00927734375,-0.9857940673828124,-0.0151451304554939,-0.0256326589733362,-0.0389402098953723
1769250478720,-0.052490234375,-0.007110595703125,-0.9893035888671876,-0.0310210324823856,-0.0175987016409635,-0.0496530383825302
1769250478730,-0.0534515380859375,-0.002899169921875,-0.993011474609375,-0.0396499410271644,-0.0108395982533693,-0.0519372336566448
1769250478741,-0.0503692626953125,0.00604248046875,-0.996490478515625,-0.0432635843753814,0.009287241846323,-0.0477848313748836
1769250478751,-0.0437164306640625,0.0080718994140625,-0.9996185302734376,-0.0507723651826381,0.0223937220871448,-0.0443759858608245
1769250478761,-0.0467681884765625,-0.0079498291015625,-0.9944610595703124,-0.0527676083147525,0.016515327617526,-0.0413724742829799
1769250478771,-0.0401458740234375,-0.017059326171875,-0.9933624267578124,-0.050630684942007,-0.0004852279380429,-0.0407223962247371
1769250478781,-0.0328216552734375,-0.01312255859375,-1.000457763671875,-0.038953524082899,-0.0013699301052838,-0.0296867899596691
1769250478791,-0.031341552734375,-0.0239105224609375,-0.999481201171875,-0.0270662382245063,0.0007595335482619,-0.0226102378219366
1769250478801,-0.034942626953125,-0.019439697265625,-0.9929046630859376,-0.0170892383903265,-0.0031710257753729,-0.012662798166275
1769250478811,-0.0308685302734375,-0.0025482177734375,-0.987945556640625,-0.0135749308392405,-0.0164213180541992,-0.0045204497873783
1769250478821,-0.0382843017578125,-0.006439208984375,-0.9919281005859376,-0.0009712548344396,-0.0131104756146669,-0.0092148035764694
1769250478831,-0.043182373046875,0.0039520263671875,-0.990692138671875,0.0147342048585414,-0.0086044073104858,-0.010498447343707
1769250478841,-0.043426513671875,0.0063629150390625,-0.987762451171875,0.0096036251634359,-0.0099804624915122,-0.014813301153481
1769250478851,-0.0477752685546875,-0.0198516845703125,-0.9892730712890624,-0.000199204441742,-0.0175808575004339,-0.0184767451137304
1769250478861,-0.0441131591796875,-0.021881103515625,-0.9906463623046876,-0.0043808999471366,-0.0121903531253337,-0.0134252617135643
1769250478871,-0.04010009765625,-0.004241943359375,-0.988372802734375,-0.0113818179816007,-0.0126428240910172,-0.0078826900571584
1769250478881,-0.04193115234375,-6.103515625e-05,-0.9965057373046876,-0.0139331258833408,-0.0191414710134267,-0.0031577101908624
1769250478891,-0.0440826416015625,-0.008453369140625,-1.00103759765625,-0.0134726651012897,-0.0235141143202781,-0.0021102889440953
1769250478901,-0.0474700927734375,-0.0096893310546875,-0.9962005615234376,-0.0139102227985858,-0.0145720187574625,-0.0059255333617329
1769250478911,-0.047882080078125,-0.002716064453125,-0.9909515380859376,-0.0227449927479028,0.0005555353709496,-0.0072392709553241
1769250478921,-0.0426788330078125,0.00128173828125,-0.9955902099609376,-0.0334269329905509,0.0071077104657888,-0.0037236318457871
1769250478931,-0.039886474609375,-0.006805419921875,-0.999053955078125,-0.0287520196288824,0.0010572749888524,0.0003427488263696
1769250478942,-0.043243408203125,-0.01080322265625,-1.0028076171875,-0.0123362950980663,-0.0127677265554666,0.0026620957069098
1769250478952,-0.0468597412109375,-0.0074005126953125,-1.0025482177734375,-0.0010564760304987,-0.0254579558968544,0.0054304515942931
1769250478962,-0.0488739013671875,-0.005462646484375,-1.0044708251953125,0.0115413414314389,-0.0229362081736326,0.0076810889877378
1769250478972,-0.044830322265625,-0.002410888671875,-1.0042877197265625,0.0226957257837057,-0.0143158221617341,0.0106936572119593
1769250478982,-0.043670654296875,0.00311279296875,-1.004486083984375,0.0257754046469926,0.0030543794855475,0.0123424204066395
1769250478992,-0.04766845703125,-0.002685546875,-1.004302978515625,0.0366331115365028,0.0076091839000582,0.0101149519905447
1769250479002,-0.0473785400390625,-0.0031890869140625,-1.0019378662109375,0.044612742960453,0.0048994175158441,0.0083988113328814
1769250479012,-0.0511932373046875,-0.001953125,-0.9974517822265624,0.0502386689186096,0.0070382021367549,0.0005049353349022
1769250479022,-0.0525665283203125,-0.007354736328125,-0.999969482421875,0.0518791750073432,0.0136825228109955,-0.0033321471419185
1769250479032,-0.0504302978515625,-0.022613525390625,-0.9946746826171876,0.043308325111866,0.0092185316607356,-0.0076078521087765
1769250479042,-0.0437164306640625,-0.023468017578125,-0.9925384521484376,0.0335113555192947,0.0256084240972995,-0.0038807583041489
1769250479052,-0.03656005859375,0.012298583984375,-0.9869384765625,0.0255690086632967,0.0367686673998832,-0.0004966795677319
1769250479062,-0.044586181640625,0.0223846435546875,-0.981048583984375,0.0303858686238527,0.0255279969424009,-0.0091895032674074
1769250479072,-0.059661865234375,-0.0144805908203125,-0.9882659912109376,0.0437107272446155,0.0105261439457535,-0.0138862542808055
1769250479082,-0.056396484375,-0.03265380859375,-0.989715576171875,0.0473195798695087,0.0030463899020105,-0.0156865511089563
1769250479092,-0.0472564697265625,-0.010162353515625,-0.9884796142578124,0.0414965786039829,0.019144132733345,-0.0136910444125533
1769250479102,-0.038818359375,-0.00238037109375,-0.9810638427734376,0.0203675888478755,0.0242619290947914,-0.0132220620289444
1769250479112,-0.044097900390625,-0.023406982421875,-0.9809722900390624,0.0078323567286133,0.0293424427509307,-0.0256736725568771
1769250479122,-0.0484161376953125,-0.0020751953125,-0.988800048828125,0.0160910859704017,0.0378762744367122,-0.0193417407572269
1769250479133,-0.046966552734375,0.0002593994140625,-0.98785400390625,0.0272697042673826,0.0174807235598564,-0.0152607122436165
1769250479143,-0.06036376953125,-0.0112152099609375,-0.990966796875,0.0383263491094112,-0.014158695936203,-0.0155179733410477
1769250479153,-0.056793212890625,-0.0161895751953125,-0.98223876953125,0.0260792709887027,-0.0445858426392078,-0.0078243669122457
1769250479163,-0.050567626953125,-0.0249786376953125,-0.9762115478515624,-0.0057915765792131,-0.0479451566934585,-0.0057918424718081
1769250479173,-0.048248291015625,-0.0325927734375,-0.981231689453125,-0.0413524992763996,-0.0256076250225305,-0.0058557586744427
1769250479183,-0.043548583984375,-0.023162841796875,-0.99066162109375,-0.070485882461071,-0.0027419906109571,-0.0056376457214355
1769250479193,-0.040740966796875,-0.0101165771484375,-0.995208740234375,-0.08743317425251,-0.0076291575096547,-0.003001382574439
1769250479203,-0.047332763671875,-0.0059051513671875,-0.9989013671875,-0.0955129414796829,-0.015532087534666,-0.0016639430541545
1769250479213,-0.0525970458984375,-0.01055908203125,-1.0019683837890625,-0.0930346027016639,-0.0132976956665515,-0.0022572954185307
1769250479223,-0.0552978515625,-0.00927734375,-1.0029754638671875,-0.0819382742047309,-0.0028338697738945,-0.0035766253713518
1769250479233,-0.05810546875,-0.0034027099609375,-1.0078582763671875,-0.0686501637101173,-0.0035760926548391,-0.0052594766020774
1769250479243,-0.0575714111328125,-0.00836181640625,-1.0112762451171875,-0.0529857203364372,-0.0098576908931136,-0.0101959118619561
1769250479253,-0.0551605224609375,-0.0137176513671875,-1.0090789794921875,-0.034779816865921,-0.0053798519074916,-0.01259755063802
1769250479263,-0.04974365234375,-0.0083160400390625,-1.0103912353515625,-0.0229652374982833,0.0023819312918931,-0.0172397065907716
1769250479273,-0.0475921630859375,-0.012664794921875,-1.00885009765625,-0.0057486994192004,0.0009345032158307,-0.0170681998133659
1769250479283,-0.0446624755859375,-0.0096893310546875,-1.0068206787109375,0.0103383911773562,0.0043790359050035,-0.0156572572886943
1769250479293,-0.043548583984375,-0.0052642822265625,-1.0036773681640625,0.0212877113372087,-0.0034040524624288,-0.017698036506772
1769250479303,-0.043731689453125,-0.011260986328125,-1.0043487548828125,0.034676220268011,-0.0038362834602594,-0.0193603821098804
1769250479313,-0.0436859130859375,0.0004119873046875,-1.0001678466796875,0.0518115311861038,0.0079737706109881,-0.0198698453605175
1769250479323,-0.042755126953125,-0.00286865234375,-0.990936279296875,0.056252621114254,0.0015907060587778,-0.0207228548824787
1769250479333,-0.048095703125,-0.0215606689453125,-0.9951934814453124,0.0631784349679946,-0.0064730793237686,-0.0226073078811168
1769250479343,-0.044586181640625,-0.01788330078125,-0.99444580078125,0.0625920072197914,-0.0043883565813302,-0.0187246855348348
1769250479354,-0.043975830078125,-0.0093231201171875,-0.987274169921875,0.057275541126728,-0.0008578042034059,-0.014190386980772
1769250479364,-0.043365478515625,-0.004791259765625,-0.989990234375,0.0489600859582424,0.0064528393559157,-0.0065569686703383
1769250479374,-0.045501708984375,-0.0093536376953125,-0.9906768798828124,0.0382152944803237,0.00505973957479,-0.0043390882201492
1769250479384,-0.04931640625,-0.012725830078125,-0.9911651611328124,0.0302804075181484,0.0039001994300633,-0.0020061591640114
1769250479394,-0.0418548583984375,-0.013214111328125,-0.996978759765625,0.0232965350151062,0.0072706961072981,0.0078310249373316
1769250479404,-0.0363922119140625,-0.0157012939453125,-0.9949951171875,0.0146987847983837,0.0032738239970058,0.0133911725133657
1769250479414,-0.0387725830078125,-0.0179901123046875,-0.9892425537109376,0.0039414782077074,-0.0057692057453095,0.0210810508579015
1769250479424,-0.04144287109375,-0.0203704833984375,-0.984344482421875,-0.0093349125236272,-0.0091468933969736,0.0234070550650358
1769250479434,-0.0474395751953125,-0.012603759765625,-0.9880828857421876,-0.0177728720009326,-0.0074834828265011,0.0254494342952966
1769250479444,-0.0527801513671875,-0.0037841796875,-0.989990234375,-0.0332615487277507,-0.013774667866528,0.0301190204918384
1769250479454,-0.055023193359375,-0.009918212890625,-0.9936370849609376,-0.0374083593487739,-0.0205204542726278,0.0274515971541404
1769250479464,-0.05377197265625,-0.008056640625,-0.995391845703125,-0.0418830029666423,-0.004431233741343,0.0262145604938268
1769250479474,-0.052886962890625,-0.002960205078125,-0.9974517822265624,-0.0459555089473724,0.0073039857670664,0.0183172225952148
1769250479484,-0.0531005859375,-0.008087158203125,-1.0010833740234375,-0.0466159731149673,0.0029220203869044,0.0148529820144176
1769250479494,-0.0504608154296875,-0.0123138427734375,-1.0001678466796875,-0.0417343974113464,0.0033688987605273,0.0115258945152163
1769250479504,-0.054168701171875,-0.0075836181640625,-0.997467041015625,-0.0434358902275562,0.0007827030494809,0.0069250175729393
1769250479514,-0.050048828125,-0.0170745849609375,-0.9957733154296876,-0.0493782013654708,-0.0038866172544658,0.0105916578322649
1769250479524,-0.045440673828125,-0.030975341796875,-1.0030670166015625,-0.050724696367979,0.0118508003652095,0.0076848175376653
1769250479534,-0.0415496826171875,0.005096435546875,-1.0034637451171875,-0.0396126583218574,0.0273669101297855,0.0059234029613435
1769250479544,-0.04290771484375,0.023193359375,-1.0025482177734375,-0.0188956595957279,0.0295626856386661,0.0041390848346054
1769250479555,-0.0547027587890625,-0.0067901611328125,-1.0062408447265625,0.0036205674987286,0.0220091622322797,-0.0011973571963608
1769250479564,-0.0577239990234375,-0.0234375,-0.997650146484375,0.0146063733845949,0.0030455910600721,-0.0023750071413815
1769250479575,-0.051422119140625,-0.0283050537109375,-1.00152587890625,0.01503327768296,0.0191137734800577,-0.0118569256737828
1769250479585,-0.043548583984375,-0.0174407958984375,-1.003662109375,0.0108656967058777,0.0331539586186409,-0.0139738721773028
1769250479595,-0.0380401611328125,-0.0168914794921875,-1.000701904296875,0.0109913982450962,0.0498884618282318,-0.0139395175501704
1769250479605,-0.0388946533203125,0.0104217529296875,-1.0044708251953125,0.0269879419356584,0.0641917660832405,-0.0099953757598996
1769250479615,-0.050628662109375,0.013336181640625,-1.002655029296875,0.0580012500286102,0.0434220433235168,-0.0173006933182477
1769250479625,-0.0598297119140625,0.000518798828125,-1.0021820068359375,0.0895418673753738,0.0123900901526212,-0.0233926735818386
1769250479635,-0.057373046875,-0.0087127685546875,-0.9983978271484376,0.1074649393558502,-0.0036727653350681,-0.0308710969984531
1769250479645,-0.05084228515625,-0.020904541015625,-1.00299072265625,0.1157409772276878,-0.0069612367078661,-0.0255381166934967
1769250479655,-0.04034423828125,-0.0361785888671875,-1.001922607421875,0.1074753254652023,-0.0121291009709239,-0.0146854687482118
1769250479665,-0.033447265625,-0.0330810546875,-0.9991455078125,0.0907863602042198,-0.0185862015932798,-0.0035031221341341
1769250479675,-0.032012939453125,-0.021697998046875,-0.986419677734375,0.0716025456786155,-0.0282329693436622,0.0070872041396796
1769250479685,-0.0374298095703125,-0.020965576171875,-0.9801177978515624,0.0435197800397872,-0.0196370836347341,0.0093745933845639
1769250479695,-0.0460662841796875,-0.0217132568359375,-0.9815826416015624,0.0257993731647729,-0.0085916239768266,0.0097399791702628
1769250479705,-0.0536346435546875,-0.0157928466796875,-0.9866943359375,0.0146987847983837,-0.0031111047137528,0.0100422473624348
1769250479716,-0.056793212890625,-0.009063720703125,-0.98583984375,0.0078126490116119,-0.0031340080313384,0.0107783451676368
1769250479725,-0.0577392578125,-0.019256591796875,-0.9847259521484376,-0.0045516085810959,-0.0090158656239509,0.012411662377417
1769250479735,-0.054168701171875,-0.0291900634765625,-0.9808502197265624,-0.0208525508642196,-0.0083402218297123,0.0131213944405317
1769250479745,-0.050323486328125,-0.0284423828125,-0.9777374267578124,-0.0511167123913764,-0.0171840470284223,0.0163992140442132
1769250479756,-0.0507965087890625,-0.028564453125,-0.9761199951171876,-0.0747298970818519,-0.0261240117251873,0.0191225614398717
1769250479765,-0.0554962158203125,-0.0248565673828125,-0.98602294921875,-0.0887282714247703,-0.0347334779798984,0.011142399162054
1769250479776,-0.05731201171875,-0.0133819580078125,-0.9886474609375,-0.0996791869401931,-0.0361481495201587,0.0043910201638937
1769250479786,-0.05615234375,-0.006683349609375,-0.99267578125,-0.0899842157959938,-0.0146889314055442,-0.0049628005363047
1769250479796,-0.05499267578125,-0.00146484375,-0.9951171875,-0.0651129558682441,0.0088235856965184,-0.0084510091692209
1769250479806,-0.04705810546875,-0.0109100341796875,-0.997344970703125,-0.0412720739841461,0.010006827302277,-0.0097186733037233
1769250479816,-0.0350494384765625,-0.0265045166015625,-0.9940338134765624,-0.0254827234894037,0.0025576998014003,0.0006495449924841
1769250479826,-0.0264129638671875,-0.031005859375,-0.9849700927734376,-0.0232967995107173,-0.0206418950110673,0.018932145088911
1769250479836,-0.0238494873046875,-0.027557373046875,-0.9847412109375,-0.0159669816493988,-0.0379055701196193,0.0304540451616048
1769250479846,-0.0305023193359375,-0.0239715576171875,-0.99334716796875,-0.0109146991744637,-0.0389769598841667,0.0431828908622264
1769250479856,-0.0461883544921875,-0.0300750732421875,-0.9939727783203124,-0.0039587887004017,-0.0369231291115284,0.045157890766859
1769250479866,-0.0564117431640625,-0.0264892578125,-0.988525390625,-0.0066160908900201,-0.0397708490490913,0.0456287376582622
1769250479876,-0.0611114501953125,-0.0142974853515625,-0.988677978515625,-0.0142260733991861,-0.034024279564619,0.0418292060494422
1769250479886,-0.0636138916015625,-0.0084381103515625,-0.996002197265625,-0.025217205286026,-0.0225172936916351,0.0375111550092697
1769250479896,-0.067596435546875,-0.0115966796875,-0.9960174560546876,-0.0322575382888317,-0.0197601225227117,0.0233812220394611
1769250479906,-0.069610595703125,-0.01043701171875,-0.9974212646484376,-0.0321584679186344,-0.0126098012551665,0.0060621537268161
1769250479916,-0.06689453125,-0.0081787109375,-0.999420166015625,-0.0299621596932411,-0.0078422101214528,-0.0095671396702528
1769250479926,-0.0648956298828125,-0.0154266357421875,-0.9987030029296876,-0.0242928229272365,-0.0121866250410676,-0.0208640024065971
1769250479936,-0.054718017578125,-0.0218505859375,-0.9964141845703124,-0.0191063173115253,-0.0234880149364471,-0.0205564070492982
1769250479947,-0.0429229736328125,-0.01837158203125,-0.9977874755859376,-0.0185720864683389,-0.0304878670722246,-0.0126902284100651
1769250479956,-0.03741455078125,-0.0162200927734375,-0.996917724609375,-0.0222493782639503,-0.0420907288789749,-0.0071172979660332
1769250479966,-0.0442047119140625,-0.0182952880859375,-0.9980926513671876,-0.0233311560004949,-0.0528347194194793,-0.0096885804086923
1769250479976,-0.0534820556640625,-0.00848388671875,-0.99951171875,-0.024631043896079,-0.0511105880141258,-0.0118691762909293
1769250479987,-0.062469482421875,-0.002471923828125,-1.003936767578125,-0.029102224856615,-0.0409314557909965,-0.0177574250847101
1769250479997,-0.071197509765625,-0.019683837890625,-1.0106964111328125,-0.0372365862131118,-0.0285067427903413,-0.0259692817926406
1769250480007,-0.065826416015625,-0.0256500244140625,-1.0139617919921875,-0.0342756807804107,0.0034011229872703,-0.0290284547954797
1769250480017,-0.0554351806640625,0.010650634765625,-1.016571044921875,-0.0199081934988498,0.0341846011579036,-0.0322133302688598
1769250480027,-0.0554351806640625,0.0174560546875,-1.0133514404296875,0.0066760121844708,0.0332780629396438,-0.0375132858753204
1769250480037,-0.0619659423828125,-0.009674072265625,-1.01324462890625,0.0415240079164505,0.0329638086259365,-0.0440646633505821
1769250480047,-0.0514373779296875,-0.0030670166015625,-1.0077362060546875,0.0561740547418594,0.0185936577618122,-0.0362781137228012
1769250480057,-0.043792724609375,-0.0231170654296875,-1.0043182373046875,0.0549972057342529,-0.0049084722995758,-0.0444771870970726
1769250480067,-0.0428619384765625,-0.0281829833984375,-1.0047149658203125,0.0565274581313133,-0.0059076901525259,-0.041724544018507
1769250480077,-0.0340423583984375,-0.0218048095703125,-0.995269775390625,0.0503289513289928,-0.003508182009682,-0.0397319644689559
1769250480087,-0.0410919189453125,-0.001434326171875,-1.00262451171875,0.0625877454876899,0.0288004893809556,-0.0366371050477027
1769250480097,-0.0511322021484375,0.0057220458984375,-0.9927978515625,0.0802634134888649,0.0256619546562433,-0.034386470913887
1769250480107,-0.0633087158203125,-0.0025787353515625,-0.9927825927734376,0.1054731607437133,0.0139288650825619,-0.0396890901029109
1769250480117,-0.0648651123046875,-0.00958251953125,-0.9933929443359376,0.1185591369867324,0.0037273601628839,-0.0373748019337654
1769250480127,-0.0582122802734375,-0.015777587890625,-0.984771728515625,0.1112959012389183,-0.0102094942703843,-0.0284196566790342
1769250480137,-0.052520751953125,-0.0244903564453125,-0.9771728515625,0.0901117846369743,-0.0224107671529054,-0.0233018603175878
1769250480147,-0.048248291015625,-0.02520751953125,-0.9803009033203124,0.0622391402721405,-0.0144559042528271,-0.0164889618754386
1769250480157,-0.0497894287109375,-0.0204620361328125,-0.9817047119140624,0.0348163023591041,0.0013283847365528,-0.0193230975419282
1769250480167,-0.05035400390625,-0.0173492431640625,-0.9776763916015624,0.0087884319946169,-0.0054112770594656,-0.0200085956603288
1769250480177,-0.0482177734375,-0.01202392578125,-0.9803619384765624,-0.0065902583301067,-0.0064608287066221,-0.0166945569217205
1769250480187,-0.0506134033203125,-0.0152130126953125,-0.98760986328125,-0.01890205219388,-0.0062959790229797,-0.0168183948844671
1769250480198,-0.0553131103515625,-0.0153656005859375,-0.9882354736328124,-0.0272646434605121,-0.0216174107044935,-0.016515327617526
1769250480208,-0.055206298828125,-0.0120086669921875,-0.985107421875,-0.0394006706774234,-0.0300519093871116,-0.0119975404813885
1769250480218,-0.054290771484375,-0.01641845703125,-0.99383544921875,-0.0495100282132625,-0.0174303892999887,-0.0075641763396561
1769250480228,-0.0555419921875,-0.024139404296875,-0.998931884765625,-0.0565460994839668,-0.0113325491547584,-0.0089615369215607
1769250480238,-0.056884765625,-0.0135955810546875,-0.999267578125,-0.056803360581398,-0.0048251152038574,-0.0043393545784056
1769250480248,-0.05841064453125,-0.014678955078125,-1.0063629150390625,-0.047906007617712,-0.0078259650617837,-0.0067902617156505
1769250480258,-0.05889892578125,-0.0132293701171875,-1.009979248046875,-0.0347923338413238,-0.019356919452548,-0.0141347274184226
1769250480268,-0.0576019287109375,0.000457763671875,-1.0146484375,-0.0121599938720464,-0.0265186931937932,-0.0196208395063877
1769250480278,-0.0570068359375,0.0020904541015625,-1.01239013671875,0.0106963198632001,-0.0262707527726888,-0.0171851124614477
1769250480288,-0.0538177490234375,-0.0131072998046875,-1.004058837890625,0.0247104056179523,-0.0332706049084663,-0.0121621238067746
1769250480298,-0.0514068603515625,-0.0190582275390625,-0.997650146484375,0.0309600457549095,-0.0187068413943052,-0.001651426195167
1769250480308,-0.049285888671875,-0.02093505859375,-0.98828125,0.0270936693996191,-0.0014442323008552,0.0120401512831449
1769250480318,-0.050079345703125,-0.022857666015625,-0.975738525390625,0.0155970687046647,0.0099817942827939,0.024449948221445
1769250480328,-0.05792236328125,-0.022064208984375,-0.9674224853515624,0.0061588264070451,0.0030818099621683,0.0309022553265094
1769250480338,-0.0602874755859375,-0.0209503173828125,-0.964141845703125,-0.0103394566103816,-0.0069143651053309,0.0363721214234828
1769250480348,-0.0586700439453125,-0.0234222412109375,-0.9642333984375,-0.0347198955714702,-0.0057308562099933,0.0462881363928318
1769250480358,-0.059478759765625,-0.021087646484375,-0.97137451171875,-0.0649813935160636,0.0061598913744091,0.0547015964984893
1769250480368,-0.0597686767578125,-0.022552490234375,-0.9706878662109376,-0.094878576695919,0.0046011433005332,0.0618204921483993
1769250480378,-0.0592041015625,-0.022430419921875,-0.9730682373046876,-0.1227450966835022,0.010979413986206,0.0667316243052482
1769250480388,-0.060546875,-0.0257568359375,-0.9816436767578124,-0.138787180185318,0.0199686475098133,0.0672219172120094
1769250480399,-0.062408447265625,-0.027740478515625,-0.988739013671875,-0.1458181887865066,0.0226097051054239,0.065320149064064
1769250480409,-0.0604400634765625,-0.02081298828125,-0.9947509765625,-0.1399610936641693,0.0143344644457101,0.0614748112857341
1769250480419,-0.06109619140625,-0.0160064697265625,-1.0084381103515625,-0.1248372718691825,0.0095447693020105,0.0544193014502525
1769250480429,-0.05352783203125,-0.0120697021484375,-1.0227203369140625,-0.1020017340779304,0.0083703156560659,0.04828417673707
1769250480439,-0.0541839599609375,-0.0062255859375,-1.0247344970703125,-0.0765826553106308,-0.0020727382507175,0.0404875054955482
1769250480449,-0.055389404296875,-0.003173828125,-1.02618408203125,-0.0494714118540287,-0.0028200212400406,0.0341979190707206
1769250480459,-0.056854248046875,-0.006378173828125,-1.0304107666015625,-0.0204799752682447,-0.0048325723037123,0.0260110944509506
1769250480469,-0.0610198974609375,-0.01397705078125,-1.0315704345703125,0.015138472430408,-0.0064573665149509,0.020668527111411
1769250480479,-0.0607147216796875,-0.025848388671875,-1.022308349609375,0.0355776995420455,-0.0246448926627635,0.0157035961747169
1769250480489,-0.059326171875,-0.02691650390625,-1.0188446044921875,0.0557559393346309,-0.0245317090302705,0.0072920015081763
1769250480499,-0.0546875,0.0033111572265625,-1.014984130859375,0.0772013142704963,-0.0052986252121627,0.0004756405542138
1769250480509,-0.0599517822265625,0.0092926025390625,-1.0050048828125,0.0977824851870536,-0.0127040771767497,-0.0106382630765438
1769250480519,-0.0688323974609375,-0.003143310546875,-1.0030517578125,0.1185612678527832,-0.0133131425827741,-0.0209468267858028
1769250480529,-0.0694732666015625,-0.007843017578125,-0.9878692626953124,0.1101328954100608,-0.0305334087461233,-0.0238906852900981
1769250480539,-0.0669403076171875,-0.0302581787109375,-0.974273681640625,0.0799014866352081,-0.048338770866394,-0.0360892936587333
1769250480549,-0.0607452392578125,-0.0350189208984375,-0.9764556884765624,0.0533782690763473,-0.0336881875991821,-0.03924061357975
1769250480559,-0.0524749755859375,-0.030517578125,-0.971099853515625,0.0226805452257394,-0.0389399416744709,-0.0428950041532516
1769250480569,-0.0541534423828125,-0.01617431640625,-0.972747802734375,0.0090195937082171,-0.0220291353762149,-0.0459014438092708
1769250480579,-0.05615234375,-0.004547119140625,-0.972076416015625,0.0049902312457561,-0.0196738354861736,-0.0493989735841751
1769250480589,-0.060546875,-0.006011962890625,-0.983856201171875,0.0036924728192389,-0.0288952980190515,-0.0468732342123985
1769250480600,-0.05926513671875,-0.0109710693359375,-0.9850311279296876,-0.0084744449704885,-0.0412968397140502,-0.0444500222802162
1769250480610,-0.060455322265625,-0.012939453125,-0.9817657470703124,-0.0271242950111627,-0.0315025337040424,-0.0348400063812732
1769250480620,-0.059326171875,-0.021240234375,-0.98504638671875,-0.0499145612120628,-0.023026755079627,-0.0302276778966188
1769250480630,-0.0556182861328125,-0.0248260498046875,-0.99169921875,-0.0641848444938659,-0.0077316891402006,-0.0274928770959377
1769250480640,-0.058349609375,-0.016937255859375,-0.999664306640625,-0.0706749707460403,-0.0008194546680897,-0.0239841621369123
1769250480650,-0.0572509765625,-0.0098724365234375,-1.00811767578125,-0.0673747807741165,-0.0046980823390185,-0.0180679503828287
1769250480660,-0.0549468994140625,-0.0044097900390625,-1.0205230712890625,-0.0568723380565643,0.0072632390074431,-0.0089807119220495
1769250480670,-0.0550994873046875,0.004241943359375,-1.0209197998046875,-0.0502554476261138,0.0293807927519083,-0.0052975597791373
1769250480680,-0.0606231689453125,0.0015411376953125,-1.01409912109375,-0.0347755588591098,0.0385884046554565,-0.0035686357878148
1769250480690,-0.062652587890625,-0.0020904541015625,-1.012420654296875,-0.0172972306609153,0.0304753519594669,-0.0026322684716433
1769250480700,-0.062896728515625,-0.0034332275390625,-1.014739990234375,0.0078781628981232,0.0246451590210199,-0.0034037861041724
1769250480710,-0.060546875,-0.006744384765625,-1.0191497802734375,0.0277522690594196,0.0211926363408565,-0.0023273364640772
1769250480720,-0.0562896728515625,-0.0090789794921875,-1.0151214599609375,0.0491832569241523,0.0203817039728164,-0.0002703108475543
1769250480730,-0.052825927734375,-0.00836181640625,-1.01171875,0.0652586296200752,0.0464452616870403,0.0011446266435086
1769250480740,-0.04974365234375,-0.0048065185546875,-1.006500244140625,0.0683755949139595,0.0431831553578376,0.0042674494907259
1769250480750,-0.051055908203125,-0.00177001953125,-1.001190185546875,0.0830275118350982,0.0412686094641685,0.0036059201229363
1769250480760,-0.0540771484375,-0.00372314453125,-0.995147705078125,0.0962580889463424,0.0332668758928775,0.0031036478467285
1769250480770,-0.0583343505859375,-0.014801025390625,-0.9891357421875,0.1025695204734802,0.0168263837695121,0.0025217472575604
1769250480780,-0.0543975830078125,-0.021087646484375,-0.98284912109375,0.1012800186872482,0.001008006511256,0.0082411523908376
1769250480790,-0.052642822265625,-0.017852783203125,-0.977264404296875,0.083130307495594,-0.0026109630707651,0.0147123672068119
1769250480800,-0.052947998046875,-0.0190887451171875,-0.9804534912109376,0.0628239661455154,0.0149107724428176,0.0192647743970155
1769250480810,-0.051300048828125,-0.0175628662109375,-0.9784698486328124,0.0391980037093162,0.0137064913287758,0.0281384270638227
1769250480821,-0.057098388671875,-0.0189208984375,-0.9709320068359376,0.0194053892046213,0.0060688112862408,0.0302322041243314
1769250480831,-0.063507080078125,-0.01837158203125,-0.968048095703125,-0.0045659895986318,0.0014506238512694,0.03228709846735
1769250480841,-0.0637969970703125,-0.0210113525390625,-0.96856689453125,-0.0294188745319843,0.0049873017705976,0.0326258540153503
1769250480851,-0.0644989013671875,-0.022918701171875,-0.9737548828125,-0.0508895441889762,0.0062600262463092,0.0286803804337978
1769250480861,-0.063446044921875,-0.020233154296875,-0.976715087890625,-0.0693082362413406,-0.0039840890094637,0.030885212123394
1769250480871,-0.057220458984375,-0.0135040283203125,-0.9833221435546876,-0.0869535431265831,-0.0045598642900586,0.0360783748328685
1769250480881,-0.061767578125,-0.016998291015625,-0.983917236328125,-0.1033727303147316,-0.0077854851260781,0.0294817257672548
1769250480891,-0.063232421875,-0.022918701171875,-0.9883880615234376,-0.1097235679626464,-0.0121613247320055,0.0298500414937734
1769250480901,-0.064208984375,-0.024688720703125,-0.9992828369140624,-0.1043905839323997,-0.0171877760440111,0.0249050837010145
1769250480911,-0.06256103515625,-0.0163116455078125,-1.00567626953125,-0.0978261604905128,-0.0188860725611448,0.0238645859062671
1769250480921,-0.0612335205078125,-0.0090179443359375,-1.0126953125,-0.0880776643753051,-0.0200131218880414,0.0248179975897073
1769250480931,-0.06109619140625,-0.0106353759765625,-1.015106201171875,-0.0781696364283561,-0.0200306996703147,0.0267666336148977
1769250480941,-0.0607757568359375,-0.0063934326171875,-1.017974853515625,-0.0627209022641182,-0.0005267732776701,0.0256015006452798
1769250480951,-0.0606689453125,-0.01409912109375,-1.018798828125,-0.0515271052718162,0.0112934010103344,0.024542361497879
1769250480961,-0.0587615966796875,-0.0353546142578125,-1.012969970703125,-0.0484777875244617,-0.0054677361622452,0.0258955135941505
1769250480971,-0.0569305419921875,-0.0271759033203125,-1.023468017578125,-0.0235191751271486,0.0252414401620626,0.0232243631035089
1769250480981,-0.051422119140625,-0.0009307861328125,-1.0181121826171875,0.0037489319220185,0.0316021330654621,0.0171116087585687
1769250480992,-0.0625457763671875,0.0056304931640625,-1.010528564453125,0.0340290740132331,0.0017094830982387,0.0138401817530393
1769250481001,-0.07073974609375,-0.0148773193359375,-1.010528564453125,0.0583139061927795,-0.0140918502584099,0.0086768446490168
1769250481012,-0.0709381103515625,-0.0302734375,-1.01336669921875,0.073293924331665,0.0014759238110855,-0.0048094023950397
1769250481022,-0.0658721923828125,-0.0164031982421875,-1.00750732421875,0.0763648152351379,0.0211886428296566,-0.0171286538243293
1769250481032,-0.05682373046875,-0.0088043212890625,-1.001068115234375,0.0769541710615158,0.0337467789649963,-0.0223721507936716
1769250481042,-0.0557861328125,-0.01934814453125,-1.0,0.080450102686882,0.0344519838690757,-0.0300851985812187
1769250481052,-0.060333251953125,-0.00018310546875,-1.00115966796875,0.1034249290823936,0.0347691662609577,-0.0302820056676864
1769250481062,-0.062225341796875,-0.001983642578125,-0.99365234375,0.1291292160749435,-0.0059247342869639,-0.0303658954799175
1769250481072,-0.067962646484375,-0.0131378173828125,-0.99212646484375,0.1430184096097946,-0.0322290435433387,-0.0301885288208723
1769250481082,-0.0669097900390625,-0.01727294921875,-0.982666015625,0.1338531374931335,-0.0210336465388536,-0.0289741270244121
1769250481092,-0.06298828125,-0.0303192138671875,-0.9802703857421876,0.1092812195420265,0.0028972530271857,-0.0259423851966857
1769250481102,-0.0595550537109375,-0.033111572265625,-0.9741058349609376,0.0824727714061737,0.0054472298361361,-0.0266822110861539
1769250481112,-0.0613861083984375,-0.022369384765625,-0.9718780517578124,0.0562454275786876,-0.0031886028591543,-0.0290090143680572
1769250481122,-0.0576324462890625,-0.0180816650390625,-0.97296142578125,0.0286755859851837,0.0017893778858706,-0.0275695752352476
1769250481132,-0.0594940185546875,-0.0202789306640625,-0.974884033203125,0.0019877834711223,0.0080909496173262,-0.0298793353140354
1769250481142,-0.058807373046875,-0.01873779296875,-0.9805145263671876,-0.0093982955440878,0.0096084186807274,-0.0293869171291589
1769250481152,-0.059967041015625,-0.012451171875,-0.9816741943359376,-0.0190293509513139,0.0121599938720464,-0.0246925633400678
1769250481162,-0.0624847412109375,-0.0166015625,-0.9885406494140624,-0.0231194347143173,0.0195356179028749,-0.0247841756790876
1769250481172,-0.0636138916015625,-0.0225677490234375,-0.9930877685546876,-0.0239311661571264,0.0219260714948177,-0.0250331815332174
1769250481182,-0.0590667724609375,-0.025909423828125,-0.9917144775390624,-0.0295757353305816,0.0216120854020118,-0.0211620107293128
1769250481192,-0.0537567138671875,-0.0273895263671875,-0.9900665283203124,-0.0335590243339538,0.0202019400894641,-0.0168839078396558
1769250481202,-0.0536346435546875,-0.024322509765625,-0.98651123046875,-0.0343316085636615,0.016847688704729,-0.0137261981144547
1769250481212,-0.056396484375,-0.0251007080078125,-0.9891357421875,-0.0352879501879215,0.0131983598694205,-0.0143046369776129
1769250481223,-0.05181884765625,-0.0240478515625,-0.993560791015625,-0.0318130552768707,0.0045241778716444,-0.0129107385873794
1769250481232,-0.049102783203125,-0.02020263671875,-0.9999237060546876,-0.0179068278521299,0.0074222297407686,-0.0120119219645857
1769250481243,-0.0538482666015625,-0.0174407958984375,-0.9934234619140624,-0.0065023740753531,-0.0063321981579065,-0.014951785095036
1769250481253,-0.0555267333984375,-0.028839111328125,-0.992401123046875,-0.0003430151555221,-0.0210200641304254,-0.0151709634810686
1769250481263,-0.053955078125,-0.0338287353515625,-0.9984130859375,-0.0032043154351413,-0.014469220302999,-0.0157869532704353
1769250481273,-0.0536956787109375,-0.02294921875,-0.995697021484375,-0.0097213368862867,-0.009999637492001,-0.0141051663085818
1769250481283,-0.0553131103515625,-0.0185394287109375,-0.9896392822265624,-0.0148689607158303,-0.0104268081486225,-0.0152319492772221
1769250481293,-0.0605010986328125,-0.022735595703125,-0.9927978515625,-0.0149192949756979,-0.009318932890892,-0.0234438069164752
1769250481303,-0.0632171630859375,-0.02349853515625,-0.996978759765625,-0.0122172515839338,-0.0165933575481176,-0.0283869002014398
1769250481313,-0.0656280517578125,-0.02288818359375,-0.999603271484375,-0.0060099554248154,-0.0204584039747715,-0.031919315457344
1769250481323,-0.06317138671875,-0.0198974609375,-1.0020904541015625,-0.0016889767721295,-0.0186650305986404,-0.0331161431968212
1769250481333,-0.058502197265625,-0.01727294921875,-1.0033111572265625,-0.0029241507872939,-0.0113328155130147,-0.0274148471653461
1769250481343,-0.05438232421875,-0.0161590576171875,-1.0018768310546875,-0.0023763386998325,-0.0106507800519466,-0.0210070144385099
1769250481353,-0.0513153076171875,-0.018768310546875,-1.0040740966796875,-0.0048067392781376,-0.0178250689059495,-0.0112065821886062
1769250481363,-0.0517120361328125,-0.0199432373046875,-1.00616455078125,0.0049058091826736,-0.0303879994899034,-0.006238454952836
1769250481373,-0.05474853515625,-0.0228271484375,-1.0082550048828125,0.0136995669454336,-0.0335385203361511,0.0029904635157436
1769250481383,-0.055755615234375,-0.0211334228515625,-1.0064849853515625,0.0218126215040683,-0.0326431654393672,0.0081894863396883
1769250481393,-0.057464599609375,-0.020233154296875,-1.0017547607421875,0.0253849849104881,-0.0156314242631196,0.0116705046966671
1769250481403,-0.0547637939453125,-0.0208282470703125,-1.0003204345703125,0.0248227920383214,-0.0013353090034797,0.0140492394566535
1769250481413,-0.057647705078125,-0.0193328857421875,-0.99859619140625,0.0247466247528791,0.0009459548164159,0.0135461688041687
1769250481423,-0.060821533203125,-0.0181427001953125,-0.9925384521484376,0.0232605822384357,0.0039699743501842,0.0087657943367958
1769250481434,-0.0629119873046875,-0.0240325927734375,-0.9931182861328124,0.0145256798714399,0.0009097357979044,0.0032197616528719
1769250481444,-0.05816650390625,-0.0384521484375,-0.9974517822265624,0.0063641560263931,0.0034402713645249,-0.0021584921050816
1769250481454,-0.05328369140625,-0.0219879150390625,-1.0013427734375,0.0099706090986728,0.0138188768178224,-0.0020908478181809
1769250481464,-0.0462646484375,0.00799560546875,-0.99505615234375,0.0205124653875827,-0.0016405072528868,-0.0012665993999689
1769250481474,-0.0590667724609375,-0.00518798828125,-1.0039825439453125,0.0449320562183856,-0.0234166420996189,-0.0105991149321198
1769250481484,-0.0709228515625,-0.0415496826171875,-1.0084075927734375,0.0656711533665657,-0.0287565477192401,-0.0206847712397575
1769250481494,-0.0622406005859375,-0.026519775390625,-1.0028533935546875,0.0764167457818985,0.0065415226854383,-0.0237319618463516
1769250481504,-0.046173095703125,-0.009857177734375,-0.9933929443359376,0.0715887024998664,0.0311848167330026,-0.0168535485863685
1769250481514,-0.040374755859375,-0.0282745361328125,-0.98883056640625,0.0659143030643463,0.0261865966022014,-0.0147861363366246
1769250481524,-0.0427093505859375,-0.0243072509765625,-0.9911346435546876,0.0773318037390708,0.0354235060513019,-0.0119405491277575
1769250481534,-0.0460205078125,-0.005096435546875,-0.98907470703125,0.0987910255789756,0.0183915235102176,-0.0048288437537848
1769250481544,-0.055877685546875,-0.02008056640625,-0.9859619140625,0.1199911162257194,-0.0246414300054311,-0.0021680793724954
1769250481554,-0.0648345947265625,-0.031005859375,-0.9805145263671876,0.1236819922924041,-0.0483616739511489,0.0033073797821998
1769250481564,-0.0595245361328125,-0.0369873046875,-0.9736480712890624,0.1062755733728408,-0.0423828773200511,0.0099088232964277
1769250481574,-0.052947998046875,-0.0455169677734375,-0.97174072265625,0.0749791711568832,-0.0350844822824001,0.013252954930067
1769250481584,-0.0501251220703125,-0.0464019775390625,-0.97186279296875,0.0492154844105243,-0.0362741164863109,0.0141437817364931
1769250481594,-0.0463714599609375,-0.0335845947265625,-0.9770355224609376,0.0305086411535739,-0.0359553359448909,0.0159619227051734
1769250481604,-0.049713134765625,-0.026275634765625,-0.9858245849609376,0.0149882705882191,-0.0369886457920074,0.0120918164029717
1769250481614,-0.058197021484375,-0.034149169921875,-0.9989776611328124,0.0121453460305929,-0.0382981188595294,0.014094247482717
1769250481625,-0.052978515625,-0.030029296875,-1.0055389404296875,0.0163584668189287,-0.0498152263462543,0.0238294322043657
1769250481635,-0.0511932373046875,-0.0220947265625,-1.0027313232421875,0.0130803817883133,-0.0601120740175247,0.0305509846657514
1769250481644,-0.05694580078125,-0.0314483642578125,-0.9988861083984376,0.0042730420827865,-0.0624652430415153,0.0316372886300087
1769250481655,-0.063232421875,-0.0398406982421875,-0.996429443359375,-0.0012817793758586,-0.0699971914291381,0.027360251173377
1769250481665,-0.06878662109375,-0.041229248046875,-1.0040283203125,-0.0009379653492942,-0.0895578488707542,0.0229921340942382
1769250481675,-0.0702056884765625,-0.03472900390625,-1.0113067626953125,-0.0026106967125087,-0.1032265201210975,0.0242885611951351
1769250481685,-0.0731353759765625,-0.0345001220703125,-1.0044403076171875,-0.0023393207229673,-0.089570365846157,0.022187327966094
1769250481695,-0.0772552490234375,-0.0356292724609375,-1.001953125,-0.0015331818722188,-0.0826099216938018,0.0212435033172369
1769250481705,-0.0745391845703125,-0.0379180908203125,-0.9975433349609376,0.0058522964827716,-0.0827140510082244,0.0220312662422657
1769250481715,-0.0760498046875,-0.0268402099609375,-0.99639892578125,0.0180495735257864,-0.0494618266820907,0.022544989362359
1769250481725,-0.0796661376953125,-0.0164031982421875,-0.994720458984375,0.0335323922336101,-0.0382917299866676,0.0207710582762956
1769250481735,-0.0821533203125,-0.03173828125,-0.992156982421875,0.0413202755153179,-0.0398323684930801,0.0141760064288973
1769250481745,-0.082855224609375,-0.047088623046875,-0.9831695556640624,0.0362251140177249,-0.0257437136024236,0.0152167696505784
1769250481755,-0.073699951171875,-0.0380096435546875,-0.968841552734375,0.017129186540842,-0.0210554841905832,0.0238438136875629
1769250481765,-0.069915771484375,-0.0384674072265625,-0.9691619873046876,0.0078222369775176,-0.0220839977264404,0.0323241166770458
1769250481775,-0.069793701171875,-0.049285888671875,-0.9785919189453124,0.0054725296795368,-0.0308223608881235,0.040505614131689
1769250481785,-0.0689697265625,-0.047119140625,-0.9810943603515624,0.0074909394606947,-0.0243972185999155,0.0497252121567726
1769250481795,-0.071807861328125,-0.0481109619140625,-0.98297119140625,-0.0025497104506939,-0.0246651321649551,0.0543652363121509
1769250481805,-0.0796051025390625,-0.0515289306640625,-0.988037109375,-0.0108513161540031,-0.0296236723661422,0.0504408031702041
1769250481815,-0.0854949951171875,-0.05120849609375,-0.9860382080078124,-0.0196075234562158,-0.0232288893312215,0.0488192029297351
1769250481825,-0.0837249755859375,-0.0435638427734375,-0.987152099609375,-0.027359452098608,0.0033827472943812,0.0465576499700546
1769250481836,-0.0891265869140625,-0.0399627685546875,-0.9896392822265624,-0.0279384236782789,0.01424977555871,0.0408981628715992
1769250481845,-0.0926513671875,-0.0343170166015625,-1.0014190673828125,-0.0067018447443842,0.0144356647506356,0.0311837512999773
1769250481856,-0.0950469970703125,-0.0250396728515625,-1.01458740234375,0.0202847644686698,0.0032812808640301,0.0212267246097326
1769250481866,-0.0981903076171875,-0.027923583984375,-1.017669677734375,0.0460359342396259,-0.0087543427944183,0.0105884624645113
1769250481876,-0.09368896484375,-0.032073974609375,-1.01141357421875,0.0559607371687889,-0.0056935721077024,0.0006796387024223
1769250481886,-0.0967559814453125,-0.033233642578125,-1.0058135986328125,0.0632601976394653,-0.0118846222758293,-0.0158617869019508
1769250481896,-0.0978240966796875,-0.0328369140625,-1.00091552734375,0.0708888173103332,-0.0231721643358469,-0.0332815237343311
1769250481906,-0.0960845947265625,-0.0337982177734375,-0.99847412109375,0.0771672204136848,-0.0310157071799039,-0.0519742518663406
1769250481916,-0.0995330810546875,-0.045654296875,-0.99615478515625,0.0712866932153701,-0.0315842926502227,-0.0713868290185928
1769250481926,-0.0937347412109375,-0.0566864013671875,-0.99444580078125,0.0573783367872238,-0.0103285377845168,-0.0850440561771392
1769250481936,-0.0849761962890625,-0.0205841064453125,-0.9909210205078124,0.0462106391787529,0.0131940990686416,-0.0926958471536636
1769250481946,-0.0809173583984375,0.0027008056640625,-0.9892425537109376,0.0484841801226139,0.0218608230352401,-0.0969675555825233
1769250481956,-0.092071533203125,-0.0261688232421875,-0.989166259765625,0.0527372471988201,0.0016732640797272,-0.1100849583745002
1769250481966,-0.092864990234375,-0.0502471923828125,-0.9892425537109376,0.0524709299206733,-0.0277357567101717,-0.117879495024681
1769250481976,-0.0729522705078125,-0.044677734375,-0.9849090576171876,0.039188414812088,-0.0240150541067123,-0.1149068772792816
1769250481986,-0.0622100830078125,-0.0368804931640625,-0.9871368408203124,0.0329036228358745,-0.0113818179816007,-0.1082068979740142
1769250481996,-0.0554656982421875,-0.0508880615234375,-0.984161376953125,0.0222421884536743,-0.0267418660223484,-0.1034747287631034
1769250482006,-0.0522613525390625,-0.0323944091796875,-0.9859161376953124,0.0339166894555091,0.0016522251535207,-0.0918308570981025
1769250482016,-0.0517730712890625,-0.0187835693359375,-0.9805145263671876,0.0398265086114406,0.0101690143346786,-0.0747203081846237
1769250482026,-0.0646209716796875,-0.0363006591796875,-0.9847259521484376,0.0559519492089748,-0.016471117734909,-0.0605879798531532
1769250482036,-0.0666351318359375,-0.03955078125,-0.984283447265625,0.0636149272322654,-0.0259250737726688,-0.0410321205854415
1769250482047,-0.063446044921875,-0.045257568359375,-0.9746246337890624,0.0528602860867977,-0.0299893245100975,-0.0265583731234073
1769250482057,-0.0583953857421875,-0.053497314453125,-0.96990966796875,0.0298202130943536,-0.0257913842797279,-0.0079727051779627
1769250482067,-0.049163818359375,-0.05133056640625,-0.9733734130859376,0.0084086647257208,-0.0114768929779529,0.0090598072856664
1769250482077,-0.051177978515625,-0.0519561767578125,-0.9696807861328124,-0.013866014778614,0.0035209653433412,0.0267210938036441
1769250482087,-0.0497894287109375,-0.043731689453125,-0.9693450927734376,-0.0331853851675987,0.0198317617177963,0.0477582029998302
1769250482097,-0.051849365234375,-0.0427398681640625,-0.9751739501953124,-0.0527550913393497,0.0306330099701881,0.0639528855681419
1769250482107,-0.0616912841796875,-0.04949951171875,-0.97198486328125,-0.0629323571920394,0.0384951941668987,0.0804322585463523
1769250482117,-0.065643310546875,-0.0478668212890625,-0.9681549072265624,-0.0742428079247474,0.0518376305699348,0.0896294862031936
1769250482127,-0.072540283203125,-0.0504150390625,-0.969512939453125,-0.0837681367993354,0.0637765824794769,0.0952064096927642
1769250482137,-0.0752716064453125,-0.0592803955078125,-0.9807586669921876,-0.0883620828390121,0.0646692737936973,0.0949131995439529
1769250482147,-0.0751953125,-0.0586395263671875,-0.9883575439453124,-0.0840957015752792,0.0591504052281379,0.0993470922112464
1769250482157,-0.073760986328125,-0.0493316650390625,-0.9946441650390624,-0.0858592465519905,0.0486620776355266,0.1044422537088394
1769250482167,-0.0803070068359375,-0.0592498779296875,-1.0008392333984375,-0.0870440900325775,0.0516328327357769,0.0983635857701301
1769250482177,-0.086090087890625,-0.0611724853515625,-1.0018463134765625,-0.0903216376900672,0.063858076930046,0.0847537666559219
1769250482187,-0.0888214111328125,-0.050048828125,-1.003082275390625,-0.0863125175237655,0.0541228912770748,0.0699135735630989
1769250482197,-0.0896759033203125,-0.0374755859375,-1.0067291259765625,-0.0712483450770378,0.0463547147810459,0.0595783740282058
1769250482207,-0.0841827392578125,-0.038055419921875,-1.0069580078125,-0.0605072863399982,0.0271685048937797,0.0503787510097026
1769250482217,-0.0847015380859375,-0.0484619140625,-1.010284423828125,-0.0512501373887062,0.0186522472649812,0.042063295841217
1769250482227,-0.07916259765625,-0.0458526611328125,-1.0102386474609375,-0.050012033432722,0.0306178294122219,0.036974262446165
1769250482237,-0.0743865966796875,-0.041717529296875,-1.0134124755859375,-0.0388347469270229,0.0267847422510385,0.0314788296818733
1769250482247,-0.08062744140625,-0.0379486083984375,-1.017486572265625,-0.0162016060203313,0.024490961804986,0.0156993344426155
1769250482258,-0.08538818359375,-0.035186767578125,-1.0224456787109375,0.010611898265779,0.0227372702211141,0.0057841194793581
1769250482267,-0.085906982421875,-0.03857421875,-1.0189056396484375,0.0312945395708084,0.0113336145877838,-0.005936718545854
1769250482277,-0.083953857421875,-0.0398101806640625,-1.0108489990234375,0.04592115432024,0.0060821273364126,-0.0081455446779727
1769250482288,-0.075836181640625,-0.039886474609375,-1.00531005859375,0.0482924319803714,0.0059449742548167,-0.009517871774733
1769250482298,-0.0713958740234375,-0.0390167236328125,-0.9962310791015624,0.0479209199547767,-0.0055763931013643,-0.0110822124406695
1769250482308,-0.069427490234375,-0.03759765625,-0.9903106689453124,0.0451981052756309,-0.0055412393994629,-0.0125203188508749
1769250482318,-0.0680389404296875,-0.0322265625,-0.99102783203125,0.0415367893874645,0.0040599890053272,-0.0124894268810749
1769250482328,-0.070159912109375,-0.033782958984375,-0.9944000244140624,0.0430968701839447,-0.0017238641157746,-0.008544486016035
1769250482338,-0.072479248046875,-0.036285400390625,-0.989349365234375,0.0438809059560298,-0.0115429386496543,-0.0078406129032373
1769250482348,-0.0708770751953125,-0.0343170166015625,-0.983795166015625,0.0407090783119201,-0.0163432862609624,-0.0045454832725226
1769250482358,-0.06939697265625,-0.0335693359375,-0.98028564453125,0.0305296797305345,-0.0150143690407276,-0.0029401297215372
1769250482368,-0.068267822265625,-0.03314208984375,-0.9742279052734376,0.0182298701256513,-0.0068238177336752,-0.0063204802572727
1769250482378,-0.071563720703125,-0.0334320068359375,-0.9744873046875,0.0072390045970678,0.0029068402945995,-0.0153922718018293
1769250482388,-0.0748138427734375,-0.0376434326171875,-0.975738525390625,-0.0025656893849372,-0.0094291884452104,-0.0251349136233329
1769250482398,-0.07763671875,-0.0485382080078125,-0.9734649658203124,-0.0203817039728164,-0.0269242916256189,-0.0306167658418416
1769250482409,-0.0740966796875,-0.045654296875,-0.9754638671875,-0.0405812487006187,-0.0194879472255706,-0.0412526316940784
1769250482418,-0.075225830078125,-0.0141754150390625,-0.9769134521484376,-0.052715141326189,-0.0072983927093446,-0.0518373660743236
1769250482428,-0.0782623291015625,-0.0086669921875,-0.977691650390625,-0.0557367652654647,-0.0141890561208128,-0.0697021186351776
1769250482438,-0.0906982421875,-0.0288543701171875,-0.9877777099609376,-0.0420036427676677,0.0036932716611772,-0.0879423692822456
1769250482448,-0.084503173828125,-0.0324554443359375,-0.9899749755859376,-0.0465667024254798,-0.004227768164128,-0.0936588495969772
1769250482458,-0.073638916015625,-0.046630859375,-0.9886474609375,-0.0667665153741836,-0.0198195111006498,-0.1031583398580551
1769250482469,-0.0648345947265625,-0.045013427734375,-0.989654541015625,-0.0830096676945686,-0.0179715435951948,-0.104939728975296
1769250482479,-0.0587005615234375,-0.044830322265625,-0.986236572265625,-0.0991255193948745,-0.0295946430414915,-0.1039157435297966
1769250482489,-0.0615997314453125,-0.0233917236328125,-0.9889984130859376,-0.0956724658608436,-0.0118707744404673,-0.1024864241480827
1769250482499,-0.0677947998046875,-0.0194549560546875,-0.9927825927734376,-0.0753240510821342,-0.0111045828089118,-0.1065040752291679
1769250482509,-0.073760986328125,-0.0301971435546875,-1.0035247802734375,-0.0524155385792255,-0.0227543152868747,-0.1056880801916122
1769250482519,-0.0739593505859375,-0.036468505859375,-1.0068359375,-0.0358741097152233,-0.0262039061635732,-0.0993276536464691
1769250482529,-0.0656280517578125,-0.0451812744140625,-1.0014801025390625,-0.0261471811681985,-0.0295227374881505,-0.086454726755619
1769250482539,-0.0606536865234375,-0.048553466796875,-0.9965667724609376,-0.0274721048772335,-0.0275378841906785,-0.0705133154988288
1769250482549,-0.0550079345703125,-0.0432891845703125,-0.9952850341796876,-0.0329941697418689,-0.0288686659187078,-0.0549761652946472
1769250482559,-0.0577239990234375,-0.0418548583984375,-0.9960174560546876,-0.0404832437634468,-0.0174618139863014,-0.0414286665618419
1769250482569,-0.0598297119140625,-0.0375823974609375,-1.004608154296875,-0.0452447086572647,0.0008090683259069,-0.0280188508331775
1769250482579,-0.0619659423828125,-0.027008056640625,-1.0152130126953125,-0.0374219417572021,0.0036815537605434,-0.0144401919096708
1769250482589,-0.065032958984375,-0.023040771484375,-1.017822265625,-0.0233902782201766,-0.0040812944062054,-0.0055851815268397
1769250482599,-0.0720062255859375,-0.0294036865234375,-1.0150909423828125,-0.0075500616803765,-0.0070901336148381,0.0018991001415997
1769250482609,-0.0744781494140625,-0.0343475341796875,-1.0072784423828125,0.005869606975466,-0.0046104644425213,0.0039734365418553
1769250482619,-0.0773162841796875,-0.0350341796875,-1.006683349609375,0.0154697699472308,-0.0021451762877404,0.0063319317996501
1769250482629,-0.0804595947265625,-0.0389404296875,-1.0068206787109375,0.0226363372057676,0.0038040592335164,0.0028985845856368
1769250482639,-0.0791015625,-0.03436279296875,-1.0079803466796875,0.0322223864495754,0.0026328009553253,0.0021124193444848
1769250482649,-0.080596923828125,-0.0357208251953125,-1.0081329345703125,0.0454995743930339,-0.0006082659820094,-0.0052560148760676
1769250482659,-0.0776519775390625,-0.02960205078125,-1.004669189453125,0.0505521222949028,-0.0098819257691502,-0.0163605976849794
1769250482669,-0.074981689453125,-0.019439697265625,-0.99945068359375,0.0553157180547714,-0.0095927063375711,-0.0308252908289432
1769250482680,-0.071380615234375,-0.0202178955078125,-0.9938201904296876,0.0558494180440902,-0.0082153193652629,-0.034793134778738
1769250482690,-0.069488525390625,-0.0332489013671875,-0.9921417236328124,0.0561540834605693,-0.0073244920931756,-0.0355798304080963
1769250482700,-0.070770263671875,-0.0419769287109375,-0.9949493408203124,0.0551042631268501,-0.0130380373448133,-0.0394137203693389
1769250482710,-0.0714874267578125,-0.0374298095703125,-0.99163818359375,0.0548605844378471,-0.0138894505798816,-0.0355060622096061
1769250482720,-0.0668487548828125,-0.0292510986328125,-0.9921417236328124,0.0504900701344013,-0.0148077085614204,-0.0288537517189979
1769250482730,-0.070465087890625,-0.0360260009765625,-0.9904632568359376,0.050761979073286,-0.0217244699597358,-0.0236861538141965
1769250482740,-0.065338134765625,-0.0418548583984375,-0.9854583740234376,0.0504908710718154,-0.0275219045579433,-0.0101841939613223
1769250482750,-0.0656585693359375,-0.04608154296875,-0.9859619140625,0.0479416921734809,-0.0192224308848381,-0.0024003069847822
1769250482760,-0.0706939697265625,-0.046173095703125,-0.9815521240234376,0.0324700586497783,-0.010865431278944,0.0024913870729506
1769250482770,-0.0696563720703125,-0.0386505126953125,-0.976806640625,0.0144023746252059,-0.0146271456032991,0.0059979711659252
1769250482780,-0.07012939453125,-0.038330078125,-0.9777984619140624,-0.005339637864381,-0.0204355008900165,0.0128422956913709
1769250482790,-0.0669708251953125,-0.03826904296875,-0.9770355224609376,-0.0223977174609899,-0.0189646370708942,0.0215130150318145
1769250482805,-0.0693359375,-0.0401458740234375,-0.9821319580078124,-0.0440846383571624,-0.0100214751437306,0.0379958525300025
1769250482810,-0.0739898681640625,-0.0364837646484375,-0.985565185546875,-0.0440846383571624,-0.0100214751437306,0.0379958525300025
1769250482820,-0.076751708984375,-0.0378265380859375,-0.9897308349609376,-0.04973666369915,0.0013233247445896,0.0502133704721927
1769250482830,-0.07647705078125,-0.0361480712890625,-0.987152099609375,-0.0559660643339157,-0.001839711680077,0.0569109544157981
1769250482840,-0.0826873779296875,-0.0379486083984375,-0.987274169921875,-0.0612947829067707,-0.0017901768442243,0.0607472360134124
1769250482850,-0.083740234375,-0.0374298095703125,-0.991180419921875,-0.0642929673194885,-0.0023443805985152,0.0566028244793415
1769250482860,-0.0862274169921875,-0.0390167236328125,-0.9939727783203124,-0.0696629658341407,-0.0038016624748706,0.0494077615439891
1769250482870,-0.08941650390625,-0.0499725341796875,-0.99456787109375,-0.0711085274815559,-0.0104417223483324,0.0415642224252224
1769250482880,-0.0882720947265625,-0.064910888671875,-1.0009918212890625,-0.0718704611063003,-0.0012205267557874,0.031600534915924
1769250482891,-0.08477783203125,-0.0317535400390625,-0.9998931884765624,-0.0708952099084854,0.0238637868314981,0.0230696331709623
1769250482900,-0.081787109375,-0.0009765625,-0.9983673095703124,-0.0647952407598495,0.021343370899558,0.0107525130733847
1769250482911,-0.09210205078125,-0.02166748046875,-1.0084075927734375,-0.0406142733991146,0.0162151884287595,-0.0038338867016136
1769250482921,-0.0999755859375,-0.0370635986328125,-1.0098876953125,-0.0176359843462705,0.0180924516171216,-0.0205569397658109
1769250482931,-0.0941009521484375,-0.040924072265625,-1.005462646484375,-0.0171126741915941,-0.0110108396038413,-0.033761691302061
1769250482941,-0.0876617431640625,-0.04949951171875,-1.0088958740234375,-0.0115788914263248,0.0136388465762138,-0.0435237735509872
1769250482951,-0.078125,-0.0492401123046875,-1.002960205078125,-0.0208304468542337,0.0156636480242013,-0.0510621182620525
1769250482961,-0.0697784423828125,-0.0408477783203125,-0.999237060546875,-0.0073708309791982,0.0145171573385596,-0.0509992688894271
1769250482971,-0.0684051513671875,-0.023406982421875,-1.002655029296875,0.0138508342206478,0.0027955202385783,-0.0520016811788082
1769250482982,-0.0727996826171875,-0.024017333984375,-1.0025482177734375,0.0402672626078128,-0.0208733230829238,-0.0498469173908233
1769250482991,-0.078582763671875,-0.033660888671875,-1.0042724609375,0.065372884273529,-0.0361321717500686,-0.0482642017304897
1769250483001,-0.0800628662109375,-0.044342041015625,-1.0005035400390625,0.0799374431371688,-0.0308268889784812,-0.0430087186396122
1769250483011,-0.0732879638671875,-0.048553466796875,-0.99591064453125,0.0774306058883667,-0.0093218628317117,-0.0330642089247703
1769250483021,-0.067657470703125,-0.0501251220703125,-0.989715576171875,0.06763656437397,0.0021781993564218,-0.0221050363034009
1769250483031,-0.0624237060546875,-0.040985107421875,-0.987152099609375,0.0531305968761444,0.0101053649559617,-0.0098856538534164
1769250483041,-0.0643310546875,-0.036590576171875,-0.9910430908203124,0.0428800880908966,0.0139424474909901,-0.0010894992155954
1769250483051,-0.0676727294921875,-0.037567138671875,-0.9962615966796876,0.042243592441082,0.0113035207614302,0.008159658871591
1769250483061,-0.0725250244140625,-0.0353546142578125,-0.9945831298828124,0.0424329452216625,0.0040501351468265,0.0132492259144783
1769250483071,-0.07537841796875,-0.034881591796875,-0.99432373046875,0.0414457097649574,-0.0014037522487342,0.0194959361106157
1769250483081,-0.0778045654296875,-0.035125732421875,-0.99169921875,0.0290020909160375,-0.0012769857421517,0.0209947638213634
1769250483092,-0.08111572265625,-0.03759765625,-0.9877471923828124,0.0137573573738336,0.0114454673603177,0.0204496141523122
1769250483101,-0.08172607421875,-0.041778564453125,-0.9870147705078124,0.0014048174489289,0.0209332443773746,0.0137874512001872
1769250483111,-0.08624267578125,-0.045501708984375,-0.9899139404296876,-0.001717206207104,0.0166857689619064,0.0042312303557991
1769250483122,-0.084503173828125,-0.0423431396484375,-0.9904022216796876,-0.0019760655704885,0.0090504866093397,0.001292964676395
1769250483132,-0.083404541015625,-0.0413360595703125,-0.9892578125,-0.003401655703783,0.0120316287502646,-0.0062584285624325
1769250483142,-0.0800933837890625,-0.0348052978515625,-0.9981689453125,0.002772883279249,0.011502725072205,-0.0171670019626617
1769250483152,-0.0741119384765625,-0.0292205810546875,-1.0009613037109375,0.0098174773156642,0.0134204672649502,-0.0213582850992679
1769250483162,-0.0771942138671875,-0.0326080322265625,-0.9956817626953124,0.0119424136355519,0.0045936866663396,-0.0266276150941848
1769250483172,-0.0748748779296875,-0.0387725830078125,-0.9979400634765624,0.0177640840411186,0.003001915058121,-0.0256784651428461
1769250483182,-0.0732269287109375,-0.0476531982421875,-0.9988861083984376,0.0222749449312686,-0.0007483482477255,-0.0233189053833484
1769250483192,-0.070892333984375,-0.0454559326171875,-0.992767333984375,0.0250752586871385,-0.003508981084451,-0.0188149660825729
1769250483202,-0.069580078125,-0.0395050048828125,-0.9932403564453124,0.0269320160150527,-0.0023957795929163,-0.0151222273707389
1769250483212,-0.070831298828125,-0.039947509765625,-0.9935455322265624,0.0271831508725881,-0.0026069683954119,-0.0158383511006832
1769250483222,-0.0738372802734375,-0.0486907958984375,-0.9895172119140624,0.0281837005168199,-0.0006210491410456,-0.0147637659683823
1769250483232,-0.077667236328125,-0.04656982421875,-0.99102783203125,0.0275456067174673,0.0069641661830246,-0.0189630389213562
1769250483242,-0.0768890380859375,-0.04400634765625,-0.993194580078125,0.0253932401537895,0.0058054248802363,-0.0174610149115324
1769250483252,-0.074859619140625,-0.0440673828125,-0.9919891357421876,0.0160655193030834,-0.0014777880860492,-0.0158482044935226
1769250483262,-0.0712432861328125,-0.039337158203125,-0.986083984375,0.0040751690976321,0.002094842493534,-0.0134260598570108
1769250483272,-0.0672149658203125,-0.0408935546875,-0.9894866943359376,-0.000688160827849,-0.0029901971574872,-0.0048442902043461
1769250483282,-0.068878173828125,-0.0433197021484375,-0.9884185791015624,-0.0057164751924574,-0.0169616732746362,0.0018128136871382
1769250483292,-0.0740814208984375,-0.041534423828125,-0.98809814453125,-0.0079596554860472,-0.008021174930036,0.0052070124074816
1769250483303,-0.07635498046875,-0.0430450439453125,-0.996307373046875,-0.0141312656924128,0.0071306135505437,0.0088592711836099
1769250483313,-0.075653076171875,-0.04327392578125,-0.9920654296875,-0.0194477345794439,0.0052695968188345,0.0123275062069296
1769250483323,-0.079254150390625,-0.03997802734375,-0.989227294921875,-0.0207058116793632,0.0042927493341267,0.0177286639809608
1769250483333,-0.0794219970703125,-0.0365753173828125,-0.993316650390625,-0.0208091419190168,0.0030730215366929,0.0212861131876707
1769250483343,-0.0825958251953125,-0.0395660400390625,-0.994476318359375,-0.0228163655847311,-0.0008266451768577,0.0250984281301498
1769250483353,-0.0851898193359375,-0.0571746826171875,-0.9919281005859376,-0.0318852290511131,-0.0009145294898189,0.0272513274103403
1769250483363,-0.0791778564453125,-0.048736572265625,-0.997772216796875,-0.031431958079338,0.0434263050556182,0.0284433588385581
1769250483373,-0.0718231201171875,-0.009918212890625,-1.00238037109375,-0.0261714160442352,0.0542376711964607,0.0307818800210952
1769250483383,-0.07635498046875,-0.0137786865234375,-1.006011962890625,0.0005110605852678,0.0232848152518272,0.0250502247363328
1769250483393,-0.1025238037109375,-0.039642333984375,-1.0004119873046875,0.0266888681799173,0.0219633560627698,0.0050829090178012
1769250483403,-0.090362548828125,-0.038726806640625,-0.9984130859375,0.0344828777015209,0.0231189019978046,0.0033068470656871
1769250483413,-0.0723114013671875,-0.0451202392578125,-0.995697021484375,0.0324431620538234,0.009401224553585,-0.0039888825267553
1769250483423,-0.0797119140625,-0.041656494140625,-0.9952850341796876,0.0380075685679912,0.0195302926003932,-0.0126183237880468
1769250483433,-0.0753173828125,-0.0467376708984375,-0.9920806884765624,0.0374600253999233,0.0112630408257246,-0.0186621006578207
1769250483443,-0.07373046875,-0.03912353515625,-1.003265380859375,0.0583450645208358,0.0224283430725336,-0.019947875291109
1769250483453,-0.0709381103515625,-0.0294342041015625,-0.999114990234375,0.0766353905200958,0.0004008057294413,-0.018637066707015
1769250483463,-0.06982421875,-0.031707763671875,-0.9917144775390624,0.082859992980957,-0.0221204813569784,-0.0108712902292609
1769250483473,-0.065093994140625,-0.0467376708984375,-0.983734130859375,0.0782386139035224,-0.0392014645040035,0.0002045307774096
1769250483483,-0.065521240234375,-0.0615692138671875,-0.97625732421875,0.0571820624172687,-0.0481347739696502,0.010161024518311
1769250483494,-0.071807861328125,-0.0691375732421875,-0.9700927734375,0.0263855345547199,-0.052842441946268,0.0110137686133384
1769250483503,-0.07421875,-0.062713623046875,-0.974761962890625,-0.0014048174489289,-0.0486184023320674,0.0129357725381851
1769250483514,-0.0737457275390625,-0.05078125,-0.986053466796875,-0.0248720608651638,-0.0381766818463802,0.0152697665616869
1769250483524,-0.07794189453125,-0.047332763671875,-0.9912109375,-0.044736310839653,-0.0276681128889322,0.0142820002511143
1769250483534,-0.081207275390625,-0.04736328125,-0.9891357421875,-0.0600183308124542,-0.0141693484038114,0.0149155659601092
1769250483544,-0.079833984375,-0.04290771484375,-0.98748779296875,-0.0733272135257721,-0.0067929248325526,0.0174389109015464
1769250483554,-0.08502197265625,-0.04254150390625,-0.99212646484375,-0.0768433809280395,-0.0059162122197449,0.0139624206349253
1769250483564,-0.0877685546875,-0.0509490966796875,-0.9983978271484376,-0.0739368051290512,-0.0131227262318134,0.0067106331698596
1769250483574,-0.0838165283203125,-0.0567474365234375,-1.0065155029296875,-0.0670836940407753,-0.0138529650866985,0.0057010287418961
1769250483584,-0.08172607421875,-0.05340576171875,-1.006256103515625,-0.0591221749782562,-0.008559132926166,0.0035350800026208
1769250483594,-0.0736541748046875,-0.04583740234375,-1.0054931640625,-0.0530943758785724,0.0051087420433759,0.009066198952496
1769250483604,-0.0735015869140625,-0.0496368408203125,-1.0098114013671875,-0.0435581281781196,0.0111205615103244,0.0133693348616361
1769250483614,-0.0715179443359375,-0.0482330322265625,-1.0098876953125,-0.0289110094308853,0.018149709329009,0.0122199142351746
1769250483625,-0.074188232421875,-0.039154052734375,-1.0111236572265625,-0.0078211715444922,0.0317201130092144,0.0091136032715439
1769250483634,-0.07879638671875,-0.044342041015625,-1.00762939453125,0.0200346950441598,0.031394675374031,0.0070259515196084
1769250483644,-0.0789031982421875,-0.0584869384765625,-1.0090179443359375,0.045566152781248,0.0144026409834623,0.0080294301733374
1769250483654,-0.0769805908203125,-0.0579071044921875,-1.0067291259765625,0.0606500320136547,0.0146833388134837,0.011429488658905
1769250483664,-0.071624755859375,-0.0485076904296875,-0.9992523193359376,0.0591589286923408,0.0313011966645717,0.0167773813009262
1769250483674,-0.0753936767578125,-0.0442962646484375,-0.990478515625,0.0609760023653507,0.0386611074209213,0.0150162335485219
1769250483684,-0.0805511474609375,-0.0463104248046875,-0.993560791015625,0.0656639635562896,0.0331504978239536,0.0067223510704934
1769250483694,-0.08953857421875,-0.0501708984375,-0.9950408935546876,0.0709205120801925,0.0269562508910894,-0.0020980383269488
1769250483704,-0.09033203125,-0.0492095947265625,-0.9910736083984376,0.0703516602516174,0.0215300600975751,-0.0082565983757376
1769250483714,-0.0857391357421875,-0.0478515625,-0.9910736083984376,0.0674589350819587,0.0333251990377903,-0.0132116759195923
1769250483725,-0.0809783935546875,-0.0481719970703125,-0.9862823486328124,0.0515561364591121,0.0431634485721588,-0.0142713477835059
1769250483735,-0.076904296875,-0.048095703125,-0.9814910888671876,0.0411775298416614,0.0352903455495834,-0.0127381654456257
1769250483745,-0.0784912109375,-0.0488739013671875,-0.9853668212890624,0.0394723080098629,0.0251460988074541,-0.014444719068706
1769250483755,-0.0821685791015625,-0.0482635498046875,-0.990081787109375,0.0401649959385395,0.0226355381309986,-0.0180658195167779
1769250483765,-0.082427978515625,-0.04595947265625,-0.9918212890625,0.0379295386373996,0.0181539691984653,-0.0162830986082553
1769250483775,-0.0831451416015625,-0.04302978515625,-0.9855499267578124,0.0310769584029912,0.0209465604275465,-0.016760604456067
1769250483785,-0.084625244140625,-0.0478057861328125,-0.981536865234375,0.01646632514894,0.0253543592989444,-0.0208613388240337
1769250483795,-0.0801544189453125,-0.050262451171875,-0.978546142578125,0.0041281660087406,0.0274348203092813,-0.0225513819605112
1769250483805,-0.0756378173828125,-0.050201416015625,-0.98748779296875,0.0060674799606204,0.0161635242402553,-0.0247658006846904
1769250483815,-0.0739593505859375,-0.049591064453125,-0.993682861328125,0.0076246303506195,0.0060515007935464,-0.0222025066614151
1769250483825,-0.075836181640625,-0.06439208984375,-0.991790771484375,0.0013419669121503,-0.0003579288604669,-0.0245061423629522
1769250483835,-0.0804595947265625,-0.0782470703125,-0.99298095703125,-0.0036117790732532,0.0041409493423998,-0.0316676497459411
1769250483845,-0.0795745849609375,-0.04400634765625,-0.9905242919921876,-0.0056288572959601,0.0145259452983737,-0.0337387882173061
1769250483855,-0.07421875,-0.0172882080078125,-0.99322509765625,-0.0037270938046276,0.0133349802345037,-0.0363518819212913
1769250483865,-0.081512451171875,-0.0467987060546875,-0.99578857421875,-0.0011134676169604,-0.0006902913446538,-0.0374256670475006
1769250483875,-0.0819244384765625,-0.0703125,-0.994842529296875,0.0006306365248747,0.0064536384306848,-0.0415192134678363
1769250483885,-0.069366455078125,-0.0434417724609375,-0.9910736083984376,0.0045979474671185,0.025537583976984,-0.0379431210458278
1769250483895,-0.0644989013671875,-0.0443878173828125,-0.9851531982421876,5.273058923194185e-05,0.0337174832820892,-0.0449312552809715
1769250483905,-0.0682830810546875,-0.0711822509765625,-0.991851806640625,-0.0021643510553985,0.0262944549322128,-0.0472500696778297
1769250483915,-0.065643310546875,-0.0562896728515625,-0.9964447021484376,0.016226639971137,0.0311656426638364,-0.0430803596973419
1769250483926,-0.06488037109375,-0.0316925048828125,-0.9961700439453124,0.0387519225478172,0.0055228634737432,-0.0350376106798648
1769250483936,-0.0730438232421875,-0.048736572265625,-0.99432373046875,0.0623185001313686,-0.0181055013090372,-0.034073282033205
1769250483946,-0.0793914794921875,-0.0575103759765625,-0.993194580078125,0.069724217057228,-0.0186064410954713,-0.0272649098187685
1769250483956,-0.0709381103515625,-0.054901123046875,-0.9864654541015624,0.0617379322648048,-0.0214648116379976,-0.0154300890862941
1769250483966,-0.072509765625,-0.0638885498046875,-0.9842376708984376,0.0386435315012931,-0.0189167000353336,-0.0166823081672191
1769250483976,-0.077362060546875,-0.072998046875,-0.9810333251953124,0.0149195613339543,-0.0082291681319475,-0.0257245376706123
1769250483986,-0.0759735107421875,-0.057037353515625,-0.982208251953125,-0.0041012680158019,-0.0033902039285749,-0.0264020469039678
1769250483996,-0.0689849853515625,-0.04595947265625,-0.9833984375,-0.0295520331710577,0.0012599414912983,-0.0221356619149446
1769250484006,-0.066650390625,-0.04608154296875,-0.9887542724609376,-0.042003110051155,0.0045438855886459,-0.0152905397117137
1769250484016,-0.06903076171875,-0.0450897216796875,-0.9906158447265624,-0.0420598350465297,0.0002356897603021,-0.0146404616534709
1769250484026,-0.0775909423828125,-0.0470733642578125,-0.990081787109375,-0.0389769598841667,-0.0044530713930726,-0.015688681975007
1769250484036,-0.076873779296875,-0.053497314453125,-0.9908294677734376,-0.0381902605295181,-0.0079655144363641,-0.0184549074620008
1769250484046,-0.0729827880859375,-0.0564117431640625,-0.9925079345703124,-0.0353595875203609,0.0022754047531634,-0.0175803247839212
1769250484056,-0.0683441162109375,-0.0596771240234375,-0.9993133544921876,-0.0328682027757167,0.0044530713930726,-0.01662771217525
1769250484066,-0.0670013427734375,-0.06292724609375,-0.995697021484375,-0.0288867764174938,-0.0085578020662069,-0.0136159434914588
1769250484076,-0.0699920654296875,-0.061248779296875,-0.9929656982421876,-0.0244139973074197,-0.0041350903920829,-0.0121544003486633
1769250484086,-0.069976806640625,-0.051727294921875,-0.9950103759765624,-0.0256614219397306,0.0036354812327772,-0.01027687266469
1769250484096,-0.067413330078125,-0.0494842529296875,-0.998077392578125,-0.0261152237653732,0.0157994702458381,-0.0114467991515994
1769250484106,-0.065399169921875,-0.0401611328125,-0.9976654052734376,-0.010751980356872,0.0275807604193687,-0.006662696134299
1769250484116,-0.065765380859375,-0.036041259765625,-0.99615478515625,0.0067119649611413,0.0126084694638848,-0.0010921623324975
1769250484126,-0.0706939697265625,-0.0593414306640625,-0.99542236328125,0.0159741733223199,-0.0100401174277067,-0.0012492889072746
1769250484137,-0.07220458984375,-0.0623931884765625,-0.9935150146484376,0.0197172462940216,-0.0117751667276024,-3.0892668291926384e-05
1769250484147,-0.0706787109375,-0.0496063232421875,-0.99017333984375,0.0163219813257455,-0.0051534827798604,0.0044911550357937
1769250484157,-0.0743408203125,-0.0505828857421875,-0.987701416015625,0.0126729179173707,-0.0051817125640809,0.0035939358640462
1769250484167,-0.0792388916015625,-0.053558349609375,-0.9900665283203124,0.0110515858978033,-0.0087029440328478,-0.0048631983809173
1769250484177,-0.0815887451171875,-0.0528717041015625,-0.9895477294921876,0.008511196821928,-0.0089223887771368,-0.0070107714273035
1769250484187,-0.0797119140625,-0.0485992431640625,-0.9839630126953124,-0.0031989889685064,-0.0060184774920344,-0.0076099829748272
1769250484197,-0.074249267578125,-0.04718017578125,-0.98406982421875,-0.0184389278292655,-0.0012482235906645,-0.009500028565526
1769250484207,-0.0709686279296875,-0.049163818359375,-0.985504150390625,-0.0257751382887363,0.0013254552613943,-0.0100997723639011
1769250484217,-0.0722198486328125,-0.0471038818359375,-0.991119384765625,-0.0282228495925664,-0.0035981968976557,-0.009387376718223
1769250484227,-0.0747528076171875,-0.042144775390625,-0.9925079345703124,-0.0282947551459074,-0.0159241054207086,-0.0049667954444885
1769250484237,-0.07421875,-0.0469818115234375,-0.9873809814453124,-0.0344527810811996,-0.0179627556353807,0.0004452805442269
1769250484249,-0.072235107421875,-0.052398681640625,-0.9928741455078124,-0.0369942374527454,-0.0047870320267975,0.0016186692519113
1769250484257,-0.0725860595703125,-0.049896240234375,-0.997711181640625,-0.0354823619127273,0.0086795082315802,0.0053031528368592
1769250484267,-0.073577880859375,-0.04986572265625,-0.9950408935546876,-0.0343153625726699,0.0036043222062289,0.0099399825558066
1769250484277,-0.067657470703125,-0.0478973388671875,-0.9858551025390624,-0.037773210555315,0.0036093820817768,0.0165909603238105
1769250484287,-0.06939697265625,-0.045867919921875,-0.9897308349609376,-0.0400153249502182,0.0142551017925143,0.0159528665244579
1769250484297,-0.0754852294921875,-0.055419921875,-0.9959259033203124,-0.0445592105388641,0.016194149851799,0.009590309113264
1769250484307,-0.075836181640625,-0.074676513671875,-0.995880126953125,-0.0492564961314201,0.01106090657413,0.0081870900467038
1769250484317,-0.07550048828125,-0.0567779541015625,-1.001190185546875,-0.0381809398531913,0.0118888840079307,0.0001613875647308
1769250484334,-0.0748748779296875,-0.0204620361328125,-0.9972381591796876,-0.0255032293498516,0.0206631999462842,-0.0042815641500055
1769250484337,-0.0789794921875,-0.0353546142578125,-1.0001068115234375,-0.0255032293498516,0.0206631999462842,-0.0042815641500055
1769250484348,-0.086212158203125,-0.069976806640625,-1.0019683837890625,-0.0203137937933206,0.0259397216141223,-0.0183483809232711
1769250484358,-0.0780792236328125,-0.0498504638671875,-1.0025482177734375,-0.0060440441593527,0.0391617827117443,-0.0206877011805772
1769250484368,-0.0709991455078125,-0.0323944091796875,-0.9966583251953124,0.0030149647500365,0.0438481494784355,-0.0242238473147153
1769250484378,-0.0734100341796875,-0.0608673095703125,-0.99713134765625,0.0063825319521129,0.0360285751521587,-0.03281706944108
1769250484388,-0.072021484375,-0.061920166015625,-1.0080108642578125,0.0233748313039541,0.0529154129326343,-0.0376693494617939
1769250484398,-0.0690765380859375,-0.0337066650390625,-1.0027923583984375,0.0469051897525787,0.0451232679188251,-0.0336445122957229
1769250484408,-0.0691680908203125,-0.03729248046875,-0.992950439453125,0.0704914778470993,0.0128460237756371,-0.0256425123661756
1769250484418,-0.0788116455078125,-0.0468292236328125,-0.9889068603515624,0.0775059759616851,-0.011020160280168,-0.0194852836430072
1769250484428,-0.075653076171875,-0.0606536865234375,-0.98626708984375,0.0670996755361557,-0.0124425552785396,-0.013400494121015
1769250484438,-0.0724334716796875,-0.0692901611328125,-0.9840545654296876,0.0473214425146579,-0.0204285755753517,-0.0111013865098357
1769250484453,-0.0748443603515625,-0.0625,-0.97979736328125,0.0268846116960048,-0.0340338684618473,-0.0118547948077321
1769250484458,-0.074066162109375,-0.0557708740234375,-0.9887237548828124,0.0102664856240153,-0.0342471860349178,-0.0160053316503763
1769250484469,-0.077911376953125,-0.0538177490234375,-0.9947509765625,-0.0006934871198609,-0.0172298531979322,-0.027762122452259
1769250484478,-0.0810546875,-0.0476837158203125,-1.00018310546875,-0.002536660991609,-5.5393749789800495e-05,-0.0345779508352279
1769250484488,-0.075592041015625,-0.0431365966796875,-1.00494384765625,0.0082789687439799,0.0075636436231434,-0.029473204165697
1769250484498,-0.07354736328125,-0.0438079833984375,-1.001983642578125,0.0160649865865707,0.0057241981849074,-0.0257072281092405
1769250484508,-0.0774688720703125,-0.0473785400390625,-0.9910430908203124,0.0174503624439239,0.007783621083945,-0.0275796968489885
1769250484518,-0.076202392578125,-0.053436279296875,-0.988739013671875,0.0191129744052886,0.0058349859900772,-0.0283602681010961
1769250484528,-0.0743255615234375,-0.0625,-0.9904632568359376,0.0228885374963283,0.0001118527652579,-0.026388730853796
1769250484538,-0.072418212890625,-0.05914306640625,-0.9901580810546876,0.026664100587368,-0.0086443545296788,-0.0266832765191793
1769250484548,-0.07122802734375,-0.0589141845703125,-0.984619140625,0.0256015006452798,-0.0092033520340919,-0.025456890463829
1769250484559,-0.071319580078125,-0.06146240234375,-0.9782257080078124,0.0196650475263595,-0.0096190711483359,-0.0236741695553064
1769250484569,-0.064605712890625,-0.052276611328125,-0.975494384765625,0.0086526107043027,-0.012599148787558,-0.0215854533016681
1769250484579,-0.066864013671875,-0.050872802734375,-0.9860687255859376,0.0146902631968259,-0.0083751091733574,-0.0239894893020391
1769250484589,-0.0701141357421875,-0.0350341796875,-0.98565673828125,0.0219822637736797,-0.015542740933597,-0.0218389853835105
1769250484599,-0.0723724365234375,-0.044952392578125,-0.980804443359375,0.0220056995749473,-0.0336546339094638,-0.023583622649312
1769250484609,-0.076812744140625,-0.062896728515625,-0.989959716796875,0.0191731620579957,-0.0357417538762092,-0.0232872124761343
1769250484619,-0.0721282958984375,-0.0542144775390625,-0.9877166748046876,0.0138657484203577,-0.0244022794067859,-0.0193718336522579
1769250484629,-0.0718231201171875,-0.0507049560546875,-0.985931396484375,0.0058640143834054,-0.0241178534924983,-0.0184996481984853
1769250484639,-0.0771026611328125,-0.052520751953125,-0.9822235107421876,-0.007212106604129,-0.0280979480594396,-0.0218459106981754
1769250484649,-0.072662353515625,-0.0547637939453125,-0.9810028076171876,-0.0195055250078439,-0.0210062153637409,-0.0211769249290227
1769250484660,-0.0696868896484375,-0.0579833984375,-0.9832763671875,-0.024391358718276,-0.0148386005312204,-0.0188021827489137
1769250484669,-0.0675201416015625,-0.06109619140625,-0.98876953125,-0.0239775050431489,-0.0184730160981416,-0.0124457506462931
1769250484679,-0.066558837890625,-0.0604400634765625,-0.9875335693359376,-0.0257085599005222,-0.0163661893457174,-0.0059593557380139
1769250484689,-0.069580078125,-0.058441162109375,-0.98590087890625,-0.0343478545546531,-0.0116143114864826,-0.0009057410643436
1769250484699,-0.071929931640625,-0.0588836669921875,-0.98876953125,-0.038965243846178,-0.0077308900654315,0.0006170544074848
1769250484709,-0.078765869140625,-0.0584259033203125,-0.99090576171875,-0.0397298373281955,0.0009512811084277,-0.0020554277580231
1769250484719,-0.082794189453125,-0.0504302978515625,-0.994964599609375,-0.0373012982308864,0.0027875306550413,0.0002780340146273
1769250484729,-0.0786590576171875,-0.0373687744140625,-0.9960174560546876,-0.0369606800377368,-0.0117895472794771,0.0034858114086091
1769250484739,-0.066802978515625,-0.02362060546875,-0.995025634765625,-0.0470324903726577,-0.0021305289119482,0.0143027724698185
1769250484749,-0.0608062744140625,-0.0422515869140625,-1.0020751953125,-0.0511236377060413,0.0248278509825468,0.0186146963387727
1769250484760,-0.0579681396484375,-0.0589752197265625,-1.003875732421875,-0.0413367860019207,0.0400882959365844,0.027860127389431
1769250484770,-0.0638275146484375,-0.05987548828125,-0.9983062744140624,-0.0240845642983913,0.0192591827362775,0.0318929515779018
1769250484780,-0.07568359375,-0.0783233642578125,-0.9976806640625,-0.0171259902417659,-0.0036666402593255,0.0243894960731267
1769250484790,-0.0816650390625,-0.0705718994140625,-1.0030059814453125,-0.0008748483960516,0.0103072319179773,0.0230216961354017
1769250484800,-0.0746612548828125,-0.0316314697265625,-0.9947662353515624,0.0049963565543293,0.0026304041966795,0.0185419917106628
1769250484810,-0.0795440673828125,-0.03338623046875,-0.994781494140625,0.0190067142248153,-0.009671801701188,0.0205119326710701
1769250484820,-0.0888214111328125,-0.0711822509765625,-1.0048675537109375,0.038625955581665,-0.0035358788445591,0.0099109541624784
1769250484830,-0.0924835205078125,-0.0685272216796875,-0.99908447265625,0.0454891882836818,-0.0021750037558376,0.0012716593919321
1769250484840,-0.0866546630859375,-0.0506134033203125,-0.9931793212890624,0.0494636893272399,0.0062903864309191,-0.0085069350898265
1769250484850,-0.0824737548828125,-0.0550689697265625,-0.9911651611328124,0.0395242385566234,0.0041579934768378,-0.0186626333743333
1769250484860,-0.0798797607421875,-0.058349609375,-0.9904937744140624,0.0354488044977188,0.0137293944135308,-0.030402647331357
1769250484870,-0.0677642822265625,-0.02728271484375,-0.9998931884765624,0.0449176728725433,0.027754133567214,-0.0218831952661275
1769250484880,-0.0604095458984375,-0.0321197509765625,-0.98944091796875,0.0565658062696456,0.0040141828358173,-0.0107405288144946
1769250484890,-0.0738525390625,-0.0555267333984375,-0.9844818115234376,0.0703756287693977,-0.027732029557228,-0.0069990535266697
1769250484900,-0.0802764892578125,-0.0683746337890625,-0.985443115234375,0.0760396420955658,-0.053133524954319,-0.0026738136075437
1769250484910,-0.0750732421875,-0.0724639892578125,-0.982208251953125,0.0547037236392498,-0.064657025039196,0.0003749730822164
1769250484920,-0.07586669921875,-0.0737152099609375,-0.9792938232421876,0.0261751450598239,-0.0608937107026577,0.0038306908681988
1769250484930,-0.07501220703125,-0.07037353515625,-0.9828033447265624,0.0009097357979044,-0.0473707094788551,-2.0240024241502397e-05
1769250484940,-0.07977294921875,-0.0638275146484375,-0.98779296875,-0.0180266704410314,-0.0244451556354761,-0.0040919468738138
1769250484950,-0.0838470458984375,-0.054473876953125,-0.9910888671875,-0.0324918963015079,-0.0106957871466875,-0.0049430932849645
1769250484961,-0.0830078125,-0.0444793701171875,-0.993560791015625,-0.0352786295115947,-0.0138436434790492,-0.0007081345538608
1769250484971,-0.0852813720703125,-0.0448760986328125,-0.9979400634765624,-0.0352107174694538,-0.0218483079224824,-0.001816009520553
1769250484981,-0.0895538330078125,-0.0485382080078125,-0.9966583251953124,-0.0321334339678287,-0.0151573810726404,-0.0041084587574005
1769250484991,-0.0857696533203125,-0.05072021484375,-0.9990386962890624,-0.0270795542746782,-0.0033491912763565,-0.0071726916357874
1769250485001,-0.0863494873046875,-0.05621337890625,-0.998199462890625,-0.0265407972037792,-0.0063827983103692,-0.0125043401494622
1769250485011,-0.080535888671875,-0.054534912109375,-0.9944000244140624,-0.0231726970523595,-0.0054877097718417,-0.0152066498994827
1769250485021,-0.0741729736328125,-0.0564727783203125,-0.99346923828125,-0.0176077559590339,-0.0140556311234831,-0.0123173864558339
1769250485031,-0.07611083984375,-0.0658721923828125,-0.991790771484375,-0.0101495729759335,-0.0204706545919179,-0.0142612271010875
1769250485041,-0.07574462890625,-0.061279296875,-0.992767333984375,-0.0056011602282524,-0.0251162722706794,-0.0154844177886843
1769250485051,-0.074066162109375,-0.04925537109375,-0.9942474365234376,0.0035196337848901,-0.0180367901921272,-0.0179212093353271
1769250485061,-0.0783538818359375,-0.0428314208984375,-0.991241455078125,0.0126580046489834,-0.0072938655503094,-0.0210589468479156
1769250485071,-0.0848541259765625,-0.0537261962890625,-0.989044189453125,0.021893847733736,-0.0107719535008072,-0.0323427580296993
1769250485081,-0.0833740234375,-0.0635528564453125,-0.995513916015625,0.0281048715114593,-0.0168386343866586,-0.0325499549508094
1769250485091,-0.0762481689453125,-0.0527191162109375,-0.992095947265625,0.0298106260597705,-0.0161683168262243,-0.0307400692254304
1769250485101,-0.0763092041015625,-0.0440826416015625,-0.9915771484375,0.0315952114760875,-0.0025124261155724,-0.0232858806848526
1769250485111,-0.0741424560546875,-0.0524749755859375,-0.9958038330078124,0.0288265887647867,0.0116417426615953,-0.0206837076693773
1769250485121,-0.0762176513671875,-0.06256103515625,-0.98980712890625,0.0279384236782789,0.0071961274370551,-0.0185449216514825
1769250485131,-0.07489013671875,-0.05828857421875,-0.9892730712890624,0.0290857143700122,-0.0062286010943353,-0.0125757129862904
1769250485141,-0.0745391845703125,-0.063385009765625,-0.9890289306640624,0.0228520520031452,-0.0168745871633291,-0.012966132722795
1769250485151,-0.0748291015625,-0.066253662109375,-0.98193359375,0.0108382664620876,-0.0168178621679544,-0.011190602555871
1769250485162,-0.0714263916015625,-0.0622711181640625,-0.9816436767578124,-0.0019310581265017,-0.0113895405083894,-0.0071559138596057
1769250485171,-0.0729522705078125,-0.059844970703125,-0.9873809814453124,-0.0155414091423153,-0.0062203453853726,-0.0043236417695879
1769250485182,-0.0761871337890625,-0.0567169189453125,-0.99041748046875,-0.0206853039562702,-0.003458114573732,0.0036701022181659
1769250485192,-0.0763092041015625,-0.0551910400390625,-0.9907379150390624,-0.0257698111236095,-0.0022564963437616,0.0112193645909428
1769250485202,-0.0775604248046875,-0.0563812255859375,-0.9948883056640624,-0.0246606059372425,0.0007550061563961,0.020047478377819
1769250485212,-0.078155517578125,-0.0548553466796875,-1.000030517578125,-0.0197553280740976,-0.0001182443520519,0.0274452064186334
1769250485222,-0.0777587890625,-0.04736328125,-0.9974212646484376,-0.0207470897585153,-6.178533658385277e-05,0.0347659699618816
1769250485232,-0.0786285400390625,-0.055755615234375,-0.99786376953125,-0.013226056471467,0.0110220247879624,0.038944736123085
1769250485242,-0.0780181884765625,-0.0680999755859375,-0.9998016357421876,-0.0074475300498306,0.0102779371663928,0.0442524142563343
1769250485252,-0.0787811279296875,-0.079010009765625,-0.9989013671875,-0.0004237089306116,0.0033217607997357,0.0456881262362003
1769250485262,-0.0776214599609375,-0.0691070556640625,-1.005767822265625,0.0124966166913509,0.0100422473624348,0.0483379699289798
1769250485272,-0.0788116455078125,-0.0386505126953125,-1.0024871826171875,0.026691798120737,-0.004652542527765,0.0465368740260601
1769250485282,-0.092498779296875,-0.0450286865234375,-0.994873046875,0.0403889678418636,-0.0047524110414087,0.0395908169448375
1769250485292,-0.1058349609375,-0.0643157958984375,-0.9949493408203124,0.0488309226930141,0.0055771917104721,0.0277474746108055
1769250485302,-0.097198486328125,-0.062164306640625,-0.9872283935546876,0.0374379195272922,-0.0060315271839499,0.0254097525030374
1769250485312,-0.08941650390625,-0.0675811767578125,-0.986663818359375,0.0251623447984457,0.010267018340528,0.0177877862006425
1769250485322,-0.084991455078125,-0.0722503662109375,-0.9847869873046876,0.0080691119655966,-0.0072906697168946,0.0115629127249121
1769250485332,-0.0761871337890625,-0.0760955810546875,-0.982086181640625,-0.001693237805739,-0.0055367117747664,0.0075551215559244
1769250485342,-0.0792083740234375,-0.0507659912109375,-0.9851226806640624,0.0052821137942373,0.0056525594554841,0.0052751894108951
1769250485352,-0.086334228515625,-0.0433502197265625,-0.9860382080078124,0.017402958124876,-0.0086869653314352,0.0005763080553151
1769250485362,-0.093780517578125,-0.054779052734375,-0.9854888916015624,0.019645607098937,-0.0256257355213165,-0.0025190841406583
1769250485372,-0.0939178466796875,-0.0704193115234375,-0.9841766357421876,0.0230762902647256,-0.0379423238337039,-0.0050498861819505
1769250485383,-0.0913848876953125,-0.07672119140625,-0.98382568359375,0.0161390230059623,-0.0560813769698143,-0.0051899682730436
1769250485393,-0.0888671875,-0.0836029052734375,-0.9813079833984376,-0.000320644583553,-0.0650325268507003,-0.0101977763697505
1769250485403,-0.0882110595703125,-0.0779876708984375,-0.980316162109375,-0.0217260681092739,-0.0559306442737579,-0.0120462765917181
1769250485413,-0.085968017578125,-0.0680694580078125,-0.984466552734375,-0.0369950346648693,-0.0293882489204406,-0.0160980094224214
1769250485423,-0.0822601318359375,-0.0602569580078125,-0.9915618896484376,-0.051644816994667,-0.0227210242301225,-0.0157571248710155
1769250485433,-0.0819854736328125,-0.054595947265625,-0.99200439453125,-0.0577583722770214,-0.015933159738779,-0.0149808134883642
1769250485443,-0.0793609619140625,-0.0439605712890625,-0.9950408935546876,-0.0571130886673927,-0.0175805911421775,-0.0091964276507496
1769250485453,-0.0772857666015625,-0.0473480224609375,-0.999298095703125,-0.0471693761646747,-0.020905015990138,-0.0028767467010766
1769250485463,-0.082763671875,-0.0610809326171875,-1.0008087158203125,-0.0326450280845165,-0.0148106375709176,-0.0044602621346712
1769250485473,-0.08441162109375,-0.0631256103515625,-1.003936767578125,-0.0177963078022003,-0.0027214842848479,-0.004376106429845
1769250485483,-0.0840606689453125,-0.0624847412109375,-1.004913330078125,-0.0027023095171898,-0.0010170611785724,-0.0020453077740967
1769250485493,-0.083160400390625,-0.0626068115234375,-1.0003814697265625,0.0113072488456964,0.0013057478936389,-0.0015347796725109
1769250485503,-0.083526611328125,-0.064239501953125,-0.9994659423828124,0.027516046538949,0.0052200620993971,-0.003664243267849
1769250485513,-0.0842132568359375,-0.0645599365234375,-1.001708984375,0.0328692682087421,0.0056869140826165,-0.0017398431664332
1769250485523,-0.082489013671875,-0.054412841796875,-0.9964141845703124,0.0405149348080158,0.0127975540235638,-0.0020690099336206
1769250485533,-0.0831146240234375,-0.045013427734375,-0.993682861328125,0.0451869182288646,0.014214888215065,-0.0044621261768043
1769250485543,-0.0855865478515625,-0.0565948486328125,-0.9885406494140624,0.0440532118082046,0.0113115105777978,-0.0074917385354638
1769250485553,-0.0841217041015625,-0.0667877197265625,-0.98687744140625,0.0402739197015762,0.0034216293133795,-0.0032442628871649
1769250485563,-0.0858612060546875,-0.06512451171875,-0.982177734375,0.0351918078958988,-0.0003486077766865,-0.0012921657180413
1769250485573,-0.0849761962890625,-0.0589141845703125,-0.978240966796875,0.027467843145132,0.0027387947775423,0.0005914880894124
1769250485583,-0.084564208984375,-0.0552520751953125,-0.97900390625,0.0191915370523929,0.001669535646215,0.0019584887195378
1769250485594,-0.0894775390625,-0.06158447265625,-0.987274169921875,0.016200540587306,0.0010434264549985,-0.0044751758687198
1769250485604,-0.09234619140625,-0.0655364990234375,-0.991912841796875,0.017141968011856,0.0020058928057551,-0.007694671396166
1769250485614,-0.0900726318359375,-0.06170654296875,-0.990325927734375,0.0141379227861762,-0.0090371705591678,-0.0131964953616261
1769250485624,-0.0914306640625,-0.063232421875,-0.9815826416015624,0.004301537759602,-0.0195047259330749,-0.0184019096195697
1769250485634,-0.0931854248046875,-0.0688323974609375,-0.977691650390625,-0.0107381315901875,-0.0159419476985931,-0.0274297595024108
1769250485644,-0.0919647216796875,-0.0696868896484375,-0.9830474853515624,-0.0225085038691759,-0.0092723276466131,-0.0334194749593734
1769250485654,-0.0879974365234375,-0.062164306640625,-0.9878997802734376,-0.0307427328079938,-0.0156889483332633,-0.0311371460556983
1769250485664,-0.0870819091796875,-0.062469482421875,-0.98870849609375,-0.0337273366749286,-0.0220898557454347,-0.029097432270646
1769250485674,-0.0896759033203125,-0.0634765625,-0.98968505859375,-0.035471174865961,-0.0219409856945276,-0.0294612199068069
1769250485684,-0.0866546630859375,-0.05950927734375,-0.9946136474609376,-0.0365556143224239,-0.0073607107624411,-0.0260566342622041
1769250485694,-0.082672119140625,-0.0552825927734375,-0.997589111328125,-0.0371383130550384,0.0092603433877229,-0.0267338752746582
1769250485704,-0.083404541015625,-0.0529022216796875,-0.996673583984375,-0.0352016612887382,0.0239298343658447,-0.0237649846822023
1769250485714,-0.0830078125,-0.062225341796875,-0.9961700439453124,-0.0318178497254848,0.0175662096589803,-0.0202735792845487
1769250485724,-0.0791168212890625,-0.080902099609375,-0.9951019287109376,-0.0305539146065711,-0.0066781425848603,-0.017299361526966
1769250485734,-0.074066162109375,-0.07147216796875,-0.9988861083984376,-0.0154569866135716,0.005395564250648,-0.0081474082544446
1769250485744,-0.0746307373046875,-0.0319061279296875,-1.0015411376953125,-0.0098102865740656,0.0143602974712848,-0.0036280243657529
1769250485754,-0.0801849365234375,-0.0394134521484375,-0.9939422607421876,0.0023944480344653,0.0111245568841695,-0.0040163132362067
1769250485764,-0.0940704345703125,-0.059722900390625,-0.996978759765625,0.0218099579215049,0.0126809077337384,-0.0095343831926584
1769250485774,-0.0939483642578125,-0.055633544921875,-0.9889068603515624,0.0183939207345247,-0.0069686933420598,-0.0088531468063592
1769250485784,-0.091552734375,-0.074981689453125,-0.992095947265625,0.0137296607717871,0.005355617031455,-0.0137935765087604
1769250485794,-0.085052490234375,-0.0774993896484375,-0.992431640625,-0.0002266350056743,-0.0054980958811938,-0.0142622925341129
1769250485804,-0.07818603515625,-0.075958251953125,-0.985198974609375,-0.0098827248439192,0.0074355457909405,-0.011888351291418
1769250485815,-0.0760345458984375,-0.05010986328125,-0.985198974609375,-0.0127224531024694,0.0277562644332647,-0.0068882661871612
1769250485825,-0.0806732177734375,-0.045867919921875,-0.98260498046875,-0.0039193741977214,0.0187329407781362,-0.0080379527062177
1769250485835,-0.0893096923828125,-0.0550384521484375,-0.9938507080078124,0.0128588071092963,0.0028977855108678,-0.0071271518245339
1769250485845,-0.0859527587890625,-0.062530517578125,-0.9995269775390624,0.0301128942519426,-0.0150657687336206,0.0016823188634589
1769250485855,-0.083740234375,-0.0720367431640625,-0.9965972900390624,0.0307746902108192,-0.032180305570364,0.0090976245701313
1769250485865,-0.080657958984375,-0.0806884765625,-0.99005126953125,0.0209332443773746,-0.0338663533329963,0.0160428825765848
1769250485875,-0.082275390625,-0.073089599609375,-0.987274169921875,0.0034432008396834,-0.0233340840786695,0.0163680538535118
1769250485885,-0.0874786376953125,-0.0681304931640625,-0.987548828125,-0.0106593025848269,-0.0176258645951747,0.0144223487004637
1769250485895,-0.086822509765625,-0.06280517578125,-0.9914398193359376,-0.0225428603589534,-0.0157832242548465,0.0148708252236247
1769250485905,-0.089080810546875,-0.0596771240234375,-1.0000152587890625,-0.021222997456789,-0.0176658127456903,0.0130276512354612
