timestamp_ms,acc_x,acc_y,acc_z,gyro_x,gyro_y,gyro_z
1769250641765,-0.1529388427734375,-0.0745849609375,-0.967987060546875,0.0318689830601215,-0.0353412143886089,0.0830133929848671
1769250641773,-0.1411895751953125,-0.076873779296875,-0.9800262451171876,0.0247455593198537,-0.0350983329117298,0.0902129858732223
1769250641783,-0.1361236572265625,-0.0819549560546875,-0.9857940673828124,0.0303773470222949,-0.0304894652217626,0.0911600068211555
1769250641793,-0.1397705078125,-0.0982513427734375,-0.994842529296875,0.0475102625787258,-0.0366773195564746,0.0957326516509056
1769250641803,-0.133575439453125,-0.091094970703125,-1.001007080078125,0.0629302263259887,-0.071783110499382,0.1071568131446838
1769250641813,-0.128814697265625,-0.0826873779296875,-0.996612548828125,0.0760654732584953,-0.0630870908498764,0.1093480587005615
1769250641823,-0.1440277099609375,-0.0790863037109375,-0.9896697998046876,0.0748665183782577,-0.0218624211847782,0.1011407300829887
1769250641833,-0.15216064453125,-0.0808563232421875,-0.9852142333984376,0.0630687177181243,0.006336192600429,0.0918409749865531
1769250641843,-0.15692138671875,-0.0943450927734375,-0.9733428955078124,0.0509151108562946,0.0051830438897013,0.0875215902924537
1769250641853,-0.154510498046875,-0.090576171875,-0.9675140380859376,0.04293654859066,0.0033630398102104,0.0872419625520706
1769250641863,-0.1563720703125,-0.0883026123046875,-0.9615325927734376,0.0373614877462387,-0.0066499132663011,0.0849465802311897
1769250641873,-0.1593475341796875,-0.0897216796875,-0.9584197998046876,0.0321552716195583,-0.0096470350399613,0.0842035636305809
1769250641883,-0.1551055908203125,-0.0832061767578125,-0.9588623046875,0.0228930655866861,-0.0116891469806432,0.0840634778141975
1769250641893,-0.1534881591796875,-0.0826263427734375,-0.961212158203125,0.0128159299492836,-0.0026362631469964,0.0838197991251945
1769250641903,-0.152099609375,-0.0882110595703125,-0.9674530029296876,0.0049918289296329,0.0062429821118712,0.0744755640625953
1769250641914,-0.1549530029296875,-0.0953521728515625,-0.971221923828125,0.0101714106276631,0.0013478258624672,0.0695154294371604
1769250641924,-0.1508636474609375,-0.08587646484375,-0.977996826171875,0.0154452687129378,-0.0128889009356498,0.0677585378289222
1769250641934,-0.15411376953125,-0.07745361328125,-0.980255126953125,0.011511780321598,-0.0160300992429256,0.0591626539826393
1769250641944,-0.1608428955078125,-0.07861328125,-0.9757080078125,0.0012729909503832,-0.0192258916795253,0.0454862602055072
1769250641954,-0.1656341552734375,-0.0821533203125,-0.973907470703125,-0.0128188598901033,-0.0159763023257255,0.0282904934138059
1769250641964,-0.167877197265625,-0.0840606689453125,-0.9681854248046876,-0.0360991470515728,-0.0108214886859059,0.0111003220081329
1769250641974,-0.169036865234375,-0.0808868408203125,-0.9576416015625,-0.0795158669352531,0.0091578122228384,-0.0023829964920878
1769250641984,-0.1671295166015625,-0.07659912109375,-0.945831298828125,-0.124083861708641,0.0380014441907405,-0.0207779835909605
1769250641994,-0.1655426025390625,-0.0832977294921875,-0.950775146484375,-0.1576926857233047,0.0480191893875598,-0.0333283953368663
1769250642004,-0.1621856689453125,-0.10345458984375,-0.9604949951171876,-0.1859956979751587,0.0403548814356327,-0.0373718738555908
1769250642014,-0.1496429443359375,-0.1139068603515625,-0.9698333740234376,-0.1893092095851898,0.0428555868566036,-0.0334916487336158
1769250642024,-0.1386566162109375,-0.0653228759765625,-0.9767913818359376,-0.1763563901185989,0.0321531407535076,-0.0397522076964378
1769250642034,-0.1474761962890625,-0.0428619384765625,-0.985198974609375,-0.1515503823757171,0.0226975884288549,-0.0474791005253791
1769250642044,-0.16619873046875,-0.068634033203125,-0.99969482421875,-0.1298975497484207,0.0171100106090307,-0.0455331318080425
1769250642054,-0.16534423828125,-0.0974578857421875,-1.0054473876953125,-0.1118980422616005,0.0220658872276544,-0.0305840075016021
1769250642064,-0.144317626953125,-0.0936737060546875,-1.0069427490234375,-0.0893972590565681,0.0330077521502971,-0.0189475920051336
1769250642074,-0.1230010986328125,-0.0845184326171875,-1.0131683349609375,-0.0680371075868606,0.0488445051014423,0.0003845604660455
1769250642084,-0.1093902587890625,-0.0884552001953125,-1.008575439453125,-0.0408819206058979,0.0635134652256965,0.0173033569008111
1769250642094,-0.1056060791015625,-0.07281494140625,-0.9990692138671876,-0.0152537878602743,0.0546661764383316,0.0352852866053581
1769250642104,-0.118560791015625,-0.0565338134765625,-0.9901123046875,0.0022873890120536,0.0273061897605657,0.0438255108892917
1769250642114,-0.144012451171875,-0.0719451904296875,-0.9845733642578124,0.0046245791018009,0.0184674244374036,0.0477555394172668
1769250642125,-0.1610870361328125,-0.0836334228515625,-0.9848175048828124,0.0035747610963881,0.0255836565047502,0.0475832298398017
1769250642135,-0.15869140625,-0.0909271240234375,-0.9869842529296876,-0.0013041499769315,0.0140401851385831,0.0485161356627941
1769250642145,-0.1492767333984375,-0.0938873291015625,-0.9922637939453124,-0.0024807346053421,0.0155965369194746,0.0535271391272544
1769250642155,-0.1384429931640625,-0.092071533203125,-0.99609375,-0.0002735066518653,0.0195465367287397,0.0637707263231277
1769250642165,-0.13177490234375,-0.08807373046875,-0.992156982421875,-0.0031800805591046,0.0240920204669237,0.0712459534406662
1769250642175,-0.1354827880859375,-0.0841064453125,-0.9848175048828124,-0.012596751563251,0.0272076521068811,0.0760883763432502
1769250642185,-0.1414794921875,-0.0751800537109375,-0.9775390625,-0.0197662468999624,0.0345388017594814,0.077848196029663
1769250642195,-0.147552490234375,-0.0632781982421875,-0.97564697265625,-0.0313470028340816,0.0484844446182251,0.0737676993012428
1769250642205,-0.1563720703125,-0.0634613037109375,-0.9755706787109376,-0.0408638082444667,0.0598966218531131,0.0631403550505638
1769250642215,-0.1645050048828125,-0.0722198486328125,-0.977264404296875,-0.0411394461989402,0.0558584704995155,0.0611147545278072
1769250642225,-0.1604156494140625,-0.0731201171875,-0.978118896484375,-0.031799741089344,0.041977010667324,0.0593224465847015
1769250642235,-0.1560821533203125,-0.0728302001953125,-0.982025146484375,-0.0234304908663034,0.0314303599298,0.0543796196579933
1769250642245,-0.1545257568359375,-0.085723876953125,-0.9889373779296876,-0.0106907272711396,0.0242366306483745,0.0609344579279422
1769250642255,-0.141693115234375,-0.0841522216796875,-0.9903106689453124,-0.0004756405542138,0.0076403426937758,0.067996896803379
1769250642265,-0.134063720703125,-0.073272705078125,-0.985382080078125,0.0016282566357403,0.0189696960151195,0.0689058303833007
1769250642275,-0.1427459716796875,-0.065216064453125,-0.9824676513671876,-0.0030312100425362,0.0451943762600421,0.0624932050704956
1769250642285,-0.1569976806640625,-0.059539794921875,-0.979888916015625,-0.0096411760896444,0.0481600724160671,0.0488210693001747
1769250642295,-0.165069580078125,-0.07171630859375,-0.9861907958984376,-0.0092907035723328,0.0439597330987453,0.0454801321029663
1769250642305,-0.1648406982421875,-0.0792236328125,-0.9915618896484376,0.0037473340053111,0.0301259439438581,0.0376523025333881
1769250642315,-0.162506103515625,-0.0775604248046875,-0.993072509765625,0.0251522250473499,0.0009265137487091,0.0361907593905925
1769250642326,-0.1537933349609375,-0.0709228515625,-0.992950439453125,0.0427445359528064,-0.0266462583094835,0.0433314964175224
1769250642336,-0.1450042724609375,-0.07086181640625,-0.9915008544921876,0.0524626746773719,-0.0266707595437765,0.0494530349969863
1769250642346,-0.1439208984375,-0.0748138427734375,-0.9871368408203124,0.0566563531756401,-0.0207212567329406,0.0511087253689765
1769250642356,-0.14654541015625,-0.0801544189453125,-0.985107421875,0.0546840168535709,-0.0029891319572925,0.0537846684455871
1769250642366,-0.14837646484375,-0.0797576904296875,-0.9740447998046876,0.0396488755941391,0.0133677367120981,0.0535167530179023
1769250642376,-0.1456146240234375,-0.0800628662109375,-0.96600341796875,0.0263546425849199,0.0216578915715217,0.0604516267776489
1769250642386,-0.1442413330078125,-0.0812835693359375,-0.9692535400390624,0.0224520452320575,0.0188453271985054,0.056947972625494
1769250642396,-0.154296875,-0.07635498046875,-0.97662353515625,0.0222323350608348,0.0229828134179115,0.0547793582081794
1769250642406,-0.157012939453125,-0.0737152099609375,-0.9848175048828124,0.0245695244520902,0.0260070990771055,0.0497851334512233
1769250642416,-0.1607513427734375,-0.067047119140625,-0.987030029296875,0.0204293746501207,0.0485494248569011,0.0461427271366119
1769250642426,-0.156890869140625,-0.069732666015625,-0.9842681884765624,0.0166519470512866,0.0733229517936706,0.0379404574632644
1769250642436,-0.1528167724609375,-0.0726470947265625,-0.9857635498046876,0.0186173599213361,0.0815768837928772,0.0354227051138877
1769250642446,-0.14794921875,-0.07586669921875,-0.9861602783203124,0.0320692546665668,0.062490276992321,0.0342991165816783
1769250642456,-0.1509857177734375,-0.0919342041015625,-0.99163818359375,0.0504330806434154,0.0199124552309513,0.0473637878894805
1769250642466,-0.140380859375,-0.107391357421875,-0.9965362548828124,0.0813023149967193,-0.0199904851615428,0.0576662272214889
1769250642476,-0.1377716064453125,-0.07318115234375,-0.9998779296875,0.1241677552461624,-0.0680488273501396,0.0539026446640491
1769250642486,-0.150054931640625,-0.03668212890625,-0.9969940185546876,0.1569643169641494,-0.0860754996538162,0.0435144528746604
1769250642496,-0.167755126953125,-0.047637939453125,-0.99383544921875,0.1649463474750518,-0.0720776543021202,0.0301917251199483
1769250642507,-0.1832427978515625,-0.0902557373046875,-0.985931396484375,0.1479425877332687,-0.0581607744097709,0.0145179564133286
1769250642516,-0.17657470703125,-0.1104888916015625,-0.9828643798828124,0.1255099922418594,-0.022695193067193,0.0052706622518599
1769250642526,-0.1522216796875,-0.0947418212890625,-0.9844818115234376,0.1124482452869415,0.0177678111940622,-0.0059500345960259
1769250642537,-0.1490631103515625,-0.0851593017578125,-0.9878387451171876,0.1150799840688705,0.0175587534904479,-0.0166090708225965
1769250642547,-0.15777587890625,-0.0794219970703125,-0.9921875,0.1413480788469314,0.0004828310920856,-0.023658724501729
1769250642557,-0.16302490234375,-0.0664520263671875,-0.999481201171875,0.1582133322954177,0.0015614113071933,-0.0299333985894918
1769250642567,-0.1653289794921875,-0.071258544921875,-0.9891815185546876,0.154714748263359,0.0233220998197793,-0.0327587462961673
1769250642577,-0.170440673828125,-0.0857696533203125,-0.9869537353515624,0.1492747068405151,0.0629161149263382,-0.0443906337022781
1769250642587,-0.16827392578125,-0.101654052734375,-0.999969482421875,0.1466256529092788,0.0876281186938285,-0.0480871014297008
1769250642597,-0.1554718017578125,-0.1156005859375,-1.0047607421875,0.1591454446315765,0.0432646498084068,-0.0636865645647049
1769250642607,-0.163360595703125,-0.123992919921875,-1.0029754638671875,0.1568375527858734,-0.2535092234611511,-0.060388509184122
1769250642617,-0.1534271240234375,-0.12017822265625,-0.925262451171875,0.2118235677480697,-0.3235850036144256,0.0002705771767068
1769250642627,-0.0897369384765625,-0.1252593994140625,-0.9571380615234376,0.1902809888124466,-0.0963518396019935,0.0338114947080612
1769250642637,-0.0995941162109375,-0.124053955078125,-1.007537841796875,0.1687876880168914,0.112770490348339,0.0300686862319707
1769250642647,-0.14349365234375,-0.0951385498046875,-1.0350799560546875,0.1549408435821533,0.1583089530467987,0.0208072774112224
1769250642657,-0.1550750732421875,-0.0742645263671875,-1.007171630859375,0.1727163791656494,0.1420564800500869,0.0132478950545191
1769250642667,-0.164154052734375,-0.0848846435546875,-0.99285888671875,0.1855853050947189,0.119826003909111,0.0037228327710181
1769250642677,-0.1683807373046875,-0.104888916015625,-0.9779815673828124,0.1874255537986755,0.1169013157486915,-0.0052131377160549
1769250642687,-0.1628265380859375,-0.119659423828125,-0.973968505859375,0.1921947449445724,0.0988871678709983,-0.0190288182348012
1769250642697,-0.1703643798828125,-0.1239166259765625,-0.978271484375,0.1991887390613556,0.0836245864629745,-0.0310503281652927
1769250642707,-0.15948486328125,-0.12200927734375,-0.9820709228515624,0.1912083029747009,0.08087008446455,-0.0374653488397598
1769250642717,-0.141815185546875,-0.110321044921875,-0.97265625,0.1766501367092132,0.1354667544364929,-0.0392997339367866
1769250642727,-0.1337738037109375,-0.1107330322265625,-0.9724578857421876,0.1574511379003524,0.1596248149871826,-0.0434699803590774
1769250642737,-0.1380767822265625,-0.1094970703125,-0.9746246337890624,0.1450179070234298,0.2335946410894394,-0.0363750532269477
1769250642748,-0.135223388671875,-0.10980224609375,-0.9883575439453124,0.1419414281845092,0.2884557545185089,-0.0381809398531913
1769250642758,-0.14111328125,-0.1114501953125,-1.0041656494140625,0.1471987664699554,0.2970519065856933,-0.0409152098000049
1769250642768,-0.1386871337890625,-0.1136474609375,-1.0063323974609375,0.1634019762277603,0.2875915765762329,-0.0455773398280143
1769250642778,-0.1358642578125,-0.122161865234375,-1.001953125,0.1734655350446701,0.2773541212081909,-0.0437086001038551
1769250642788,-0.1275482177734375,-0.1317138671875,-0.9882049560546876,0.1844199150800705,0.2757591307163238,-0.040204145014286
1769250642798,-0.1256103515625,-0.1348114013671875,-0.9921112060546876,0.1989085674285888,0.2741883993148803,-0.031348068267107
1769250642808,-0.118072509765625,-0.1357421875,-0.9942169189453124,0.2041997462511062,0.296290785074234,-0.0161890890449285
1769250642818,-0.102996826171875,-0.1360931396484375,-0.9910125732421876,0.2069603651762008,0.3013044595718384,-0.0046445527113974
1769250642828,-0.099517822265625,-0.1411895751953125,-0.9807281494140624,0.1985413283109665,0.2758345007896423,0.0168085414916276
1769250642838,-0.0877532958984375,-0.1413726806640625,-0.956207275390625,0.1867754757404327,0.2906560599803924,0.0285139326006174
1769250642848,-0.0912322998046875,-0.142486572265625,-0.9575653076171876,0.1738780587911605,0.3075146675109863,0.035989161580801
1769250642858,-0.1013641357421875,-0.1402587890625,-0.96392822265625,0.1606533229351043,0.3026394844055176,0.0449943728744983
1769250642868,-0.1021881103515625,-0.133453369140625,-0.964019775390625,0.1460397690534591,0.2613405287265777,0.0436071306467056
1769250642878,-0.1077423095703125,-0.1376495361328125,-0.958282470703125,0.1358225494623184,0.2177272588014602,0.0365175306797027
1769250642888,-0.109283447265625,-0.14678955078125,-0.9611358642578124,0.1289028525352478,0.1946922540664672,0.03352040797472
1769250642898,-0.1070709228515625,-0.1439056396484375,-0.963836669921875,0.1128445267677307,0.1509072184562683,0.0294505674391984
1769250642908,-0.1016845703125,-0.148468017578125,-0.9505462646484376,0.0826820954680442,0.1076300591230392,0.0333145484328269
1769250642918,-0.0962371826171875,-0.165313720703125,-0.943511962890625,0.0520253852009773,0.1001143530011177,0.0295557621866464
1769250642928,-0.093780517578125,-0.146331787109375,-0.9428558349609376,0.022919962182641,0.1011151671409607,0.016683904454112
1769250642938,-0.0970611572265625,-0.119140625,-0.9443359375,0.0098853874951601,0.0994778573513031,-0.0025254755746573
1769250642949,-0.11614990234375,-0.1219482421875,-0.954498291015625,-0.0078283622860908,0.0983012691140174,-0.0095421057194471
1769250642958,-0.119232177734375,-0.147613525390625,-0.9578704833984376,-0.0426803529262542,0.1088441908359527,-0.0038320224266499
1769250642969,-0.1031341552734375,-0.174713134765625,-0.9642333984375,-0.0811473131179809,0.1212518587708473,-0.0159150511026382
1769250642978,-0.0907745361328125,-0.167266845703125,-0.9688568115234376,-0.1029314398765564,0.1108197271823883,-0.022884277626872
1769250642989,-0.082061767578125,-0.1483917236328125,-0.9619140625,-0.1175892129540443,0.0652855262160301,-0.0279456134885549
1769250642999,-0.0793609619140625,-0.1437835693359375,-0.9559173583984376,-0.1183655261993408,0.0345340073108673,-0.0237159822136163
1769250643009,-0.0839691162109375,-0.1333465576171875,-0.959442138671875,-0.1253318190574646,0.0179012361913919,-0.0127139305695891
1769250643019,-0.0833740234375,-0.1321563720703125,-0.960540771484375,-0.138412743806839,0.020765732973814,-0.0041864891536533
1769250643029,-0.0875091552734375,-0.1476287841796875,-0.96319580078125,-0.1511290669441223,0.0100190779194235,0.000761397765018
1769250643039,-0.092681884765625,-0.1572418212890625,-0.964630126953125,-0.1631902605295181,-0.0190229602158069,0.0040549291297793
1769250643049,-0.0877227783203125,-0.156158447265625,-0.9632110595703124,-0.1736117303371429,-0.0338109619915485,0.0106558399274945
1769250643059,-0.0806732177734375,-0.1543121337890625,-0.9705810546875,-0.1792113035917282,-0.0269626416265964,0.0187300126999616
1769250643069,-0.0764923095703125,-0.151214599609375,-0.98773193359375,-0.1824640780687332,-0.0250190664082765,0.0325395688414573
1769250643079,-0.0728607177734375,-0.1432342529296875,-0.989898681640625,-0.1827485114336013,-0.0179342590272426,0.0407847128808498
1769250643089,-0.0788726806640625,-0.1368408203125,-0.9860382080078124,-0.1839533299207687,0.0186767484992742,0.0443014167249202
1769250643099,-0.086883544921875,-0.1265411376953125,-0.989410400390625,-0.1800800263881683,0.0080914823338389,0.0423216223716735
1769250643109,-0.0950775146484375,-0.1191253662109375,-0.990875244140625,-0.168000191450119,-0.0186123009771108,0.0358868949115276
1769250643119,-0.10009765625,-0.1201934814453125,-0.9921875,-0.1496906876564026,-0.0252718012779951,0.0268758218735456
1769250643130,-0.105804443359375,-0.1297149658203125,-1.0042266845703125,-0.1234404444694519,-0.0454297997057437,0.0187609046697616
1769250643139,-0.103546142578125,-0.1331634521484375,-1.0079498291015625,-0.1004941165447235,-0.0450042262673378,0.0204464197158813
1769250643149,-0.0921478271484375,-0.133270263671875,-1.0075531005859375,-0.088089644908905,-0.0210142042487859,0.0251434370875358
1769250643160,-0.0806884765625,-0.13165283203125,-1.0074005126953125,-0.0789081305265426,-0.0299903899431228,0.0239303670823574
1769250643170,-0.0806884765625,-0.121551513671875,-1.0026092529296875,-0.0603807866573333,-0.0419421233236789,0.0214584209024906
1769250643180,-0.08441162109375,-0.1143646240234375,-0.9930419921875,-0.0536499135196208,-0.0453424490988254,0.0223415251821279
1769250643190,-0.090789794921875,-0.1172332763671875,-0.9872283935546876,-0.0583983287215232,-0.017624532803893,0.0244097355753183
1769250643200,-0.090576171875,-0.1236419677734375,-0.9927520751953124,-0.0671305656433105,0.0416427850723266,0.0303155612200498
1769250643210,-0.0869598388671875,-0.1221771240234375,-0.9962310791015624,-0.0662016570568084,0.051534030586481,0.0313869528472423
1769250643220,-0.089111328125,-0.123291015625,-0.99920654296875,-0.0508405454456806,0.0255120173096656,0.0279791709035635
1769250643230,-0.091552734375,-0.1203155517578125,-0.9937744140625,-0.0346703641116619,-0.0043172505684196,0.0268148370087146
1769250643240,-0.0965423583984375,-0.1136932373046875,-0.99053955078125,-0.0232488643378019,-0.0219119563698768,0.0268657021224498
1769250643250,-0.0944366455078125,-0.1167144775390625,-0.9893798828125,-0.0130923660472035,-0.0377849303185939,0.0211023557931184
1769250643260,-0.0969696044921875,-0.124359130859375,-0.9842071533203124,-0.0111139034852385,-0.0387250259518623,0.0197710413485765
1769250643270,-0.0929107666015625,-0.120635986328125,-0.9848480224609376,-0.0143286054953932,-0.0273392125964164,0.0180783364921808
1769250643280,-0.08831787109375,-0.119384765625,-0.9837493896484376,-0.0234595201909542,-0.0472716428339481,0.0130723919719457
1769250643290,-0.091766357421875,-0.127410888671875,-0.97198486328125,-0.0157121177762746,-0.0405927002429962,0.0122955488041043
1769250643300,-0.0942535400390625,-0.1244659423828125,-0.9840545654296876,-0.0168543476611375,-0.017128387466073,0.0074736289680004
1769250643310,-0.0993194580078125,-0.119537353515625,-0.9920806884765624,-0.0122750420123338,0.0016463662032037,0.0043180491775274
1769250643320,-0.100341796875,-0.1167144775390625,-0.9923248291015624,-0.0133943688124418,-0.0024288028944283,0.0028663603588938
1769250643330,-0.0973358154296875,-0.1141357421875,-0.9899749755859376,-0.0104057695716619,-0.0216685440391302,5.352953667170368e-05
1769250643341,-0.0978546142578125,-0.1129150390625,-0.9854278564453124,-0.0110526513308286,-0.0335712768137455,-0.0046267095021903
1769250643350,-0.0945281982421875,-0.109619140625,-0.9814453125,-0.0178780667483806,-0.0383164957165718,-0.0023001721128821
1769250643361,-0.0941162109375,-0.1187286376953125,-0.97503662109375,-0.0352112501859664,-0.0178133510053157,0.0031534489244222
1769250643371,-0.0900115966796875,-0.1295166015625,-0.980010986328125,-0.0446678698062896,0.0054458980448544,0.0011691277613863
1769250643381,-0.0867767333984375,-0.1031494140625,-0.984039306640625,-0.0384230241179466,0.0105293402448296,-0.0017917747609317
1769250643391,-0.09326171875,-0.0842132568359375,-0.9858551025390624,-0.0152085134759545,0.0109461247920989,-0.0056895771995186
1769250643401,-0.10565185546875,-0.0922698974609375,-0.996551513671875,0.0045851645991206,-0.0175036266446113,-0.000843156769406
1769250643411,-0.1119384765625,-0.12664794921875,-0.9951171875,0.0078360848128795,-0.0407900400459766,0.0001041295981849
1769250643421,-0.1062469482421875,-0.1547698974609375,-0.990234375,0.0018522285390645,-0.0391023941338062,-0.0055026235058903
1769250643431,-0.09027099609375,-0.1371307373046875,-0.98309326171875,-0.0060128848999738,-0.0124462833628058,-0.0070824106223881
1769250643441,-0.0787811279296875,-0.1037750244140625,-0.976837158203125,-0.0154990646988153,0.0044967476278543,-0.0017196030821651
1769250643451,-0.0853729248046875,-0.1112213134765625,-0.982635498046875,-0.0054038199596107,-0.0030850057955831,-0.0051143346354365
1769250643461,-0.1043243408203125,-0.1179351806640625,-0.9831085205078124,0.0105336010456085,-0.0374408476054668,-0.0018586200894787
1769250643471,-0.1099395751953125,-0.1071929931640625,-0.9739837646484376,0.0145365986973047,-0.072584718465805,0.0022013690322637
1769250643481,-0.1157073974609375,-0.1053466796875,-0.9775848388671876,0.0005771070136688,-0.0668072625994682,0.0018317222129553
1769250643491,-0.107574462890625,-0.1176300048828125,-0.9787750244140624,-0.0241769757121801,-0.033298835158348,0.0014359764754772
1769250643501,-0.098175048828125,-0.133453369140625,-0.973480224609375,-0.043499007821083,-0.0220794696360826,-0.0005736448802053
1769250643511,-0.0974884033203125,-0.139068603515625,-0.9763031005859376,-0.0483385026454925,-0.0346549153327941,-0.0034394725225865
1769250643521,-0.0983123779296875,-0.133148193359375,-0.9815826416015624,-0.0432249680161476,-0.0347161702811718,0.0054906392470002
1769250643531,-0.098480224609375,-0.118194580078125,-0.9888763427734376,-0.0388808213174343,-0.0289943665266037,0.0087942909449338
1769250643541,-0.1002655029296875,-0.1107177734375,-0.9912261962890624,-0.0301384609192609,-0.0195220354944467,0.0034218956716358
1769250643551,-0.1038055419921875,-0.1128997802734375,-0.9947052001953124,-0.0236387494951486,-0.0132907712832093,-0.0032083101104944
1769250643561,-0.1084136962890625,-0.11077880859375,-0.9923858642578124,-0.0148990545421838,-0.0264164265245199,-0.0110587766394019
1769250643572,-0.1126861572265625,-0.110321044921875,-0.986114501953125,-0.0085988147184252,-0.0410161428153514,-0.0193867478519678
1769250643581,-0.1135406494140625,-0.1168060302734375,-0.9836883544921876,-0.0047295079566538,-0.04657868668437,-0.0243623312562704
1769250643592,-0.1099090576171875,-0.1180877685546875,-0.9858856201171876,-0.0037396107800304,-0.0340889953076839,-0.02422278188169
1769250643602,-0.1036224365234375,-0.11572265625,-0.989013671875,-0.0073583140037953,-0.0191193651407957,-0.0240411534905433
1769250643612,-0.0962982177734375,-0.1120452880859375,-0.9896240234375,-0.0077516627497971,-0.0102936504408717,-0.0239468775689601
1769250643622,-0.0962066650390625,-0.1098785400390625,-0.9891204833984376,0.0006530070677399,-0.0018445053137838,-0.0216387156397104
1769250643632,-0.10009765625,-0.108154296875,-0.9857177734375,-0.007398793939501,-0.0155219677835702,-0.0180879235267639
1769250643642,-0.1005401611328125,-0.1094970703125,-0.9816131591796876,-0.0170277189463377,-0.0277751721441745,-0.0145858665928244
1769250643652,-0.1023712158203125,-0.1146087646484375,-0.982421875,-0.02912113443017,-0.0101884556934237,-0.0106313386932015
1769250643662,-0.1000518798828125,-0.1163177490234375,-0.984527587890625,-0.0425109751522541,0.0059090219438076,-0.0051273838616907
1769250643672,-0.09686279296875,-0.1158294677734375,-0.9795989990234376,-0.0464686974883079,0.0098891155794262,-0.0001824265345931
1769250643682,-0.0993804931640625,-0.114410400390625,-0.9803924560546876,-0.0427000597119331,-0.0031899344176054,0.0016642092959955
1769250643692,-0.10498046875,-0.1185150146484375,-0.98370361328125,-0.0325616709887981,-0.0237814951688051,-0.0005605954211205
1769250643702,-0.10845947265625,-0.1221160888671875,-0.9877166748046876,-0.0212901085615158,-0.0403554141521453,0.0018761969404295
1769250643712,-0.1064910888671875,-0.1193084716796875,-0.9916534423828124,-0.0147845391184091,-0.0380102321505546,0.0035441347863525
1769250643722,-0.1009674072265625,-0.116302490234375,-0.992645263671875,-0.0123898237943649,-0.0255069583654403,0.0044725127518177
1769250643732,-0.0997467041015625,-0.11456298828125,-0.992156982421875,-0.0217761360108852,-0.0054941014386713,0.0080017335712909
1769250643743,-0.0968475341796875,-0.114044189453125,-0.9846954345703124,-0.0281871631741523,0.006778810173273,0.007431817241013
1769250643753,-0.1008148193359375,-0.1156768798828125,-0.9784698486328124,-0.0296801310032606,0.0065492456778883,0.0078672440722584
1769250643762,-0.0999908447265625,-0.114227294921875,-0.984619140625,-0.0264494512230157,0.004326038993895,0.0083793699741363
1769250643772,-0.1022186279296875,-0.1133270263671875,-0.9888916015625,-0.019359316676855,0.0033968619536608,0.0084158554673194
1769250643782,-0.105255126953125,-0.111785888671875,-0.99163818359375,-0.0112289525568485,-0.0024311996530741,0.0007206514128483
1769250643793,-0.1090240478515625,-0.1110382080078125,-0.9932098388671876,-0.0002394181792624,-0.0122390892356634,0.0036205674987286
1769250643803,-0.1061553955078125,-0.109222412109375,-0.992156982421875,0.0039699743501842,-0.0183417238295078,0.010748784057796
1769250643813,-0.1013336181640625,-0.123291015625,-0.988616943359375,-0.0013267868198454,-0.0121887559071183,0.0148460576310753
1769250643823,-0.0979461669921875,-0.124847412109375,-0.9867401123046876,-0.0011667308863252,0.0119149824604392,0.0125442873686552
1769250643833,-0.0957183837890625,-0.097930908203125,-0.990875244140625,0.0116870161145925,0.0190019197762012,0.0057596182450652
1769250643843,-0.1089630126953125,-0.081298828125,-0.991363525390625,0.0337728783488273,-0.0082547338679432,-0.0012825783342123
1769250643853,-0.1269683837890625,-0.1018524169921875,-0.9828033447265624,0.0378166213631629,-0.0403381027281284,-0.0054749264381825
1769250643863,-0.1301727294921875,-0.1339263916015625,-0.97991943359375,0.0149746881797909,-0.0276095233857631,-0.0065955845639109
1769250643873,-0.1143035888671875,-0.1472320556640625,-0.9788665771484376,-0.0083988113328814,0.0089599387720227,-0.0211766585707664
1769250643883,-0.0974884033203125,-0.1147613525390625,-0.97467041015625,-0.034425351768732,0.0175257306545972,-0.0218653511255979
1769250643893,-0.0925445556640625,-0.0993194580078125,-0.963409423828125,-0.0474636554718017,0.0242827031761407,-0.0238049309700727
1769250643903,-0.1021575927734375,-0.1089630126953125,-0.97247314453125,-0.0450580231845378,0.0275117848068475,-0.0195880830287933
1769250643913,-0.1078948974609375,-0.1059722900390625,-0.9839935302734376,-0.0238182470202446,0.000687628169544,-0.0146505814045667
1769250643923,-0.1127166748046875,-0.10614013671875,-0.997772216796875,0.0012626046082004,-0.0313043929636478,-0.0148167628794908
1769250643933,-0.11566162109375,-0.1151275634765625,-1.0013275146484375,0.0168916322290897,-0.0431235022842884,-0.0199923496693372
1769250643943,-0.1153411865234375,-0.1266326904296875,-0.9958038330078124,0.0223215501755476,-0.0485837794840335,-0.023396136239171
1769250643953,-0.1100616455078125,-0.1281280517578125,-0.9851531982421876,0.018131598830223,-0.04190643876791,-0.0169169325381517
1769250643963,-0.100494384765625,-0.1220703125,-0.9801025390625,0.0081340931355953,-0.0168705936521291,-0.0093863112851977
1769250643973,-0.09613037109375,-0.11456298828125,-0.982940673828125,-0.0027278759516775,0.0023515713401138,-0.0024415859952569
1769250643984,-0.0943603515625,-0.1149139404296875,-0.9848175048828124,-0.0031814121175557,-0.0002735066518653,9.134642459684984e-05
1769250643994,-0.1044158935546875,-0.113922119140625,-0.98345947265625,0.0013275857781991,-0.0104132257401943,0.0009912285022437
1769250644004,-0.1097564697265625,-0.1072998046875,-0.98431396484375,0.0060461745597422,-0.0151493921875953,0.0022551647853106
1769250644014,-0.1145782470703125,-0.11029052734375,-0.9880828857421876,0.0156122492626309,-0.0226986538618803,-0.0021398498211055
1769250644024,-0.1163482666015625,-0.1202545166015625,-0.989898681640625,0.0204341690987348,-0.0257849916815757,-0.0027217506431043
1769250644034,-0.113922119140625,-0.12286376953125,-0.9857330322265624,0.0270124431699514,-0.0216885171830654,-0.0035643747542053
1769250644044,-0.1123046875,-0.125701904296875,-0.985382080078125,0.0267437305301427,-0.0199348255991935,-0.0115005951374769
1769250644054,-0.113525390625,-0.121002197265625,-0.9802093505859376,0.0204916931688785,-0.0280931536108255,-0.0196376163512468
1769250644064,-0.1107940673828125,-0.1126556396484375,-0.9754486083984376,0.0167861711233854,-0.0210019536316394,-0.0274023301899433
1769250644074,-0.1146087646484375,-0.107879638671875,-0.9751434326171876,0.0101261371746659,-0.0184067040681839,-0.0351108498871326
1769250644084,-0.117919921875,-0.11083984375,-0.9762420654296876,0.0003211772127542,-0.0174450371414423,-0.0389719009399414
1769250644094,-0.1170501708984375,-0.113677978515625,-0.9792327880859376,-0.0134457675740122,-0.0133866453543305,-0.038025677204132
1769250644104,-0.1113433837890625,-0.1146697998046875,-0.978424072265625,-0.0260326657444238,-0.0001422127970727,-0.038249384611845
1769250644114,-0.112213134765625,-0.118927001953125,-0.97723388671875,-0.0362248495221138,0.0113802198320627,-0.0421397313475608
1769250644124,-0.112945556640625,-0.119293212890625,-0.9810028076171876,-0.0387535206973552,0.0141797345131635,-0.0438321679830551
1769250644134,-0.109405517578125,-0.1163482666015625,-0.9836578369140624,-0.0367199294269084,0.0072565814480185,-0.0403847061097621
1769250644144,-0.1061553955078125,-0.1177978515625,-0.9870758056640624,-0.0318732447922229,0.0005134574603289,-0.0395111888647079
1769250644154,-0.1064453125,-0.1209564208984375,-0.9895782470703124,-0.0239572636783123,-0.0114257596433162,-0.0383588410913944
1769250644164,-0.1058349609375,-0.11962890625,-0.9869842529296876,-0.0163233131170272,-0.0086318375542759,-0.0335342586040496
1769250644174,-0.1016082763671875,-0.1175689697265625,-0.9870758056640624,-0.0131395040079951,0.0001664475712459,-0.0278073959052562
1769250644184,-0.0964202880859375,-0.119171142578125,-0.9933013916015624,-0.0045846318826079,1.3315805517777337e-05,-0.0276286974549293
1769250644195,-0.0968170166015625,-0.118316650390625,-0.98614501953125,-0.0046735815703868,0.00669651851058,-0.0212770588696002
1769250644205,-0.0994720458984375,-0.115570068359375,-0.9867706298828124,-0.0002950782363768,0.004252269398421,-0.0141957141458988
1769250644215,-0.1022491455078125,-0.1194305419921875,-0.9915313720703124,0.004261590540409,-0.0066951867192983,-0.009394034743309
1769250644225,-0.1038055419921875,-0.1243896484375,-0.9916839599609376,0.0044717136770486,-0.0032155006192624,-0.0060768011026084
1769250644235,-0.1064605712890625,-0.1213836669921875,-0.990753173828125,0.0005219795857556,-0.0006370281334966,-0.0027196200098842
1769250644245,-0.1087493896484375,-0.1160430908203125,-0.9855499267578124,-0.0068661617115139,-0.0018016285030171,-0.0016495619202032
1769250644255,-0.110931396484375,-0.1223907470703125,-0.980712890625,-0.01707698777318,-0.0025326660834252,-0.0018604843644425
1769250644265,-0.1122589111328125,-0.1379852294921875,-0.9850006103515624,-0.0225087702274322,-0.0018050905782729,-0.0078209051862359
1769250644275,-0.10784912109375,-0.1178131103515625,-0.9861907958984376,-0.0195678416639566,-0.0014735270524397,-0.0199276357889175
1769250644285,-0.1109161376953125,-0.088165283203125,-0.9843902587890624,6.0453756304923445e-05,-0.0073636402375996,-0.034429345279932
1769250644295,-0.121673583984375,-0.0853118896484375,-0.99005126953125,0.0182261411100626,-0.0422169603407382,-0.0301600322127342
1769250644305,-0.1253814697265625,-0.1073760986328125,-0.986083984375,0.0211534891277551,-0.053660299628973,-0.0331089496612548
1769250644318,-0.12933349609375,-0.1412353515625,-0.9898529052734376,0.0062075620517134,-0.0140087595209479,-0.0426585152745246
1769250644326,-0.107391357421875,-0.1414642333984375,-0.988494873046875,-0.0099509013816714,0.0268451962620019,-0.0518613345921039
1769250644335,-0.0903472900390625,-0.104644775390625,-0.9716644287109376,-0.0195167101919651,0.0184735488146543,-0.056484580039978
1769250644345,-0.101531982421875,-0.110382080078125,-0.9718475341796876,-0.0121123231947422,-0.0031667647417634,-0.0560827106237411
1769250644355,-0.1105499267578125,-0.112548828125,-0.9756317138671876,0.0004101268132217,-0.0526000931859016,-0.0450779944658279
1769250644365,-0.11016845703125,-0.098968505859375,-0.9697265625,0.0054104779846966,-0.151790589094162,-0.0316948108375072
1769250644375,-0.119781494140625,-0.10699462890625,-0.9608612060546876,-0.0018080200534313,-0.2013339102268219,-0.0281610637903213
1769250644385,-0.12261962890625,-0.130218505859375,-0.9600067138671876,-0.0328053496778011,-0.2131796479225158,-0.024842232465744
1769250644396,-0.1087646484375,-0.139007568359375,-0.953582763671875,-0.0654647573828697,-0.2051334381103515,-0.0197358876466751
1769250644406,-0.09954833984375,-0.1376495361328125,-0.9611358642578124,-0.0948492810130119,-0.1515855342149734,-0.0119354892522096
1769250644416,-0.102020263671875,-0.135284423828125,-0.9775543212890624,-0.1190209314227104,-0.0389910750091075,-0.0065132929012179
1769250644426,-0.1037445068359375,-0.1202239990234375,-1.00616455078125,-0.1209189668297767,0.0514938160777092,-0.013055614195764
1769250644436,-0.122894287109375,-0.09906005859375,-1.037384033203125,-0.0916090160608291,0.0723391771316528,-0.0249221269041299
1769250644446,-0.135284423828125,-0.0882415771484375,-1.03369140625,-0.0742438733577728,0.0516072660684585,-0.0327395722270011
1769250644456,-0.1324462890625,-0.09295654296875,-0.9974212646484376,-0.0535902567207813,0.0227127689868211,-0.0408526249229908
1769250644466,-0.1322021484375,-0.1025543212890625,-0.995941162109375,-0.0314327590167522,0.0157059915363788,-0.0438417568802833
1769250644476,-0.12255859375,-0.1147613525390625,-0.991302490234375,-0.0248454287648201,0.0409996323287487,-0.0335244052112102
1769250644486,-0.10394287109375,-0.1246337890625,-0.98626708984375,-0.0105794072151184,0.0805840566754341,-0.0213026255369186
1769250644496,-0.1036224365234375,-0.1264801025390625,-0.9959564208984376,0.0056115468032658,0.0663744956254959,-0.0166202560067176
1769250644506,-0.1065521240234375,-0.115966796875,-1.0009918212890625,0.025669677183032,0.0530855879187583,-0.0161022711545228
1769250644516,-0.102569580078125,-0.1066741943359375,-0.9993896484375,0.0436984784901142,0.0594300366938114,-0.0133059518411755
1769250644526,-0.1117401123046875,-0.10003662109375,-1.0008087158203125,0.0652991086244583,0.0286018177866935,-0.0182218812406063
1769250644536,-0.1235809326171875,-0.10736083984375,-1.000701904296875,0.072716012597084,-0.0037539917975664,-0.0208437629044055
1769250644546,-0.1218109130859375,-0.1170196533203125,-0.9885711669921876,0.0667915493249893,-0.003149454249069,-0.0237332917749881
1769250644557,-0.1169891357421875,-0.116302490234375,-0.984649658203125,0.0549495331943035,0.0238989405333995,-0.0215090196579694
1769250644566,-0.108184814453125,-0.1092987060546875,-0.982757568359375,0.0383274145424366,0.0267482567578554,-0.0173672717064619
1769250644576,-0.1064300537109375,-0.114501953125,-0.975372314453125,0.0294577572494745,0.0054688011296093,-0.0155552579089999
1769250644586,-0.107574462890625,-0.121795654296875,-0.9736480712890624,0.0244036093354225,0.0041979406960308,-0.0104869958013296
1769250644596,-0.1070709228515625,-0.1209869384765625,-0.97998046875,0.023003052920103,0.001269262516871,-0.0124875623732805
1769250644607,-0.11151123046875,-0.118682861328125,-0.9868011474609376,0.0262664910405874,-0.0041095237247645,-0.009264338761568
1769250644617,-0.1077880859375,-0.113616943359375,-0.9900970458984376,0.027891818434,-0.0044791707769036,-0.006868558935821
1769250644627,-0.105682373046875,-0.1124725341796875,-0.9896240234375,0.0318727120757103,0.0063172844238579,-0.0038227012846618
1769250644637,-0.1056060791015625,-0.1153717041015625,-0.9887847900390624,0.0344322770833969,0.0098712723702192,0.0020338559988886
1769250644647,-0.10418701171875,-0.115692138671875,-0.9855194091796876,0.0347483940422534,0.0147919952869415,0.0085857650265097
1769250644657,-0.1035308837890625,-0.1126251220703125,-0.9773406982421876,0.0286348406225442,0.0124137923121452,0.011362642981112
1769250644667,-0.1066436767578125,-0.1143798828125,-0.9699554443359376,0.0215348526835441,0.0149914659559726,0.016653012484312
1769250644677,-0.107452392578125,-0.1152496337890625,-0.971923828125,0.0167155973613262,0.013039369136095,0.0150599097833037
1769250644687,-0.10797119140625,-0.113616943359375,-0.977386474609375,0.0145792085677385,0.0186290778219699,0.012221778742969
1769250644697,-0.114837646484375,-0.115447998046875,-0.9795379638671876,0.0074203656986355,0.0200682505965232,0.0146945239976048
1769250644707,-0.1173553466796875,-0.1245880126953125,-0.9823760986328124,-0.0049761165864765,0.0258323960006237,0.0207209903746843
1769250644717,-0.109039306640625,-0.1275634765625,-0.985595703125,-0.0102305328473448,0.0373479053378105,0.0194538589566946
1769250644727,-0.1053619384765625,-0.10809326171875,-0.9825286865234376,-0.0073351445607841,0.03341681137681,0.0115107148885726
1769250644737,-0.1154937744140625,-0.0893096923828125,-0.981842041015625,0.0094193341210484,0.0168953593820333,0.0034171019215136
1769250644747,-0.128265380859375,-0.093109130859375,-0.9857940673828124,0.0101258708164095,-0.0016604809788987,0.0015869776252657
1769250644757,-0.1336517333984375,-0.131744384765625,-0.9913787841796876,0.0061875884421169,0.0105567704886198,-0.0014152037911117
1769250644767,-0.120819091796875,-0.1436767578125,-0.996490478515625,0.0082914857193827,0.01940911822021,-0.0087942909449338
1769250644777,-0.0990142822265625,-0.1181640625,-0.9924468994140624,0.0073228939436376,0.0106838028877973,-0.0126420259475708
1769250644787,-0.0971221923828125,-0.11798095703125,-0.9846343994140624,0.0020652813836932,0.0153531236574053,-0.0173824522644281
1769250644797,-0.10546875,-0.1252899169921875,-0.984161376953125,-0.0037960698828101,0.0330008268356323,-1.4647385796706658e-05
1769250644808,-0.1017608642578125,-0.11285400390625,-0.980804443359375,-0.0092539517208933,0.0198016669601202,0.0175678078085184
1769250644818,-0.10980224609375,-0.1212005615234375,-0.979522705078125,-0.0152146387845277,0.0042887544259428,0.0321344994008541
1769250644827,-0.1112518310546875,-0.1298370361328125,-0.978912353515625,-0.0248864404857158,0.0112180337309837,0.0410539582371711
1769250644838,-0.1060943603515625,-0.1291046142578125,-0.9812774658203124,-0.0348149724304676,0.0177294630557298,0.0390296913683414
1769250644848,-0.1096038818359375,-0.1279296875,-0.9800872802734376,-0.0370749309659004,0.0132071487605571,0.0347489267587661
1769250644858,-0.1102142333984375,-0.1211700439453125,-0.9808502197265624,-0.0300945192575454,0.0099303945899009,0.028512068092823
1769250644868,-0.1163787841796875,-0.1116790771484375,-0.98681640625,-0.0138335237279534,0.0165483504533767,0.0221812017261981
1769250644878,-0.1211395263671875,-0.1055755615234375,-0.9947967529296876,0.0055777244269847,0.0204506795853376,0.0104268081486225
1769250644888,-0.12799072265625,-0.099212646484375,-0.997161865234375,0.023028353229165,0.0153975980356335,-0.0043409527279436
1769250644898,-0.1296234130859375,-0.098297119140625,-0.9928436279296876,0.0318769738078117,0.0251674056053161,-0.0146660283207893
1769250644908,-0.1251678466796875,-0.1042022705078125,-0.9865875244140624,0.0315518006682395,0.0312753655016422,-0.0253737997263669
1769250644918,-0.1202392578125,-0.11590576171875,-0.97845458984375,0.0275956746190786,0.0267290826886892,-0.0309374090284109
1769250644928,-0.1119384765625,-0.1201629638671875,-0.9736175537109376,0.024957813322544,0.011992746964097,-0.0309978630393743
1769250644938,-0.105621337890625,-0.123809814453125,-0.9757232666015624,0.024331172928214,0.0046115298755466,-0.0337435826659202
1769250644948,-0.1059417724609375,-0.126739501953125,-0.97735595703125,0.0136644132435321,0.0005755090969614,-0.0372600220143795
1769250644958,-0.1053009033203125,-0.121002197265625,-0.9775543212890624,0.0058328555896878,0.0012767193838953,-0.040903490036726
1769250644968,-0.1063385009765625,-0.111236572265625,-0.977874755859375,-8.28243064461276e-05,0.0132891740649938,-0.0375766716897487
1769250644978,-0.105377197265625,-0.1084747314453125,-0.9797515869140624,-0.0026943201664835,0.0195009969174861,-0.0319350287318229
1769250644988,-0.10333251953125,-0.1123199462890625,-0.985198974609375,-0.0078035946935415,0.013898504897952,-0.0302138291299343
1769250644999,-0.103729248046875,-0.121978759765625,-0.9925079345703124,-0.0099844569340348,0.0176785960793495,-0.0323006808757782
1769250645008,-0.1064910888671875,-0.1220550537109375,-0.9865875244140624,-0.009694704785943,0.0161619260907173,-0.0286617390811443
1769250645019,-0.106842041015625,-0.1113128662109375,-0.9822998046875,-0.003647731617093,0.0166969541460275,-0.0235066581517457
1769250645029,-0.1021575927734375,-0.1107025146484375,-0.9892730712890624,0.002076999284327,0.0469613820314407,-0.0169968269765377
1769250645039,-0.101043701171875,-0.118804931640625,-1.0003509521484375,0.0127530796453356,0.0752518773078918,-0.0146947903558611
1769250645049,-0.1014404296875,-0.117340087890625,-1.0063018798828125,0.0281235128641128,0.0745408162474632,-0.0120990071445703
1769250645059,-0.100860595703125,-0.1151580810546875,-0.996917724609375,0.0315446108579635,0.0639765858650207,-0.0006274407496675
1769250645069,-0.093292236328125,-0.1127777099609375,-0.9735107421875,0.0235695075243711,0.0477566048502922,0.0056624128483235
1769250645079,-0.09808349609375,-0.116668701171875,-0.9602813720703124,0.0064664212986826,0.038918636739254,0.0092574143782258
1769250645089,-0.0978546142578125,-0.11871337890625,-0.956634521484375,-0.0100758038461208,0.043767187744379,0.0176128149032592
1769250645099,-0.0933837890625,-0.11895751953125,-0.9632110595703124,-0.0173017587512731,0.0480562075972557,0.0239966791123151
1769250645109,-0.09332275390625,-0.1191864013671875,-0.9771575927734376,-0.0132707981392741,0.0315147824585437,0.0312761627137661
1769250645119,-0.09466552734375,-0.116912841796875,-0.9838104248046876,-0.0046453517861664,0.0083415526896715,0.0370501615107059
1769250645129,-0.0995635986328125,-0.11383056640625,-0.9823150634765624,-0.0018961706664413,-0.0154252955690026,0.0399460829794406
1769250645139,-0.1054534912109375,-0.11334228515625,-0.972869873046875,-0.0146087696775794,-0.0195526629686355,0.0416023060679435
1769250645149,-0.1052398681640625,-0.11199951171875,-0.9658050537109376,-0.0365289822220802,0.0100252032279968,0.0409511625766754
1769250645159,-0.106292724609375,-0.1293487548828125,-0.9760589599609376,-0.0493539683520793,0.0629904195666313,0.0397506095468997
1769250645169,-0.1074371337890625,-0.1304473876953125,-0.9993133544921876,-0.0349582508206367,0.0718283802270889,0.0299160871654748
1769250645179,-0.110260009765625,-0.09259033203125,-1.0023040771484375,-0.0032764871139079,0.0301451198756694,0.0194088518619537
1769250645189,-0.11712646484375,-0.0727691650390625,-0.99420166015625,0.0199785009026527,-0.0100707439705729,0.0143808033317327
1769250645200,-0.129608154296875,-0.10601806640625,-0.9908599853515624,0.0154905430972576,-0.0178277324885129,0.0095634115859866
1769250645209,-0.125518798828125,-0.149444580078125,-0.9897613525390624,0.0064584319479763,0.0086704539135098,0.0055332495830953
1769250645219,-0.1066131591796875,-0.145904541015625,-0.983428955078125,-0.0009331716573797,0.0210791863501071,-0.00080320937559
1769250645230,-0.0897064208984375,-0.110565185546875,-0.9727630615234376,-0.0127301765605807,0.0205462872982025,-0.0059694754891097
1769250645240,-0.0921783447265625,-0.11273193359375,-0.972900390625,-0.0039547942578792,0.0281232465058565,-0.0065292720682919
1769250645250,-0.104217529296875,-0.1089935302734375,-0.9871826171875,0.0173896420747041,0.0024165522772818,-0.0031483890488743
1769250645260,-0.1134033203125,-0.0999755859375,-0.98944091796875,0.0386933349072933,-0.0473648533225059,0.0031925975345075
1769250645272,-0.1204833984375,-0.1174163818359375,-0.9890899658203124,0.0392219722270965,-0.0656477212905883,0.00313107855618
1769250645280,-0.1128387451171875,-0.1350860595703125,-0.9787445068359376,0.0181720796972513,-0.0415855273604393,0.0032280175946652
1769250645290,-0.098724365234375,-0.1379547119140625,-0.970001220703125,-0.0103772729635238,-0.0203944873064756,0.0090952273458242
1769250645300,-0.0899200439453125,-0.132171630859375,-0.960845947265625,-0.0345369391143322,0.0048618670552968,0.0151813495904207
1769250645310,-0.0932159423828125,-0.1251678466796875,-0.9671630859375,-0.0404198616743087,0.0150420665740966,0.0148561773821711
1769250645320,-0.1041412353515625,-0.1157989501953125,-0.9799652099609376,-0.0306766852736473,0.0156766977161169,0.0100318612530827
1769250645330,-0.11322021484375,-0.1096343994140625,-0.9908294677734376,-0.0092638060450553,0.0079165128991007,0.0008820389630272
1769250645340,-0.1210784912109375,-0.105865478515625,-0.99932861328125,0.0062206117436289,0.0003829625493381,-0.0069615030661225
1769250645350,-0.1180419921875,-0.1067352294921875,-0.9898223876953124,0.0116246985271573,-0.0080898841843009,-0.0131043503060936
1769250645360,-0.11474609375,-0.116485595703125,-0.97698974609375,0.0068901302292943,-0.0111178988590836,-0.0155731011182069
1769250645370,-0.105926513671875,-0.1231536865234375,-0.971160888671875,-0.0024900555144995,-0.0160713773220777,-0.0137448403984308
1769250645380,-0.0998382568359375,-0.1253204345703125,-0.970977783203125,-0.0093178683891892,-0.011290737427771,-0.0091767208650708
1769250645390,-0.10260009765625,-0.129425048828125,-0.9801177978515624,-0.0123541383072733,-0.0082978773862123,-0.0159608572721481
1769250645400,-0.1086883544921875,-0.1252288818359375,-0.9845123291015624,-0.0105767445638775,-0.0106824720278382,-0.0215036943554878
1769250645411,-0.1058807373046875,-0.114501953125,-0.989410400390625,-0.0053609432652592,-0.0097058909013867,-0.0237407498061656
1769250645420,-0.10687255859375,-0.105987548828125,-0.9932708740234376,0.0005123922019265,-0.0128441592678427,-0.0215076878666877
1769250645431,-0.109405517578125,-0.1076202392578125,-0.9900054931640624,0.0026397253386676,-0.0221913214772939,-0.0237042643129825
1769250645441,-0.107421875,-0.1174163818359375,-0.990814208984375,-0.0008066715090535,-0.0143288718536496,-0.0225172936916351
1769250645451,-0.1018218994140625,-0.123077392578125,-0.99072265625,0.0033167006913572,-0.002666889457032,-0.0197372194379568
1769250645461,-0.10107421875,-0.122955322265625,-0.990814208984375,0.0048802425153553,-0.0060887853614985,-0.0120928818359971
1769250645471,-0.09625244140625,-0.115478515625,-0.98638916015625,0.0072517874650657,-0.0057822554372251,-0.0014298511669039
1769250645481,-0.0950927734375,-0.1142120361328125,-0.98419189453125,0.0096355834975838,0.0043550673872232,0.0066618975251913
1769250645491,-0.0951080322265625,-0.1167144775390625,-0.9874725341796876,0.0148838749155402,0.0032410670537501,0.0104326670989394
1769250645501,-0.096771240234375,-0.11993408203125,-0.9861297607421876,0.0217902492731809,-0.0037987329997122,0.0176961719989776
1769250645511,-0.09625244140625,-0.121917724609375,-0.983123779296875,0.0188021827489137,-0.0098923118785023,0.0235127825289964
1769250645521,-0.0962066650390625,-0.1227264404296875,-0.9750518798828124,0.0079484703019261,-0.007488542702049,0.0297056976705789
1769250645531,-0.0988006591796875,-0.1251373291015625,-0.9690399169921876,0.0011771172285079,-0.0016293219523504,0.0320791080594062
1769250645541,-0.10101318359375,-0.12640380859375,-0.9749755859375,-0.0035087147261947,0.0035697009880095,0.0347161702811718
1769250645551,-0.10394287109375,-0.1210784912109375,-0.9787139892578124,-0.0035087147261947,0.0035697009880095,0.0347161702811718
1769250645561,-0.1104888916015625,-0.1174468994140625,-0.9780426025390624,-0.0106262788176536,-0.0012519520241767,0.0274372175335884
1769250645571,-0.1161651611328125,-0.118560791015625,-0.9795989990234376,-0.0102619584649801,0.0104214819148182,0.0251160059124231
1769250645581,-0.1168365478515625,-0.11865234375,-0.9819793701171876,-0.0106089683249592,0.0084675205871462,0.0134942373260855
1769250645591,-0.11767578125,-0.118255615234375,-0.98333740234375,-0.0141264712437987,0.0019425096688792,0.0076834862120449
1769250645601,-0.1186370849609375,-0.1177978515625,-0.9813079833984376,-0.026986876502633,-0.0011893677292391,0.0011928298044949
1769250645611,-0.113006591796875,-0.1301116943359375,-0.9803466796875,-0.0385604426264762,0.0166596695780754,-0.0069971894845366
1769250645621,-0.1040191650390625,-0.1202850341796875,-0.9800262451171876,-0.0374640189111232,0.0256928466260433,-0.0137624172493815
1769250645632,-0.10198974609375,-0.086181640625,-0.9802703857421876,-0.019277824088931,0.0131118074059486,-0.02216362580657
1769250645642,-0.112762451171875,-0.08074951171875,-0.9869232177734376,-0.0007123955874703,-0.0062525696121156,-0.020216854289174
1769250645652,-0.1256561279296875,-0.122344970703125,-0.993133544921875,-0.002926813904196,-0.0220845285803079,-0.0203087329864501
1769250645662,-0.1212921142578125,-0.1614990234375,-0.991119384765625,-0.0140279345214366,-0.0072041167877614,-0.0210597459226846
1769250645672,-0.0988616943359375,-0.1447906494140625,-0.9827117919921876,-0.0265069752931594,0.0128598725423216,-0.0216704085469245
1769250645682,-0.08551025390625,-0.1084747314453125,-0.9693145751953124,-0.0430782288312912,0.0195105839520692,-0.0244446229189634
1769250645692,-0.094940185546875,-0.109344482421875,-0.9658966064453124,-0.0450028963387012,0.0323041453957557,-0.0192977972328662
1769250645702,-0.1052703857421875,-0.100677490234375,-0.97735595703125,-0.033885795623064,0.0071830782108008,-0.0150559144094586
1769250645712,-0.115081787109375,-0.102020263671875,-0.9830780029296876,-0.0191190987825393,-0.0316474065184593,-0.0085239792242646
1769250645722,-0.11663818359375,-0.12030029296875,-0.98675537109375,-0.0158937461674213,-0.0377345941960811,-0.0045643919147551
1769250645732,-0.109649658203125,-0.132659912109375,-0.98614501953125,-0.0223031751811504,-0.0253293253481388,-0.0045678536407649
1769250645742,-0.1026611328125,-0.133056640625,-0.98297119140625,-0.0403029471635818,-0.0197790302336215,0.0001789644302334
1769250645752,-0.093536376953125,-0.1321258544921875,-0.98028564453125,-0.0542123727500438,-0.0020434434991329,0.0069300779141485
1769250645762,-0.0930633544921875,-0.129425048828125,-0.982696533203125,-0.0587962046265602,0.006573480553925,0.0124438861384987
1769250645772,-0.09808349609375,-0.12164306640625,-0.9887237548828124,-0.0502069778740406,0.0024676851462572,0.0158596560359001
1769250645782,-0.1045379638671875,-0.1132659912109375,-0.9921112060546876,-0.0408888421952724,-0.0037047234363853,0.0154151748865842
1769250645792,-0.108245849609375,-0.1070709228515625,-0.9903106689453124,-0.0352405458688735,-0.0058997008018195,0.0111650368198752
1769250645802,-0.1151123046875,-0.1081085205078125,-0.98876953125,-0.0334788635373115,-0.0044040693901479,0.0057529606856405
1769250645812,-0.1144866943359375,-0.1123809814453125,-0.9832305908203124,-0.033229324966669,-0.003443733556196,0.0042994073592126
1769250645823,-0.111663818359375,-0.1150360107421875,-0.9792327880859376,-0.0338535718619823,-0.0062051652930676,-0.0017904432024806
1769250645832,-0.1109771728515625,-0.116790771484375,-0.9802398681640624,-0.0332860499620437,-0.0013387710787355,-0.0080997385084629
1769250645843,-0.1095733642578125,-0.12103271484375,-0.9850006103515624,-0.029208218678832,0.0004434163274709,-0.0154902767390012
1769250645853,-0.11016845703125,-0.1162567138671875,-0.9872283935546876,-0.0233300905674695,-0.0100046973675489,-0.023028353229165
1769250645863,-0.111419677734375,-0.1062469482421875,-0.98773193359375,-0.0149001199752092,-0.0075796227902174,-0.0303033106029033
1769250645873,-0.112884521484375,-0.0995330810546875,-0.986328125,-0.0176266636699438,-0.0073106433264911,-0.0355089902877807
1769250645883,-0.1136627197265625,-0.1070404052734375,-0.983734130859375,-0.0259058997035026,-0.007252053823322,-0.0387886762619018
1769250645893,-0.1126556396484375,-0.1182708740234375,-0.98651123046875,-0.0310828182846307,-0.0099495695903897,-0.0350418724119663
1769250645903,-0.1056365966796875,-0.1182098388671875,-0.9845428466796876,-0.0349033884704113,-0.0114353476092219,-0.0283754486590623
1769250645913,-0.10089111328125,-0.1138763427734375,-0.983245849609375,-0.037503432482481,-0.0068416609428822,-0.0237372871488332
1769250645923,-0.1031951904296875,-0.1090545654296875,-0.9861602783203124,-0.0336676836013793,-0.0043191146105527,-0.0215878505259752
1769250645933,-0.10540771484375,-0.1131591796875,-0.993865966796875,-0.0234142448753118,-0.0020820593927055,-0.0185587704181671
1769250645943,-0.1051483154296875,-0.11444091796875,-0.996734619140625,-0.011331483721733,-0.0077713704667985,-0.0132644064724445
1769250645953,-0.102264404296875,-0.11102294921875,-0.995208740234375,-0.0015257250051945,-0.0090957600623369,-0.0038975363131612
1769250645963,-0.0958099365234375,-0.1141815185546875,-0.99462890625,0.00528264651075,-0.0096512958407402,0.0030666298698633
1769250645973,-0.0929107666015625,-0.1167755126953125,-0.9925079345703124,0.0124380271881818,-0.0104270745068788,0.0144431218504905
1769250645983,-0.0935821533203125,-0.1152496337890625,-0.989166259765625,0.0198125876486301,-0.0068853367120027,0.0207188613712787
1769250645993,-0.098541259765625,-0.115631103515625,-0.9893341064453124,0.0256281308829784,-0.0090771177783608,0.0264949910342693
1769250646003,-0.105377197265625,-0.11541748046875,-0.987213134765625,0.0296830609440803,-0.0087367659434676,0.0274737030267715
1769250646013,-0.1105194091796875,-0.1137237548828125,-0.9878997802734376,0.0322546102106571,-0.0120239062234759,0.0219590943306684
1769250646023,-0.114410400390625,-0.1111907958984375,-0.98876953125,0.0318591296672821,-0.0126169919967651,0.0202408228069543
1769250646034,-0.111053466796875,-0.108245849609375,-0.9871063232421876,0.032782182097435,-0.0141352601349353,0.0203042067587375
1769250646043,-0.1093292236328125,-0.1086883544921875,-0.9881134033203124,0.0334157459437847,-0.0143352635204792,0.0170311816036701
1769250646054,-0.113128662109375,-0.1176910400390625,-0.989593505859375,0.0258808657526969,-0.0121583957225084,0.0132731944322586
1769250646064,-0.113037109375,-0.1347503662109375,-0.9842071533203124,0.0224112998694181,-0.0043883565813302,0.0098875183612108
1769250646075,-0.1075286865234375,-0.10345458984375,-0.9790802001953124,0.0268670339137315,-0.0111405355855822,-0.002272475278005
1769250646084,-0.112152099609375,-0.0692901611328125,-0.9784088134765624,0.0361998155713081,-0.0229929331690073,-0.0116497315466403
1769250646094,-0.12884521484375,-0.08416748046875,-0.978912353515625,0.0367678664624691,-0.0374874547123909,-0.0100568952038884
1769250646104,-0.1316070556640625,-0.133544921875,-0.982452392578125,0.0206086058169603,-0.0401325039565563,-0.0082243736833333
1769250646114,-0.119140625,-0.1607666015625,-0.9881744384765624,0.0076765618287026,-0.0111280186101794,-0.0188876707106828
1769250646124,-0.1005706787109375,-0.1277618408203125,-0.98687744140625,-0.0055281897075474,0.0109205581247806,-0.0181158874183893
1769250646134,-0.0896453857421875,-0.099395751953125,-0.9741058349609376,-0.0180280022323131,0.0072965286672115,-0.0184101667255163
1769250646144,-0.0994110107421875,-0.105224609375,-0.972991943359375,-0.0109274825081229,0.012867328710854,-0.0159805640578269
1769250646154,-0.108489990234375,-0.1029052734375,-0.979217529296875,0.0015057512791827,-0.0108422609046101,-0.0063524381257593
1769250646164,-0.1149444580078125,-0.1068572998046875,-0.984161376953125,0.0117903463542461,-0.0426824837923049,0.0014753912109881
1769250646174,-0.1182403564453125,-0.120758056640625,-0.9880828857421876,0.0124766435474157,-0.056512277573347,0.0056429719552397
1769250646184,-0.1136627197265625,-0.1290283203125,-0.9845428466796876,0.0022847258951514,-0.0479126647114753,0.0077082533389329
1769250646194,-0.10540771484375,-0.129058837890625,-0.981689453125,-0.0111043164506554,-0.0324234515428543,0.0128553444519639
1769250646204,-0.101287841796875,-0.1298675537109375,-0.982757568359375,-0.0196892824023962,-0.018532671034336,0.0191308166831731
1769250646214,-0.101409912109375,-0.1237640380859375,-0.98443603515625,-0.0204235166311264,-0.014338725246489,0.0214427076280117
1769250646224,-0.1068267822265625,-0.112335205078125,-0.9871063232421876,-0.0184477176517248,-0.0153400739654898,0.0212083496153354
1769250646234,-0.11358642578125,-0.106353759765625,-0.9880828857421876,-0.0188256185501813,-0.0080046635121107,0.0213042236864566
1769250646245,-0.1158447265625,-0.104095458984375,-0.986053466796875,-0.0143256764858961,0.0063596284016966,0.0190847441554069
1769250646254,-0.1185455322265625,-0.112396240234375,-0.98760986328125,-0.0104640927165746,-0.0015265239635482,0.0127022126689553
1769250646265,-0.1218719482421875,-0.1194305419921875,-0.98504638671875,-0.0013297162950038,-0.0101612908765673,0.0108523815870285
1769250646274,-0.119354248046875,-0.1137237548828125,-0.983978271484375,-0.0015156050212681,-0.0153427375480532,0.0125259114429354
1769250646285,-0.11053466796875,-0.1141204833984375,-0.98321533203125,1.1984225238848012e-05,-0.0045896917581558,0.014405570924282
1769250646295,-0.109527587890625,-0.1231842041015625,-0.9864349365234376,-0.001751561067067,0.0005507417372427,0.0040599890053272
1769250646305,-0.11309814453125,-0.118560791015625,-0.987640380859375,0.0040546627715229,0.0137387150898575,-0.004096208140254
1769250646315,-0.115447998046875,-0.103729248046875,-0.9940643310546876,0.0157864205539226,0.0097431745380163,-0.002926813904196
1769250646325,-0.1179962158203125,-0.10198974609375,-0.99383544921875,0.0262893941253423,-0.0050663975998759,-0.0042136535048484
1769250646335,-0.12066650390625,-0.1145172119140625,-0.9980010986328124,0.033383522182703,-0.0183968506753444,-0.0039145806804299
1769250646345,-0.119842529296875,-0.119659423828125,-0.9966583251953124,0.0416379906237125,-0.0304519161581993,-0.0051193945109844
1769250646355,-0.1151123046875,-0.118133544921875,-0.990631103515625,0.04695925116539,-0.0337430499494075,-0.0052011534571647
1769250646365,-0.1155242919921875,-0.121124267578125,-0.987518310546875,0.0468564555048942,-0.0317443460226058,-1.145159239968052e-05
1769250646375,-0.1107177734375,-0.1202850341796875,-0.9832305908203124,0.0436518713831901,-0.0316649861633777,0.0065782740712165
1769250646385,-0.107879638671875,-0.1140594482421875,-0.9825592041015624,0.0340812727808952,-0.0028370653744786,0.0106153599917888
1769250646397,-0.10577392578125,-0.11669921875,-0.983489990234375,0.0196453407406806,0.0208629369735717,0.0113469306379556
1769250646405,-0.108917236328125,-0.1181640625,-0.9801177978515624,0.0148673625662922,0.0172761920839548,0.0076339510269463
1769250646415,-0.1150665283203125,-0.1203460693359375,-0.980865478515625,0.0133802536875009,0.0072461948730051,0.0092020202428102
1769250646425,-0.112213134765625,-0.1223297119140625,-0.979278564453125,0.0123908892273902,0.0060246028006076,0.0129181956872344
1769250646436,-0.1085662841796875,-0.12286376953125,-0.9782562255859376,0.0150556480512022,0.00061492389068,0.0190621074289083
1769250646446,-0.1061553955078125,-0.1222076416015625,-0.9803619384765624,0.0167707242071628,-0.0048565403558313,0.0268446635454893
1769250646455,-0.107635498046875,-0.1177978515625,-0.9822540283203124,0.0168048124760389,-0.0017680726014077,0.0305049121379852
1769250646465,-0.1126861572265625,-0.115203857421875,-0.9849090576171876,0.0208000876009464,0.0061052967794239,0.02465714327991
1769250646475,-0.117950439453125,-0.11627197265625,-0.9884490966796876,0.018442390486598,0.0220917202532291,0.0239892229437828
1769250646486,-0.1183013916015625,-0.1126251220703125,-0.9909820556640624,0.024861142039299,0.0148194264620542,0.0231716316193342
1769250646496,-0.11737060546875,-0.1134796142578125,-0.99066162109375,0.0261823348701,0.0084896245971322,0.0265405308455228
1769250646506,-0.1145477294921875,-0.1283111572265625,-0.9857635498046876,0.0147693585604429,0.0123315006494522,0.0315320938825607
1769250646516,-0.1114044189453125,-0.135833740234375,-0.98297119140625,0.0133933033794164,0.0171651374548673,0.0278348270803689
1769250646526,-0.110198974609375,-0.1004638671875,-0.9816436767578124,0.0239122565835714,-0.0011709919199347,0.0190743580460548
1769250646536,-0.1187591552734375,-0.0770263671875,-0.9761810302734376,0.0376451127231121,-0.0241367612034082,0.0132582811638712
1769250646546,-0.1343841552734375,-0.0966033935546875,-0.9741058349609376,0.0301120951771736,-0.0161017384380102,0.0180849935859441
1769250646556,-0.1349029541015625,-0.14593505859375,-0.9862213134765624,0.0203641280531883,0.0104885939508676,0.0096747316420078
1769250646566,-0.125274658203125,-0.16387939453125,-1.001922607421875,0.0161246415227651,0.0306553803384304,-0.0058767977170646
1769250646576,-0.1061248779296875,-0.1147308349609375,-0.98126220703125,0.0085434205830097,0.0297869239002466,-0.0104928547516465
1769250646586,-0.1021881103515625,-0.09747314453125,-0.9661407470703124,0.0089849727228283,0.0269458629190921,-0.0193129777908325
1769250646596,-0.1190185546875,-0.115478515625,-0.9732818603515624,0.0194349512457847,0.0204815734177827,-0.0194559898227453
1769250646606,-0.1236419677734375,-0.1071624755859375,-0.97705078125,0.0349579825997352,-0.0098963063210248,-0.0137586891651153
1769250646616,-0.1265411376953125,-0.1059722900390625,-0.986114501953125,0.0470862872898578,-0.0375795997679233,-0.0024407871533185
1769250646626,-0.118682861328125,-0.1180267333984375,-0.990814208984375,0.0458809398114681,-0.0345033816993236,0.0032365396618843
1769250646636,-0.10919189453125,-0.1349029541015625,-0.98321533203125,0.0366248562932014,-0.0358051359653472,-0.0029148298781365
1769250646647,-0.1114959716796875,-0.1444091796875,-0.9754791259765624,0.0238898862153291,-0.0436108596622943,0.0007283745799213
1769250646656,-0.1081390380859375,-0.138092041015625,-0.974151611328125,0.0135743981227278,-0.028614867478609,0.0093088131397962
1769250646666,-0.1090545654296875,-0.1296234130859375,-0.9737701416015624,-0.0080589912831783,0.00084235786926,0.0181901883333921
1769250646677,-0.10662841796875,-0.1202239990234375,-0.9750823974609376,-0.0238030664622783,0.0261301379650831,0.0211553517729043
1769250646687,-0.1104736328125,-0.1167449951171875,-0.983367919921875,-0.0275972727686166,0.0229905378073453,0.01953961327672
1769250646697,-0.1154632568359375,-0.1109771728515625,-0.9833831787109376,-0.0300564356148242,0.0141776045784354,0.0256896503269672
1769250646707,-0.1144866943359375,-0.116546630859375,-0.9800872802734376,-0.0263543762266635,0.0035878105554729,0.027222566306591
1769250646717,-0.121612548828125,-0.12945556640625,-0.979644775390625,-0.0234081204980611,-0.0092179989442229,0.0213260613381862
1769250646727,-0.1275634765625,-0.1301422119140625,-0.978607177734375,-0.0154407415539026,-0.0180080290883779,0.0178530327975749
1769250646737,-0.12548828125,-0.1279144287109375,-0.984344482421875,-0.0055657401680946,-0.019538814201951,0.0139190116897225
1769250646747,-0.1241912841796875,-0.1287384033203125,-0.9957733154296876,0.0057079531252384,-0.0370440371334552,-0.001612277701497
1769250646757,-0.1242218017578125,-0.1178436279296875,-0.9943695068359376,0.0123464148491621,-0.0183339994400739,-0.0067801419645547
1769250646767,-0.11773681640625,-0.1036834716796875,-0.990081787109375,0.0129605391994118,-0.0075798891484737,-0.0029087045695632
1769250646777,-0.1139984130859375,-0.1091461181640625,-0.9906158447265624,0.0153672387823462,-0.0047790426760911,-0.0032980586402118
1769250646787,-0.11456298828125,-0.1304473876953125,-0.9923248291015624,0.0190232265740633,0.0032170985359698,-0.0009595369338057
1769250646797,-0.114288330078125,-0.131591796875,-0.9930877685546876,0.0232547223567962,0.0067495154216885,0.0008980178972706
1769250646808,-0.1143646240234375,-0.126556396484375,-0.9926910400390624,0.0255674123764038,0.0121440142393112,0.0016935041639953
1769250646817,-0.1149749755859375,-0.1243896484375,-0.987548828125,0.026664100587368,0.0089990878477692,0.004546548705548
1769250646827,-0.1128692626953125,-0.1234588623046875,-0.9814300537109376,0.0311459358781576,0.0066784089431166,0.0094046872109174
1769250646837,-0.1108856201171875,-0.1239776611328125,-0.9790802001953124,0.0350171066820621,0.0140170156955719,0.0165693890303373
1769250646847,-0.1078338623046875,-0.122711181640625,-0.9821319580078124,0.0399697870016098,0.0121197793632745,0.0195249654352664
1769250646857,-0.1093597412109375,-0.1286773681640625,-0.9804534912109376,0.0444486923515796,0.0134289897978305,0.0267149675637483
1769250646867,-0.11224365234375,-0.130584716796875,-0.978790283203125,0.0489861853420734,0.0097655449062585,0.0247066784650087
1769250646878,-0.1181640625,-0.1277008056640625,-0.980682373046875,0.0523545518517494,0.0052530854009091,0.0271993968635797
1769250646888,-0.11865234375,-0.12548828125,-0.9835205078125,0.0544619113206863,0.0076909428462386,0.0270486623048782
1769250646898,-0.12109375,-0.127044677734375,-0.9806976318359376,0.0518770478665828,0.0026988473255187,0.0222088992595672
1769250646908,-0.1259613037109375,-0.1248779296875,-0.974822998046875,0.0462532490491867,-0.0046011433005332,0.0161555334925651
1769250646918,-0.12347412109375,-0.1230316162109375,-0.97113037109375,0.0348013900220394,-0.0049614692106842,0.0126542765647172
1769250646928,-0.116119384765625,-0.12310791015625,-0.9669189453125,0.0156529955565929,0.0091226585209369,0.0093825832009315
1769250646938,-0.116455078125,-0.120269775390625,-0.965545654296875,-0.0002615224220789,0.0109658315777778,0.0042221755720674
1769250646949,-0.12054443359375,-0.122894287109375,-0.9661407470703124,-0.0108356038108468,-0.0008189220097847,0.0097572896629571
1769250646958,-0.119140625,-0.140289306640625,-0.9675750732421876,-0.0214134138077497,-0.008918659761548,0.0163856316357851
1769250646968,-0.11517333984375,-0.1454925537109375,-0.9732666015625,-0.0203028749674558,-0.0108281467109918,0.0142974462360143
1769250646978,-0.1110687255859375,-0.1131591796875,-0.97772216796875,-0.0080454098060727,-0.0220725461840629,0.0083423517644405
1769250646988,-0.1211700439453125,-0.091949462890625,-0.9750213623046876,0.0014112089993432,-0.0335672795772552,0.0019504991360008
1769250646998,-0.1393890380859375,-0.115478515625,-0.97412109375,-0.0071732243523001,-0.0486088134348392,0.008101868443191
1769250647008,-0.137908935546875,-0.1629180908203125,-0.9769439697265624,-0.0299656223505735,-0.0274151135236024,0.0090219909325242
1769250647018,-0.1208648681640625,-0.16400146484375,-0.977996826171875,-0.0456295348703861,0.0062248725444078,0.0001741707383189
1769250647028,-0.1039886474609375,-0.11602783203125,-0.9704437255859376,-0.0531258024275302,0.0094973649829626,-0.0044224453158676
1769250647038,-0.1071929931640625,-0.113800048828125,-0.9745025634765624,-0.0447445698082447,0.016071643680334,-0.0090342415496706
1769250647048,-0.1227874755859375,-0.123779296875,-0.9850616455078124,-0.0246243868023157,-0.0044698496349155,0.0004514057945925
1769250647058,-0.125152587890625,-0.1130218505859375,-0.9883270263671876,-0.0028282769490033,-0.0405450277030468,0.0108126997947692
1769250647068,-0.1298675537109375,-0.1240081787109375,-0.9917755126953124,0.0097287939861416,-0.0594236440956592,0.0112374741584062
1769250647078,-0.1319427490234375,-0.144195556640625,-0.9857177734375,0.0052126049995422,-0.0531108900904655,0.0071402010507881
1769250647089,-0.1256256103515625,-0.146453857421875,-0.9759521484375,-0.0071029169484972,-0.045324869453907,0.0116960704326629
1769250647099,-0.1175537109375,-0.1412811279296875,-0.9729461669921876,-0.0265879351645708,-0.0252299886196851,0.0175299905240535
1769250647109,-0.11187744140625,-0.13763427734375,-0.9734649658203124,-0.0416342616081237,-0.0044629252515733,0.0201715808361768
1769250647119,-0.110931396484375,-0.1291351318359375,-0.9806365966796876,-0.0485622100532054,0.0078294267877936,0.023665914312005
1769250647129,-0.1161346435546875,-0.12579345703125,-0.9844970703125,-0.046715572476387,0.0055167381651699,0.0169560797512531
1769250647139,-0.1287384033203125,-0.1279754638671875,-0.9865264892578124,-0.0402307771146297,0.0013550163712352,0.0102451806887984
1769250647149,-0.13397216796875,-0.12255859375,-0.9853515625,-0.0300007760524749,-0.0017968347528949,0.0039784964174032
1769250647159,-0.1367950439453125,-0.1246795654296875,-0.990142822265625,-0.0200746413320302,-0.0097085535526275,-0.0010602044640108
1769250647169,-0.13287353515625,-0.1260833740234375,-0.9893341064453124,-0.0194381456822156,-0.0156271625310182,-0.0038970035966485
1769250647179,-0.1253662109375,-0.12811279296875,-0.983154296875,-0.0231423377990722,-0.0072485916316509,-0.0088653964921832
1769250647189,-0.123931884765625,-0.1335296630859375,-0.9793548583984376,-0.0278430823236703,0.0064608287066221,-0.0129727898165583
1769250647199,-0.118621826171875,-0.130859375,-0.9810333251953124,-0.0307552497833967,0.0131653370335698,-0.0162900239229202
1769250647209,-0.115386962890625,-0.124786376953125,-0.98907470703125,-0.0162175856530666,0.0215388480573892,-0.0185635648667812
1769250647219,-0.121734619140625,-0.12109375,-0.9958038330078124,-0.0020439762156456,0.0058355187065899,-0.0180045664310455
1769250647229,-0.124725341796875,-0.12060546875,-0.995941162109375,0.0098046939820051,-0.0098073566332459,-0.0181401222944259
1769250647239,-0.1297607421875,-0.128936767578125,-0.9958343505859376,0.0122635904699563,-0.008943160995841,-0.0157667119055986
1769250647249,-0.125274658203125,-0.1323089599609375,-0.9923248291015624,0.0090576773509383,-0.0001515338663011,-0.0114489290863275
1769250647260,-0.11846923828125,-0.1291046142578125,-0.9866943359375,0.0068413945846259,0.0057732006534934,-0.0069236862473189
1769250647270,-0.11553955078125,-0.129058837890625,-0.98248291015625,0.0042243059724569,0.0136489672586321,-0.0037926076911389
1769250647279,-0.1170806884765625,-0.1273345947265625,-0.981353759765625,0.0026687537319958,0.0166418273001909,-0.0041814292781054
1769250647289,-0.11920166015625,-0.12432861328125,-0.9825286865234376,0.004980111028999,0.0138942440971732,0.0019917781464755
1769250647300,-0.1144256591796875,-0.1219635009765625,-0.98052978515625,0.0064539043232798,0.0107482513412833,-0.0014578143600374
1769250647310,-0.1198577880859375,-0.1302337646484375,-0.977203369140625,0.00560915004462,0.0166687257587909,-0.0012612730497494
1769250647320,-0.120086669921875,-0.132110595703125,-0.9810333251953124,0.0140066295862197,0.0017081515397876,-0.0023172164801508
1769250647330,-0.1231231689453125,-0.129058837890625,-0.9860992431640624,0.021523667499423,-0.0120398849248886,-0.0018341189716011
1769250647340,-0.1219329833984375,-0.1327972412109375,-0.982574462890625,0.0238635204732418,-0.0107410615310072,-0.0041641187854111
1769250647350,-0.12353515625,-0.1304779052734375,-0.9808502197265624,0.020879715681076,-0.01456855610013,-0.0055968994274735
1769250647360,-0.1238555908203125,-0.1230010986328125,-0.9806365966796876,0.0111368065699934,-0.0064416541717946,-0.0036189695820212
1769250647370,-0.118927001953125,-0.119598388671875,-0.9772796630859376,-0.0093748597428202,0.012476909905672,-0.003695135936141
1769250647380,-0.118988037109375,-0.1219024658203125,-0.97015380859375,-0.0338445156812667,0.0385037176311016,-0.0085362298414111
1769250647390,-0.1202850341796875,-0.1260223388671875,-0.9734649658203124,-0.0473565980792045,0.0478447526693344,-0.0141784036532044
1769250647400,-0.1234130859375,-0.1265869140625,-0.9751739501953124,-0.050975564867258,0.0344618372619152,-0.0103210806846618
1769250647410,-0.123138427734375,-0.1417388916015625,-0.9791717529296876,-0.0488274618983268,0.0179156176745891,-0.006351372692734
1769250647420,-0.1185455322265625,-0.1431427001953125,-0.9868316650390624,-0.0378741435706615,0.0180602259933948,-0.01001588255167
1769250647430,-0.1177978515625,-0.1067657470703125,-0.98876953125,-0.0230440665036439,0.0158910825848579,-0.0227545816451311
1769250647440,-0.1275177001953125,-0.0822601318359375,-0.98828125,-0.0057590859942138,0.0124971494078636,-0.0296239387243986
1769250647450,-0.14251708984375,-0.1011962890625,-0.98455810546875,-0.0094696683809161,0.0003086603537667,-0.0314889512956142
1769250647460,-0.14398193359375,-0.1547393798828125,-0.9848480224609376,-0.0220523048192262,0.0196296274662017,-0.0402158610522747
1769250647470,-0.1227874755859375,-0.1596832275390625,-0.987884521484375,-0.0250065494328737,0.0453640185296535,-0.0475307665765285
1769250647481,-0.09716796875,-0.1154632568359375,-0.982757568359375,-0.0225657634437084,0.0385031849145889,-0.0507366806268692
1769250647490,-0.1020355224609375,-0.114349365234375,-0.9810638427734376,-0.0043598609045147,0.0286508202552795,-0.0510352216660976
1769250647501,-0.1150360107421875,-0.12274169921875,-0.9894561767578124,0.0220035687088966,-0.001522795530036,-0.0446502938866615
1769250647511,-0.1213836669921875,-0.1167449951171875,-0.994415283203125,0.0491310618817806,-0.0356789007782936,-0.0334442444145679
1769250647521,-0.1258087158203125,-0.1268157958984375,-0.9941558837890624,0.0464255549013614,-0.0373843908309936,-0.0201177857816219
1769250647531,-0.11676025390625,-0.136322021484375,-0.9825592041015624,0.0263964533805847,-0.0146196894347667,-0.0088033452630043
1769250647541,-0.1034698486328125,-0.1444854736328125,-0.976165771484375,-0.0060475063510239,-0.0009456885163672,-0.0012708604335784
1769250647551,-0.098175048828125,-0.150970458984375,-0.968048095703125,-0.0301166232675313,0.0161850955337286,0.0042469431646168
1769250647561,-0.1012420654296875,-0.142242431640625,-0.971160888671875,-0.0398225151002407,0.0344501174986362,0.0108784800395369
1769250647571,-0.10858154296875,-0.127838134765625,-0.9839324951171876,-0.0316780358552932,0.0408928394317626,0.0136127481237053
1769250647581,-0.11639404296875,-0.121368408203125,-0.9990234375,-0.0121940821409225,0.0310276914387941,0.0112348115071654
1769250647591,-0.123687744140625,-0.1164398193359375,-1.000274658203125,0.0059654805809259,0.0145334023982286,0.0070472569204866
1769250647601,-0.1277923583984375,-0.115478515625,-0.9871978759765624,0.0145901283249259,0.0144702857360243,0.0035880769137293
1769250647611,-0.1271514892578125,-0.115631103515625,-0.9816741943359376,0.0208962261676788,0.0163387600332498,-0.0028234834317117
1769250647621,-0.12493896484375,-0.1249847412109375,-0.9832000732421876,0.0273698382079601,0.0163989476859569,-0.0066206185147166
1769250647631,-0.120086669921875,-0.133514404296875,-0.9853363037109376,0.0400997474789619,0.0091474251821637,-0.0082949474453926
1769250647641,-0.1192169189453125,-0.1363677978515625,-0.9901885986328124,0.0510775633156299,-0.0052983588539063,-0.0132843796163797
1769250647651,-0.1165924072265625,-0.1331787109375,-0.986297607421875,0.057123739272356,-0.0121733089908957,-0.0166367664933204
1769250647661,-0.1131439208984375,-0.1250457763671875,-0.9849853515625,0.0556566044688224,0.004857872147113,-0.0140242064371705
1769250647671,-0.1128997802734375,-0.116943359375,-0.9780731201171876,0.043597012758255,0.0112665025517344,-0.0136300586163997
1769250647681,-0.1157989501953125,-0.1243133544921875,-0.973236083984375,0.0298186149448156,0.0047630635090172,-0.014428474009037
1769250647691,-0.11956787109375,-0.1380615234375,-0.9735107421875,0.0162386242300272,0.0012175972806289,-0.0165432896465063
1769250647701,-0.1178436279296875,-0.137298583984375,-0.9707794189453124,0.0038879488129168,0.0054016895592212,-0.0157400816679
1769250647712,-0.116607666015625,-0.1291961669921875,-0.969482421875,-0.0072736255824565,0.0066448533907532,-0.0136681413277983
1769250647722,-0.1155548095703125,-0.1295928955078125,-0.9700469970703124,-0.0141174169257283,0.0086313048377633,-0.0135024925693869
1769250647732,-0.1170501708984375,-0.1287689208984375,-0.9710693359375,-0.0181121584028005,0.0063058328814804,-0.0122484108433127
1769250647742,-0.1161041259765625,-0.1278228759765625,-0.974365234375,-0.0166394300758838,0.0006559365428984,-0.0123621271923184
1769250647752,-0.115386962890625,-0.1275634765625,-0.9788360595703124,-0.014658304862678,-0.0019750001374632,-0.0071069118566811
1769250647762,-0.110931396484375,-0.1262664794921875,-0.9828643798828124,-0.0143496440723538,0.0007984156836755,-0.0035936695057898
1769250647772,-0.1091766357421875,-0.1297607421875,-0.9804534912109376,-0.0158290304243564,0.0061830612830817,-0.003435211488977
1769250647782,-0.1100921630859375,-0.1328887939453125,-0.9793701171875,-0.0137882502749562,0.0108372010290622,-0.0005763080553151
1769250647792,-0.1119232177734375,-0.1336517333984375,-0.9825286865234376,-0.0070531158708035,0.0114904744550585,0.0038711710367351
1769250647802,-0.1116180419921875,-0.12799072265625,-0.9821929931640624,-0.0056118131615221,0.015313709154725,0.0084099965170025
1769250647812,-0.1091461181640625,-0.12567138671875,-0.9838409423828124,-0.0011150655336678,0.0113133741542696,0.0119626531377434
1769250647822,-0.1142578125,-0.1287841796875,-0.98394775390625,0.0033742249943315,0.0074150394648313,0.0088017471134662
1769250647832,-0.1168670654296875,-0.126068115234375,-0.985382080078125,0.0039819586090743,0.0036237633321434,0.0063247410580515
1769250647842,-0.118865966796875,-0.124114990234375,-0.9828643798828124,0.0023760723415762,0.0146069061011075,0.0012045477051287
1769250647852,-0.1226959228515625,-0.1237335205078125,-0.9861297607421876,0.003842675127089,0.0208405666053295,-0.0004676510870922
1769250647862,-0.1238555908203125,-0.140869140625,-0.9917449951171876,0.0103511745110154,0.0140415169298648,-0.0016506272368133
1769250647872,-0.11981201171875,-0.150299072265625,-0.9932403564453124,0.0220043677836656,0.0115464013069868,-0.0021132184192538
1769250647882,-0.1134033203125,-0.1114654541015625,-0.988433837890625,0.039814256131649,-0.0061540324240922,-0.0111357420682907
1769250647892,-0.1181488037109375,-0.0841827392578125,-0.979736328125,0.0470969378948211,-0.0148492539301514,-0.0153824184089899
1769250647902,-0.1330108642578125,-0.1090545654296875,-0.9775238037109376,0.0329475626349449,-0.0201047360897064,-0.0195702388882637
1769250647913,-0.135650634765625,-0.164764404296875,-0.9793701171875,0.0112481275573372,0.0139847910031676,-0.0175893791019916
1769250647922,-0.112762451171875,-0.160919189453125,-0.9727325439453124,-0.0172812528908252,0.0536363311111927,-0.0171571485698223
1769250647933,-0.08447265625,-0.1190948486328125,-0.9597015380859376,-0.0447709336876869,0.0660405382514,-0.0178650170564651
1769250647943,-0.0892181396484375,-0.1180267333984375,-0.958984375,-0.0495398566126823,0.0603405721485614,-0.0138340564444661
1769250647953,-0.105072021484375,-0.118072509765625,-0.9669189453125,-0.0381945222616195,0.048107873648405,0.0025129588320851
1769250647963,-0.1147613525390625,-0.112335205078125,-0.977264404296875,-0.0275815594941377,0.0131909027695655,0.0165081359446048
1769250647973,-0.127166748046875,-0.13214111328125,-0.985137939453125,-0.0204067379236221,-0.0052605420351028,0.022515695542097
1769250647983,-0.126861572265625,-0.1519775390625,-0.98870849609375,-0.0206126011908054,-0.0193452015519142,0.0182980466634035
1769250647993,-0.11920166015625,-0.1566925048828125,-0.980316162109375,-0.0278007388114929,-0.0270009916275739,0.0141235422343015
1769250648003,-0.1153717041015625,-0.155303955078125,-0.9703521728515624,-0.0439424254000186,-0.0203305725008249,0.0129882367327809
1769250648013,-0.113311767578125,-0.1402435302734375,-0.9691619873046876,-0.0528512299060821,-0.0052112736739218,0.014747254550457
1769250648023,-0.111907958984375,-0.1227874755859375,-0.9822235107421876,-0.0542422011494636,0.0038229676429182,0.0143954511731863
1769250648033,-0.116973876953125,-0.112213134765625,-0.99072265625,-0.0487638115882873,0.0038698392454534,0.0056352489627897
1769250648043,-0.12554931640625,-0.11639404296875,-0.987884521484375,-0.0371521636843681,-0.0068698902614414,-0.00696523161605
1769250648053,-0.1324920654296875,-0.1210479736328125,-0.9882354736328124,-0.0297009032219648,-0.0068507157266139,-0.0089381011202931
1769250648063,-0.12457275390625,-0.118438720703125,-0.9896087646484376,-0.0329227969050407,0.008249407634139,-0.0095791239291429
1769250648074,-0.115936279296875,-0.12542724609375,-0.9862823486328124,-0.0302244815975427,0.0139914490282535,-0.0119533324614167
1769250648083,-0.1142425537109375,-0.1403961181640625,-0.98785400390625,-0.0161552671343088,0.0031278827227652,-0.0106268115341663
1769250648093,-0.1133880615234375,-0.143951416015625,-0.992431640625,-0.0037092508282512,-0.0088464887812733,-0.0038304245099425
1769250648103,-0.1031036376953125,-0.130706787109375,-0.99420166015625,0.0049462891183793,-0.0112148374319076,0.0022112226579338
1769250648114,-0.1028900146484375,-0.1243133544921875,-0.991973876953125,0.0073481942526996,-0.0015275891637429,0.0012295814231038
1769250648124,-0.1111602783203125,-0.126312255859375,-0.986846923828125,0.0092262551188468,0.0009456885163672,6.258428766159341e-05
1769250648133,-0.11956787109375,-0.1245574951171875,-0.9880218505859376,0.0137261981144547,-0.0058525628410279,-0.0040661143139004
1769250648144,-0.1212615966796875,-0.1288299560546875,-0.9903411865234376,0.0137728033587336,0.0039625172503292,0.0016258598770946
1769250648154,-0.1148223876953125,-0.127960205078125,-0.99432373046875,0.0159536655992269,0.0104539720341563,0.0060946443118155
1769250648164,-0.108795166015625,-0.1242828369140625,-0.9899444580078124,0.0195737015455961,0.0034575820900499,0.0100329266861081
1769250648174,-0.110198974609375,-0.1292724609375,-0.98236083984375,0.0233788266777992,0.0001012001230265,0.0076406090520322
1769250648184,-0.1179962158203125,-0.1317291259765625,-0.977630615234375,0.0258523691445589,-0.0061489725485444,0.0019086875254288
1769250648194,-0.12335205078125,-0.1304931640625,-0.9785308837890624,0.0282588023692369,-0.009974337182939,-0.000163784410688
1769250648204,-0.118927001953125,-0.126922607421875,-0.981964111328125,0.025531992316246,-0.0066853333264589,-0.0014085458824411
1769250648214,-0.1158599853515625,-0.1271820068359375,-0.9799346923828124,0.023101057857275,-0.0037760960403829,-0.0028866003267467
1769250648224,-0.11444091796875,-0.1260986328125,-0.9766082763671876,0.0180764719843864,-0.0017467673169448,-0.0030306773260235
1769250648234,-0.1129608154296875,-0.1298980712890625,-0.9798583984375,0.0134207336232066,0.01365402713418,0.0018668759148567
1769250648244,-0.1087646484375,-0.1273956298828125,-0.9809722900390624,0.0079695098102092,0.0225942581892013,0.0016940367640927
1769250648254,-0.1116485595703125,-0.12847900390625,-0.9813690185546876,0.0121615910902619,0.0177081562578678,0.0042999400757253
1769250648264,-0.1140899658203125,-0.131927490234375,-0.9851226806640624,0.0200272370129823,0.0096318544819951,0.004424575716257
1769250648274,-0.11505126953125,-0.1285552978515625,-0.9868621826171876,0.0257178805768489,0.0043188482522964,0.004186222795397
1769250648284,-0.1192169189453125,-0.1303558349609375,-0.9811553955078124,0.0245053432881832,0.0010732539230957,0.0004780374001711
1769250648294,-0.119232177734375,-0.126678466796875,-0.97674560546875,0.0268870070576667,-0.0018793927738443,-0.0048576057888567
1769250648305,-0.1208038330078125,-0.12359619140625,-0.9817352294921876,0.0305568445473909,-0.0073564499616622,-0.002748648636043
1769250648314,-0.1175537109375,-0.1364288330078125,-0.9830322265625,0.0250765904784202,-0.0043089943937957,-0.0015915050171315
1769250648324,-0.116119384765625,-0.1520538330078125,-0.9791717529296876,0.0252499636262655,0.0125677231699228,-0.0033220271579921
1769250648334,-0.1085357666015625,-0.112579345703125,-0.9768829345703124,0.0338391885161399,0.0066927899606525,-0.0089066755026578
1769250648345,-0.11126708984375,-0.0826416015625,-0.9771881103515624,0.0506064519286155,-0.0102957803755998,-0.0151145039126276
1769250648355,-0.1295166015625,-0.1123046875,-0.980010986328125,0.0539804100990295,-0.0305666979402303,-0.0153957344591617
1769250648365,-0.1347198486328125,-0.1647186279296875,-0.9837188720703124,0.0466852150857448,-0.0204323045909404,-0.0110561130568385
1769250648375,-0.11688232421875,-0.1667633056640625,-0.9829254150390624,0.0344088412821292,0.0070488546043634,-0.0107216201722621
1769250648385,-0.09259033203125,-0.1302947998046875,-0.966522216796875,0.0148641671985387,0.0229300837963819,-0.0141879906877875
1769250648395,-0.0961456298828125,-0.1221466064453125,-0.959381103515625,0.0088321072980761,0.0334061607718467,-0.0195481348782777
1769250648405,-0.108642578125,-0.1182861328125,-0.965667724609375,0.0195212364196777,0.0086494144052267,-0.018047709017992
1769250648415,-0.122283935546875,-0.1093902587890625,-0.974853515625,0.0277496054768562,-0.0354565270245075,-0.0091626057401299
1769250648425,-0.13128662109375,-0.1272430419921875,-0.9772491455078124,0.0243330355733633,-0.0555072017014026,-0.0055995625443756
1769250648435,-0.126617431640625,-0.1476287841796875,-0.9760894775390624,0.010398312471807,-0.046785082668066,-0.0020439762156456
1769250648445,-0.1095428466796875,-0.149993896484375,-0.9712371826171876,-0.0147760165855288,-0.0333675444126129,0.0044472124427556
1769250648455,-0.10516357421875,-0.15069580078125,-0.96539306640625,-0.0451712049543857,-0.0015970977256074,0.0054104779846966
1769250648465,-0.108428955078125,-0.1470184326171875,-0.965667724609375,-0.0643156096339225,0.0156804267317056,0.0054586813785135
1769250648475,-0.1154937744140625,-0.13348388671875,-0.9719085693359376,-0.0689809322357177,0.0134372450411319,0.0084153227508068
1769250648485,-0.1173858642578125,-0.121826171875,-0.9790191650390624,-0.0625142455101013,0.0084499437361955,0.0070704263634979
1769250648495,-0.1203155517578125,-0.1151123046875,-0.9848175048828124,-0.0594382919371128,0.0136974360793828,0.0133450999855995
1769250648506,-0.116119384765625,-0.11773681640625,-0.986541748046875,-0.0519249811768531,0.0155334193259477,0.0149227567017078
1769250648515,-0.114501953125,-0.130584716796875,-0.9835052490234376,-0.0433868877589702,0.0122433500364422,0.0140140857547521
1769250648525,-0.1185302734375,-0.1386260986328125,-0.9791412353515624,-0.0350866131484508,0.0048360340297222,0.0137144802138209
1769250648535,-0.1180419921875,-0.140106201171875,-0.982421875,-0.0239705797284841,0.0025989788118749,0.0148340733721852
1769250648546,-0.1177215576171875,-0.14202880859375,-0.9898529052734376,-0.0092086782678961,0.0115943383425474,0.01710787974298
1769250648556,-0.116424560546875,-0.139984130859375,-0.99261474609375,-0.0054610781371593,0.0006511429091915,0.0163803044706583
1769250648566,-0.113555908203125,-0.12774658203125,-0.992156982421875,0.0021688784472644,0.0034439999144524,0.0121291009709239
1769250648576,-0.1159515380859375,-0.1217803955078125,-0.9898681640625,0.0036724992096424,0.0137352533638477,0.0103453155606985
1769250648586,-0.1197509765625,-0.1226959228515625,-0.9862213134765624,0.0017036241479218,0.0073284865356981,0.0050839744508266
1769250648596,-0.123291015625,-0.133544921875,-0.98895263671875,0.0064035709947347,-0.0042016692459583,0.0012727247085422
1769250648606,-0.125244140625,-0.13922119140625,-0.98681640625,0.0062515041790902,-0.0089341066777706,0.0027334685437381
1769250648616,-0.12042236328125,-0.13165283203125,-0.982696533203125,0.0051870387978851,-0.0025971147697418,0.0035390746779739
1769250648626,-0.118011474609375,-0.129241943359375,-0.97991943359375,0.0004356931603979,0.0012942962348461,-0.0030423952266573
1769250648636,-0.1198577880859375,-0.1326446533203125,-0.9801025390625,0.0006583334179595,0.001391767989844,-0.0038887478876858
1769250648646,-0.1186981201171875,-0.1329345703125,-0.98193359375,-0.0002719087351579,-0.0006175870657898,-0.0061058294959366
1769250648656,-0.1163787841796875,-0.1305999755859375,-0.9787445068359376,-0.0105684883892536,-0.0001366201613564,-0.0044618602842092
1769250648666,-0.11468505859375,-0.1296844482421875,-0.970306396484375,-0.0220102276653051,0.0031023162882775,-0.0050517502240836
1769250648676,-0.113372802734375,-0.1340484619140625,-0.9659576416015624,-0.0316926836967468,0.0006045375484973,-0.0034197650384157
1769250648686,-0.110748291015625,-0.13775634765625,-0.969085693359375,-0.036528717726469,-0.0028932581190019,-0.0004604605492204
1769250648696,-0.1139678955078125,-0.13427734375,-0.97479248046875,-0.0349880792200565,-0.0057492321357131,0.000908670539502
1769250648706,-0.1151885986328125,-0.133941650390625,-0.98291015625,-0.033183254301548,-0.0062749399803578,0.0015845808666199
1769250648716,-0.1137847900390625,-0.12841796875,-0.9851837158203124,-0.0308487266302108,-0.0070709590800106,0.0035643747542053
1769250648726,-0.11688232421875,-0.12493896484375,-0.9842681884765624,-0.0288028866052627,-0.0022964437957853,0.0043452135287225
1769250648736,-0.119293212890625,-0.1220703125,-0.9838409423828124,-0.0253831204026937,0.0058150123804807,0.003754524514079
1769250648747,-0.119293212890625,-0.1233062744140625,-0.9850921630859376,-0.0200541354715824,0.0195289608091115,0.0049084722995758
1769250648757,-0.117279052734375,-0.120391845703125,-0.988861083984375,-0.0138028971850872,0.0156159773468971,0.0044522727839648
1769250648767,-0.121124267578125,-0.130706787109375,-0.989410400390625,-0.0046783750876784,0.0014974954538047,0.0068872007541358
1769250648777,-0.1195831298828125,-0.15277099609375,-0.9879150390625,0.0034738273825496,0.0006095975404605,0.0099868541583418
1769250648787,-0.1108856201171875,-0.120697021484375,-0.985626220703125,0.0152489943429827,-0.0085151912644505,0.0061881211586296
1769250648797,-0.1150054931640625,-0.085357666015625,-0.9796295166015624,0.0319744460284709,-0.010751980356872,-0.0105344001203775
1769250648807,-0.138458251953125,-0.0972900390625,-0.981170654296875,0.0287855751812458,-0.0149331428110599,-0.0098161455243825
1769250648817,-0.143707275390625,-0.1446685791015625,-0.9754486083984376,0.0036120454315096,-0.0148362042382359,-0.0121280355378985
1769250648827,-0.130126953125,-0.172088623046875,-0.9713287353515624,-0.0214565563946962,0.0033744913525879,-0.0179310627281665
1769250648837,-0.10308837890625,-0.1443328857421875,-0.9662017822265624,-0.039284024387598,0.0228382032364606,-0.0151635063812136
1769250648847,-0.093719482421875,-0.1162261962890625,-0.9633636474609376,-0.0484120063483715,0.0314724370837211,-0.0171172022819519
1769250648858,-0.110260009765625,-0.1145782470703125,-0.9717559814453124,-0.0442143343389034,0.0302649606019258,-0.0190184321254491
1769250648867,-0.1231231689453125,-0.107574462890625,-0.9774932861328124,-0.0357316322624683,0.0012586099328473,-0.0117996679618954
1769250648877,-0.12677001953125,-0.1141357421875,-0.987579345703125,-0.0289695989340543,-0.0189720932394266,-0.0039513320662081
1769250648887,-0.124786376953125,-0.1371307373046875,-0.98748779296875,-0.0333228036761283,-0.0187973901629447,-0.0029457225464284
1769250648897,-0.116455078125,-0.146575927734375,-0.9775390625,-0.0518964864313602,-0.0114151071757078,0.0020724718924611
1769250648907,-0.10894775390625,-0.141937255859375,-0.967132568359375,-0.072730928659439,0.0094198668375611,0.0104286726564168
1769250648917,-0.103912353515625,-0.139862060546875,-0.9707489013671876,-0.0844501703977584,0.0280795712023973,0.0198072604835033
1769250648927,-0.1027069091796875,-0.13116455078125,-0.9825286865234376,-0.0913586765527725,0.0393279641866683,0.0249615423381328
1769250648937,-0.1098175048828125,-0.1241455078125,-0.9874267578125,-0.0821635797619819,0.0292963702231645,0.0223934557288885
1769250648948,-0.1207122802734375,-0.12109375,-0.9970245361328124,-0.0578196235001087,0.0040645166300237,0.0194927416741848
1769250648958,-0.1216583251953125,-0.1161651611328125,-1.000762939453125,-0.0391974709928035,-0.0117935426533222,0.0157177094370126
1769250648967,-0.1229400634765625,-0.117462158203125,-0.99224853515625,-0.0321893617510795,-0.0052727926522493,0.0116212358698248
1769250648978,-0.1243743896484375,-0.1253204345703125,-0.9885711669921876,-0.0262190867215394,0.0044698496349155,0.0102984439581632
1769250648988,-0.1196136474609375,-0.12286376953125,-0.9889678955078124,-0.0172450337558984,0.0028128307312726,0.0097767310217022
1769250648998,-0.1161041259765625,-0.12652587890625,-0.99041748046875,-0.0071316789835691,-0.0016090818680822,0.005404086317867
1769250649008,-0.1186676025390625,-0.136871337890625,-0.9896087646484376,0.0051476238295435,-0.0065692192874848,-0.0050858384929597
1769250649018,-0.1204071044921875,-0.1288909912109375,-0.9962921142578124,0.0196437425911426,-0.0032445292454212,-0.0072848107665777
1769250649028,-0.1195220947265625,-0.1121978759765625,-1.00054931640625,0.0289403051137924,-0.0045326999388635,-0.003171824850142
1769250649038,-0.1189117431640625,-0.113525390625,-0.9958038330078124,0.0257165487855672,-0.0034751589410007,0.0031534489244222
1769250649048,-0.1159820556640625,-0.127777099609375,-0.9881744384765624,0.0106987170875072,0.0138383172452449,0.0093335807323455
1769250649058,-0.1102294921875,-0.1319427490234375,-0.98126220703125,5.9921123465755954e-05,0.0203076675534248,0.0126508139073848
1769250649068,-0.111083984375,-0.1284637451171875,-0.9746856689453124,-0.0040890173986554,0.0139893190935254,0.0183406583964824
1769250649078,-0.11163330078125,-0.124420166015625,-0.972412109375,-0.0045801042579114,0.0075924061238765,0.0151967955753207
1769250649088,-0.117584228515625,-0.1268768310546875,-0.9772796630859376,0.000614391232375,-0.006287723314017,0.0119216404855251
1769250649098,-0.1179046630859375,-0.121063232421875,-0.9807891845703124,-0.0029073730111122,-0.0095839174464344,0.0153760267421603
1769250649108,-0.1102752685546875,-0.1131134033203125,-0.9781646728515624,-0.0075114457868039,-0.0035614452790468,0.016037555411458
1769250649118,-0.1122283935546875,-0.1226043701171875,-0.977081298828125,-0.0141914524137973,0.0034141724463552,0.0128542799502611
1769250649128,-0.1137237548828125,-0.1302032470703125,-0.978515625,-0.0189619734883308,0.0138875860720872,0.0164538081735372
1769250649138,-0.110321044921875,-0.126556396484375,-0.9771881103515624,-0.020347349345684,0.0155832208693027,0.0152258248999714
1769250649148,-0.1138916015625,-0.124603271484375,-0.9816436767578124,-0.0138356545940041,0.0084057357162237,0.0143147567287087
1769250649158,-0.1179962158203125,-0.118804931640625,-0.985565185546875,-0.0086193205788731,0.0114965997636318,0.0172873772680759
1769250649169,-0.115234375,-0.1138763427734375,-0.9891815185546876,-0.0022881880868226,0.0177374519407749,0.0159874893724918
1769250649179,-0.1163787841796875,-0.1191864013671875,-0.9902801513671876,0.0049870354123413,0.0146425925195217,0.0138401817530393
1769250649189,-0.1176300048828125,-0.1235504150390625,-0.9926605224609376,0.0138364536687731,0.00721130752936,0.0129722580313682
1769250649199,-0.1181182861328125,-0.1239776611328125,-0.9883575439453124,0.0265370681881904,-0.005641374271363,0.0121525367721915
1769250649209,-0.119293212890625,-0.1206817626953125,-0.988128662109375,0.0334482379257679,-0.0157648473978042,0.0133086144924163
1769250649219,-0.1202239990234375,-0.124176025390625,-0.983489990234375,0.0290284547954797,-0.0149704273790121,0.0162969473749399
1769250649229,-0.12066650390625,-0.14019775390625,-0.9796295166015624,0.0151243582367897,0.0050727892667055,0.0178325269371271
1769250649239,-0.1102447509765625,-0.1255645751953125,-0.9771575927734376,0.0106321377679705,0.0178519673645496,0.0132867768406867
1769250649249,-0.106536865234375,-0.086212158203125,-0.9766845703125,0.02374660782516,0.0084890918806195,-1.5978966985130683e-05
1769250649259,-0.12591552734375,-0.08648681640625,-0.9804534912109376,0.0391191728413105,-0.0086744483560323,-0.0048019457608461
1769250649269,-0.14227294921875,-0.125335693359375,-0.9832763671875,0.0333249345421791,-0.024786040186882,0.0008178567513823
1769250649279,-0.1352996826171875,-0.167633056640625,-0.9814300537109376,0.0129914321005344,-0.0100768692791461,-0.0053335125558078
1769250649289,-0.1137847900390625,-0.1510467529296875,-0.9729156494140624,-0.0107221528887748,0.0142665542662143,-0.009786051698029
1769250649299,-0.0955810546875,-0.105712890625,-0.9596405029296876,-0.0343228206038475,0.023364445194602,-0.0146993175148963
1769250649309,-0.10675048828125,-0.10870361328125,-0.9605255126953124,-0.0346692986786365,0.026019349694252,-0.0189025849103927
1769250649319,-0.1204376220703125,-0.1137237548828125,-0.97607421875,-0.0145504465326666,-0.0077750985510647,-0.0163765754550695
1769250649329,-0.12939453125,-0.11322021484375,-0.9902801513671876,0.0047726510092616,-0.0449664108455181,-0.0094611458480358
1769250649341,-0.129425048828125,-0.1206207275390625,-0.99383544921875,0.0074752266518771,-0.0538315400481224,-0.0066800070926547
1769250649349,-0.1249542236328125,-0.133087158203125,-0.9842376708984376,-0.0056472332216799,-0.0408582165837287,-0.0048256479203701
1769250649359,-0.1157379150390625,-0.1394195556640625,-0.97186279296875,-0.0296327266842126,-0.0248627383261919,-0.0016903083305805
1769250649369,-0.1053466796875,-0.1409149169921875,-0.9682769775390624,-0.0504964627325534,0.0025326660834252,0.0069615030661225
1769250649380,-0.1013336181640625,-0.1359100341796875,-0.9779510498046876,-0.0555804371833801,0.0127096697688102,0.0099666137248277
1769250649390,-0.1085205078125,-0.132171630859375,-0.99090576171875,-0.0403634011745452,-0.0022815300617367,0.0138026308268308
1769250649400,-0.11505126953125,-0.124969482421875,-0.9971466064453124,-0.0224973186850547,-0.0132886413484811,0.0198703780770301
1769250649410,-0.1194915771484375,-0.1157989501953125,-0.9980316162109376,-0.014152836985886,-0.0130862407386302,0.0234174411743879
1769250649420,-0.119781494140625,-0.112030029296875,-0.99371337890625,-0.0099413143470883,-0.0068965218961238,0.0212522912770509
1769250649430,-0.1228485107421875,-0.1228485107421875,-0.9860687255859376,-0.0089157307520508,-0.0008705873624421,0.0156221026554703
1769250649440,-0.12518310546875,-0.130828857421875,-0.982635498046875,-7.989483492565341e-07,-0.001594168250449,0.0083050681278109
1769250649450,-0.125885009765625,-0.1299285888671875,-0.9885711669921876,0.0131403030827641,-0.0020588897168636,0.0003014698449987
1769250649460,-0.1252288818359375,-0.12481689453125,-0.9903717041015624,0.0181925855576992,0.0018956380663439,-0.0019345202017575
1769250649470,-0.1212005615234375,-0.117431640625,-0.991912841796875,0.0250664707273244,-0.0025824673939496,-0.0131387049332261
1769250649480,-0.1225433349609375,-0.1118316650390625,-0.995849609375,0.0335020348429679,0.0074469973333179,-0.0238728430122137
1769250649490,-0.1257781982421875,-0.113677978515625,-0.9921875,0.0366781204938888,-0.0014085458824411,-0.027886226773262
1769250649500,-0.1293792724609375,-0.1225128173828125,-0.9870147705078124,0.0398438200354576,-0.0120697123929858,-0.0310849491506814
1769250649510,-0.1241912841796875,-0.1297760009765625,-0.9859771728515624,0.0387444645166397,-0.0162444841116666,-0.0319701842963695
1769250649520,-0.120208740234375,-0.130462646484375,-0.9806060791015624,0.0322884321212768,-0.0190021861344575,-0.028132302686572
1769250649530,-0.1144866943359375,-0.124481201171875,-0.9733123779296876,0.024711737409234,-0.0182905904948711,-0.0233276933431625
1769250649540,-0.110687255859375,-0.116058349609375,-0.9721832275390624,0.0048895636573433,-0.0082219773903489,-0.0197550617158412
1769250649550,-0.1072540283203125,-0.1174163818359375,-0.9684600830078124,-0.0036067189648747,0.0131964953616261,-0.0148995872586965
1769250649560,-0.104583740234375,-0.125213623046875,-0.9776458740234376,-0.0083431508392095,0.0172759257256984,-0.0068690911866724
1769250649570,-0.10772705078125,-0.128387451171875,-0.9812164306640624,0.0001446096430299,0.0096014942973852,0.002248773118481
1769250649581,-0.108734130859375,-0.1257476806640625,-0.98486328125,0.0061548314988613,0.0077434070408344,0.0124446852132678
1769250649590,-0.1102447509765625,-0.126739501953125,-0.983551025390625,0.0072904033586382,0.0117418775334954,0.0208749212324619
1769250649601,-0.1137847900390625,-0.12884521484375,-0.9832611083984376,0.0084970816969871,0.0113440006971359,0.0191281549632549
1769250649611,-0.1199188232421875,-0.1309814453125,-0.98504638671875,0.0180077627301216,0.0050402986817061,0.0159688461571931
1769250649621,-0.123046875,-0.1334228515625,-0.9892730712890624,0.0262268111109733,-0.0030205573420971,0.0153278233483433
1769250649631,-0.122406005859375,-0.12646484375,-0.988372802734375,0.0319041386246681,-0.0118167120963335,0.0137919783592224
1769250649641,-0.121429443359375,-0.119781494140625,-0.987945556640625,0.0328815169632434,-0.0100952442735433,0.0157896149903535
1769250649651,-0.120086669921875,-0.120391845703125,-0.9834747314453124,0.0285954251885414,-0.0003123887872789,0.0173928383737802
1769250649661,-0.1161346435546875,-0.120758056640625,-0.9794921875,0.0256875194609165,0.0013568805297836,0.0167414285242557
1769250649671,-0.1179046630859375,-0.1227264404296875,-0.9736175537109376,0.0220525711774826,0.0006705839768983,0.0215071570128202
1769250649681,-0.1185150146484375,-0.1344451904296875,-0.9736785888671876,0.0149198276922106,2.663161103555467e-05,0.022170016542077
1769250649691,-0.121063232421875,-0.1497955322265625,-0.9763336181640624,0.014674549922347,0.0046706520952284,0.0219612251967191
1769250649701,-0.112518310546875,-0.1125640869140625,-0.974884033203125,0.0192458666861057,-0.0061074271798133,0.0170751232653856
1769250649711,-0.1155548095703125,-0.0832977294921875,-0.9728851318359376,0.0365705266594886,-0.0169041492044925,0.0089484872296452
1769250649721,-0.1369781494140625,-0.10919189453125,-0.976287841796875,0.0383537821471691,-0.0364384353160858,0.0125751802697777
1769250649731,-0.1452789306640625,-0.156951904296875,-0.9753875732421876,0.0163968168199062,-0.0369004942476749,0.0107780788093805
1769250649741,-0.13238525390625,-0.1778411865234375,-0.970611572265625,-0.0055106128565967,-0.0071596424095332,-0.0017582189757376
1769250649751,-0.111053466796875,-0.12896728515625,-0.9672088623046876,-0.0290228631347417,-0.0012985573848709,-0.0074792215600609
1769250649762,-0.1067352294921875,-0.10626220703125,-0.95855712890625,-0.0458830706775188,0.0058421762660145,-0.0123573336750268
1769250649771,-0.1187591552734375,-0.1152496337890625,-0.96673583984375,-0.0430569238960742,0.0037723677232861,-0.0137224700301885
1769250649782,-0.1296539306640625,-0.1147308349609375,-0.98028564453125,-0.0286473575979471,-0.0281357634812593,-0.0118116522207856
1769250649792,-0.1343231201171875,-0.1182861328125,-0.989532470703125,-0.0145496474578976,-0.0427016578614711,-0.006320746615529
1769250649802,-0.128814697265625,-0.1282806396484375,-0.9929046630859376,-0.0153760267421603,-0.0237327590584754,-0.0008990831556729
1769250649812,-0.1193389892578125,-0.137969970703125,-0.984649658203125,-0.0296303294599056,-0.0082430159673094,0.0018370485631749
1769250649822,-0.1148223876953125,-0.1458740234375,-0.9721527099609376,-0.037298634648323,0.00131799839437,0.0073929349891841
1769250649832,-0.1063079833984375,-0.139373779296875,-0.9718017578125,-0.0445799864828586,0.0073567163199186,0.0206631999462842
1769250649842,-0.1063995361328125,-0.1373748779296875,-0.9820709228515624,-0.0380350016057491,0.0009443568997085,0.0251130759716033
1769250649852,-0.116668701171875,-0.13446044921875,-0.988250732421875,-0.0283461529761552,-0.0094619449228048,0.0266257524490356
1769250649862,-0.1229400634765625,-0.1229705810546875,-0.986968994140625,-0.0179936476051807,-0.0127514814957976,0.0274300258606672
1769250649872,-0.13037109375,-0.11572265625,-0.9891510009765624,-0.0110196275636553,-0.0142436502501368,0.0258134882897138
1769250649882,-0.1342010498046875,-0.1188201904296875,-0.9879913330078124,-0.0089921634644269,-0.0110643692314624,0.0200165845453739
1769250649893,-0.1357879638671875,-0.120880126953125,-0.982452392578125,-0.0125181889161467,-0.0046107308007776,0.0107240173965692
1769250649902,-0.1313018798828125,-0.1249847412109375,-0.98333740234375,-0.0087681915611028,-0.0029904635157436,0.0012586099328473
1769250649912,-0.1311798095703125,-0.1349639892578125,-0.9896697998046876,-0.000957406417001,-0.0067742830142378,-0.0072429990395903
1769250649922,-0.130584716796875,-0.1328125,-0.9861602783203124,0.0056696035899221,-0.017478859052062,-0.014872689731419
1769250649932,-0.1271514892578125,-0.12066650390625,-0.9909210205078124,0.0158426128327846,-0.0124372281134128,-0.0173595491796731
1769250649943,-0.125396728515625,-0.1131591796875,-0.989898681640625,0.0182282719761133,-0.0151336789131164,-0.0216602887958288
1769250649952,-0.1292266845703125,-0.124298095703125,-0.9833526611328124,0.0115336179733276,-0.0193052552640438,-0.0221702829003334
1769250649962,-0.1265716552734375,-0.1256561279296875,-0.9755096435546876,-0.0053545515984296,0.0022945795208215,-0.0142226116731762
1769250649973,-0.1156005859375,-0.1209716796875,-0.9718170166015624,-0.0230906717479228,0.0170708615332841,-0.0078781628981232
1769250649983,-0.1157379150390625,-0.1332550048828125,-0.9720916748046876,-0.0267477240413427,0.0077785607427358,-0.0056717339903116
1769250649992,-0.118682861328125,-0.1331329345703125,-0.9718475341796876,-0.0262190867215394,-0.0074975974857807,-0.0006964165950194
1769250650003,-0.119781494140625,-0.1258392333984375,-0.97906494140625,-0.0193270929157733,-0.0167986880987882,0.0006181196658872
1769250650013,-0.1251983642578125,-0.126953125,-0.983612060546875,-0.0147091709077358,-0.0246472898870706,0.0023704797495156
1769250650023,-0.1245574951171875,-0.125091552734375,-0.9817962646484376,-0.0142439166083931,-0.0183342657983303,0.0091684646904468
1769250650033,-0.116058349609375,-0.1212005615234375,-0.9813385009765624,-0.0164748467504978,-0.0140798659995198,0.0140058305114507
1769250650043,-0.1192474365234375,-0.13037109375,-0.9784698486328124,-0.0199300330132246,-0.0154695035889744,0.0104513093829154
1769250650053,-0.12451171875,-0.134796142578125,-0.9767913818359376,-0.0235170442610979,-0.004277036525309,0.0164319705218076
1769250650063,-0.1243438720703125,-0.1214141845703125,-0.980438232421875,-0.0304372683167457,0.0022626216523349,0.0199771709740161
1769250650073,-0.12530517578125,-0.1198577880859375,-0.9782257080078124,-0.0365409664809703,0.0118771661072969,0.0206887666136026
1769250650083,-0.1292877197265625,-0.1243896484375,-0.9779205322265624,-0.0373140834271907,0.0112678343430161,0.0175909772515296
1769250650093,-0.132598876953125,-0.1201324462890625,-0.982208251953125,-0.0318399555981159,0.0016911072889342,0.0159478075802326
1769250650103,-0.133392333984375,-0.116058349609375,-0.9866180419921876,-0.0302338022738695,-0.0077969366684556,0.0177574250847101
1769250650113,-0.131195068359375,-0.119598388671875,-0.982635498046875,-0.0343305431306362,-0.0087434239685535,0.0159533992409706
1769250650123,-0.1342620849609375,-0.1216278076171875,-0.9777069091796876,-0.0354496017098426,-0.0060070259496569,0.0111977932974696
1769250650133,-0.137969970703125,-0.1230926513671875,-0.9784393310546876,-0.0446532219648361,-0.0020370518323034,0.0111823473125696
1769250650143,-0.137176513671875,-0.1390228271484375,-0.9777679443359376,-0.0592228434979915,0.0117674432694911,0.0127187250182032
1769250650153,-0.13201904296875,-0.126495361328125,-0.9761810302734376,-0.0623856149613857,0.0216152798384428,-0.0010341054294258
1769250650163,-0.1291046142578125,-0.091644287109375,-0.9774932861328124,-0.0461272820830345,0.002747849561274,-0.0178716741502285
1769250650173,-0.1428985595703125,-0.0849456787109375,-0.9880828857421876,-0.0259772725403308,-0.0253447704017162,-0.0244677923619747
1769250650183,-0.162109375,-0.121795654296875,-0.9914398193359376,-0.0322077386081218,-0.045675341039896,-0.0296505708247423
1769250650194,-0.1580047607421875,-0.1609344482421875,-0.9907379150390624,-0.0475190505385398,-0.0202850308269262,-0.0436673201620578
1769250650203,-0.13409423828125,-0.1385498046875,-0.9852294921875,-0.0575213506817817,0.0206277798861265,-0.0569879189133644
1769250650214,-0.11767578125,-0.0906982421875,-0.9703369140625,-0.0657073706388473,0.0325377024710178,-0.0704914778470993
1769250650224,-0.1259918212890625,-0.09820556640625,-0.9776763916015624,-0.0537455193698406,0.0458164885640144,-0.0785997360944747
1769250650234,-0.13525390625,-0.1063995361328125,-0.99267578125,-0.0238736402243375,0.0174929741770029,-0.0735250860452652
1769250650244,-0.138427734375,-0.107330322265625,-0.9999847412109376,0.0095021585002541,-0.0275815594941377,-0.0662248283624649
1769250650254,-0.1391143798828125,-0.11767578125,-1.002197265625,0.0229511223733425,-0.046392798423767,-0.0583930015563964
1769250650264,-0.12847900390625,-0.1300811767578125,-0.9865570068359376,0.0126968864351511,-0.0349265597760677,-0.0597677268087863
1769250650274,-0.1214752197265625,-0.132354736328125,-0.9697723388671876,-0.0113799534738063,-0.0116686401888728,-0.0575562380254268
1769250650284,-0.1141510009765625,-0.1300048828125,-0.962249755859375,-0.0373827926814556,0.0109099056571722,-0.0506426692008972
1769250650294,-0.1064300537109375,-0.1221160888671875,-0.966033935546875,-0.0550893507897853,0.0239950809627771,-0.0394909493625164
1769250650304,-0.1090850830078125,-0.1234283447265625,-0.9730224609375,-0.058960523456335,0.027417242527008,-0.0327440984547138
1769250650314,-0.115692138671875,-0.1184539794921875,-0.9784393310546876,-0.0590457431972026,0.0325488895177841,-0.023721307516098
1769250650324,-0.1179962158203125,-0.1131134033203125,-0.9780120849609376,-0.0561804473400116,0.0387380756437778,-0.0179491732269525
1769250650334,-0.121368408203125,-0.113555908203125,-0.9790496826171876,-0.0554206483066082,0.0373524315655231,-0.0195832885801792
1769250650344,-0.124420166015625,-0.116363525390625,-0.9833984375,-0.0512333586812019,0.0316463448107242,-0.0241098627448081
1769250650354,-0.1220550537109375,-0.1187591552734375,-0.9846343994140624,-0.051832303404808,0.0287134032696485,-0.0200328305363655
1769250650364,-0.11285400390625,-0.1131134033203125,-0.9829864501953124,-0.0443980917334556,0.0379527099430561,-0.0156021295115351
1769250650375,-0.1065673828125,-0.1190032958984375,-0.990264892578125,-0.0379902571439743,0.0285605378448963,-0.0100731402635574
1769250650384,-0.101593017578125,-0.125762939453125,-0.9932098388671876,-0.0229457952082157,0.0266214907169342,-0.0085122613236308
1769250650395,-0.1040191650390625,-0.1200103759765625,-0.99798583984375,-0.0023688818328082,0.0310607142746448,-0.0013616742799058
1769250650404,-0.10479736328125,-0.111846923828125,-1.0009918212890625,0.0079197082668542,0.0315656475722789,0.0107176257297396
1769250650415,-0.102874755859375,-0.114959716796875,-0.9994964599609376,0.0129115376621484,0.0367689318954944,0.0209335107356309
1769250650425,-0.10113525390625,-0.123321533203125,-0.9937286376953124,0.0144473826512694,0.0381854698061943,0.0332133471965789
1769250650435,-0.0940093994140625,-0.124481201171875,-0.9862060546875,0.0114651750773191,0.032489500939846,0.0508445389568805
1769250650445,-0.091644287109375,-0.126556396484375,-0.975250244140625,0.0053162020631134,0.0240355618298053,0.0631478130817413
1769250650455,-0.096038818359375,-0.1288909912109375,-0.9714813232421876,-0.002657568315044,0.0169486235827207,0.0709434151649475
1769250650465,-0.10015869140625,-0.124969482421875,-0.971893310546875,-0.0122340293601155,0.0132079469040036,0.0796804502606391
1769250650475,-0.105712890625,-0.1186676025390625,-0.966461181640625,-0.0260659549385309,0.0173201337456703,0.0793163925409317
1769250650485,-0.11114501953125,-0.116851806640625,-0.9683074951171876,-0.03785390406847,0.0235700402408838,0.0823039263486862
1769250650495,-0.1103363037109375,-0.11334228515625,-0.9686431884765624,-0.0428422726690769,0.0312146451324224,0.0858358144760131
1769250650505,-0.1156005859375,-0.1175994873046875,-0.97222900390625,-0.0484570153057575,0.0228390023112297,0.0849186182022094
1769250650515,-0.1198272705078125,-0.1177520751953125,-0.978118896484375,-0.0461786799132823,0.0222810711711645,0.082919918000698
1769250650525,-0.1183929443359375,-0.1151275634765625,-0.9854278564453124,-0.0439205877482891,0.0194429401308298,0.0787363573908805
1769250650535,-0.1212158203125,-0.1125030517578125,-0.9830474853515624,-0.044777326285839,0.0073375413194298,0.0728385224938392
1769250650545,-0.124786376953125,-0.1138458251953125,-0.97711181640625,-0.0531492382287979,0.0030029804911464,0.0697916001081466
1769250650555,-0.12152099609375,-0.1134490966796875,-0.973419189453125,-0.059039618819952,0.0092462291941046,0.0637741833925247
1769250650565,-0.1207275390625,-0.1122589111328125,-0.9772186279296876,-0.0645678043365478,0.0064072990790009,0.0587642453610897
1769250650575,-0.12420654296875,-0.1145477294921875,-0.978515625,-0.062871903181076,0.0057785268872976,0.0543708316981792
1769250650585,-0.1258087158203125,-0.1092376708984375,-0.9844818115234376,-0.06055149435997,0.0057316552847623,0.047958206385374
1769250650595,-0.1338043212890625,-0.1163330078125,-0.9885406494140624,-0.064000554382801,0.0002900182444136,0.0453485734760761
1769250650606,-0.1330108642578125,-0.13031005859375,-0.9903411865234376,-0.0638050809502601,0.0025289377663284,0.0361550748348236
1769250650616,-0.1254119873046875,-0.0999755859375,-0.9880523681640624,-0.0567879155278205,-0.0036810212768614,0.018660768866539
1769250650626,-0.128692626953125,-0.0721893310546875,-0.9875946044921876,-0.0360948890447616,-0.0126838376745581,0.0042011365294456
1769250650636,-0.1435546875,-0.0806427001953125,-0.990386962890625,-0.0294915791600942,-0.0248094759881496,0.0027699538040906
1769250650646,-0.1492919921875,-0.1230316162109375,-0.9880523681640624,-0.046203713864088,-0.0268004555255174,0.0055582835339009
1769250650656,-0.1358795166015625,-0.1496734619140625,-0.9859161376953124,-0.0633230432868003,0.008021174930036,-0.0044141896069049
1769250650666,-0.1151123046875,-0.113616943359375,-0.9818267822265624,-0.0678948909044265,0.0175014957785606,-0.008715727366507
1769250650676,-0.107757568359375,-0.0855560302734375,-0.9767608642578124,-0.066467709839344,0.0100606232881546,-0.0177419781684875
1769250650686,-0.1288909912109375,-0.103240966796875,-0.981781005859375,-0.0565319843590259,0.0045755770988762,-0.0220168847590684
1769250650696,-0.1356201171875,-0.0980072021484375,-0.987518310546875,-0.0436433516442775,-0.0307432655245065,-0.017135577276349
1769250650706,-0.137115478515625,-0.0969390869140625,-0.9887542724609376,-0.0407045520842075,-0.0554440841078758,-0.0136811910197138
1769250650716,-0.1355743408203125,-0.1111297607421875,-0.9828948974609376,-0.0548917427659034,-0.0501166954636573,-0.010880877263844
1769250650726,-0.126617431640625,-0.1207733154296875,-0.9769744873046876,-0.0832474827766418,-0.0399000123143196,-0.0076893451623618
1769250650736,-0.112701416015625,-0.1255035400390625,-0.9733123779296876,-0.1072617396712303,-0.01849458925426,-0.0022325278259813
1769250650746,-0.10760498046875,-0.1244354248046875,-0.9833526611328124,-0.1247443258762359,0.0003952131082769,0.0050363037735223
1769250650759,-0.1062164306640625,-0.1139984130859375,-0.99041748046875,-0.1279766112565994,0.0170937664806842,0.0137863857671618
1769250650766,-0.111846923828125,-0.102142333984375,-0.9964447021484376,-0.1194110810756683,0.0196368172764778,0.0168588757514953
1769250650776,-0.1224212646484375,-0.0951080322265625,-1.002349853515625,-0.103035569190979,0.0161901544779539,0.018637865781784
1769250650786,-0.1283111572265625,-0.0928497314453125,-1.0030975341796875,-0.0830450877547264,0.0094869788736104,0.0169084090739488
1769250650796,-0.129791259765625,-0.093658447265625,-0.9994659423828124,-0.0633621960878372,0.0017297230660915,0.0152511242777109
1769250650807,-0.12847900390625,-0.096893310546875,-0.99835205078125,-0.042389802634716,-0.0063987770117819,0.0143613619729876
1769250650817,-0.1254119873046875,-0.0965423583984375,-0.9987030029296876,-0.0205345693975687,-0.0174610149115324,0.011109909042716
1769250650827,-0.1241607666015625,-0.1023406982421875,-0.9994964599609376,0.0005528722540475,-0.0195912774652242,0.0093801859766244
1769250650837,-0.12237548828125,-0.099853515625,-1.0031890869140625,0.0137629499658942,-0.0241335649043321,0.0053822486661374
1769250650847,-0.119110107421875,-0.0951080322265625,-0.9976043701171876,0.0227220896631479,-0.0160404853522777,-0.0007720504072494
1769250650859,-0.1227264404296875,-0.0908966064453125,-0.99114990234375,0.0305573772639036,-0.0087426248937845,-0.0073338127695024
1769250650867,-0.1300048828125,-0.0886993408203125,-0.995025634765625,0.0357364267110824,-0.0193159077316522,-0.0164024084806442
1769250650877,-0.1334228515625,-0.0970611572265625,-0.99859619140625,0.0404800474643707,-0.0280683860182762,-0.0182985793799161
1769250650887,-0.12744140625,-0.0984649658203125,-0.9913177490234376,0.0383396670222282,-0.0273682419210672,-0.014803446829319
1769250650897,-0.1194305419921875,-0.09295654296875,-0.98291015625,0.0294055584818124,-0.019334016367793,-0.0104132257401943
1769250650907,-0.11297607421875,-0.095703125,-0.9736328125,0.0167195908725261,-0.0087428912520408,-0.0049193911254405
1769250650917,-0.113922119140625,-0.0983734130859375,-0.9726409912109376,0.0122513398528099,-0.0029792783316224,-0.0036834180355072
1769250650927,-0.1176605224609375,-0.0975189208984375,-0.9746551513671876,0.0033302828669548,-0.0026463831309229,2.103897168126423e-05
1769250650937,-0.1204071044921875,-0.0933990478515625,-0.9694671630859376,-0.0120726414024829,0.000213319202885,0.0053332461975514
1769250650947,-0.1190338134765625,-0.09075927734375,-0.96514892578125,-0.0271242950111627,0.0019014970166608,0.0074041201733052
1769250650957,-0.1214141845703125,-0.09649658203125,-0.9687652587890624,-0.0427610464394092,0.0004527373821474,0.0052701295353472
1769250650967,-0.1244659423828125,-0.1023712158203125,-0.967926025390625,-0.055093877017498,-0.0065308697521686,0.0030320088844746
1769250650977,-0.12591552734375,-0.10174560546875,-0.9674835205078124,-0.0716318413615226,-0.0113410716876387,0.0056293900124728
1769250650987,-0.1233673095703125,-0.0951385498046875,-0.9658355712890624,-0.0910806432366371,-0.014461763203144,0.005453088786453
1769250650997,-0.1218414306640625,-0.0925140380859375,-0.966705322265625,-0.101899467408657,-0.0055905077606439,0.004817125853151
1769250651007,-0.1280517578125,-0.0936737060546875,-0.979278564453125,-0.103706419467926,0.0066757458262145,0.0035164379514753
1769250651018,-0.1266632080078125,-0.0914306640625,-0.9921875,-0.0938737615942955,0.014126737602055,0.0056493636220693
1769250651028,-0.12640380859375,-0.0869140625,-0.999969482421875,-0.0783683061599731,0.0102113587781786,0.0069796126335859
1769250651037,-0.127777099609375,-0.0859375,-1.00262451171875,-0.0533926524221897,-0.0001994707708945,0.0086653931066393
1769250651048,-0.12774658203125,-0.090606689453125,-1.00506591796875,-0.0311531256884336,-0.0144436536356806,0.0149983903393149
1769250651058,-0.122467041015625,-0.100860595703125,-1.0064697265625,-0.0172421038150787,-0.0144710848107934,0.0242246463894844
1769250651068,-0.1185302734375,-0.108734130859375,-1.00274658203125,-0.0051763863302767,-0.0036698358599096,0.0276452098041772
1769250651078,-0.1165771484375,-0.07891845703125,-0.995361328125,0.01500238571316,0.0062168831937015,0.0191097781062126
