timestamp_ms,acc_x,acc_y,acc_z,gyro_x,gyro_y,gyro_z
1769245490670,-0.165374755859375,-0.1502227783203125,-0.9601287841796876,-0.0197167135775089,-0.0228858739137649,0.0066621638834476
1769245490681,-0.1719818115234375,-0.1429901123046875,-0.9558258056640624,-0.0280510764569044,-0.0047316383570432,0.0086398273706436
1769245490688,-0.179718017578125,-0.136871337890625,-0.9626312255859376,-0.0288915690034627,0.0106632970273494,0.0111471936106681
1769245490698,-0.1845703125,-0.1319122314453125,-0.975372314453125,-0.0216269977390766,0.0147318076342344,0.0092038847506046
1769245490708,-0.187255859375,-0.1335296630859375,-0.985504150390625,-0.0078579233959317,0.0066624302417039,0.0086257122457027
1769245490718,-0.1900787353515625,-0.1372222900390625,-0.9891204833984376,0.0048397625796496,-0.0030607709195464,0.0051340418867766
1769245490728,-0.1894073486328125,-0.141876220703125,-0.986053466796875,0.0140742734074592,-0.0099817942827939,0.0058323228731751
1769245490738,-0.182464599609375,-0.1429901123046875,-0.977783203125,0.0199481416493654,-0.0099477050825953,0.0054237940348684
1769245490748,-0.1807098388671875,-0.14501953125,-0.97442626953125,0.0215889159590005,-0.0095085501670837,0.0074672373011708
1769245490758,-0.1773223876953125,-0.1452484130859375,-0.9703369140625,0.0251213312149047,-0.0102880578488111,0.0066595007665455
1769245490768,-0.1815185546875,-0.1461029052734375,-0.9747772216796876,0.0355571955442428,-0.0137624172493815,0.0046477485448122
1769245490779,-0.1887969970703125,-0.1477203369140625,-0.9847869873046876,0.0476154573261737,-0.0268649030476808,0.006336192600429
1769245490788,-0.1935882568359375,-0.154022216796875,-0.984100341796875,0.0470977388322353,-0.0396036021411418,0.0148870702832937
1769245490799,-0.1817626953125,-0.1392364501953125,-0.9738922119140624,0.0362869016826152,-0.0188051126897335,0.0086486153304576
1769245490809,-0.18475341796875,-0.1237335205078125,-0.964202880859375,0.0284675937145948,-0.0117839546874165,0.0002205097407568
1769245490819,-0.1926727294921875,-0.137115478515625,-0.960479736328125,0.0179262701421976,-0.0131437648087739,0.001244228798896
1769245490829,-0.1880340576171875,-0.14044189453125,-0.96038818359375,0.0118321580812335,-0.0030969900544732,-0.0020466393325477
1769245490839,-0.18682861328125,-0.1466217041015625,-0.95977783203125,0.0030290794093161,0.0074360785074532,-0.0005371595616452
1769245490849,-0.1848907470703125,-0.14581298828125,-0.9584808349609376,-0.0052924999035894,0.0141416518017649,-0.0005054679932072
1769245490859,-0.18548583984375,-0.14190673828125,-0.956298828125,-0.0139424474909901,0.0175518300384283,0.0001470064889872
1769245490869,-0.185333251953125,-0.1439361572265625,-0.9614410400390624,-0.0097988350316882,0.014567757025361,-0.0024485103785991
1769245490880,-0.1858673095703125,-0.144378662109375,-0.973236083984375,-0.0035177695099264,0.0094515588134527,-0.0045313686132431
1769245490889,-0.184112548828125,-0.1401214599609375,-0.973876953125,0.004046939779073,0.0018671422731131,-0.0031377363484352
1769245490899,-0.1819610595703125,-0.141021728515625,-0.9712982177734376,0.0080161150544881,0.0012048140633851,0.0018751317402347
1769245490909,-0.1824188232421875,-0.14312744140625,-0.972991943359375,0.0095572862774133,-0.0096262618899345,0.003597664181143
1769245490919,-0.1840667724609375,-0.1482391357421875,-0.9698638916015624,0.0096949711441993,-0.0126758478581905,0.0077567230910062
1769245490929,-0.1826324462890625,-0.148468017578125,-0.9642333984375,0.0043444144539535,-0.0044117928482592,0.0099881859496235
1769245490939,-0.1838226318359375,-0.1466064453125,-0.9666900634765624,-0.001767007401213,0.0090885693207383,0.0155757637694478
1769245490949,-0.183013916015625,-0.1478118896484375,-0.96881103515625,-0.0018192053539678,0.0101980427280068,0.019759589806199
1769245490959,-0.179443359375,-0.142333984375,-0.9712982177734376,0.0024077638518065,0.0074083814397454,0.0200512055307626
1769245490969,-0.1802520751953125,-0.1458892822265625,-0.9747314453125,0.0083692502230405,0.0063268719241023,0.0142119592055678
1769245490980,-0.18829345703125,-0.148834228515625,-0.97808837890625,0.0156719032675027,-0.003672232851386,0.0141064980998635
1769245490990,-0.1873626708984375,-0.1443023681640625,-0.9763641357421876,0.0214171409606933,-0.0096741989254951,0.0159384869039058
1769245491000,-0.1858367919921875,-0.14349365234375,-0.971832275390625,0.018765166401863,-0.0075660403817892,0.014298778027296
1769245491010,-0.1834564208984375,-0.1423492431640625,-0.9652252197265624,0.0161257069557905,0.0018285263795405,0.0152700329199433
1769245491020,-0.1852264404296875,-0.14263916015625,-0.966461181640625,0.0160772372037172,0.0045793056488037,0.0125924907624721
1769245491030,-0.189056396484375,-0.1472015380859375,-0.970550537109375,0.0171225275844335,0.0011646003695204,0.0114017911255359
1769245491040,-0.1911163330078125,-0.148651123046875,-0.9709320068359376,0.0201231110841035,-0.0041406829841434,0.0054869106970727
1769245491050,-0.1909637451171875,-0.149505615234375,-0.9726715087890624,0.0271573178470134,-0.0145810730755329,0.0051769185811281
1769245491060,-0.18701171875,-0.14678955078125,-0.9755859375,0.0280923545360565,-0.0242946874350309,0.010604441165924
1769245491070,-0.1766510009765625,-0.14422607421875,-0.9716339111328124,0.021548967808485,-0.0216347221285104,0.0126026105135679
1769245491080,-0.178497314453125,-0.1463775634765625,-0.9623260498046876,0.0154226319864392,-0.0038493329193443,0.0130026172846555
1769245491090,-0.1813201904296875,-0.148162841796875,-0.958740234375,0.0073423348367214,0.0088872350752353,0.0159549973905086
1769245491100,-0.186309814453125,-0.1491241455078125,-0.95855712890625,0.0013321131700649,0.0096081523224711,0.0110542485490441
1769245491110,-0.19183349609375,-0.1497955322265625,-0.9613189697265624,0.0035198999103158,0.0067037092521786,0.0117203053086996
1769245491120,-0.1897125244140625,-0.1476287841796875,-0.967498779296875,0.0054858452640473,0.001832521171309,0.0126042086631059
1769245491130,-0.1891326904296875,-0.13848876953125,-0.9700927734375,0.0131043503060936,-0.0038820898625999,0.0062491074204444
1769245491140,-0.1932220458984375,-0.1427001953125,-0.97686767578125,0.0209119394421577,-0.0227002520114183,0.0141168842092156
1769245491150,-0.184539794921875,-0.1667327880859375,-0.975830078125,0.0175590198487043,-0.0257410500198602,0.0267328117042779
1769245491160,-0.17352294921875,-0.1588592529296875,-0.9647369384765624,0.0093650063499808,-0.0051556136459112,0.0218738727271556
1769245491170,-0.1817169189453125,-0.13140869140625,-0.958831787109375,0.0063559003174304,-0.0005768407136201,0.0164870973676443
1769245491180,-0.1907501220703125,-0.1474609375,-0.9600067138671876,0.0160519368946552,0.0113690346479415,0.0114760939031839
1769245491190,-0.194427490234375,-0.115631103515625,-0.9627685546875,0.0086353002116084,0.003964914008975,-0.0067077036947011
1769245491201,-0.2035980224609375,-0.134033203125,-0.9570159912109376,-0.0079170456156134,-0.0160689819604158,-0.013226855546236
1769245491210,-0.195770263671875,-0.171234130859375,-0.96612548828125,-0.0222693532705307,-0.0122734438627958,-6.578007742064074e-05
1769245491221,-0.179229736328125,-0.169097900390625,-0.962493896484375,-0.0403330400586128,-0.0033926009200513,-0.0022695458028465
1769245491231,-0.1834716796875,-0.1532440185546875,-0.958648681640625,-0.0350285582244396,0.0097375819459557,-0.0135317873209714
1769245491241,-0.195556640625,-0.121673583984375,-0.966217041015625,-0.0162016060203313,-0.0145757468417286,-0.0260478463023901
1769245491251,-0.2034149169921875,-0.1223297119140625,-0.9754486083984376,0.0040368195623159,-0.0462489873170852,-0.0295624192804098
1769245491261,-0.1964263916015625,-0.136016845703125,-0.9827728271484376,0.0147467218339443,-0.064022921025753,-0.0276662483811378
1769245491271,-0.1903228759765625,-0.14984130859375,-0.9770660400390624,0.0116310892626643,-0.0684996992349624,-0.0139248706400394
1769245491281,-0.180694580078125,-0.16668701171875,-0.962921142578125,-0.0098289288580417,-0.0521654672920703,-0.0015121428295969
1769245491291,-0.1794891357421875,-0.1704559326171875,-0.94677734375,-0.0346645042300224,-0.0365084744989872,0.0110166985541582
1769245491301,-0.1774139404296875,-0.162139892578125,-0.943328857421875,-0.0519143305718898,-0.0220600292086601,0.020340159535408
1769245491312,-0.1753082275390625,-0.15142822265625,-0.9537353515625,-0.0616841353476047,-0.0072632390074431,0.0201177857816219
1769245491321,-0.1870880126953125,-0.1513519287109375,-0.9591064453125,-0.0694134309887886,0.000508930068463,0.0178098902106285
1769245491331,-0.195587158203125,-0.1421661376953125,-0.95977783203125,-0.078853003680706,-0.0014682007022202,0.0206240527331829
1769245491341,-0.1981964111328125,-0.1348419189453125,-0.963165283203125,-0.0878688693046569,-0.0011385013349354,0.0116188395768404
1769245491351,-0.2019500732421875,-0.1427764892578125,-0.9649810791015624,-0.0866233110427856,-0.0061822622083127,0.0039638490416109
1769245491361,-0.2027130126953125,-0.1436614990234375,-0.970428466796875,-0.0779938697814941,-0.0147320739924907,-0.0005507417372427
1769245491371,-0.19818115234375,-0.1449737548828125,-0.9741668701171876,-0.0715455561876297,-0.0134111465886235,-0.0018333201296627
1769245491381,-0.1964569091796875,-0.1477508544921875,-0.9752197265625,-0.0713151916861534,-0.0070480559952557,-0.0039361519739031
1769245491391,-0.19464111328125,-0.1467437744140625,-0.9712066650390624,-0.0744457393884658,-0.0002151834196411,-0.0042810314334928
1769245491402,-0.1924591064453125,-0.14593505859375,-0.97003173828125,-0.07558424025774,0.0023505059070885,-0.0005550027708522
1769245491412,-0.188751220703125,-0.1439056396484375,-0.9739227294921876,-0.0735386684536933,-0.0019643476698547,0.0024549018125981
1769245491422,-0.1860809326171875,-0.1403961181640625,-0.9765777587890624,-0.0652525052428245,-0.0047902278602123,0.0076477997936308
1769245491432,-0.1892852783203125,-0.149810791015625,-0.9804534912109376,-0.0553599298000335,0.0029925941489636,0.0133653404191136
1769245491442,-0.1906585693359375,-0.14752197265625,-0.980682373046875,-0.0568635500967502,-0.0001286306796828,0.0132095450535416
1769245491452,-0.1878204345703125,-0.130401611328125,-0.972869873046875,-0.0581756867468357,-0.0016658072127029,0.0079239690676331
1769245491462,-0.19403076171875,-0.1353912353515625,-0.973114013671875,-0.0510445423424243,-0.0016450346447527,0.0044741104356944
1769245491472,-0.198394775390625,-0.13623046875,-0.977691650390625,-0.0281283073127269,-0.0180080290883779,0.0015667376574128
1769245491482,-0.1968536376953125,-0.136993408203125,-0.98583984375,-0.0101261371746659,-0.0318655222654342,-0.0011395666515454
1769245491492,-0.193572998046875,-0.1380157470703125,-0.98480224609375,-0.002869555959478,-0.0297528356313705,-0.0033159018494188
1769245491502,-0.193328857421875,-0.1364288330078125,-0.977386474609375,0.0008306399104185,-0.0187457241117954,-0.0046717170625925
1769245491515,-0.1926422119140625,-0.1358184814453125,-0.9751129150390624,0.002895921235904,-0.0101535683497786,-0.0049878344871103
1769245491522,-0.1928253173828125,-0.1349334716796875,-0.9744110107421876,0.0030599720776081,-0.0064839981496334,-0.00490607554093
1769245491532,-0.1928253173828125,-0.138031005859375,-0.971771240234375,0.0059361858293414,-0.000368847802747,-0.0065194182097911
1769245491542,-0.1950225830078125,-0.13916015625,-0.9694671630859376,0.0087729850783944,-0.0013651363551616,-0.0049074068665504
1769245491552,-0.193603515625,-0.137176513671875,-0.971099853515625,0.0124817034229636,-0.0055092815309762,-0.0044701159931719
1769245491562,-0.19122314453125,-0.1389007568359375,-0.973388671875,0.0162708479911088,-0.0011566109023988,-0.0051180627197027
1769245491572,-0.19427490234375,-0.14154052734375,-0.9768524169921876,0.0174423735588789,-0.0060035642236471,-0.0099365198984742
1769245491582,-0.19891357421875,-0.1411895751953125,-0.9727020263671876,0.0197111200541257,-0.0112936673685908,-0.0093961646780371
1769245491592,-0.19659423828125,-0.142303466796875,-0.9700469970703124,0.0198658499866724,-0.012860138900578,-0.0114052537828683
1769245491602,-0.195770263671875,-0.1414031982421875,-0.971588134765625,0.0249026864767074,-0.0107453223317861,-0.0136066228151321
1769245491613,-0.1969146728515625,-0.142425537109375,-0.97235107421875,0.0275219045579433,-0.0104608964174985,-0.0138074252754449
1769245491623,-0.1966705322265625,-0.1414947509765625,-0.9697418212890624,0.0298561658710241,-0.0129208583384752,-0.0108542451635003
1769245491633,-0.192718505859375,-0.1414031982421875,-0.9705047607421876,0.0287600085139274,-0.0088893650099635,-0.0054030213505029
1769245491643,-0.19097900390625,-0.1387939453125,-0.9672088623046876,0.020985709503293,-0.001816009520553,-0.0087578054517507
1769245491653,-0.1952362060546875,-0.1356201171875,-0.962890625,0.0143959838896989,0.0017305220244452,-0.0055063520558178
1769245491663,-0.191680908203125,-0.1379547119140625,-0.9613800048828124,0.0116843525320291,0.008021974004805,-0.0074424697086215
1769245491673,-0.194366455078125,-0.13995361328125,-0.965423583984375,0.0169832445681095,0.0028192223981022,-0.012114186771214
1769245491683,-0.1962127685546875,-0.139617919921875,-0.974334716796875,0.0246552787721157,-0.012007393874228,-0.0135853169485926
1769245491693,-0.1989593505859375,-0.1392059326171875,-0.97479248046875,0.0309773571789264,-0.0239434167742729,-0.0140710780397057
1769245491703,-0.19720458984375,-0.1394195556640625,-0.9734039306640624,0.0331406444311142,-0.0276824943721294,-0.0130907678976655
1769245491713,-0.1930389404296875,-0.142486572265625,-0.97015380859375,0.0283986181020736,-0.0266182944178581,-0.0123022058978676
1769245491723,-0.1912078857421875,-0.143310546875,-0.9625244140625,0.0230493936687707,-0.0112449312582612,-0.0105980494990944
1769245491733,-0.1924285888671875,-0.1447601318359375,-0.958953857421875,0.0128393657505512,0.0012210593558847,-0.0101466439664363
1769245491743,-0.1947174072265625,-0.143829345703125,-0.9552764892578124,0.0043702474795281,0.0050307111814618,-0.0094025563448667
1769245491753,-0.1947784423828125,-0.1458282470703125,-0.95947265625,0.0001302285818383,-0.0025758093688637,-0.0068397964350879
1769245491763,-0.1936492919921875,-0.14239501953125,-0.9624786376953124,-0.0047564054839313,-0.0091554149985313,-0.0034711640328168
1769245491773,-0.1925048828125,-0.14056396484375,-0.96209716796875,-0.0111796837300062,-0.0036434705834835,-0.0044828988611698
1769245491783,-0.19561767578125,-0.143310546875,-0.960479736328125,-0.0184525102376937,-0.0033182986080646,-0.0040828920900821
1769245491793,-0.1963653564453125,-0.1394195556640625,-0.9630584716796876,-0.0193300228565931,-0.0055809202603995,-0.005845105741173
1769245491803,-0.19769287109375,-0.139984130859375,-0.9705352783203124,-0.0137432422488927,-0.0052480250597,-0.0063143549486994
1769245491813,-0.19866943359375,-0.1407623291015625,-0.974700927734375,-0.0073785539716482,-0.0052115400321781,-0.0108547778800129
1769245491823,-0.1995849609375,-0.1421051025390625,-0.974700927734375,-0.0055881110019981,-0.0057716025039553,-0.0085663236677646
1769245491834,-0.19598388671875,-0.141510009765625,-0.96783447265625,-0.0064578992314636,-0.0067346016876399,-0.0068429922685027
1769245491844,-0.192779541015625,-0.1421661376953125,-0.9646453857421876,-0.0071031833067536,-0.0057415091432631,-0.0082089276984334
1769245491854,-0.197601318359375,-0.1448974609375,-0.964111328125,-0.0015891082584857,-0.0065503111109137,-0.0063007730059325
1769245491864,-0.19464111328125,-0.13934326171875,-0.9717559814453124,0.0053766560740768,-0.01871376670897,-0.0101317297667264
1769245491874,-0.1973114013671875,-0.143096923828125,-0.9770355224609376,0.0168077424168586,-0.022383602336049,-0.0134090157225728
1769245491884,-0.1988372802734375,-0.1466064453125,-0.978302001953125,0.0246150642633438,-0.0258771367371082,-0.011299792677164
1769245491894,-0.1954498291015625,-0.1442718505859375,-0.9804229736328124,0.0302844028919935,-0.0284287109971046,-0.0106308059766888
1769245491904,-0.19537353515625,-0.14556884765625,-0.97467041015625,0.0322484821081161,-0.0213601496070623,-0.0083639239892363
1769245491914,-0.1912841796875,-0.14178466796875,-0.9697418212890624,0.0279498752206563,-0.0090869721025228,-0.0054549528285861
1769245491924,-0.1883697509765625,-0.1443328857421875,-0.9642486572265624,0.0225066412240266,0.0043225768022239,-0.0062323296442627
1769245491934,-0.195465087890625,-0.1455535888671875,-0.961090087890625,0.0173038896173238,0.0059521649964153,0.0004306331393308
1769245491944,-0.194488525390625,-0.1448974609375,-0.962188720703125,0.0140905184671282,0.0067348680458962,0.0001773665280779
1769245491954,-0.1932525634765625,-0.145782470703125,-0.965362548828125,0.0187052451074123,0.0090574109926819,-0.0019675435032695
1769245491964,-0.1979522705078125,-0.1442413330078125,-0.9734954833984376,0.027386350557208,-0.002036252990365,-0.0049252500757575
1769245491974,-0.2003021240234375,-0.1353759765625,-0.9742431640625,0.0289453659206628,-0.0068291439674794,-0.001422660658136
1769245491984,-0.1964263916015625,-0.1430816650390625,-0.9678497314453124,0.0313696414232254,-0.0072107748128473,0.0092065474018454
1769245491994,-0.1909637451171875,-0.17303466796875,-0.9685821533203124,0.0298593621701002,-0.0109152318909764,0.0206070076674222
1769245492004,-0.1844329833984375,-0.1531219482421875,-0.96771240234375,0.0273200385272502,-0.0039675775915384,0.0156077221035957
1769245492015,-0.1938323974609375,-0.1324462890625,-0.9615936279296876,0.0377268716692924,0.0092757903039455,0.0047659929841756
1769245492024,-0.206787109375,-0.1362762451171875,-0.9629669189453124,0.0527481660246849,0.0271554552018642,-0.0064272731542587
1769245492034,-0.2063140869140625,-0.10504150390625,-0.9679412841796876,0.0448596179485321,-0.0057833204045891,-0.0186431929469108
1769245492045,-0.2089996337890625,-0.1616668701171875,-0.9668731689453124,0.0455286018550396,-0.0201779715716838,-0.0096342517063021
1769245492055,-0.190093994140625,-0.1759033203125,-0.9674530029296876,0.0209481585770845,-0.0172152053564786,0.0021049624774605
1769245492065,-0.1821136474609375,-0.1544189453125,-0.9489288330078124,0.0022540995851159,0.0115788914263248,-0.0028666264843195
1769245492075,-0.1970367431640625,-0.126129150390625,-0.9439849853515624,-0.0126497484743595,0.0227138344198465,-0.0178224071860313
1769245492085,-0.2087860107421875,-0.1233062744140625,-0.9475250244140624,-0.0119504025205969,0.0120707778260111,-0.0298593621701002
1769245492095,-0.2097015380859375,-0.130462646484375,-0.9648284912109376,-0.0008005462004803,-0.0119219068437814,-0.0293853189796209
1769245492105,-0.2013092041015625,-0.1457061767578125,-0.9778289794921876,0.0104774078354239,-0.0384182296693325,-0.029225530102849
1769245492115,-0.1993865966796875,-0.1624908447265625,-0.9687347412109376,0.0083631249144673,-0.0495837964117527,-0.0159677807241678
1769245492125,-0.190826416015625,-0.165008544921875,-0.9587860107421876,0.0008602010202594,-0.0409940369427204,0.0007920240750536
1769245492135,-0.182403564453125,-0.1627655029296875,-0.95556640625,-0.0067385965958237,-0.0260638240724802,0.0168181285262107
1769245492145,-0.181365966796875,-0.1576690673828125,-0.957366943359375,-0.0121916849166154,-0.0124758444726467,0.0235572569072246
1769245492155,-0.1906585693359375,-0.150909423828125,-0.9620208740234376,-0.0147983869537711,-0.008773517794907,0.0236581917852163
1769245492165,-0.1970672607421875,-0.1431121826171875,-0.96759033203125,-0.0222078338265419,-0.0074861459434032,0.0229367408901453
1769245492175,-0.2024688720703125,-0.143524169921875,-0.964447021484375,-0.0311406087130308,-0.0006761765689589,0.0180748738348484
1769245492185,-0.2043304443359375,-0.14276123046875,-0.9615478515625,-0.0352541282773017,-0.000508930068463,0.0137536292895674
1769245492195,-0.2061614990234375,-0.1471099853515625,-0.9648895263671876,-0.0364434942603111,-0.0001390170073136,0.009424926713109
1769245492205,-0.20684814453125,-0.1491546630859375,-0.96453857421875,-0.0301850661635398,-0.0035177695099264,0.004479703027755
1769245492215,-0.207733154296875,-0.1495513916015625,-0.9706268310546876,-0.0220879912376403,-0.0125469509512186,-0.0009142631897702
1769245492225,-0.2083892822265625,-0.1502685546875,-0.9745330810546876,-0.0075372783467173,-0.022375613451004,-0.0024290692526847
1769245492236,-0.2033233642578125,-0.149627685546875,-0.9788665771484376,0.0077226343564689,-0.0299251414835453,-0.0023861923255026
1769245492246,-0.1979827880859375,-0.1490325927734375,-0.9804229736328124,0.0138287302106618,-0.0341782085597515,-0.0008146609761752
1769245492256,-0.1990509033203125,-0.148651123046875,-0.9725189208984376,0.0120795657858252,-0.0355081930756568,0.0012980246683582
1769245492266,-0.1971435546875,-0.1497344970703125,-0.9658966064453124,0.0055574844591319,-0.0300090312957763,0.0106824720278382
1769245492276,-0.1960601806640625,-0.156982421875,-0.9595489501953124,0.0007571366732008,-0.0264992509037256,0.0144772101193666
1769245492286,-0.198272705078125,-0.1577911376953125,-0.9595794677734376,-0.00646588858217,-0.0270744934678077,0.0148990545421838
1769245492296,-0.197357177734375,-0.1381683349609375,-0.96221923828125,-0.013922207057476,-0.0171973630785942,0.0073793530464172
1769245492306,-0.2070770263671875,-0.1402435302734375,-0.96881103515625,-0.0118862204253673,-0.0235314257442951,0.0037518613971769
1769245492316,-0.2090911865234375,-0.1470947265625,-0.971771240234375,-0.0050805122591555,-0.0248784516006708,0.0039923447184264
1769245492326,-0.2036895751953125,-0.1433563232421875,-0.9727630615234376,-0.0018791264155879,-0.0189470592886209,0.0049548111855983
1769245492336,-0.20123291015625,-0.1453094482421875,-0.9676666259765624,0.0041175135411322,-0.0221774745732545,0.0041992724873125
1769245492346,-0.19805908203125,-0.14825439453125,-0.9701690673828124,0.0104300044476985,-0.0205377656966447,0.0030096382834017
1769245492356,-0.19964599609375,-0.149200439453125,-0.971527099609375,0.0180024355649948,-0.0171177349984645,0.0021699436474591
1769245492367,-0.20428466796875,-0.1499176025390625,-0.970550537109375,0.0287131369113922,-0.0197433438152074,0.003899933071807
1769245492376,-0.2018280029296875,-0.1496429443359375,-0.9740447998046876,0.04321750998497,-0.0280777066946029,0.0063220779411494
1769245492386,-0.20208740234375,-0.151092529296875,-0.979583740234375,0.0490053594112396,-0.0361763797700405,0.0133778573945164
1769245492396,-0.2011871337890625,-0.1492919921875,-0.9716339111328124,0.0444929003715515,-0.0309986621141433,0.0088408961892127
1769245492406,-0.2047576904296875,-0.1522674560546875,-0.9624176025390624,0.0401439554989337,-0.0284513477236032,0.0075577846728265
1769245492416,-0.205657958984375,-0.1534576416015625,-0.9635009765625,0.0373377837240695,-0.031486552208662,0.0085900258272886
1769245492426,-0.2074432373046875,-0.1558380126953125,-0.9627685546875,0.034877024590969,-0.033177126199007,0.0141488425433635
1769245492436,-0.2020111083984375,-0.1501617431640625,-0.9625244140625,0.0329382419586181,-0.0318245068192482,0.016009060665965
1769245492447,-0.2036285400390625,-0.1543426513671875,-0.9630126953125,0.0282500144094228,-0.0311688389629125,0.0168860387057065
1769245492457,-0.203765869140625,-0.1549072265625,-0.958282470703125,0.0268609095364809,-0.0349111109972,0.0133453663438558
1769245492467,-0.2104949951171875,-0.154541015625,-0.957489013671875,0.0330426394939422,-0.0460742861032485,0.0148982554674148
1769245492477,-0.2066650390625,-0.154510498046875,-0.96160888671875,0.0348634421825408,-0.0424041822552681,0.0128193916752934
1769245492487,-0.2077484130859375,-0.1554718017578125,-0.962158203125,0.0338210798799991,-0.0310354139655828,0.0141427172347903
1769245492497,-0.20965576171875,-0.14752197265625,-0.961761474609375,0.0321539416909217,-0.0277482736855745,0.0163683202117681
1769245492507,-0.213653564453125,-0.1451263427734375,-0.964691162109375,0.0278915520757436,-0.0224994495511055,0.0146063733845949
1769245492517,-0.2136688232421875,-0.1517333984375,-0.965118408203125,0.0192397404462099,-0.0231186356395483,0.0088816424831748
1769245492527,-0.2138214111328125,-0.1501312255859375,-0.9595184326171876,0.0173020251095294,-0.025888854637742,0.0042442795820534
1769245492537,-0.2156982421875,-0.155487060546875,-0.9590301513671876,0.0071417992003262,-0.0245484858751297,0.0018836538074538
1769245492547,-0.2132415771484375,-0.15679931640625,-0.953155517578125,-0.0078776301816105,-0.0163145251572132,0.0011299792677164
1769245492557,-0.208648681640625,-0.1549835205078125,-0.9486236572265624,-0.0212512258440256,-0.0144268758594989,0.0033417344093322
1769245492568,-0.2098846435546875,-0.158966064453125,-0.9517364501953124,-0.0293903797864913,-0.0194248296320438,-0.0022700785193592
1769245492577,-0.2126007080078125,-0.1552276611328125,-0.9524383544921876,-0.0408848486840724,-0.0094382427632808,-0.0021385182626545
1769245492587,-0.2139129638671875,-0.154632568359375,-0.953582763671875,-0.0555980131030082,0.0041433461010456,0.000421578384703
1769245492597,-0.2130584716796875,-0.1519775390625,-0.9559478759765624,-0.0593216456472873,0.0088885659351944,-0.0038533278275281
1769245492607,-0.2135009765625,-0.152862548828125,-0.964569091796875,-0.0573868602514267,0.0143424542620778,-0.0008628641953691
1769245492618,-0.209136962890625,-0.1510772705078125,-0.9672698974609376,-0.0553053319454193,0.0119749037548899,-0.0030573089607059
1769245492627,-0.2123260498046875,-0.153472900390625,-0.965484619140625,-0.0505936704576015,0.0063905213028192,-0.0037084517534822
1769245492637,-0.2111968994140625,-0.153106689453125,-0.966949462890625,-0.0420939251780509,0.0029238844290375,-0.0031595742329955
1769245492647,-0.2082061767578125,-0.1489715576171875,-0.97100830078125,-0.0328634083271026,-0.0057505639269948,-0.0038035267498344
1769245492658,-0.2086029052734375,-0.1506500244140625,-0.9710693359375,-0.0289032869040966,-0.0007616640650667,-0.0017321199411526
1769245492668,-0.21063232421875,-0.150299072265625,-0.9707794189453124,-0.0244795102626085,-0.0009131979313679,0.0008522115531377
1769245492678,-0.2089996337890625,-0.15155029296875,-0.9703369140625,-0.0212315190583467,-0.002273274352774,-0.0044386903755366
1769245492688,-0.21282958984375,-0.1518707275390625,-0.9696044921875,-0.0127855697646737,-0.0046131275594234,-0.0085090659558773
1769245492698,-0.21673583984375,-0.1496734619140625,-0.973968505859375,-0.00593565357849,-0.0097588878124952,-0.014642858877778
1769245492708,-0.21453857421875,-0.14892578125,-0.9730224609375,0.0004652542411349,-0.0133823845535516,-0.0099919140338897
1769245492718,-0.208465576171875,-0.1456298828125,-0.9715423583984376,0.0050533479079604,-0.012221778742969,-0.0120119219645857
1769245492728,-0.211273193359375,-0.152496337890625,-0.9718780517578124,0.0072685657069087,-0.0120547981932759,-0.0125291077420115
1769245492738,-0.210296630859375,-0.1550750732421875,-0.965972900390625,0.0120979417115449,-0.0143829341977834,-0.009279784746468
1769245492748,-0.2083282470703125,-0.1489715576171875,-0.964508056640625,0.0121030015870928,-0.008297611027956,-0.0065103634260594
1769245492758,-0.2058868408203125,-0.1474456787109375,-0.9633636474609376,0.0176128149032592,0.0015230617718771,-0.0101221427321434
1769245492768,-0.2164154052734375,-0.147979736328125,-0.964111328125,0.0201073978096246,0.0045582666061818,-0.0052195293828845
1769245492779,-0.2149658203125,-0.160125732421875,-0.96484375,0.0173076167702674,-0.0021201425697654,0.0042336271144449
1769245492788,-0.207183837890625,-0.171783447265625,-0.967864990234375,0.0196661129593849,0.0015491608064621,0.0051116715185344
1769245492798,-0.2095184326171875,-0.140777587890625,-0.96881103515625,0.0193798225373029,0.0167917627841234,-0.0052458946593105
1769245492808,-0.222076416015625,-0.1411590576171875,-0.9598541259765624,0.0213154088705778,0.0242550056427717,-0.0128705250099301
1769245492818,-0.2175750732421875,-0.13818359375,-0.953857421875,0.0154215665534138,0.0240515395998954,-0.024041686207056
1769245492828,-0.217041015625,-0.137359619140625,-0.9521026611328124,0.0063013052567839,-0.0005877596559002,-0.0260638240724802
1769245492838,-0.2145233154296875,-0.1702728271484375,-0.9583740234375,0.0067045078612864,0.0027201527263969,-0.0265410635620355
1769245492849,-0.2100830078125,-0.1645050048828125,-0.95867919921875,-0.0114047210663557,-0.0119554623961448,-0.0280920881778001
1769245492858,-0.21112060546875,-0.162109375,-0.9505157470703124,-0.0080054625868797,-0.0108236195519566,-0.0295469723641872
1769245492869,-0.2134552001953125,-0.131744384765625,-0.9588470458984376,-0.0083886906504631,0.0031361384317278,-0.0404720604419708
1769245492879,-0.2205810546875,-0.1245574951171875,-0.9552764892578124,-0.0017329188995063,-0.0021670141723006,-0.0474444814026355
1769245492889,-0.2207489013671875,-0.1359100341796875,-0.96270751953125,0.0018927085911855,-0.0203878302127122,-0.0506032556295394
1769245492899,-0.21392822265625,-0.15185546875,-0.963836669921875,-0.0010857707820832,-0.0293168760836124,-0.0463288836181163
1769245492909,-0.2117156982421875,-0.1665496826171875,-0.9573974609375,-0.0106643624603748,-0.0320053361356258,-0.0387822836637496
1769245492919,-0.205780029296875,-0.17242431640625,-0.9514923095703124,-0.0197585243731737,-0.023929301649332,-0.0198333598673343
1769245492929,-0.1947174072265625,-0.172210693359375,-0.953948974609375,-0.0256811287254095,-0.0125181889161467,-0.0073330141603946
1769245492939,-0.2002716064453125,-0.165191650390625,-0.9554595947265624,-0.0314567275345325,-0.0033643713686615,0.002168612089008
1769245492949,-0.20245361328125,-0.155364990234375,-0.955047607421875,-0.0333193391561508,0.0039721047505736,0.0004322310560382
1769245492959,-0.212066650390625,-0.1532440185546875,-0.9561920166015624,-0.0300670880824327,-0.0001486043911427,-0.0028719529509544
1769245492969,-0.215576171875,-0.15130615234375,-0.963592529296875,-0.0273631811141967,-0.0038304245099425,-0.0059729376807808
1769245492979,-0.21728515625,-0.1497650146484375,-0.9618377685546876,-0.0300367288291454,-0.0008937568636611,-0.0133983632549643
1769245492989,-0.2196197509765625,-0.1505126953125,-0.9597930908203124,-0.0330109484493732,0.0032091091852635,-0.0181566327810287
1769245492999,-0.2186279296875,-0.1538848876953125,-0.9549407958984376,-0.0372576229274272,0.009400425478816,-0.0221947841346263
1769245493009,-0.2180938720703125,-0.1601409912109375,-0.954376220703125,-0.0386653691530227,0.0171097442507743,-0.0214075539261102
1769245493019,-0.2152252197265625,-0.1585693359375,-0.9561004638671876,-0.0367782525718212,0.0125248469412326,-0.0241082664579153
1769245493029,-0.21136474609375,-0.1573638916015625,-0.9595794677734376,-0.030809311196208,0.0068208882585167,-0.0147938597947359
1769245493039,-0.2022705078125,-0.15765380859375,-0.965240478515625,-0.0272827539592981,-0.0062938486225903,-0.0097692739218473
1769245493049,-0.2041473388671875,-0.157196044921875,-0.965789794921875,-0.0254302583634853,-0.0144758783280849,-0.0047849016264081
1769245493059,-0.2075958251953125,-0.158447265625,-0.96533203125,-0.0292063541710376,-0.0195436067879199,0.0072371400892734
1769245493069,-0.205169677734375,-0.166259765625,-0.963043212890625,-0.0321576707065105,-0.0029606360476464,0.015124624595046
1769245493080,-0.2074432373046875,-0.160919189453125,-0.958740234375,-0.0415200144052505,0.0101652862504124,0.0155131798237562
1769245493090,-0.212890625,-0.1397857666015625,-0.9552459716796876,-0.0459725521504879,0.0229758899658918,0.0026559706311672
1769245493100,-0.2202606201171875,-0.146514892578125,-0.9561004638671876,-0.0465608425438404,0.0155312893912196,0.0053830472752451
1769245493110,-0.2128143310546875,-0.151763916015625,-0.9624786376953124,-0.0382725521922111,0.0086113316938281,0.0015741945244371
1769245493120,-0.2138214111328125,-0.1546478271484375,-0.96636962890625,-0.0309866778552532,0.0113352127373218,-0.0001494033349445
1769245493130,-0.2132720947265625,-0.1508026123046875,-0.964935302734375,-0.0299070328474044,0.0062560318037867,-0.0043563987128436
1769245493140,-0.2144927978515625,-0.149566650390625,-0.9617919921875,-0.0264049749821424,0.0046171224676072,-0.0063138222321867
1769245493150,-0.2122344970703125,-0.148529052734375,-0.9666748046875,-0.024017984047532,0.0017382452497258,-0.0072611086070537
1769245493160,-0.21221923828125,-0.1456451416015625,-0.9685821533203124,-0.0190282855182886,0.0007550061563961,-0.0108973886817693
1769245493170,-0.215179443359375,-0.1474609375,-0.9718780517578124,-0.0153496610000729,-0.0031214910559356,-0.0097402455285191
1769245493180,-0.216522216796875,-0.1468048095703125,-0.9754791259765624,-0.0086235823109745,-0.008698683232069,-0.0110393352806568
1769245493190,-0.2154693603515625,-0.1474456787109375,-0.9778594970703124,-0.0070110377855598,-0.0108848717063665,-0.0120207099243998
1769245493200,-0.212127685546875,-0.146331787109375,-0.9718017578125,-0.0103415874764323,-0.0022418489679694,-0.0070701600052416
1769245493210,-0.208984375,-0.14447021484375,-0.9613037109375,-0.0173379778861999,0.0137381823733448,-0.0049785133451223
1769245493220,-0.206268310546875,-0.1490325927734375,-0.95123291015625,-0.0302311386913061,0.0190541185438632,-0.0046584014780819
1769245493230,-0.208526611328125,-0.1497802734375,-0.95050048828125,-0.0376483090221881,0.0115698371082544,-0.0042775692418217
1769245493240,-0.2115631103515625,-0.149566650390625,-0.9543304443359376,-0.0440193898975849,0.0023723437916487,-0.0070720240473747
1769245493250,-0.2166748046875,-0.1450347900390625,-0.9570770263671876,-0.0504213608801364,-0.0072171664796769,-0.0106031093746423
1769245493260,-0.2195587158203125,-0.1419219970703125,-0.960845947265625,-0.0480602048337459,-0.0255703404545784,-0.0103889917954802
1769245493271,-0.216217041015625,-0.1389312744140625,-0.963348388671875,-0.0503369383513927,-0.0214301906526088,-0.0140641536563634
1769245493280,-0.217529296875,-0.1401214599609375,-0.9652252197265624,-0.0538413934409618,-0.0057665426284074,-0.0198205765336751
1769245493291,-0.22021484375,-0.1326141357421875,-0.965667724609375,-0.0565588846802711,-0.00440673250705,-0.0255282633006572
1769245493301,-0.2231292724609375,-0.1335906982421875,-0.9737396240234376,-0.0454535000026226,-0.0143935866653919,-0.0288388393819332
1769245493311,-0.2169342041015625,-0.1366729736328125,-0.9816741943359376,-0.0312575213611125,-0.0251748617738485,-0.0311632454395294
1769245493321,-0.2126007080078125,-0.1365203857421875,-0.9842681884765624,-0.0179728753864765,-0.03164953738451,-0.0282803736627101
1769245493331,-0.2055816650390625,-0.1357269287109375,-0.980865478515625,-0.0103786047548055,-0.0314988046884536,-0.0291573535650968
1769245493341,-0.20819091796875,-0.13995361328125,-0.9730224609375,-0.0093274554237723,-0.0202195178717374,-0.0262113641947507
1769245493351,-0.2092437744140625,-0.138275146484375,-0.9680633544921876,-0.0075585837475955,-0.0145837366580963,-0.0251748617738485
1769245493361,-0.211578369140625,-0.138092041015625,-0.972015380859375,-0.0001430117554264,-0.0159182455390691,-0.0252819210290908
1769245493371,-0.2139129638671875,-0.1378173828125,-0.9734649658203124,0.0076994649134576,-0.0156109174713492,-0.0219732094556093
1769245493381,-0.21173095703125,-0.1349334716796875,-0.97698974609375,0.015034875832498,-0.0142106274142861,-0.0253391787409782
1769245493391,-0.2163848876953125,-0.137969970703125,-0.978057861328125,0.0219819974154233,-0.0126617327332496,-0.0283493492752313
1769245493401,-0.21502685546875,-0.13409423828125,-0.9725494384765624,0.0340208187699317,-0.0165467523038387,-0.0294308587908744
1769245493411,-0.2147216796875,-0.13580322265625,-0.974029541015625,0.0457062348723411,-0.0227415319532156,-0.0302170235663652
1769245493421,-0.2109375,-0.1380615234375,-0.9745941162109376,0.0549716390669345,-0.0216520316898822,-0.0296321939677
1769245493431,-0.2121124267578125,-0.1413116455078125,-0.9708251953125,0.0603557527065277,-0.0179731417447328,-0.0275344215333461
1769245493441,-0.209136962890625,-0.1422119140625,-0.9671478271484376,0.0614617615938186,-0.01948182284832,-0.0246315766125917
1769245493451,-0.2054595947265625,-0.1412200927734375,-0.96307373046875,0.0542706958949565,-0.0177044291049242,-0.0195947401225566
1769245493461,-0.2052459716796875,-0.140655517578125,-0.9535980224609376,0.0413735397160053,-0.0072403359226882,-0.016389625146985
1769245493471,-0.2085113525390625,-0.1401519775390625,-0.9518890380859376,0.0286236554384231,0.0038163098506629,-0.0154055878520011
1769245493482,-0.208892822265625,-0.1412353515625,-0.953277587890625,0.0239492747932672,0.0008319715270772,-0.0144316693767905
1769245493491,-0.213104248046875,-0.1424713134765625,-0.9616241455078124,0.0274630486965179,-0.0212200675159692,-0.015868978574872
1769245493502,-0.2154998779296875,-0.150115966796875,-0.9625396728515624,0.023723704740405,-0.028406873345375,-0.0115956692025065
1769245493512,-0.21429443359375,-0.1509552001953125,-0.955657958984375,0.0067361998371779,-0.0242153238505125,-0.009631055407226
1769245493522,-0.212127685546875,-0.148651123046875,-0.946319580078125,-0.009640110656619,-0.0139488391578197,-0.001882588607259
1769245493532,-0.20574951171875,-0.1468505859375,-0.9455413818359376,-0.0288172662258148,-0.0004926847759634,0.0012759204255416
1769245493542,-0.2049407958984375,-0.14215087890625,-0.94830322265625,-0.0303174257278442,0.0071910675615072,0.0033582460600882
1769245493552,-0.21185302734375,-0.1467132568359375,-0.959503173828125,-0.0311688389629125,-0.0121341608464717,0.0085032070055603
1769245493562,-0.2110137939453125,-0.1629486083984375,-0.9662017822265624,-0.0244571398943662,-0.0231998618692159,0.0217202082276344
1769245493572,-0.202239990234375,-0.161102294921875,-0.9752960205078124,-0.0174311883747577,-0.016222646459937,0.0230137072503566
1769245493582,-0.206817626953125,-0.1337890625,-0.970489501953125,-0.0082645881921052,-0.0114822192117571,0.0177571587264537
1769245493592,-0.216400146484375,-0.1418914794921875,-0.968475341796875,0.0021513015963137,0.0064238109625875,0.01622024923563
1769245493602,-0.21783447265625,-0.126190185546875,-0.9655303955078124,0.0013116068439558,-0.0027270768769085,0.0031182952225208
1769245493612,-0.2217254638671875,-0.1496734619140625,-0.9603729248046876,0.0152503252029418,-0.0067907944321632,0.0025292041245847
1769245493622,-0.21783447265625,-0.15435791015625,-0.970794677734375,0.0228525847196578,-0.0071923988871276,0.001299888943322
1769245493632,-0.2138671875,-0.1492156982421875,-0.95953369140625,0.0060530989430844,-0.0177299939095973,0.0051955608651041
1769245493642,-0.2065277099609375,-0.1403656005859375,-0.9531097412109376,0.0079647153615951,0.0086582032963633,-0.0056352489627897
1769245493652,-0.21697998046875,-0.1185150146484375,-0.9510498046875,0.006941529456526,-0.0010697918478399,-0.0115357488393783
1769245493662,-0.2228851318359375,-0.13702392578125,-0.94952392578125,0.0062576294876635,-0.0223292745649814,-0.0120891537517309
1769245493672,-0.2169647216796875,-0.1475067138671875,-0.9570159912109376,0.0003430151555221,-0.0535468496382236,-0.0097154779359698
1769245493682,-0.21673583984375,-0.1516876220703125,-0.952911376953125,-0.0151411360129714,-0.0518014132976532,-0.0066845342516899
1769245493692,-0.2181854248046875,-0.1563262939453125,-0.950531005859375,-0.0407498255372047,-0.0413445085287094,0.001637311419472
1769245493703,-0.2127227783203125,-0.1626739501953125,-0.94854736328125,-0.0578734204173088,-0.0306620392948389,0.0092302495613694
1769245493713,-0.210968017578125,-0.16265869140625,-0.9571380615234376,-0.0585432052612304,-0.0156790949404239,0.0181451812386512
1769245493723,-0.211181640625,-0.15106201171875,-0.965789794921875,-0.0538030453026294,-0.0085285073146224,0.026285134255886
1769245493733,-0.2121124267578125,-0.142333984375,-0.9656982421875,-0.0472388863563537,0.0019425096688792,0.0272119138389825
1769245493743,-0.21429443359375,-0.138336181640625,-0.9676361083984376,-0.0397463478147983,0.0103319995105266,0.02200623229146
1769245493753,-0.21893310546875,-0.140838623046875,-0.9686279296875,-0.0298617593944072,0.0089463572949171,0.0178122855722904
1769245493763,-0.2221832275390625,-0.1435089111328125,-0.9706878662109376,-0.013833257369697,-0.0062190135940909,0.007775364909321
1769245493773,-0.226654052734375,-0.1473541259765625,-0.976837158203125,0.0043577305041253,-0.0246289130300283,0.0035473306197673
1769245493783,-0.2241058349609375,-0.1486053466796875,-0.9749603271484376,0.0158892180770635,-0.0276132524013519,0.0033167006913572
1769245493793,-0.225311279296875,-0.1482086181640625,-0.9743499755859376,0.0209974274039268,-0.0253482330590486,0.0020461066160351
1769245493803,-0.22430419921875,-0.1489715576171875,-0.969940185546875,0.0149816125631332,-0.0239239744842052,0.0033973946701735
1769245493814,-0.222076416015625,-0.152740478515625,-0.9625091552734376,0.0078259650617837,-0.0200911536812782,0.0045926212333142
1769245493823,-0.2207794189453125,-0.1485443115234375,-0.9611968994140624,0.000768588273786,-0.0223447196185588,0.002429868094623
1769245493833,-0.220062255859375,-0.149078369140625,-0.9644622802734376,-0.0041635860688984,-0.0247737895697355,0.00586294895038
1769245493843,-0.2181549072265625,-0.1533203125,-0.9658050537109376,-0.0081378212198615,-0.0234962720423936,0.0134111465886235
1769245493853,-0.2171173095703125,-0.1595306396484375,-0.9613494873046876,-0.0150705622509121,-0.0143610956147313,0.0164314378052949
1769245493863,-0.217010498046875,-0.145416259765625,-0.9594268798828124,-0.0193851497024297,-0.0065508438274264,0.0093239927664399
1769245493873,-0.2239532470703125,-0.1369781494140625,-0.9600677490234376,-0.0125818382948637,0.0057444386184215,0.0027646275702863
1769245493883,-0.2325592041015625,-0.132720947265625,-0.9602813720703124,-0.0073069152422249,0.0029854036401957,-0.0108939269557595
1769245493893,-0.23480224609375,-0.146820068359375,-0.9599151611328124,-0.0044647897593677,-0.0191262904554605,-0.0186482518911361
1769245493904,-0.2318878173828125,-0.1530303955078125,-0.9632720947265624,0.0015630092239007,-0.0359358973801136,-0.0139797311276197
1769245493914,-0.22210693359375,-0.143768310546875,-0.9662322998046876,0.0049662627279758,-0.0354248359799385,-0.0188059117645025
1769245493924,-0.2277069091796875,-0.146759033203125,-0.965087890625,0.0015070828376337,-0.0302641615271568,-0.0158713739365339
1769245493934,-0.22406005859375,-0.148193359375,-0.9612274169921876,-0.0015709986910223,-0.0184799414128065,-0.0122633241117
1769245493945,-0.21954345703125,-0.15008544921875,-0.9651031494140624,0.0005757753970101,-0.0131328459829092,-0.0101714106276631
1769245493954,-0.2196807861328125,-0.1514892578125,-0.9709014892578124,0.0040349555201828,-0.0127504160627722,-0.0108244186267256
1769245493964,-0.224273681640625,-0.1468048095703125,-0.9717864990234376,0.0077053238637745,-0.0069623021408915,-0.0126926256343722
1769245493974,-0.2216033935546875,-0.1450653076171875,-0.972198486328125,0.0076238312758505,-0.0028091021813452,-0.0125227160751819
1769245493984,-0.2219085693359375,-0.148712158203125,-0.964599609375,0.0100829945877194,0.0017829863354563,-0.0129160648211836
1769245493994,-0.22412109375,-0.1464691162109375,-0.9605712890625,0.0110103068873286,-0.0005182511522434,-0.0113003253936767
1769245494004,-0.22509765625,-0.1488037109375,-0.9635009765625,0.0156157109886407,0.0010751180816441,-0.0086291749030351
1769245494014,-0.2230377197265625,-0.150238037109375,-0.965576171875,0.0208216588944196,0.00753781106323,-0.008706672117114
1769245494024,-0.225738525390625,-0.1488494873046875,-0.969024658203125,0.0268704965710639,0.0087921600788831,-0.0060744038783013
1769245494034,-0.2247467041015625,-0.1456146240234375,-0.9694366455078124,0.0276611894369125,0.0076986658386886,-0.0093002915382385
1769245494045,-0.2256317138671875,-0.1463623046875,-0.962677001953125,0.028186097741127,0.0098427766934037,-0.0096062887459993
1769245494054,-0.2254791259765625,-0.14263916015625,-0.96014404296875,0.0299909226596355,0.0047484161332249,-0.00584750296548
1769245494064,-0.223785400390625,-0.14508056640625,-0.9632110595703124,0.0343800783157348,0.0019971043802797,-0.0058666775003075
1769245494074,-0.221435546875,-0.147979736328125,-0.9672393798828124,0.0364496186375618,-0.0010918960906565,-0.0066773439757525
1769245494084,-0.2240753173828125,-0.1479949951171875,-0.9654083251953124,0.0365164652466774,0.0062672169879078,-0.0051564122550189
1769245494094,-0.221160888671875,-0.144989013671875,-0.959716796875,0.034498855471611,0.0152375428006052,-0.0056536244228482
1769245494104,-0.22210693359375,-0.1463623046875,-0.957427978515625,0.0253727342933416,0.0227833427488803,-0.0064131580293178
1769245494114,-0.223419189453125,-0.14923095703125,-0.9538421630859376,0.0222855973988771,0.0221098288893699,-0.0092824483290314
1769245494125,-0.2234649658203125,-0.1516876220703125,-0.955322265625,0.0225508492439985,0.0154002616181969,-0.0097202714532613
1769245494135,-0.223876953125,-0.150482177734375,-0.95904541015625,0.0231415387243032,0.0050727892667055,-0.0072142370045185
1769245494145,-0.22222900390625,-0.152252197265625,-0.9577484130859376,0.0226389989256858,0.0066736154258251,-0.0036261600907891
1769245494155,-0.220611572265625,-0.152069091796875,-0.95208740234375,0.0148375360295176,0.0183425210416317,-0.0009456885163672
1769245494165,-0.2176666259765625,-0.150421142578125,-0.9493560791015624,0.0023363912478089,0.0219700131565332,-0.003343598684296
1769245494175,-0.218719482421875,-0.1505279541015625,-0.9465179443359376,-0.0055217980407178,0.0247269179672002,0.0024799355305731
1769245494185,-0.2145233154296875,-0.1494140625,-0.95208740234375,-0.0107280118390917,0.0336319953203201,0.0053518884815275
1769245494195,-0.217803955078125,-0.1512908935546875,-0.95843505859375,-0.0119256349280476,0.0375401861965656,0.0060003683902323
1769245494205,-0.22412109375,-0.1515655517578125,-0.96417236328125,-0.0021438447292894,0.0232384763658046,0.0004008057294413
1769245494215,-0.2273101806640625,-0.1488037109375,-0.971893310546875,0.0113980630412697,0.0035702337045222,-0.0015262576052919
1769245494225,-0.222320556640625,-0.1500701904296875,-0.9730682373046876,0.0185907278209924,-0.0011331749847158,0.0034823494497686
1769245494235,-0.2160186767578125,-0.145599365234375,-0.96368408203125,0.0199926160275936,0.0043169842101633,0.000333427771693
1769245494245,-0.2191314697265625,-0.1518402099609375,-0.954071044921875,0.0198669154196977,0.0118119185790419,-0.0019241338595747
1769245494255,-0.2175445556640625,-0.1548309326171875,-0.9557952880859376,0.0199761055409908,0.0073441993445158,-0.0003286340797785
1769245494265,-0.2207794189453125,-0.1558380126953125,-0.954437255859375,0.0180940497666597,0.0049167280085384,0.0013632721966132
1769245494275,-0.224029541015625,-0.1527557373046875,-0.955841064453125,0.0224507134407758,0.0037175065372139,0.0010745854815468
1769245494285,-0.2216949462890625,-0.1490478515625,-0.966583251953125,0.0298018380999565,0.0006583334179595,0.0074214311316609
1769245494295,-0.216064453125,-0.1447601318359375,-0.9652557373046876,0.0295818597078323,0.0096182720735669,0.0034634410403668
1769245494305,-0.2181854248046875,-0.1456756591796875,-0.957489013671875,0.0269402712583541,0.012261725962162,0.0044437507167458
1769245494315,-0.22186279296875,-0.1592254638671875,-0.9532928466796876,0.0203249789774417,0.0078587215393781,0.0098518319427967
1769245494326,-0.2167510986328125,-0.178497314453125,-0.950347900390625,0.0127227194607257,0.0089175952598452,0.0213803891092538
1769245494336,-0.2071533203125,-0.1563873291015625,-0.9528350830078124,0.0041481396183371,0.0053313821554183,0.0140361906960606
1769245494346,-0.21697998046875,-0.14007568359375,-0.9488372802734376,0.0064829331822693,0.0070413979701697,0.0054496265947818
1769245494356,-0.224945068359375,-0.15087890625,-0.9556732177734376,0.0165925584733486,0.0194450709968805,-0.0026722159236669
1769245494366,-0.2301025390625,-0.13482666015625,-0.957611083984375,0.0070147663354873,-0.0001451422722311,-0.0117402793839573
1769245494376,-0.2318572998046875,-0.169158935546875,-0.950286865234375,0.0127144632861018,0.0134878456592559,-0.01335069257766
1769245494386,-0.228668212890625,-0.1606903076171875,-0.957977294921875,-0.0014599448768422,0.0129887694492936,-0.0140455113723874
1769245494396,-0.2237396240234375,-0.1649169921875,-0.9476318359375,-0.0055737299844622,-0.0023723437916487,-0.0183888617902994
1769245494406,-0.22137451171875,-0.1386260986328125,-0.959625244140625,0.0039625172503292,0.0035872780717909,-0.0250124093145132
1769245494416,-0.227386474609375,-0.123992919921875,-0.9565887451171876,0.0058728028088808,-0.0162372924387455,-0.0307166334241628
1769245494426,-0.2283935546875,-0.1432952880859375,-0.951812744140625,0.0047452202998101,-0.0340160243213176,-0.0238613914698362
1769245494436,-0.221435546875,-0.1540374755859375,-0.953765869140625,-0.0108305430039763,-0.0272302888333797,-0.0177417118102312
1769245494446,-0.217803955078125,-0.1587066650390625,-0.949127197265625,-0.0388051867485046,-0.0123181855306029,-0.0156362168490886
1769245494456,-0.2186126708984375,-0.1664581298828125,-0.9402008056640624,-0.0591043308377265,-0.0083450153470039,-0.0089234542101621
1769245494466,-0.21771240234375,-0.17242431640625,-0.9462890625,-0.0702464655041694,-0.0002609897928778,-0.0010024138027802
1769245494476,-0.2150115966796875,-0.1662139892578125,-0.9566497802734376,-0.0755757167935371,0.0117386812344193,0.0039643817581236
1769245494486,-0.2152252197265625,-0.1534423828125,-0.9617462158203124,-0.0713391602039337,0.0137752005830407,0.0023031015880405
1769245494496,-0.2203216552734375,-0.146881103515625,-0.966522216796875,-0.0576198883354663,0.0035558526869863,-0.0025837989524006
1769245494507,-0.2264556884765625,-0.1419830322265625,-0.9687347412109376,-0.0365489572286605,-0.0107687581330537,-0.0080158486962318
1769245494516,-0.23040771484375,-0.1436767578125,-0.975616455078125,-0.0098923118785023,-0.0164700541645288,-0.014954182319343
1769245494527,-0.23394775390625,-0.1503753662109375,-0.982208251953125,0.0104156229645013,-0.0228326115757226,-0.0214003641158342
1769245494537,-0.233001708984375,-0.1493377685546875,-0.979644775390625,0.0184810068458318,-0.0278140548616647,-0.0215614847838878
1769245494547,-0.226593017578125,-0.1495208740234375,-0.9720916748046876,0.0173291899263858,-0.0156607180833816,-0.0165832377970218
1769245494557,-0.21575927734375,-0.1507415771484375,-0.9615631103515624,0.0092134717851877,-0.0023987090680748,-0.0202019400894641
1769245494567,-0.2146453857421875,-0.1592559814453125,-0.9543304443359376,2.7696874894900247e-05,0.0019246664596721,-0.0169379711151123
1769245494577,-0.2114715576171875,-0.1599884033203125,-0.953582763671875,-0.0042709112167358,-0.0060871872119605,-0.011878496967256
1769245494587,-0.21380615234375,-0.156951904296875,-0.9552459716796876,-0.0157073233276605,-0.0103106945753097,-0.0049311090260744
1769245494597,-0.2156219482421875,-0.1562957763671875,-0.9544219970703124,-0.0282199196517467,-0.007300257217139,0.0003107908996753
1769245494607,-0.2210845947265625,-0.1596221923828125,-0.957183837890625,-0.0272931400686502,-0.0108936605975031,0.0055478969588875
1769245494617,-0.22003173828125,-0.1605682373046875,-0.9637603759765624,-0.0319568663835525,-0.0114739630371332,0.0094574177637696
1769245494627,-0.2197265625,-0.142120361328125,-0.9626007080078124,-0.0329158715903759,-0.0008388957357965,0.0012964267516508
1769245494637,-0.2302398681640625,-0.1401214599609375,-0.96795654296875,-0.0118947429582476,-0.003442401997745,-0.0062086274847388
1769245494647,-0.2340545654296875,-0.1351165771484375,-0.97296142578125,0.0035822179634124,-0.0132425688207149,-0.0080829598009586
1769245494657,-0.2260284423828125,-0.146575927734375,-0.9661102294921876,0.00599344400689,-0.0189965944737195,-0.0046208505518734
1769245494667,-0.217315673828125,-0.1585235595703125,-0.960479736328125,0.0045582666061818,-0.0134963672608137,-0.000202400246053
1769245494677,-0.215972900390625,-0.1590576171875,-0.956085205078125,0.0008966863388195,-0.0070810788311064,-0.0018040252616629
1769245494687,-0.223114013671875,-0.153076171875,-0.9489288330078124,-0.0013957626651972,-0.0133626768365502,0.0036410738248378
1769245494697,-0.2205352783203125,-0.154296875,-0.9544525146484376,-0.0035188347101211,-0.0192634426057338,0.0086422236636281
1769245494707,-0.220947265625,-0.1564178466796875,-0.9622955322265624,-0.0092036183923482,-0.0164306387305259,0.0087511474266648
1769245494717,-0.22412109375,-0.1502838134765625,-0.9592742919921876,-0.0225796103477478,-0.0140841277316212,0.0132151376456022
1769245494727,-0.22137451171875,-0.1444091796875,-0.948822021484375,-0.0367108769714832,0.0014354437589645,0.0067596356384456
1769245494738,-0.2274017333984375,-0.150482177734375,-0.9527435302734376,-0.0415043011307716,0.0060760020278394,0.0083524724468588
1769245494748,-0.2231597900390625,-0.1512908935546875,-0.9579010009765624,-0.0405199974775314,0.0001912149600684,0.0052767875604331
1769245494758,-0.2252655029296875,-0.1541900634765625,-0.96044921875,-0.0321582034230232,-0.003523362101987,0.0034658377990126
1769245494768,-0.2255401611328125,-0.15069580078125,-0.967010498046875,-0.0249295849353075,-0.0025121597573161,0.0053494917228817
1769245494778,-0.2255401611328125,-0.15264892578125,-0.9709625244140624,-0.0183422546833753,0.0007680556736886,0.0044336304999887
1769245494788,-0.2247314453125,-0.152069091796875,-0.9667816162109376,-0.018068216741085,0.0045191179960966,0.0041835596784949
1769245494798,-0.2241973876953125,-0.1494903564453125,-0.9605865478515624,-0.0144907915964722,0.0068027786910533,0.0014471617760136
1769245494808,-0.2239837646484375,-0.150787353515625,-0.959442138671875,-0.0081085264682769,0.0017406421247869,-0.0012687299167737
1769245494818,-0.226654052734375,-0.1492767333984375,-0.9635009765625,0.0009981527691707,-0.0113000590354204,-0.0027348001021891
1769245494828,-0.2275848388671875,-0.144927978515625,-0.9644622802734376,0.0071348748169839,-0.022972160950303,-0.0063524381257593
1769245494838,-0.228424072265625,-0.143402099609375,-0.9677581787109376,0.0092675341293215,-0.0233356822282075,-0.0047343014739453
1769245494848,-0.223968505859375,-0.1461944580078125,-0.9691162109375,0.007088269572705,-0.0150372730568051,-0.0051915659569203
1769245494858,-0.2257843017578125,-0.1489715576171875,-0.9570465087890624,-0.0004261057765688,-0.002993392990902,-0.0041329595260322
1769245494868,-0.22216796875,-0.1484527587890625,-0.95245361328125,-0.0049782469868659,0.0020514330826699,-0.0024969798978418
1769245494878,-0.222442626953125,-0.1507110595703125,-0.9539642333984376,-0.0062190135940909,0.0026479810476303,-0.0029137644451111
1769245494888,-0.2219696044921875,-0.153564453125,-0.961090087890625,-0.0039153792895376,-0.0046570696868002,-0.0012876383261755
1769245494898,-0.2239532470703125,-0.15521240234375,-0.960968017578125,-0.002584597794339,-0.0159624554216861,-0.0009701895760372
1769245494908,-0.2244720458984375,-0.1499481201171875,-0.957672119140625,-0.004711132030934,-0.0120878219604492,-0.0007637945818714
1769245494918,-0.226776123046875,-0.1505584716796875,-0.9568634033203124,-0.011780759319663,-0.0043548010289669,0.00082771043526
1769245494928,-0.2223358154296875,-0.149993896484375,-0.9523773193359376,-0.0243649948388338,0.0034019220620393,0.00313107855618
1769245494939,-0.222564697265625,-0.1471710205078125,-0.947235107421875,-0.0284761153161525,0.008862467482686,0.0017592841759324
1769245494949,-0.224029541015625,-0.149139404296875,-0.95880126953125,-0.023423034697771,0.0017600831342861,-0.0008050735923461
1769245494959,-0.2276763916015625,-0.15032958984375,-0.962493896484375,-0.018141720443964,-0.009318932890892,-0.0068515143357217
1769245494969,-0.23260498046875,-0.14813232421875,-0.96588134765625,-0.0122478781268,-0.0197982061654329,-0.0007403587806038
1769245494979,-0.2269134521484375,-0.1459197998046875,-0.968292236328125,-0.0126944901421666,-0.0198765024542808,-0.0019228023011237
1769245494989,-0.2253265380859375,-0.1488494873046875,-0.96478271484375,-0.0139557626098394,-0.0064499098807573,0.0019204054260626
1769245494999,-0.22100830078125,-0.148681640625,-0.9645538330078124,-0.0144250122830271,0.0067108995281159,0.0016735304379835
1769245495009,-0.221954345703125,-0.149200439453125,-0.9670562744140624,-0.0052181975916028,0.0053023537620902,0.0015022892039269
1769245495019,-0.2219696044921875,-0.1504669189453125,-0.9707183837890624,0.0048221857286989,-0.0018591526895761,-0.001129446667619
1769245495029,-0.222930908203125,-0.1513214111328125,-0.9666595458984376,0.0103847300633788,-0.0048296428285539,0.0025084314402192
1769245495039,-0.2244110107421875,-0.1503448486328125,-0.9643402099609376,0.0119754364714026,0.0008420915110036,0.0069692260585725
1769245495049,-0.2238311767578125,-0.1543121337890625,-0.9644622802734376,0.0120739731937646,0.0090978909283876,0.0117994016036391
1769245495059,-0.2244873046875,-0.154083251953125,-0.96099853515625,0.0125770447775721,0.0107937920838594,0.0069236862473189
1769245495069,-0.2270965576171875,-0.1510162353515625,-0.962005615234375,0.0150380712002515,0.01003132853657,0.0064496435225009
1769245495080,-0.2332916259765625,-0.145538330078125,-0.96124267578125,0.0232272911816835,0.0016495619202032,0.0034240260720252
1769245495089,-0.2299957275390625,-0.1651458740234375,-0.969451904296875,0.0327536836266517,-0.0159137193113565,0.022726884111762
1769245495099,-0.2135772705078125,-0.174530029296875,-0.9703826904296876,0.0353172458708286,-0.0080438116565346,0.0253330525010824
1769245495109,-0.2197418212890625,-0.144378662109375,-0.959991455078125,0.0268843453377485,-0.0037270938046276,0.0124015416949987
1769245495119,-0.231903076171875,-0.14080810546875,-0.9510650634765624,0.0307315476238727,0.0182256083935499,0.0084249097853899
1769245495130,-0.23284912109375,-0.1319122314453125,-0.9556732177734376,0.0313933417201042,0.0391540601849556,-0.0068126325495541
1769245495140,-0.2367706298828125,-0.1257781982421875,-0.9520416259765624,0.020634438842535,0.0109764849767088,-0.0081074610352516
1769245495149,-0.2350311279296875,-0.1712188720703125,-0.95361328125,0.0161906871944665,0.0275914147496223,-0.0026628947816789
1769245495159,-0.222412109375,-0.168182373046875,-0.9510040283203124,-0.009640110656619,0.0270750261843204,0.000216514992644
1769245495170,-0.2200164794921875,-0.1630401611328125,-0.9443206787109376,-0.0118129840120673,0.0449163429439067,-0.0075636436231434
1769245495180,-0.2276763916015625,-0.123046875,-0.951934814453125,-0.009935189038515,0.0393988043069839,-0.0187622364610433
1769245495190,-0.2340545654296875,-0.12811279296875,-0.95025634765625,0.002682069549337,0.0271000601351261,-0.0240169186145067
1769245495200,-0.2336273193359375,-0.145660400390625,-0.9693756103515624,0.0116705046966671,0.0032522522378712,-0.0219188816845417
1769245495210,-0.2340240478515625,-0.154693603515625,-0.9666900634765624,0.0035981968976557,-0.01140658557415,-0.0217511020600795
1769245495220,-0.2310028076171875,-0.162261962890625,-0.9501953125,-0.0138023644685745,-0.0191867444664239,-0.016482038423419
1769245495230,-0.2223052978515625,-0.16754150390625,-0.946044921875,-0.0313773639500141,-0.0125030083581805,-0.003360110335052
1769245495240,-0.21197509765625,-0.167083740234375,-0.948455810546875,-0.0444931648671627,0.0144638940691947,0.0083258403465151
1769245495250,-0.2118682861328125,-0.1650238037109375,-0.95831298828125,-0.0456188842654228,0.009427323937416,0.0090704606845974
1769245495260,-0.2195587158203125,-0.1614990234375,-0.9620208740234376,-0.0371500328183174,-0.0117101855576038,0.0099724726751446
1769245495270,-0.22216796875,-0.1501617431640625,-0.96258544921875,-0.0291509609669446,-0.0138327246531844,0.006589725613594
1769245495280,-0.2263641357421875,-0.1475830078125,-0.9649658203125,-0.0300535056740045,-0.0015089471125975,-7.882956560933962e-05
1769245495290,-0.230316162109375,-0.147308349609375,-0.9639892578125,-0.0352213717997074,0.0050245858728885,-0.0049122003838419
1769245495300,-0.22882080078125,-0.1432952880859375,-0.962188720703125,-0.0366477593779563,0.0103932525962591,-0.0098979044705629
1769245495310,-0.2276153564453125,-0.1478424072265625,-0.9690704345703124,-0.0259362589567899,0.0132223283872008,-0.0153640424832701
1769245495320,-0.2306060791015625,-0.151092529296875,-0.97308349609375,-0.0094587495550513,0.0033803503029048,-0.0187515839934349
1769245495330,-0.229522705078125,-0.1490631103515625,-0.97491455078125,0.0068813418038189,-0.0091122714802622,-0.0184314716607332
1769245495340,-0.223541259765625,-0.1469879150390625,-0.9727325439453124,0.0121203120797872,-0.0112151037901639,-0.0160229094326496
1769245495350,-0.22039794921875,-0.151275634765625,-0.9627838134765624,0.0034288198221474,-0.0117320232093334,-0.0111437309533357
1769245495360,-0.21575927734375,-0.15240478515625,-0.954986572265625,0.0002434129273751,-0.0042866240255534,-0.0084166545420885
1769245495371,-0.2171630859375,-0.156341552734375,-0.954742431640625,-0.00121892883908,-0.0040647825226187,0.0013539510546252
1769245495381,-0.2150115966796875,-0.159454345703125,-0.9594573974609376,-0.0006732470938004,0.0001091896047,0.0126183237880468
1769245495391,-0.219451904296875,-0.159912109375,-0.96234130859375,-0.0057383133098483,-0.0017403757665306,0.0139440447092056
1769245495401,-0.224578857421875,-0.138641357421875,-0.9641876220703124,-0.00600116699934,0.0069287461228668,0.0017773937433958
1769245495411,-0.23345947265625,-0.1290435791015625,-0.9658050537109376,-0.0034013893455266,-0.0001062601295416,-0.0046067358925938
1769245495421,-0.2303619384765625,-0.143951416015625,-0.964111328125,-0.0008705873624421,-0.0074778897687792,0.001472728094086
1769245495431,-0.2241973876953125,-0.149658203125,-0.9631500244140624,0.0033494576346129,-0.0017118799732998,-0.0045691854320466
1769245495441,-0.224395751953125,-0.15423583984375,-0.9569854736328124,0.0068709556944668,-0.0010128001449629,0.0003539340978022
1769245495451,-0.21929931640625,-0.149078369140625,-0.9578094482421876,0.0101186800748109,0.0016466324450448,0.0016088156262412
1769245495461,-0.2197113037109375,-0.149322509765625,-0.9589385986328124,0.0094880443066358,0.0032932648900896,-0.0029318740125745
1769245495471,-0.22503662109375,-0.1500396728515625,-0.9619598388671876,0.0105442535132169,-0.0017574200173839,-0.0009275790071114
1769245495481,-0.225494384765625,-0.15093994140625,-0.9640045166015624,0.0063175507821142,-0.0091215930879116,0.003688744502142
1769245495491,-0.2234954833984375,-0.1473846435546875,-0.958526611328125,-0.000647148117423,-0.006899984087795,0.0064938520081341
1769245495501,-0.22027587890625,-0.1497650146484375,-0.9560546875,-0.0019361181184649,0.0018596854060888,0.0060168798081576
1769245495511,-0.2236328125,-0.1531829833984375,-0.962646484375,-0.0010194580536335,-3.1425301131093875e-05,0.0083671193569898
1769245495521,-0.2249298095703125,-0.154541015625,-0.963623046875,-0.0002495381922926,-0.0036083168815821,0.0104387924075126
1769245495531,-0.223724365234375,-0.156219482421875,-0.959747314453125,0.0008338357438333,-0.0025808694772422,0.0141168842092156
1769245495541,-0.2216796875,-0.1508941650390625,-0.9615631103515624,0.003123888047412,-0.0026610305067151,0.0211694668978452
1769245495551,-0.2183990478515625,-0.1502532958984375,-0.9606781005859376,0.0060893176123499,0.0059481700882315,0.0241580661386251
1769245495562,-0.22357177734375,-0.1518402099609375,-0.9645233154296876,0.0100883208215236,0.0037747644819319,0.0253338515758514
1769245495572,-0.224761962890625,-0.1497344970703125,-0.9614105224609376,0.0115570537745952,0.0038352182600647,0.0159880220890045
1769245495582,-0.230560302734375,-0.1488800048828125,-0.957916259765625,0.0183241460472345,0.0030956584960222,0.0164889618754386
1769245495592,-0.2320404052734375,-0.147796630859375,-0.9625244140625,0.0211335141211748,-0.0121330954134464,0.0133275231346488
1769245495602,-0.230072021484375,-0.1469879150390625,-0.961456298828125,0.0187859386205673,-0.0194655768573284,0.0105152251198887
1769245495612,-0.2289581298828125,-0.147674560546875,-0.9547271728515624,0.012018047273159,-0.0181438494473695,0.0081540662795305
1769245495622,-0.227081298828125,-0.147796630859375,-0.9500885009765624,-0.0024112260434776,-0.0066818711347877,0.0088491514325141
1769245495632,-0.2256927490234375,-0.151702880859375,-0.9483795166015624,-0.0100888535380363,0.0038631814531981,0.008992962539196
1769245495642,-0.2273101806640625,-0.1522216796875,-0.9546356201171876,-0.010881676338613,0.004211523104459,0.0078115840442478
1769245495652,-0.2264862060546875,-0.152313232421875,-0.9587554931640624,-0.0136710712686181,0.004171042703092,0.00787203758955
1769245495662,-0.228546142578125,-0.151611328125,-0.961181640625,-0.0138670792803168,0.0038996667135506,0.0081897526979446
1769245495672,-0.2256317138671875,-0.1524810791015625,-0.9608154296875,-0.0141770718619227,0.0015419702976942,0.0058099520392715
1769245495682,-0.2273712158203125,-0.1519775390625,-0.958282470703125,-0.0183957852423191,0.005150553304702,0.0024330639280378
1769245495692,-0.2261505126953125,-0.151031494140625,-0.9551239013671876,-0.0209460277110338,0.011779960244894,0.0048120655119419
1769245495702,-0.2235565185546875,-0.14947509765625,-0.95843505859375,-0.0216267313808202,0.0183832682669162,0.0114843491464853
1769245495712,-0.222900390625,-0.15142822265625,-0.961822509765625,-0.018200309947133,0.0152870770543813,0.0070829433389008
1769245495722,-0.2316436767578125,-0.15216064453125,-0.9659271240234376,-0.0114073837175965,0.0096694054082036,0.0032165660522878
1769245495732,-0.2341156005859375,-0.1504974365234375,-0.967559814453125,-0.0020759340841323,0.0010649980977177,0.0001752359967213
1769245495742,-0.23101806640625,-0.1520843505859375,-0.9656982421875,0.0037113812286406,-0.0030474551022052,-0.0014037522487342
1769245495752,-0.2306671142578125,-0.1519012451171875,-0.966461181640625,0.0125860990956425,-0.0056099486537277,0.0010910971323028
1769245495762,-0.224853515625,-0.1470489501953125,-0.966278076171875,0.0147661631926894,0.0002897519152611,-0.0036908749025315
1769245495773,-0.2267303466796875,-0.1539764404296875,-0.963409423828125,0.0134449684992432,0.0068001155741512,-0.0031688953749835
1769245495783,-0.228759765625,-0.1532135009765625,-0.9625091552734376,0.0148623026907444,0.010333864018321,-0.0030583741609007
1769245495793,-0.228302001953125,-0.151458740234375,-0.96478271484375,0.0203673224896192,0.0080536650493741,-0.0034794199746102
1769245495803,-0.2271270751953125,-0.1512908935546875,-0.9678955078125,0.0298460461199283,0.0027619644533842,-0.0090443613007664
1769245495813,-0.2324981689453125,-0.1505889892578125,-0.96875,0.0380517765879631,-0.0019473034190014,-0.0103117600083351
1769245495823,-0.2267303466796875,-0.149505615234375,-0.9647979736328124,0.0384792163968086,-0.0016338493442162,-0.0063907876610755
1769245495833,-0.2201995849609375,-0.1544036865234375,-0.9611663818359376,0.0397125259041786,0.0022285331506282,-0.0058238008059561
1769245495843,-0.220062255859375,-0.1580047607421875,-0.959259033203125,0.0329765900969505,0.005470132920891,-0.0032522522378712
1769245495853,-0.2167816162109375,-0.1470794677734375,-0.95001220703125,0.0278683826327323,0.0104672880843281,0.0006956176948733
1769245495863,-0.22479248046875,-0.1483917236328125,-0.949554443359375,0.0240286365151405,0.0147286122664809,0.0077612502500414
1769245495873,-0.2216796875,-0.162872314453125,-0.9524688720703124,0.0178461093455553,0.003640008624643,0.0180961787700653
1769245495883,-0.2148284912109375,-0.1797027587890625,-0.956085205078125,0.018852250650525,0.0070227556861937,0.0329211987555027
1769245495893,-0.2105712890625,-0.1474761962890625,-0.9603424072265624,0.0133115444332361,0.0086094671860337,0.0185624994337558
1769245495903,-0.2311859130859375,-0.1442108154296875,-0.9532623291015624,0.0203249789774417,0.0205036774277687,0.0148127684369683
1769245495913,-0.235748291015625,-0.1341400146484375,-0.9583587646484376,0.0324876345694065,0.0306266192346811,-0.0028375980909913
1769245495923,-0.241180419921875,-0.11981201171875,-0.9594879150390624,0.0243380963802337,-0.0127560086548328,-0.0134044885635375
1769245495933,-0.23797607421875,-0.1693267822265625,-0.9590911865234376,0.0240275710821151,-0.0152857452630996,-0.0026607641484588
1769245495943,-0.221710205078125,-0.183197021484375,-0.9583892822265624,0.002093510935083,-0.0044253747910261,0.0090214582160115
1769245495953,-0.210662841796875,-0.1664886474609375,-0.943572998046875,-0.0074336812831461,0.0175752658396959,0.003025617217645
1769245495963,-0.2211761474609375,-0.129058837890625,-0.9446563720703124,-0.0100393183529376,0.0221023727208375,-0.0116129796952009
1769245495973,-0.2288360595703125,-0.1249237060546875,-0.9507598876953124,0.0012863067677244,0.013544837012887,-0.0216981042176485
1769245495984,-0.2325439453125,-0.148162841796875,-0.9713134765625,0.0208525508642196,-0.0115195028483867,-0.0149967921897768
1769245495994,-0.2276153564453125,-0.1557159423828125,-0.9753570556640624,0.0238408837467432,-0.0283099357038736,-0.0129440277814865
1769245496004,-0.2277679443359375,-0.1652374267578125,-0.9536590576171876,0.0067862668074667,-0.023370835930109,-0.0022980417124927
1769245496014,-0.219635009765625,-0.165863037109375,-0.9355926513671876,-0.0188170969486236,-0.0119163142517209,0.0113200321793556
1769245496024,-0.2121734619140625,-0.167236328125,-0.9322357177734376,-0.0385782867670059,0.0055095474235713,0.0170708615332841
1769245496034,-0.214630126953125,-0.1640777587890625,-0.9420318603515624,-0.0432169772684574,0.0098915128037333,0.0197308268398046
1769245496044,-0.2256317138671875,-0.15277099609375,-0.9568023681640624,-0.0392491370439529,-0.0076408754102885,0.0175859183073043
1769245496054,-0.23052978515625,-0.1458740234375,-0.96478271484375,-0.0301587004214525,-0.016978183761239,0.011027617380023
1769245496064,-0.2317657470703125,-0.14520263671875,-0.9684600830078124,-0.0296148844063282,-0.0127032781019806,0.0091689974069595
1769245496074,-0.232696533203125,-0.1493072509765625,-0.961456298828125,-0.0359766446053981,0.0035651738289743,0.0001270327775273
1769245496084,-0.2360382080078125,-0.154144287109375,-0.9554901123046876,-0.0387394055724144,0.0109005849808454,-0.005412608385086
1769245496094,-0.2353515625,-0.152587890625,-0.9571075439453124,-0.0396720468997955,0.0107533121481537,-0.0058610849082469
1769245496104,-0.230560302734375,-0.1526947021484375,-0.959686279296875,-0.0358815677464008,0.012475311756134,-0.0093575492501258
1769245496114,-0.2301788330078125,-0.15673828125,-0.9657745361328124,-0.0270694345235824,0.0013225257862359,-0.0087005468085408
1769245496124,-0.2243194580078125,-0.1538238525390625,-0.9701995849609376,-0.0225058421492576,-0.0133046200498938,-0.0104632936418056
1769245496134,-0.2260589599609375,-0.1591033935546875,-0.9644622802734376,-0.0119623867794871,-0.0270995274186134,-0.0081972097977995
1769245496144,-0.22509765625,-0.15716552734375,-0.9676971435546876,-0.01121830008924,-0.0327185317873954,-0.003534014802426
1769245496154,-0.2259521484375,-0.1552581787109375,-0.964752197265625,-0.0196855533868074,-0.0316964089870452,0.0058000986464321
1769245496164,-0.224090576171875,-0.1585845947265625,-0.9557952880859376,-0.0291925072669982,-0.0192663725465536,0.0160330291837453
1769245496174,-0.21954345703125,-0.15863037109375,-0.9524688720703124,-0.0436494760215282,0.0027129622176289,0.0166365001350641
1769245496184,-0.2252044677734375,-0.139801025390625,-0.95367431640625,-0.0501273497939109,0.0144865307956933,0.0087892301380634
1769245496194,-0.230255126953125,-0.1403656005859375,-0.9589080810546876,-0.0437349639832973,0.0072280853055417,0.0103090964257717
1769245496205,-0.227508544921875,-0.14837646484375,-0.965484619140625,-0.0324679277837276,0.0023355921730399,0.015598933212459
1769245496215,-0.227264404296875,-0.151214599609375,-0.9730377197265624,-0.0168519504368305,-0.0025329324416816,0.0197175126522779
1769245496225,-0.2263946533203125,-0.1510009765625,-0.96954345703125,-0.0091961612924933,-0.0047968858852982,0.0166418273001909
1769245496235,-0.226043701171875,-0.153045654296875,-0.9632415771484376,-0.0022394522093236,-0.0007352987886406,0.0167542118579149
1769245496245,-0.2272186279296875,-0.1542205810546875,-0.9655303955078124,0.0096209356561303,-0.0012061456218361,0.0168423634022474
1769245496255,-0.22784423828125,-0.1522064208984375,-0.9708251953125,0.0188559796661138,-0.004195543937385,0.0176764652132987
1769245496265,-0.227142333984375,-0.1516876220703125,-0.97259521484375,0.0191542524844408,-0.0030868700705468,0.0178042966872453
1769245496275,-0.2270660400390625,-0.151214599609375,-0.961273193359375,0.0102784698829054,0.0059018312022089,0.0191172361373901
1769245496285,-0.2251129150390625,-0.149932861328125,-0.9551239013671876,0.0070038475096225,0.0181776713579893,0.0194666422903537
1769245496295,-0.2270965576171875,-0.1549530029296875,-0.9609527587890624,0.0121876904740929,0.0235063917934894,0.0145981172099709
1769245496305,-0.2339630126953125,-0.1568145751953125,-0.966156005859375,0.0195414777845144,0.0105146924033761,0.0123488111421465
1769245496315,-0.2348785400390625,-0.15313720703125,-0.972625732421875,0.0286252535879611,-0.0063204802572727,0.0091325119137763
1769245496325,-0.2335357666015625,-0.1531524658203125,-0.9710845947265624,0.0351662412285804,-0.0109551791101694,0.0043729105964303
1769245496335,-0.2321319580078125,-0.1561737060546875,-0.96240234375,0.0330498293042182,-0.0064824004657566,0.0073979953303933
1769245496345,-0.225189208984375,-0.1534271240234375,-0.9544525146484376,0.0276899505406618,0.0032804817892611,0.0075828186236321
1769245496355,-0.2254486083984375,-0.154052734375,-0.95281982421875,0.0251197349280118,0.0114401411265134,0.0073284865356981
1769245496365,-0.2312469482421875,-0.1560516357421875,-0.9533233642578124,0.0211774576455354,0.0124782407656311,0.0009113337146118
1769245496375,-0.2362823486328125,-0.1531524658203125,-0.9542694091796876,0.0166937597095966,0.0124369617551565,-0.0035193674266338
1769245496385,-0.2399749755859375,-0.14910888671875,-0.9540252685546876,0.009066198952496,0.011502725072205,-0.0112374741584062
1769245496395,-0.240264892578125,-0.1470794677734375,-0.956573486328125,0.0041244374588131,0.0058592208661139,-0.0154319535940885
1769245496406,-0.239044189453125,-0.1473236083984375,-0.9544219970703124,-0.0009856359101831,-0.0002442118711769,-0.0136226015165448
1769245496416,-0.2308502197265625,-0.147186279296875,-0.95587158203125,-0.0074006584472954,0.0051364386454224,-0.0121485413983464
1769245496426,-0.224884033203125,-0.1516876220703125,-0.9533843994140624,-0.0120824957266449,0.0084827002137899,-0.0141006391495466
1769245496436,-0.2285614013671875,-0.1526336669921875,-0.951690673828125,-0.0118159130215644,0.0111730257049202,-0.0158809628337621
1769245496446,-0.22802734375,-0.1546478271484375,-0.95709228515625,-0.0083519397303462,0.0111732920631766,-0.0176160112023353
1769245496456,-0.22900390625,-0.1533660888671875,-0.960357666015625,-0.0059497682377696,0.0003265035338699,-0.0112302843481302
1769245496466,-0.220489501953125,-0.1534423828125,-0.9565582275390624,-0.006738063879311,0.0069260830059647,-0.0104965828359127
1769245496476,-0.2242889404296875,-0.1531982421875,-0.95635986328125,-0.0114878118038177,0.0089745866134762,-0.0092579470947384
1769245496486,-0.224609375,-0.1520233154296875,-0.953765869140625,-0.0147302104160189,0.0106438556686043,-0.0043119238689541
1769245496496,-0.2240142822265625,-0.148193359375,-0.955047607421875,-0.0142292696982622,0.0085468832403421,-0.0035774242132902
1769245496506,-0.2231597900390625,-0.14825439453125,-0.958160400390625,-0.0118934111669659,0.0156591199338436,-0.0052656019106507
1769245496516,-0.227020263671875,-0.1541900634765625,-0.963165283203125,-0.0025137576740235,0.012957077473402,-0.0089005501940846
1769245496526,-0.23101806640625,-0.1519775390625,-0.9671478271484376,0.0036000611726194,0.0050506847910583,-0.0093000251799821
1769245496536,-0.23101806640625,-0.1505279541015625,-0.964691162109375,0.0105248121544718,0.0009898969437927,-0.0100491717457771
1769245496547,-0.2295989990234375,-0.15203857421875,-0.9645538330078124,0.0103623596951365,-0.0031305458396673,-0.0057327207177877
1769245496556,-0.22088623046875,-0.1514892578125,-0.95660400390625,0.0010396981379017,0.0005829659639857,-0.0070507191121578
1769245496566,-0.2200927734375,-0.1503448486328125,-0.9488525390625,-0.0091623393818736,0.0056048887781798,-0.003294862806797
1769245496576,-0.2192535400390625,-0.1557159423828125,-0.951416015625,-0.013693175278604,0.0102704809978604,-0.004015780519694
1769245496586,-0.2237091064453125,-0.1588592529296875,-0.9572906494140624,-0.0126955555751919,0.0105594340711832,-0.0039862194098532
1769245496596,-0.2276458740234375,-0.1563568115234375,-0.9622344970703124,-0.0096134785562753,0.0081162499263882,-0.0026458504144102
1769245496607,-0.230865478515625,-0.1534423828125,-0.9655303955078124,-0.0025582325179129,0.0044570663012564,-0.0051833102479577
1769245496617,-0.2319488525390625,-0.15313720703125,-0.966033935546875,-0.0039974045939743,0.0008876316132955,0.0045643919147551
1769245496626,-0.22088623046875,-0.1498565673828125,-0.96112060546875,-0.0056102150119841,0.0111884726211428,0.0061849253252148
1769245496637,-0.22052001953125,-0.1544647216796875,-0.9572296142578124,-0.0060136839747428,0.0218251384794712,0.0098752677440643
1769245496647,-0.2196807861328125,-0.15325927734375,-0.9579315185546876,-0.0045673213899135,0.0282574705779552,0.0052578789182007
1769245496657,-0.2273712158203125,-0.1521759033203125,-0.9573516845703124,0.0002593918761704,0.0243253130465745,0.0057271276600658
1769245496667,-0.227142333984375,-0.158050537109375,-0.9623565673828124,0.0063476446084678,0.0037478664889931,0.0152356782928109
1769245496677,-0.22088623046875,-0.1814117431640625,-0.9644012451171876,0.0077197048813104,-0.002994192065671,0.0280574671924114
1769245496687,-0.21575927734375,-0.15728759765625,-0.961822509765625,-0.0013270531781017,0.0052227252162992,0.0282020773738622
1769245496697,-0.2198333740234375,-0.1332550048828125,-0.9480133056640624,-0.0076954700052738,0.0268350765109062,0.0172349140048027
1769245496707,-0.2362213134765625,-0.14959716796875,-0.951904296875,-0.0001406149094691,0.0455025024712085,0.0029627666808664
1769245496717,-0.2405548095703125,-0.116241455078125,-0.9549407958984376,-0.0113815516233444,0.0173190683126449,-0.015516641549766
1769245496727,-0.242523193359375,-0.15478515625,-0.9532928466796876,-0.0161350276321172,0.0038277613930404,-0.014068148098886
1769245496737,-0.2295379638671875,-0.1811676025390625,-0.9628448486328124,-0.0350791588425636,0.0078568579629063,-0.0064059677533805
1769245496747,-0.219757080078125,-0.16558837890625,-0.9497833251953124,-0.0511441454291343,0.0261921882629394,-0.0136910444125533
1769245496757,-0.2244110107421875,-0.1336669921875,-0.944183349609375,-0.055760733783245,0.039216112345457,-0.0302071701735258
1769245496767,-0.233642578125,-0.1222381591796875,-0.95147705078125,-0.0452508367598056,0.033617615699768,-0.0401575379073619
1769245496777,-0.23455810546875,-0.1384429931640625,-0.972747802734375,-0.0266153663396835,0.0099226720631122,-0.0360948890447616
1769245496787,-0.2314300537109375,-0.1497650146484375,-0.983062744140625,-0.0147027792409062,-0.0157089214771986,-0.0363793112337589
1769245496797,-0.2299957275390625,-0.160614013671875,-0.9708251953125,-0.0179299972951412,-0.0290375109761953,-0.0286026168614625
1769245496808,-0.219940185546875,-0.168212890625,-0.953338623046875,-0.0310894753783941,-0.016547018662095,-0.0166367664933204
1769245496817,-0.214630126953125,-0.168701171875,-0.9498138427734376,-0.0387508571147918,-0.0070749535225331,0.0019236012594774
1769245496828,-0.209320068359375,-0.1636199951171875,-0.95794677734375,-0.038056306540966,-0.0010367685463279,0.0106148272752761
1769245496838,-0.2093658447265625,-0.1549072265625,-0.966461181640625,-0.0366940982639789,0.0050504184328019,0.0172383747994899
1769245496848,-0.2157745361328125,-0.1476593017578125,-0.9644927978515624,-0.0350796915590763,0.0140790669247508,0.0129807796329259
1769245496858,-0.226593017578125,-0.1431732177734375,-0.9651947021484376,-0.0301714837551116,0.0144103644415736,0.0059090219438076
1769245496868,-0.234588623046875,-0.142669677734375,-0.9708404541015624,-0.0199092589318752,0.018150508403778,-0.0009595369338057
1769245496878,-0.236053466796875,-0.14471435546875,-0.97320556640625,-0.0060206083580851,0.0072914687916636,-0.0043324301950633
1769245496888,-0.2347869873046875,-0.144744873046875,-0.9754486083984376,0.0059806606732308,0.0047217844985425,-0.0131464283913373
1769245496898,-0.23504638671875,-0.1508026123046875,-0.9747161865234376,0.018205901607871,0.0052219261415302,-0.0171225275844335
1769245496908,-0.23114013671875,-0.1524810791015625,-0.97576904296875,0.0276092570275068,0.0027776770293712,-0.0174261275678873
1769245496918,-0.225677490234375,-0.15301513671875,-0.9688720703125,0.0315416790544986,-0.0016857809387147,-0.0142361940816044
1769245496928,-0.222930908203125,-0.1555633544921875,-0.9649810791015624,0.0325209237635135,-0.0098859202116727,-0.0107839377596974
1769245496938,-0.21868896484375,-0.15167236328125,-0.9602203369140624,0.0234541930258274,-0.0087396958842873,-0.0060176788829267
1769245496948,-0.2211151123046875,-0.153411865234375,-0.9538726806640624,0.0137720052152872,-0.0037707698065787,0.0039699743501842
1769245496958,-0.220458984375,-0.1592864990234375,-0.9520263671875,0.0037670412566512,0.0074709658510982,0.009023854508996
1769245496968,-0.225494384765625,-0.1577606201171875,-0.9503326416015624,-0.0144465835765004,0.0110228238627314,0.0065508438274264
1769245496978,-0.225799560546875,-0.13482666015625,-0.9489898681640624,-0.0253000296652317,0.0220019724220037,-0.0069601712748408
1769245496988,-0.2349090576171875,-0.1392974853515625,-0.9503173828125,-0.0307275522500276,0.0080025326460599,-0.0122979450970888
1769245496998,-0.22802734375,-0.151611328125,-0.9552459716796876,-0.0327819138765335,0.0100177470594644,-0.0102587630972266
1769245497008,-0.2221832275390625,-0.15069580078125,-0.9571380615234376,-0.0329787209630012,0.0185648966580629,-0.0137323234230279
1769245497019,-0.22607421875,-0.1525115966796875,-0.9574737548828124,-0.0324873700737953,0.0164000112563371,-0.0149049134925007
1769245497029,-0.225555419921875,-0.1498565673828125,-0.9589385986328124,-0.0208171308040618,0.0114571852609515,-0.0163052044808864
1769245497039,-0.2237701416015625,-0.150238037109375,-0.9673309326171876,-0.0075069186277687,0.0047313719987869,-0.0145778777077794
1769245497049,-0.2230377197265625,-0.152069091796875,-0.9725494384765624,0.0016732640797272,0.0023025691043585,-0.0170591436326503
1769245497059,-0.2266845703125,-0.1503143310546875,-0.9696807861328124,0.0093138730153441,0.0005323658697307,-0.017085775732994
1769245497069,-0.2249603271484375,-0.1503143310546875,-0.968536376953125,0.0107730189338326,0.0047422908246517,-0.0107794106006622
1769245497080,-0.22088623046875,-0.147918701171875,-0.96795654296875,0.014396515674889,0.0083828317001461,-0.0135245975106954
1769245497089,-0.2231597900390625,-0.152130126953125,-0.9693145751953124,0.015230618417263,0.0025600967928767,-0.0131725268438458
1769245497099,-0.222259521484375,-0.15460205078125,-0.9638519287109376,0.01729217171669,0.0035499937366694,-0.0130055472254753
1769245497109,-0.2227935791015625,-0.1542816162109375,-0.962066650390625,0.0171859115362167,0.0006285060080699,-0.0129115376621484
1769245497119,-0.2250518798828125,-0.15228271484375,-0.959442138671875,0.0188381355255842,0.0022493058349937,-0.0160751063376665
1769245497129,-0.2251434326171875,-0.1512298583984375,-0.958770751953125,0.0218829289078712,1.6777914424892515e-05,-0.0125456191599369
1769245497139,-0.2228851318359375,-0.1492919921875,-0.9612579345703124,0.0218863897025585,0.0013547500129789,-0.0147139653563499
1769245497149,-0.22589111328125,-0.1520538330078125,-0.9600677490234376,0.0220224782824516,0.0005366269615478,-0.0146098351106047
1769245497159,-0.2252655029296875,-0.1511993408203125,-0.959075927734375,0.0209561474621295,-0.0062464443035423,-0.016710003837943
1769245497169,-0.224273681640625,-0.15045166015625,-0.9587860107421876,0.0222602989524602,-0.0046541402116417,-0.0156495328992605
1769245497179,-0.2214813232421875,-0.152557373046875,-0.9556732177734376,0.0199835617095232,-0.0061463094316422,-0.016948090866208
1769245497189,-0.22119140625,-0.1514892578125,-0.954437255859375,0.0159288998693227,-0.0060032978653907,-0.0157342217862606
1769245497199,-0.2230072021484375,-0.1498565673828125,-0.9521484375,0.0068903965875506,0.0020431771408766,-0.0170791186392307
1769245497209,-0.2248992919921875,-0.1508026123046875,-0.9532623291015624,-0.0032301479950547,0.0063156862743198,-0.0134881120175123
1769245497219,-0.22149658203125,-0.152099609375,-0.9531402587890624,-0.0133717320859432,0.015532886609435,-0.0124859642237424
1769245497229,-0.2217864990234375,-0.15399169921875,-0.9527435302734376,-0.0204637292772531,0.0160964112728834,-0.0120441457256674
1769245497240,-0.22088623046875,-0.1519775390625,-0.956207275390625,-0.0232248958200216,0.0108675612136721,-0.0092153362929821
1769245497250,-0.21771240234375,-0.15277099609375,-0.9596099853515624,-0.0225761495530605,0.0112188318744301,-0.012621252797544
1769245497260,-0.2227783203125,-0.155670166015625,-0.9578399658203124,-0.022131135687232,0.0059676114469766,-0.012637497857213
1769245497270,-0.224212646484375,-0.15350341796875,-0.960052490234375,-0.0128907645121216,-0.0016660735709592,-0.0123924873769283
1769245497280,-0.2271728515625,-0.152740478515625,-0.96453857421875,-0.0082597937434911,-0.0047697215341031,-0.0161310322582721
1769245497290,-0.2285003662109375,-0.1546173095703125,-0.967010498046875,-0.0003779025573749,-0.0101535683497786,-0.0186277460306882
1769245497300,-0.2269439697265625,-0.1543426513671875,-0.9663848876953124,0.0054645403288304,-0.0133312512189149,-0.0165006797760725
1769245497310,-0.222259521484375,-0.151092529296875,-0.9665985107421876,0.0036727653350681,-0.0107852695509791,-0.0215433742851018
1769245497320,-0.2236175537109375,-0.1522979736328125,-0.9608001708984376,0.0033720945939421,-0.0068674935027956,-0.0209646709263324
1769245497330,-0.2202301025390625,-0.149078369140625,-0.9602813720703124,0.0033057818654924,-0.0024905882310122,-0.0226712245494127
1769245497340,-0.2219085693359375,-0.153228759765625,-0.9621124267578124,0.0070943948812782,-0.003924167715013,-0.0202003438025712
1769245497350,-0.2231292724609375,-0.15374755859375,-0.9647979736328124,0.0119738383218646,-0.0069220880977809,-0.0217883866280317
1769245497360,-0.22332763671875,-0.1585693359375,-0.9635009765625,0.0111418673768639,-0.0098827248439192,-0.019922574982047
1769245497370,-0.22265625,-0.1573486328125,-0.9600067138671876,0.0080523341894149,-0.0090917656198143,-0.0193731654435396
1769245497380,-0.21990966796875,-0.1550445556640625,-0.96038818359375,0.0097687412053346,-0.0070429956540465,-0.0199452117085456
1769245497390,-0.223114013671875,-0.15484619140625,-0.960968017578125,0.0089825764298439,-0.0084265079349279,-0.023767115548253
1769245497400,-0.2276763916015625,-0.14971923828125,-0.9558868408203124,0.0071631041355431,-0.007431817241013,-0.0223857332020998
1769245497410,-0.224395751953125,-0.15142822265625,-0.9552154541015624,0.0050344397313892,-0.0011030812747776,-0.0217348560690879
1769245497420,-0.225982666015625,-0.1579437255859375,-0.9590301513671876,0.0102100269868969,-0.0037499971222132,-0.0195031277835369
1769245497431,-0.2223663330078125,-0.158599853515625,-0.9628143310546876,0.0120593262836337,-0.0065138256177306,-0.0192298870533704
1769245497441,-0.2230224609375,-0.1566162109375,-0.9581451416015624,0.016490826383233,-0.007227286696434,-0.017503360286355
1769245497451,-0.22247314453125,-0.1504364013671875,-0.9610137939453124,0.0203095320612192,-0.0100667485967278,-0.0198083259165287
1769245497461,-0.22772216796875,-0.1540069580078125,-0.9597930908203124,0.0154657755047082,-0.0157001335173845,-0.0165616665035486
1769245497471,-0.224090576171875,-0.173065185546875,-0.95263671875,0.0052672000601887,-0.0166178587824106,-0.0072675002738833
1769245497481,-0.2165985107421875,-0.1769866943359375,-0.953369140625,0.0011805793037638,-0.0115290908142924,-0.0091692637652158
1769245497491,-0.2201995849609375,-0.142425537109375,-0.9509735107421876,-0.0067463195882737,-0.0153488628566265,-0.0178333260118961
1769245497501,-0.2289276123046875,-0.147918701171875,-0.9534759521484376,0.0008327704854309,0.0068991850130259,-0.0204256456345319
1769245497511,-0.2339019775390625,-0.1392669677734375,-0.9632720947265624,0.0057732006534934,0.0016090818680822,-0.0339228138327598
1769245497521,-0.233551025390625,-0.14593505859375,-0.95672607421875,0.0075593828223645,-0.0145432567223906,-0.035218708217144
1769245497531,-0.2310791015625,-0.1694488525390625,-0.9594573974609376,0.008167915046215,-0.0106566390022635,-0.0310636442154645
1769245497541,-0.2191314697265625,-0.1717071533203125,-0.950531005859375,-0.0001459412305848,-0.0105085670948028,-0.0313448719680309
1769245497551,-0.21868896484375,-0.148040771484375,-0.95440673828125,0.0103823337703943,0.0037992654833942,-0.0409620814025402
1769245497561,-0.23193359375,-0.1198272705078125,-0.9589996337890624,0.0193542558699846,-0.0193366799503564,-0.0461435280740261
1769245497571,-0.2354278564453125,-0.1484375,-0.962432861328125,0.031869251281023,-0.0528879836201667,-0.0422201566398143
1769245497581,-0.23260498046875,-0.162109375,-0.9665374755859376,0.0289482939988374,-0.0694587007164955,-0.0366922356188297
1769245497591,-0.22540283203125,-0.164031982421875,-0.9571685791015624,0.014028200879693,-0.0583503916859626,-0.0325776487588882
1769245497601,-0.223846435546875,-0.1701202392578125,-0.9481201171875,-0.0069489860907197,-0.0506168380379676,-0.0256563611328601
1769245497611,-0.2190399169921875,-0.174774169921875,-0.9400634765625,-0.0293110162019729,-0.0297264698892831,-0.0129331089556217
1769245497621,-0.2158050537109375,-0.17230224609375,-0.9425811767578124,-0.0425370745360851,-0.0088203893974423,-0.0060376524925231
1769245497632,-0.2202606201171875,-0.1657562255859375,-0.95294189453125,-0.0497981831431388,0.0090028159320354,-0.0034637073986232
1769245497641,-0.2227020263671875,-0.157135009765625,-0.9595947265625,-0.0473406165838241,0.0230981279164552,-0.0041412152349948
1769245497651,-0.2307281494140625,-0.1464385986328125,-0.9643402099609376,-0.0388438031077384,0.0164937563240528,-0.0078877508640289
1769245497662,-0.233245849609375,-0.1468505859375,-0.9688720703125,-0.0194775611162185,0.0085082668811082,-0.0156367495656013
1769245497672,-0.23675537109375,-0.153594970703125,-0.97698974609375,0.0056544234976172,0.0041681132279336,-0.0275450758635997
1769245497682,-0.2379608154296875,-0.1569061279296875,-0.982269287109375,0.0225180927664041,-0.0110089750960469,-0.0275770332664251
1769245497692,-0.230194091796875,-0.1608428955078125,-0.9745941162109376,0.0317094586789608,-0.0119559951126575,-0.0259599611163139
1769245497702,-0.2242584228515625,-0.16131591796875,-0.96282958984375,0.0305904000997543,-0.0057939733378589,-0.0230922698974609
1769245497712,-0.216888427734375,-0.15985107421875,-0.9581298828125,0.031181089580059,0.0026288062799721,-0.0178160145878791
1769245497722,-0.2209320068359375,-0.1632080078125,-0.959808349609375,0.0335963107645511,-0.0042959451675415,-0.0152410045266151
1769245497732,-0.220947265625,-0.1628265380859375,-0.96502685546875,0.0365369729697704,-0.0150998570024967,-0.0032716933637857
1769245497742,-0.219818115234375,-0.1651458740234375,-0.9670867919921876,0.0344394668936729,-0.0175893791019916,0.0055684032849967
1769245497752,-0.2230377197265625,-0.171112060546875,-0.962310791015625,0.0259423851966857,-0.0106486491858959,0.0125911589711904
1769245497762,-0.22119140625,-0.15765380859375,-0.9499053955078124,0.0083852289244532,-0.0047308392822742,0.0135642783716321
1769245497772,-0.222198486328125,-0.148223876953125,-0.9443206787109376,0.0017955031944438,0.0104292053729295,0.0055412393994629
1769245497782,-0.233154296875,-0.1549224853515625,-0.94744873046875,0.0039153792895376,0.0041944785043597,-3.5952674807049334e-05
1769245497792,-0.23577880859375,-0.1523284912109375,-0.950225830078125,0.0117741012945771,-0.0044980789534747,-0.0077918767929077
1769245497802,-0.234283447265625,-0.155120849609375,-0.9566192626953124,0.020132964476943,-0.0300026405602693,-0.0129248537123203
1769245497812,-0.227569580078125,-0.16632080078125,-0.967498779296875,0.025618277490139,-0.0460210219025611,-0.0083141224458813
1769245497822,-0.220794677734375,-0.16217041015625,-0.965667724609375,0.0231274235993623,-0.0451336577534675,-0.0105098988860845
1769245497832,-0.2263336181640625,-0.16326904296875,-0.9517822265625,0.0150292832404375,-0.0325161330401897,0.0001829591637942
1769245497842,-0.2218017578125,-0.1636810302734375,-0.9498443603515624,0.0127157950773835,-0.0170586127787828,0.002248240634799
1769245497853,-0.2282867431640625,-0.16552734375,-0.958770751953125,0.0077197048813104,-0.0111581124365329,0.0019449065439403
1769245497862,-0.230255126953125,-0.166046142578125,-0.958770751953125,0.0135786589235067,-0.007578557357192,0.0009408948244526
1769245497872,-0.231170654296875,-0.165130615234375,-0.9665374755859376,0.0198618546128273,-0.0011134676169604,0.0032615733798593
1769245497883,-0.2308502197265625,-0.1668243408203125,-0.9652252197265624,0.0238328948616981,-0.0040517332963645,0.0039942087605595
1769245497893,-0.23272705078125,-0.1656036376953125,-0.9586944580078124,0.0220107603818178,-0.0050799795426428,0.0020077570807188
1769245497903,-0.2308807373046875,-0.1645965576171875,-0.953369140625,0.0157778970897197,-0.0031851406674832,0.0021473066881299
1769245497913,-0.2293853759765625,-0.1620025634765625,-0.9456024169921876,0.005175853613764,0.0035414716694504,0.0013965616235509
1769245497923,-0.2299652099609375,-0.1633148193359375,-0.94427490234375,-0.0001280980504816,0.0128556108102202,0.0005283711361698
1769245497933,-0.2293548583984375,-0.1598052978515625,-0.94873046875,-0.0012373046483844,0.0131842447444796,-0.002494316548109
1769245497943,-0.23406982421875,-0.16363525390625,-0.9549560546875,0.0088699245825409,0.0038943404797464,-0.0029497172217816
1769245497953,-0.23077392578125,-0.16107177734375,-0.966094970703125,0.020585436373949,-0.0029265477787703,-0.0067063723690807
1769245497963,-0.2342529296875,-0.1620330810546875,-0.9665679931640624,0.0193470660597085,-0.0062581622041761,-0.0060216733254492
1769245497973,-0.2340850830078125,-0.1621856689453125,-0.9528656005859376,0.0148148983716964,-0.006474410649389,-0.0047414917498826
1769245497983,-0.2306671142578125,-0.1616668701171875,-0.9458465576171876,0.0039025961887091,-0.0085032070055603,-0.002053297124803
1769245497993,-0.226593017578125,-0.1618194580078125,-0.9395599365234376,-0.0057985004968941,-0.0027888622134923,-0.0031241541728377
1769245498003,-0.2278594970703125,-0.1651611328125,-0.9431915283203124,-0.0143288718536496,3.5686356568476185e-05,-0.0057750646956264
1769245498013,-0.23394775390625,-0.1653900146484375,-0.9483489990234376,-0.0163169223815202,-0.0026317357551306,-0.0065468489192426
1769245498023,-0.2331695556640625,-0.165130615234375,-0.9547271728515624,-0.0222432538866996,-0.0067873322404921,-0.0048376321792602
1769245498033,-0.2315826416015625,-0.16448974609375,-0.951171875,-0.0258246734738349,-0.0010604707058519,-0.000271109805908
1769245498044,-0.2288665771484375,-0.1642913818359375,-0.9537353515625,-0.0263700876384973,0.0019275959348306,0.0012069445801898
1769245498053,-0.2281341552734375,-0.165313720703125,-0.9589691162109376,-0.0271882116794586,-0.0015931029338389,0.0027766118291765
1769245498063,-0.228851318359375,-0.164794921875,-0.9576263427734376,-0.0228738896548748,-0.0002729740226641,0.0038964708801358
1769245498074,-0.2292633056640625,-0.1632232666015625,-0.9590606689453124,-0.0204355008900165,3.728425508597866e-05,0.0058725364506244
1769245498084,-0.2295074462890625,-0.16168212890625,-0.9614410400390624,-0.0099532986059784,-0.0020924457348883,0.0084864292293787
1769245498094,-0.228973388671875,-0.16400146484375,-0.9663543701171876,-0.0048943576402962,0.0031041805632412,0.0132705317810177
1769245498104,-0.225341796875,-0.163787841796875,-0.9605255126953124,-0.0011273160343989,0.0106097673997282,0.0119504025205969
1769245498114,-0.229888916015625,-0.16534423828125,-0.9571990966796876,0.002224538475275,0.0068965218961238,0.0115751633420586
1769245498124,-0.232940673828125,-0.1649627685546875,-0.9596710205078124,0.0066776098683476,-0.0011185276089236,0.0050906324759125
1769245498134,-0.2338409423828125,-0.16607666015625,-0.9601898193359376,0.010407100431621,-0.0069378009065985,0.0011310444679111
1769245498144,-0.23626708984375,-0.1649627685546875,-0.958404541015625,0.0113394735381007,-0.0124042052775621,-0.0022362563759088
1769245498154,-0.2344207763671875,-0.16253662109375,-0.95770263671875,0.0093788541853427,-0.0086877644062042,0.0010010822443291
1769245498164,-0.229156494140625,-0.160552978515625,-0.954833984375,0.0045566684566438,-0.0018876485992223,-0.0057404437102377
1769245498174,-0.2332305908203125,-0.1616058349609375,-0.9495391845703124,0.0012724583502858,0.0019515644526109,-0.006794789340347
1769245498184,-0.2327728271484375,-0.1635894775390625,-0.9516448974609376,0.001464472268708,0.001619468210265,-0.0053095440380275
1769245498194,-0.228607177734375,-0.16302490234375,-0.9577178955078124,0.006679474376142,-0.0023265376221388,-0.0082459459081292
1769245498204,-0.2343597412109375,-0.1673431396484375,-0.9598846435546876,0.0065843993797898,-0.0054805190302431,-0.0094941696152091
1769245498214,-0.2315826416015625,-0.16162109375,-0.95648193359375,0.0086632631719112,-0.0041603902354836,-0.0094784563407301
1769245498224,-0.2274017333984375,-0.159271240234375,-0.954742431640625,0.010187123902142,-0.0020128171890974,-0.0087290434166789
1769245498234,-0.2294921875,-0.163543701171875,-0.9525146484375,0.0097373155876994,-0.0039476035162806,-0.002895388752222
1769245498244,-0.2272186279296875,-0.1855926513671875,-0.9500579833984376,0.0030306773260235,-0.0072110411711037,0.0079415459185838
1769245498254,-0.22320556640625,-0.1771392822265625,-0.953125,-0.0035441347863525,0.0109578426927328,0.0062941149808466
1769245498264,-0.2309722900390625,-0.14263916015625,-0.948486328125,-0.014381069689989,0.0067156930454075,-0.0080342246219515
1769245498274,-0.2439727783203125,-0.15618896484375,-0.9561767578125,0.0046165897510945,0.0208610724657773,-0.0114502608776092
1769245498285,-0.243133544921875,-0.1520843505859375,-0.9691314697265624,0.0152133079245686,0.0193428043276071,-0.0207529496401548
1769245498295,-0.2400970458984375,-0.1547393798828125,-0.9578399658203124,0.014780543744564,0.0070083746686577,-0.0259373243898153
1769245498305,-0.23748779296875,-0.1771087646484375,-0.954742431640625,0.0107506485655903,0.0156186409294605,-0.0183598324656486
1769245498315,-0.22479248046875,-0.1791839599609375,-0.948486328125,0.0028176244813948,0.0016421051695942,-0.0138476388528943
1769245498325,-0.21856689453125,-0.1523895263671875,-0.949615478515625,0.0077093187719583,0.0205377656966447,-0.0299682859331369
1769245498335,-0.2369232177734375,-0.1327056884765625,-0.95001220703125,0.0083074644207954,0.0021952437236905,-0.0371015630662441
1769245498346,-0.2403564453125,-0.15435791015625,-0.952239990234375,0.0041460092179477,-0.024492559954524,-0.0259844623506069
1769245498355,-0.234039306640625,-0.1687469482421875,-0.960357666015625,0.0026501116808503,-0.0310932043939828,-0.0243570040911436
1769245498366,-0.23126220703125,-0.173797607421875,-0.9560546875,-0.0076933396048843,-0.0299347285181283,-0.0150492573156952
1769245498375,-0.226348876953125,-0.1765899658203125,-0.94573974609375,-0.0308689661324024,-0.0181635580956935,-0.0025694177020341
1769245498385,-0.22186279296875,-0.18109130859375,-0.9364013671875,-0.0471358187496662,-0.0023441144730895,0.0109743541106581
1769245498395,-0.2191009521484375,-0.178192138671875,-0.9481353759765624,-0.0521849058568477,0.0081519363448023,0.0205883663147687
1769245498405,-0.2206878662109375,-0.1718902587890625,-0.9565582275390624,-0.0504874102771282,0.0175113491714,0.0203702524304389
1769245498415,-0.2268524169921875,-0.163818359375,-0.9599456787109376,-0.0442782491445541,0.0195808913558721,0.0217660162597894
1769245498425,-0.23260498046875,-0.15582275390625,-0.96234130859375,-0.0315145179629325,0.0156780295073986,0.0165499486029148
1769245498435,-0.2387542724609375,-0.1549835205078125,-0.96502685546875,-0.0149901350960135,0.0022620889358222,0.0073423348367214
1769245498445,-0.2424774169921875,-0.1594696044921875,-0.9664764404296876,0.005068261642009,-0.0185324046760797,0.0036096484400331
1769245498455,-0.24017333984375,-0.1623382568359375,-0.9707489013671876,0.0225961226969957,-0.0258052311837673,-0.00262401252985
1769245498465,-0.2378997802734375,-0.1709747314453125,-0.97015380859375,0.0223875977098941,-0.0115370796993374,0.0031635691411793
1769245498475,-0.230987548828125,-0.1678466796875,-0.9622650146484376,0.0197143163532018,-0.0039007319137454,0.0047899615019559
1769245498485,-0.23004150390625,-0.1674957275390625,-0.960205078125,0.0198775678873062,0.0024032364599406,0.0050485543906688
1769245498496,-0.227386474609375,-0.16778564453125,-0.9592132568359376,0.0179180148988962,-0.0003446130431257,0.0061444453895092
1769245498506,-0.230499267578125,-0.1698455810546875,-0.9568328857421876,0.0111850099638104,-0.0060536316595971,0.0116923423483967
1769245498516,-0.22998046875,-0.1721343994140625,-0.95037841796875,0.0008985505555756,-0.0081133199855685,0.020020579919219
1769245498526,-0.231781005859375,-0.1776885986328125,-0.94891357421875,-0.0101575627923011,0.0026466494891792,0.020314859226346
1769245498536,-0.233489990234375,-0.164337158203125,-0.9466552734375,-0.0191332139074802,-0.0002093244547722,0.0109442602843046
1769245498546,-0.2375335693359375,-0.1497802734375,-0.9464263916015624,-0.0250217299908399,-0.0005446164286695,0.005037635564804
1769245498556,-0.2375030517578125,-0.1507720947265625,-0.948822021484375,-0.0261189527809619,0.0039366846904158,-0.0035854137968271
1769245498566,-0.242340087890625,-0.1543426513671875,-0.9526519775390624,-0.0198227073997259,0.009165002964437,-0.0095519600436091
1769245498576,-0.2394256591796875,-0.1587066650390625,-0.954986572265625,-0.0125117972493171,-0.0072123729623854,-0.0162479449063539
1769245498586,-0.2360382080078125,-0.17132568359375,-0.9604949951171876,-0.0061798654496669,-0.0138052944093942,-0.0129576101899147
1769245498596,-0.2280120849609375,-0.1649322509765625,-0.9634857177734376,-0.0028746160678565,-0.007359645795077,-0.013105415739119
1769245498606,-0.2278594970703125,-0.164337158203125,-0.961181640625,-0.0001557949290145,-0.0137051595374941,-0.0041121868416666
1769245498616,-0.2252044677734375,-0.1674957275390625,-0.9576873779296876,-0.0026461167726665,-0.0084286388009786,0.0043854271061718
1769245498626,-0.223876953125,-0.170379638671875,-0.9545745849609376,-0.0064746770076453,-0.000835966260638,0.0051026167348027
1769245498636,-0.2277679443359375,-0.170989990234375,-0.9526214599609376,-0.0071974592283368,-0.0029603699222207,0.0127581395208835
1769245498647,-0.227325439453125,-0.16619873046875,-0.953155517578125,-0.0109514510259032,-0.0009701895760372,0.0132787870243191
1769245498657,-0.228790283203125,-0.162109375,-0.9514312744140624,-0.0142444493249058,0.0068384651094675,0.0124809043481946
1769245498667,-0.235382080078125,-0.16387939453125,-0.9547882080078124,-0.0133978305384516,0.0070094401016831,0.0123088639229536
1769245498676,-0.2338714599609375,-0.1616668701171875,-0.9586029052734376,-0.0084366276860237,0.0096640791743993,0.0098750013858079
1769245498686,-0.236419677734375,-0.1640777587890625,-0.9654388427734376,0.001497761812061,0.0009057410643436,0.0040607880800962
1769245498696,-0.237701416015625,-0.161407470703125,-0.9681549072265624,0.0112057831138372,-0.0074989288114011,0.0026945862919092
1769245498707,-0.2373046875,-0.1617889404296875,-0.96600341796875,0.0185971204191446,-0.005225121974945,0.0015747271245345
1769245498717,-0.2363739013671875,-0.1641693115234375,-0.961761474609375,0.0232009273022413,-0.0067689563147723,0.0001339570007985
1769245498727,-0.23406982421875,-0.162872314453125,-0.9566497802734376,0.0205223187804222,-0.0039819586090743,0.0006591323763132
1769245498737,-0.232177734375,-0.1593475341796875,-0.9541778564453124,0.0147206224501132,-0.0010341054294258,-0.0011227887589484
1769245498747,-0.2357177734375,-0.1634521484375,-0.952880859375,0.0084587326273322,0.0041537322103977,-0.0064232782460749
1769245498757,-0.2375946044921875,-0.1632843017578125,-0.9522552490234376,0.0070224893279373,-0.0007552724564447,-0.0056680059060454
1769245498767,-0.2336883544921875,-0.164642333984375,-0.9525299072265624,0.0048512141220271,0.000720385054592,-0.006352970842272
1769245498777,-0.234100341796875,-0.16650390625,-0.952545166015625,0.002951847622171,-0.0074432687833905,-0.0099647501483559
1769245498787,-0.2353515625,-0.1644439697265625,-0.9504852294921876,-0.0002748382103163,-0.0140215428546071,-0.0104209491983056
1769245498797,-0.2347412109375,-0.163848876953125,-0.9496612548828124,-0.0072624403983354,-0.0082470113411545,-0.0078802937641739
1769245498807,-0.230682373046875,-0.159271240234375,-0.950958251953125,-0.0149051798507571,-0.0007763114408589,-0.0040983385406434
1769245498817,-0.2292327880859375,-0.1624908447265625,-0.952789306640625,-0.0157898813486099,0.003466104157269,-0.0031233553308993
1769245498827,-0.22979736328125,-0.1621551513671875,-0.9579925537109376,-0.0139056956395506,-0.0028519791085273,0.0012471582740545
1769245498837,-0.2271728515625,-0.1634368896484375,-0.96343994140625,-0.00360565376468,-0.0047534760087728,0.002894589677453
1769245498847,-0.229705810546875,-0.1673736572265625,-0.9652862548828124,0.0027739484794437,-0.0104654245078563,0.0061383200809359
1769245498857,-0.232025146484375,-0.1646728515625,-0.9622802734375,0.0104920556768774,-0.0099170794710516,0.0030956584960222
1769245498867,-0.2342376708984375,-0.165130615234375,-0.9588775634765624,0.0091748563572764,-0.0057063554413616,0.0061915833503007
1769245498877,-0.2310028076171875,-0.1642913818359375,-0.959625244140625,0.0078486017882823,-0.0067449882626533,0.0109791476279497
1769245498887,-0.228515625,-0.161102294921875,-0.9559173583984376,0.0049127331003546,-0.0065806708298623,0.0098102865740656
1769245498897,-0.2340545654296875,-0.16790771484375,-0.9560089111328124,0.0030519824940711,-0.0044155209325253,0.0124489460140466
1769245498907,-0.2304534912109375,-0.164337158203125,-0.954071044921875,0.0020048276055604,-0.0057036918587982,0.011837750673294
1769245498918,-0.2326202392578125,-0.161956787109375,-0.952117919921875,0.0036751623265445,-0.0052528190426528,0.0133791882544755
1769245498928,-0.233642578125,-0.1657867431640625,-0.957794189453125,0.0043196473270654,-0.0023169501218944,0.0149632366374135
1769245498938,-0.2330474853515625,-0.165679931640625,-0.9579010009765624,0.0001153148768935,0.0027622305788099,0.0158138498663902
1769245498948,-0.2365875244140625,-0.165802001953125,-0.9546051025390624,0.0025041704066097,0.0010205233702436,0.0164143927395343
1769245498958,-0.235931396484375,-0.1643829345703125,-0.9572296142578124,0.0056549562141299,0.0011739213950932,0.0162737779319286
1769245498968,-0.237030029296875,-0.163604736328125,-0.953857421875,0.008878712542355,0.0026857978664338,0.0127096697688102
1769245498978,-0.24139404296875,-0.1688690185546875,-0.9532470703125,0.0093817841261625,-0.0133075499907135,0.0164974834769964
1769245498988,-0.235260009765625,-0.1891632080078125,-0.9528656005859376,0.0097058909013867,-0.0141014382243156,0.0261117611080408
1769245498998,-0.2319183349609375,-0.1781768798828125,-0.9563446044921876,0.0015262576052919,-0.0035832831636071,0.0235644485801458
1769245499008,-0.23516845703125,-0.14093017578125,-0.9508514404296876,-0.0060669472441077,-0.0014069479657337,0.0090867057442665
1769245499018,-0.2476654052734375,-0.16119384765625,-0.9517059326171876,0.0048008803278207,0.014028999954462,-0.0010213222121819
1769245499028,-0.2487030029296875,-0.1402740478515625,-0.954315185546875,0.0044192494824528,0.0031505194492638,-0.0176090877503156
1769245499038,-0.2520599365234375,-0.157470703125,-0.94891357421875,0.0123283052816987,-0.0176461059600114,-0.0164111983031034
1769245499048,-0.2382354736328125,-0.186309814453125,-0.9615325927734376,0.0051644020713865,-0.0125163244083523,-0.009762349538505
1769245499058,-0.2314300537109375,-0.189697265625,-0.952117919921875,-0.0130534842610359,-0.0075103803537786,-0.0085426215082407
1769245499068,-0.223846435546875,-0.1576080322265625,-0.941162109375,0.0051747881807386,-0.0032594427466392,-0.0322804413735866
1769245499078,-0.2478485107421875,-0.12945556640625,-0.9552001953125,0.0123325660824775,-0.0174359809607267,-0.038846731185913
1769245499088,-0.248626708984375,-0.1460113525390625,-0.9613494873046876,0.0219279360026121,-0.0334221385419368,-0.0365409664809703
1769245499098,-0.24005126953125,-0.1663818359375,-0.967926025390625,0.0308955982327461,-0.0413407832384109,-0.0389617793262004
1769245499108,-0.2408447265625,-0.173004150390625,-0.9624176025390624,0.0223891958594322,-0.0462620370090007,-0.0347159020602703
1769245499119,-0.2369842529296875,-0.176513671875,-0.9453582763671876,-0.0007813714328221,-0.0277053974568843,-0.0229095760732889
1769245499129,-0.2277679443359375,-0.1781005859375,-0.940887451171875,-0.0227372702211141,0.0133333820849657,-0.0092744585126638
1769245499139,-0.223724365234375,-0.17852783203125,-0.950042724609375,-0.0300987809896469,0.0203532092273235,0.0028522454667836
1769245499150,-0.2192230224609375,-0.1773529052734375,-0.9536895751953124,-0.02770353294909,0.016596021130681,0.007497064769268
1769245499159,-0.225006103515625,-0.1699371337890625,-0.9530181884765624,-0.0277408175170421,0.0202131252735853,0.0076723005622625
1769245499169,-0.2321929931640625,-0.163360595703125,-0.9561004638671876,-0.0278971455991268,0.0137970382347702,0.0033499903511255
1769245499179,-0.2410430908203125,-0.160003662109375,-0.9582061767578124,-0.0190458633005619,0.0047822385095059,-0.0051976912654936
1769245499189,-0.2470855712890625,-0.159088134765625,-0.9634246826171876,-0.0101045658811926,-0.0046243127435445,-0.0119346901774406
1769245499199,-0.2442474365234375,-0.1622161865234375,-0.9663848876953124,0.0012652678415179,-0.0030202909838408,-0.0142931854352355
1769245499209,-0.244781494140625,-0.1653594970703125,-0.9653778076171876,0.0110718253999948,-0.0048871668986976,-0.0178415812551975
1769245499219,-0.2411041259765625,-0.1655731201171875,-0.9635467529296876,0.0149342082440853,-0.0053297844715416,-0.0177377182990312
1769245499229,-0.2342681884765625,-0.1643218994140625,-0.9557647705078124,0.0139768021181225,0.0046658581122756,-0.0142170190811157
1769245499239,-0.2284698486328125,-0.165557861328125,-0.9542236328125,0.0088637992739677,0.0082166511565446,-0.0063846623525023
1769245499249,-0.225250244140625,-0.1692657470703125,-0.953704833984375,0.0040051280520856,-0.0025070998817682,0.001521463971585
1769245499259,-0.2280426025390625,-0.1725921630859375,-0.9506988525390624,-0.002649046247825,-0.0088065406307578,0.0140055641531944
1769245499269,-0.22711181640625,-0.1753082275390625,-0.9490966796875,-0.0132420361042022,-0.0044442829675972,0.0221878606826066
1769245499279,-0.2289276123046875,-0.1652069091796875,-0.943572998046875,-0.0264313407242298,-0.0047870320267975,0.0247178636491298
1769245499289,-0.232269287109375,-0.156982421875,-0.9470062255859376,-0.0302852019667625,-0.0011672634864225,0.0177712738513946
1769245499299,-0.2440032958984375,-0.1598663330078125,-0.9491729736328124,-0.0270835496485233,0.0069955913349986,0.010652644559741
1769245499309,-0.24676513671875,-0.1595611572265625,-0.950897216796875,-0.0234057232737541,-0.0134385768324136,0.0064664212986826
1769245499319,-0.24420166015625,-0.16925048828125,-0.9499664306640624,-0.0230605788528919,-0.0137650808319449,0.0082358252257108
1769245499330,-0.240386962890625,-0.1661376953125,-0.951629638671875,-0.0321150608360767,0.002968359272927,0.0055436361581087
1769245499340,-0.2384185791015625,-0.162017822265625,-0.9512939453125,-0.0288076791912317,0.0054083475843071,0.0042671831324696
1769245499350,-0.238555908203125,-0.1611175537109375,-0.9568634033203124,-0.0251815188676118,-9.77380113909021e-05,0.0067849354818463
1769245499360,-0.2388153076171875,-0.165802001953125,-0.960174560546875,-0.0227415319532156,-0.0001717738923616,0.0092856436967849
1769245499370,-0.2345123291015625,-0.1673583984375,-0.9577484130859376,-0.0229742918163537,0.0011520835105329,0.0095101483166217
1769245499380,-0.233367919921875,-0.17144775390625,-0.9556884765625,-0.0251066852360963,0.0080563286319375,0.0123144565150141
1769245499390,-0.2337799072265625,-0.1727294921875,-0.954742431640625,-0.0259474441409111,0.0126641299575567,0.0169057473540306
1769245499400,-0.2337646484375,-0.1643524169921875,-0.95513916015625,-0.031137678772211,0.0160577967762947,0.017158480361104
1769245499410,-0.2358245849609375,-0.1633758544921875,-0.9553680419921876,-0.0348325483500957,0.0233623143285512,0.0146551094949245
1769245499420,-0.239501953125,-0.161529541015625,-0.9549560546875,-0.0358243100345134,0.0185704883188009,0.0097327884286642
1769245499430,-0.2451934814453125,-0.162933349609375,-0.954498291015625,-0.0278742425143718,0.0167832411825656,0.0073782876133918
1769245499440,-0.243804931640625,-0.1628570556640625,-0.962371826171875,-0.0145421912893652,0.0019222697010263,0.0046299053356051
1769245499450,-0.241119384765625,-0.161041259765625,-0.966583251953125,-0.0007137271459214,-0.0119304293766617,-0.0014293185668066
1769245499460,-0.2409515380859375,-0.160308837890625,-0.9649200439453124,0.0166106689721345,-0.0204887632280588,-0.0016727314796298
1769245499470,-0.236968994140625,-0.161163330078125,-0.9686126708984376,0.0276124533265829,-0.0221180859953165,-0.0022948458790779
1769245499480,-0.2373046875,-0.1612091064453125,-0.9639892578125,0.0309065170586109,-0.0126489493995904,-0.0028937908355146
1769245499490,-0.23724365234375,-0.159942626953125,-0.957977294921875,0.0284787788987159,-0.0089868372306227,-0.0047524110414087
1769245499500,-0.23712158203125,-0.1624755859375,-0.9543609619140624,0.0254457052797079,-0.0047132624313235,-0.0047857002355158
1769245499511,-0.238800048828125,-0.161773681640625,-0.9528961181640624,0.020460532978177,-0.0001182443520519,-0.001203748746775
1769245499520,-0.2367401123046875,-0.1610107421875,-0.953704833984375,0.0139744048938155,0.0032136365771293,-0.0043638558126986
1769245499530,-0.240081787109375,-0.163909912109375,-0.9511871337890624,0.0094797881320118,0.0030107034835964,-0.0046810382045805
1769245499541,-0.2366790771484375,-0.162506103515625,-0.9499359130859376,0.0070818779058754,0.0005949501646682,-0.0040128510445356
1769245499551,-0.23651123046875,-0.165557861328125,-0.9538116455078124,0.0035782232880592,0.0047492152079939,4.1545314161339775e-05
1769245499561,-0.233062744140625,-0.1647796630859375,-0.9499359130859376,-0.0007187871960923,0.0025521072093397,0.0003491404058877
1769245499571,-0.2371826171875,-0.1633148193359375,-0.951019287109375,-0.0048536108806729,0.0006657902849838,0.0036679718177765
1769245499581,-0.2340087890625,-0.1626129150390625,-0.94989013671875,-0.0086438218131661,-0.0005717806634493,0.0035878105554729
1769245499591,-0.2354278564453125,-0.16351318359375,-0.9470367431640624,-0.0126295089721679,0.0040629184804856,0.0058331214822828
1769245499601,-0.23626708984375,-0.1675567626953125,-0.9474639892578124,-0.0160711109638214,0.0072917351499199,0.0040045953355729
1769245499611,-0.23956298828125,-0.1634063720703125,-0.9493408203125,-0.0143349971622228,-0.000135554902954,0.0053931674920022
1769245499621,-0.2389373779296875,-0.16351318359375,-0.9549713134765624,-0.0073133064433932,-0.0055002267472445,0.0022218753583729
1769245499631,-0.2432098388671875,-0.16705322265625,-0.9589996337890624,-0.0003928162623196,-0.0169957615435123,-0.0003640541108325
1769245499641,-0.244720458984375,-0.1636962890625,-0.9605865478515624,0.0014868428697809,-0.0256289299577474,-0.0006186523241922
1769245499651,-0.2403411865234375,-0.16156005859375,-0.958251953125,-0.005640575196594,-0.0107322726398706,-0.0014215953415259
1769245499661,-0.2367706298828125,-0.16265869140625,-0.9501953125,-0.0158431455492973,-0.0056685381568968,0.0040820934809744
1769245499671,-0.232177734375,-0.15838623046875,-0.9474639892578124,-0.0222493782639503,0.0014213290996849,0.0045031388290226
1769245499681,-0.23492431640625,-0.1649627685546875,-0.9509124755859376,-0.0216943770647048,0.0094795217737555,0.0012093414552509
1769245499691,-0.236541748046875,-0.1649932861328125,-0.954742431640625,-0.0182120278477668,0.0111884726211428,0.0041313618421554
1769245499701,-0.2393341064453125,-0.162811279296875,-0.9601593017578124,-0.0113855460658669,0.0052637378685176,0.0018663433147594
1769245499711,-0.2418212890625,-0.1661224365234375,-0.96026611328125,-0.0086099999025464,0.0015837819082662,0.0004468784318305
1769245499722,-0.2421112060546875,-0.168792724609375,-0.95892333984375,-0.0062528359703719,0.0002716424351092,0.0042842272669076
1769245499732,-0.236480712890625,-0.1643524169921875,-0.953765869140625,-0.0107908621430397,0.0086582032963633,0.0019201391842216
1769245499742,-0.2378082275390625,-0.1638946533203125,-0.951141357421875,-0.0114587834104895,0.0075796227902174,-0.0018903117161244
1769245499752,-0.2434844970703125,-0.1603240966796875,-0.952423095703125,-0.0081399520859122,0.0016263924771919,-0.0053500244393944
1769245499762,-0.243255615234375,-0.1609344482421875,-0.9545440673828124,-0.0074834828265011,-0.0129663981497287,-0.0007249124464578
1769245499772,-0.23388671875,-0.18072509765625,-0.9571685791015624,-0.0123650571331381,-0.009975935332477,0.0139387184754014
1769245499782,-0.224853515625,-0.1778106689453125,-0.9574432373046876,-0.0164625961333513,0.0093572828918695,0.0127560086548328
1769245499792,-0.23388671875,-0.1448974609375,-0.95074462890625,-0.0189683642238378,0.0101506384089589,0.0026088326703757
1769245499802,-0.24664306640625,-0.1584930419921875,-0.9525299072265624,-0.0021864552982151,0.0315810963511467,-0.0051396344788372
1769245499812,-0.2464599609375,-0.127532958984375,-0.9600067138671876,-0.0017768610268831,0.0184437222778797,-0.0248326454311609
1769245499822,-0.2552947998046875,-0.149993896484375,-0.9520263671875,-0.0032866070978343,-0.0052626724354922,-0.0194823555648326
1769245499832,-0.2446136474609375,-0.1964569091796875,-0.956939697265625,-0.0161512736231088,-0.0013052152935415,-0.0030535804107785
1769245499842,-0.2246246337890625,-0.1916046142578125,-0.9510345458984376,-0.0256422460079193,0.0240747090429067,-0.0057271276600658
1769245499852,-0.23291015625,-0.1479339599609375,-0.945068359375,-0.0266561117023229,0.0283003468066453,-0.0201601292937994
1769245499862,-0.2429656982421875,-0.1305389404296875,-0.9486083984375,-0.0200445484369993,0.0168562121689319,-0.0304681602865457
1769245499872,-0.2443695068359375,-0.149810791015625,-0.963226318359375,-0.0037928740493953,-0.0071508539840579,-0.0292921084910631
1769245499882,-0.241302490234375,-0.1645965576171875,-0.97528076171875,0.0110172312706708,-0.0339670218527317,-0.0261863302439451
1769245499892,-0.2393341064453125,-0.167877197265625,-0.9672393798828124,0.0093735279515385,-0.0404057465493679,-0.0193848833441734
1769245499902,-0.2332611083984375,-0.1772003173828125,-0.94781494140625,-0.006582801695913,-0.0214027594774961,-0.0059809270314872
1769245499912,-0.22503662109375,-0.1776275634765625,-0.9389190673828124,-0.0199518706649541,0.0054688011296093,0.011659319512546
1769245499922,-0.220611572265625,-0.1737518310546875,-0.9447021484375,-0.0309842806309461,0.0152822835370898,0.0201284382492303
1769245499933,-0.2227020263671875,-0.172027587890625,-0.953765869140625,-0.037600640207529,0.0207500196993351,0.0234874822199344
1769245499943,-0.229888916015625,-0.1637420654296875,-0.9559783935546876,-0.0429432056844234,0.02288986928761,0.0254851207137107
1769245499953,-0.24346923828125,-0.156097412109375,-0.9531707763671876,-0.044513139873743,0.0207606721669435,0.0193041898310184
1769245499963,-0.2466278076171875,-0.1561431884765625,-0.9582977294921876,-0.0367995612323284,0.0130311138927936,0.0138180777430534
1769245499973,-0.2459259033203125,-0.1564788818359375,-0.9626922607421876,-0.0305360704660415,0.0072483252733945,0.004228567238897
1769245499983,-0.2470703125,-0.1612396240234375,-0.9574432373046876,-0.0218459106981754,0.0066078351810574,-0.0029417276382446
