timestamp_ms,acc_x,acc_y,acc_z,gyro_x,gyro_y,gyro_z
1769169333271,0.0184173583984375,0.0388336181640625,-1.0016021728515625,0.0231924038380384,0.0151896057650446,-0.0313211716711521
1769169333281,0.021331787109375,0.0374603271484375,-0.9961700439453124,0.0260845981538295,0.0185007136315107,-0.0213564205914735
1769169333290,0.0245819091796875,0.037139892578125,-0.9993896484375,0.0327209271490573,0.0207130014896392,-0.0142098283395171
1769169333299,0.0257568359375,0.0377349853515625,-0.9969329833984376,0.0368038192391395,0.0248190630227327,-0.0082286354154348
1769169333310,0.025848388671875,0.039306640625,-0.991455078125,0.0417125597596168,0.0263383965939283,-0.0098648816347122
1769169333320,0.0268096923828125,0.041290283203125,-0.9933013916015624,0.0499092377722263,0.0251138750463724,-0.0088443579152226
1769169333330,0.0218505859375,0.045501708984375,-0.9947357177734376,0.0541532486677169,0.0313382148742675,-0.0155888134613633
1769169333340,0.01727294921875,0.0479736328125,-0.99371337890625,0.0561911016702652,0.02349653840065,-0.0244147945195436
1769169333350,0.0193328857421875,0.047210693359375,-0.9873809814453124,0.0492695458233356,0.0082358252257108,-0.0284223202615976
1769169333360,0.0208587646484375,0.0425262451171875,-0.978179931640625,0.0334450416266918,-0.0101253380998969,-0.0289688017219305
1769169333370,0.0247802734375,0.038970947265625,-0.9654388427734376,0.0060291304253041,-0.0196541287004947,-0.0270907394587993
1769169333380,0.020538330078125,0.037872314453125,-0.95758056640625,-0.0197380185127258,-0.0201801024377346,-0.0304183587431907
1769169333390,0.023712158203125,0.0373687744140625,-0.961151123046875,-0.0343736857175827,-0.024623055011034,-0.0207428280264139
1769169333400,0.03070068359375,0.0370941162109375,-0.9753265380859376,-0.0402310416102409,-0.0225103683769702,-0.0113083142787218
1769169333410,0.0302581787109375,0.0306549072265625,-0.987457275390625,-0.0378011763095855,-0.0179150849580764,0.0005273058777675
1769169333420,0.0319976806640625,0.0298614501953125,-1.0032501220703125,-0.0162607282400131,-0.008036620914936,0.0033505228348076
1769169333430,0.02001953125,0.038818359375,-1.023101806640625,0.0078478027135133,-0.0072326129302382,0.0012074771802872
1769169333440,0.0144805908203125,0.04254150390625,-1.030426025390625,0.0424763523042202,-0.0104497112333774,-0.0175973698496818
1769169333450,0.0009002685546875,0.0609588623046875,-1.0344085693359375,0.0707008019089698,-0.0079934783279895,-0.0425684973597526
1769169333460,-0.0104217529296875,0.0648193359375,-1.0211944580078125,0.0645478367805481,-0.0053958306089043,-0.0488871149718761
1769169333470,0.0081634521484375,0.0395355224609375,-0.990386962890625,0.0318253077566623,-0.0133275231346488,-0.0460532456636428
1769169333480,0.0186767578125,0.02630615234375,-0.9670562744140624,-0.0010149306617677,-0.0088928276672959,-0.0571437142789363
1769169333491,0.0082855224609375,0.0416412353515625,-0.966888427734375,-0.0187537148594856,0.0038975363131612,-0.0702246278524398
1769169333501,0.0026397705078125,0.0553741455078125,-0.9771270751953124,-0.0326343774795532,-0.0049353702925145,-0.0723482295870781
1769169333511,0.0140380859375,0.052093505859375,-0.9842987060546876,-0.053468283265829,-0.0020471718162298,-0.0629648491740226
1769169333521,0.0283203125,0.0410919189453125,-0.9822540283203124,-0.0678594782948494,0.0053044841624796,-0.0517359003424644
1769169333531,0.02947998046875,0.04071044921875,-0.99969482421875,-0.0581120401620864,0.0112926019355654,-0.043146938085556
1769169333541,0.024383544921875,0.0420989990234375,-1.0220794677734375,-0.0412108190357685,0.019358517602086,-0.0384469926357269
1769169333551,0.022308349609375,0.0377044677734375,-1.025970458984375,-0.0234105177223682,0.0140236737206578,-0.0294532291591167
1769169333561,0.0286865234375,0.0360107421875,-1.026763916015625,-0.0111786182969808,0.0013691311469301,-0.0267549157142639
1769169333577,0.019744873046875,0.0391693115234375,-1.021514892578125,-0.0016184030100703,-0.0111823473125696,-0.0331323854625225
1769169333581,0.0093231201171875,0.042327880859375,-1.0114898681640625,0.0012911005178466,-0.0127357691526412,-0.0425493232905864
1769169333591,0.010986328125,0.043365478515625,-1.003692626953125,-0.0003866909828502,-0.001849299063906,-0.0401801764965057
1769169333601,0.0200042724609375,0.0394134521484375,-1.00030517578125,0.0113045861944556,0.0074115772731602,-0.0371353849768638
1769169333611,0.0180206298828125,0.036407470703125,-1.00732421875,0.0246171951293945,0.0229806825518608,-0.0325084067881107
1769169333621,0.022003173828125,0.033050537109375,-1.0056304931640625,0.0348663702607154,0.0323366336524486,-0.024812139570713
1769169333631,0.0244903564453125,0.0296630859375,-0.99945068359375,0.0342985838651657,0.0322183892130851,-0.0170809831470251
1769169333641,0.02606201171875,0.0300140380859375,-0.993316650390625,0.0295951757580041,0.029558690264821,-0.0076384786516427
1769169333651,0.0271148681640625,0.0310821533203125,-0.9963531494140624,0.0375476405024528,0.0155267613008618,-0.002322010230273
1769169333661,0.0256805419921875,0.0351715087890625,-1.006622314453125,0.0475129224359989,0.0176162775605916,0.0019973707385361
1769169333671,0.026947021484375,0.0362091064453125,-1.0059814453125,0.0562973618507385,0.0167691260576248,0.0106651615351438
1769169333681,0.0251617431640625,0.0368804931640625,-0.99847412109375,0.0614053048193454,0.0072403359226882,0.0044562672264873
1769169333694,0.0156707763671875,0.0379791259765625,-0.9951324462890624,0.0588020645081996,0.0159925483167171,0.0086680566892027
1769169333702,0.02099609375,0.037109375,-0.9844207763671876,0.0509199053049087,0.0140819968655705,0.0038152446504682
1769169333711,0.0167999267578125,0.038360595703125,-0.979217529296875,0.0353308245539665,0.0120244389399886,0.0053505566902458
1769169333721,0.02130126953125,0.03082275390625,-0.9725494384765624,0.0049462891183793,0.0154231647029519,0.0126428240910172
1769169333732,0.033447265625,0.0199432373046875,-0.9620819091796876,-0.0270862113684415,0.007194263394922,0.0203404258936643
1769169333742,0.0291900634765625,0.028961181640625,-0.96923828125,-0.0374408476054668,0.002078330842778,0.020401943475008
1769169333752,0.017913818359375,0.043182373046875,-0.9811248779296876,-0.038406778126955,-0.0032591766212135,0.0148234209045767
1769169333762,0.0101318359375,0.0464630126953125,-0.9898834228515624,-0.0397865623235702,0.003082875162363,0.0080352891236543
1769169333772,0.01385498046875,0.043365478515625,-0.9971160888671876,-0.0329970978200435,0.009818541817367,0.0086395610123872
1769169333782,0.021697998046875,0.0411376953125,-1.0122528076171875,-0.0080035980790853,0.0149651011452078,0.0082025360316038
1769169333792,0.0195465087890625,0.0415191650390625,-1.0324859619140625,0.0290660057216882,0.0241506099700927,0.0054416372440755
1769169333802,0.0168609619140625,0.03875732421875,-1.03814697265625,0.055414255708456,0.0331385135650634,0.0039984700269997
1769169333812,0.0162506103515625,0.032135009765625,-1.0254058837890625,0.0689441785216331,0.037122868001461,0.0039041941054165
1769169333822,0.01959228515625,0.027008056640625,-1.009521484375,0.0645233318209648,0.0347470603883266,0.0075830849818885
1769169333832,0.02008056640625,0.023529052734375,-0.989288330078125,0.0431354865431785,0.0252081509679555,0.0101991081610322
1769169333842,0.01715087890625,0.0265350341796875,-0.97088623046875,0.0110001871362328,0.0113333482295274,0.0046834349632263
1769169333852,0.0086212158203125,0.030120849609375,-0.9624176025390624,-0.0144290067255496,-0.001987517112866,0.0015515576815232
1769169333862,0.011199951171875,0.0375518798828125,-0.966339111328125,-0.0276372209191322,-0.0146327381953597,-0.006762565113604
1769169333872,0.0129852294921875,0.041839599609375,-0.978668212890625,-0.0345262847840786,-0.0146311409771442,-0.0085588674992322
1769169333882,0.016387939453125,0.0410003662109375,-0.9826507568359376,-0.0410227999091148,-0.0069082397967576,-0.0057148775085806
1769169333892,0.025604248046875,0.038360595703125,-0.987640380859375,-0.0361486822366714,0.0022807312197983,-0.0015219965716823
1769169333902,0.03173828125,0.0372467041015625,-1.000274658203125,-0.0231780242174863,0.004848551005125,0.0059937103651463
1769169333913,0.0317230224609375,0.03619384765625,-1.011627197265625,0.0001874865411082,0.0038133803755044,0.0104971155524253
1769169333923,0.0247344970703125,0.037200927734375,-1.0135498046875,0.0064057013951241,0.0100015010684728,0.0064315339550375
1769169333933,0.01788330078125,0.03802490234375,-1.0041046142578125,0.0102819325402379,0.0051417648792266,0.0040091224946081
1769169333943,0.016754150390625,0.036468505859375,-1.0027313232421875,0.0083420854061841,-0.006246177945286,0.0016117451013997
1769169333953,0.0121917724609375,0.0339508056640625,-0.9958343505859376,-0.0039428099989891,-0.0113940685987472,-0.0049564088694751
1769169333963,0.0115814208984375,0.03472900390625,-0.98553466796875,-0.017561150714755,-0.0165829714387655,-0.0096686063334345
1769169333973,0.014801025390625,0.0373992919921875,-0.985015869140625,-0.0265895333141088,-0.0174935068935155,-0.0106201535090804
1769169333983,0.0159454345703125,0.04010009765625,-0.985443115234375,-0.0318982787430286,-0.0202725138515234,-0.0152782890945672
1769169333993,0.0198516845703125,0.03948974609375,-0.98712158203125,-0.03104979544878,-0.0207031480967998,-0.0184000469744205
1769169334003,0.020294189453125,0.0397491455078125,-0.9898223876953124,-0.0313456729054451,-0.0108342720195651,-0.0204813070595264
1769169334013,0.024261474609375,0.03875732421875,-0.9910888671875,-0.0274691749364137,-0.0032639701385051,-0.0157427433878183
1769169334023,0.0267181396484375,0.038421630859375,-0.9954833984375,-0.0327209271490573,0.0161004066467285,-0.0049454900436103
1769169334033,0.0298309326171875,0.0364837646484375,-0.99334716796875,-0.0345268175005912,0.0290574841201305,0.0008141283178701
1769169334043,0.026947021484375,0.0347747802734375,-1.003936767578125,-0.0295168794691562,0.0301805399358272,0.0067543089389801
1769169334053,0.026153564453125,0.0320892333984375,-1.0125274658203125,-0.0179925821721553,0.0247562117874622,0.0144023746252059
1769169334063,0.029266357421875,0.02569580078125,-1.017242431640625,0.0044637243263423,0.0238017365336418,0.0153834838420152
1769169334073,0.021484375,0.0341033935546875,-1.0289764404296875,0.0277765039354562,0.0031103058718144,0.0124233802780509
1769169334083,0.016143798828125,0.0362091064453125,-1.0228118896484375,0.0347145721316337,-0.0132548185065388,0.0106411930173635
1769169334093,0.013916015625,0.0375213623046875,-1.0029449462890625,0.0339481122791767,-0.0155131798237562,0.0047356327995657
1769169334103,0.013092041015625,0.03985595703125,-0.9870758056640624,0.0108475880697369,-0.0202512089163064,0.0108366683125495
1769169334113,0.027008056640625,0.0283966064453125,-0.96832275390625,-0.0089258505031466,-0.020136160776019,0.0072227590717375
1769169334124,0.0213775634765625,0.0259857177734375,-0.962066650390625,-0.0325906984508037,-0.0064086308702826,0.0170900374650955
1769169334134,0.03485107421875,0.02783203125,-0.96539306640625,-0.0345105715095996,0.0063590961508452,0.0185489170253276
1769169334144,0.0256195068359375,0.0462188720703125,-0.986968994140625,-0.0205627996474504,0.0121416179463267,0.0125288413837552
1769169334154,0.015594482421875,0.0596160888671875,-1.0052337646484375,-0.0119211077690124,0.0089655313640832,0.0129200592637062
1769169334164,0.0253143310546875,0.0487060546875,-1.010650634765625,-0.0114430701360106,-0.0012665993999689,0.0240105278789997
1769169334174,0.035552978515625,0.0373992919921875,-1.0069427490234375,-0.012613795697689,-0.0102808671072125,0.0312924087047576
1769169334184,0.028533935546875,0.036346435546875,-1.0061492919921875,-0.0129474904388189,-0.0135781271383166,0.0345135033130645
1769169334194,0.02276611328125,0.033721923828125,-1.00140380859375,-0.0176636818796396,-0.0153328832238912,0.0406904369592666
1769169334204,0.0301666259765625,0.0278778076171875,-0.9962005615234376,-0.0225553754717111,-0.0199979431927204,0.0463802814483642
1769169334214,0.0275726318359375,0.0313262939453125,-0.9908447265625,-0.0319552682340145,-0.0213955696672201,0.0493222773075103
1769169334225,0.02508544921875,0.0359954833984375,-0.98956298828125,-0.0326650030910968,-0.0268313474953174,0.0457413904368877
1769169334234,0.0264892578125,0.0384368896484375,-0.997161865234375,-0.0267136357724666,-0.0246022827923297,0.0404140017926692
1769169334244,0.025360107421875,0.039398193359375,-0.9998931884765624,-0.0130332438275218,-0.013751764781773,0.0378477796912193
1769169334254,0.0238494873046875,0.036834716796875,-0.999755859375,0.0030485205352306,0.0024266722612082,0.0376682840287685
1769169334264,0.0299072265625,0.03173828125,-1.0007781982421875,0.0189888719469308,0.0199574623256921,0.0443048812448978
1769169334274,0.0350799560546875,0.02398681640625,-0.997100830078125,0.0255042947828769,0.0290090143680572,0.0532914511859416
1769169334284,0.0336761474609375,0.0177764892578125,-0.9901580810546876,0.0216581579297781,0.0241181198507547,0.0570861883461475
1769169334294,0.0281829833984375,0.0161590576171875,-0.9852294921875,0.0145086348056793,0.0080752372741699,0.0610974431037902
1769169334304,0.0242462158203125,0.0170440673828125,-0.986572265625,0.0022256036754697,-0.0096430396661162,0.0606838539242744
1769169334314,0.01898193359375,0.016693115234375,-0.98175048828125,-0.0127160614356398,-0.0268127061426639,0.0621145032346248
1769169334324,0.0159912109375,0.0210113525390625,-0.9763641357421876,-0.0374536328017711,-0.0378917232155799,0.0592816993594169
1769169334335,0.0106964111328125,0.02685546875,-0.976531982421875,-0.0519177913665771,-0.0506503954529762,0.054075751453638
1769169334345,0.0061492919921875,0.036224365234375,-0.985260009765625,-0.0539029128849506,-0.0557178556919097,0.0444111414253711
1769169334355,-0.0024871826171875,0.04156494140625,-0.9990692138671876,-0.0445813164114952,-0.0546238310635089,0.0273565240204334
1769169334365,-0.0025177001953125,0.0397186279296875,-1.0148162841796875,-0.0319917537271976,-0.0472237057983875,0.0190866086632013
1769169334375,0.015289306640625,0.026885986328125,-1.018829345703125,-0.0170061476528644,-0.038413967937231,0.0166950896382331
1769169334385,0.0142059326171875,0.0315093994140625,-1.0352935791015625,0.0285533480346202,-0.0226496513932943,0.002830141223967
1769169334395,0.006561279296875,0.040863037109375,-1.052886962890625,0.0683199316263198,-0.0060080913826823,-0.0056301886215806
1769169334405,0.009185791015625,0.0412445068359375,-1.0402679443359375,0.0859748274087905,-0.0026519757229834,-0.0164048057049512
1769169334415,0.005859375,0.038482666015625,-1.0208740234375,0.0947089344263076,-0.0073798857629299,-0.0287344418466091
1769169334425,0.0087890625,0.0369110107421875,-1.0018157958984375,0.0821369439363479,-0.0061574946157634,-0.0295933112502098
1769169334435,0.0171966552734375,0.0360870361328125,-0.9863128662109376,0.0781914740800857,-0.0118129840120673,-0.0396414175629615
1769169334445,0.016632080078125,0.03936767578125,-0.984100341796875,0.0728017687797546,-0.0136052910238504,-0.044394627213478
1769169334455,0.0174407958984375,0.0404815673828125,-0.977813720703125,0.0649486407637596,-0.0039204396307468,-0.044425256550312
1769169334465,0.0258331298828125,0.034423828125,-0.9657440185546876,0.0395314320921897,0.004285292699933,-0.0349774248898029
1769169334475,0.0317230224609375,0.0290069580078125,-0.951019287109375,0.0095990980044007,-0.0012186624808236,-0.03121118247509
1769169334485,0.028167724609375,0.0276336669921875,-0.945831298828125,-0.0271013919264078,-0.0049050101079046,-0.0228792168200016
1769169334495,0.029754638671875,0.0267486572265625,-0.9420928955078124,-0.0614883936941623,-0.0052533512935042,-0.0129895685240626
1769169334505,0.02972412109375,0.02764892578125,-0.94580078125,-0.0888987109065055,-0.006221676710993,0.0004402205231599
1769169334515,0.0308990478515625,0.03082275390625,-0.9634552001953124,-0.0966602265834808,-0.0078019965440034,0.0118422787636518
1769169334525,0.0291748046875,0.03765869140625,-0.9871826171875,-0.0873133316636085,-0.0101988418027758,0.0165222510695457
1769169334535,0.0187835693359375,0.04083251953125,-1.0067901611328125,-0.063172310590744,-0.008372445590794,0.0142260733991861
1769169334546,0.013214111328125,0.040283203125,-1.018157958984375,-0.0350232310593128,-0.0024501082953065,0.0143320672214031
1769169334556,0.014312744140625,0.03961181640625,-1.0192413330078125,-0.0169302467256784,-0.0007006776868365,0.0163137260824441
1769169334566,0.01214599609375,0.038330078125,-1.0096282958984375,-0.016227439045906,0.0087314397096633,0.0223676227033138
1769169334576,0.011260986328125,0.0372161865234375,-0.9929656982421876,-0.0352527946233749,0.0010229201288893,0.0181145556271076
1769169334586,0.010162353515625,0.0338592529296875,-0.972808837890625,-0.0725240036845207,-0.0070224893279373,0.0208269841969013
1769169334596,0.01104736328125,0.0312347412109375,-0.960662841796875,-0.1035327836871147,-0.004792624618858,0.0210464298725128
1769169334606,0.012420654296875,0.0355072021484375,-0.9671173095703124,-0.1171511262655258,-0.0006916229031048,0.0222634933888912
1769169334616,0.013214111328125,0.039031982421875,-0.985260009765625,-0.1161298006772995,0.0001009338011499,0.0250102784484624
1769169334626,0.0121612548828125,0.0435638427734375,-1.00457763671875,-0.0981449410319328,0.0004399542231112,0.0221415217965841
1769169334636,0.0072021484375,0.04486083984375,-1.018768310546875,-0.0747719779610633,0.0044480115175247,0.0196381490677595
1769169334646,0.0027313232421875,0.048065185546875,-1.0247650146484375,-0.045766957104206,0.0161627251654863,0.0118923457339406
1769169334656,-0.004241943359375,0.0501708984375,-1.02886962890625,-0.0231215637177228,0.0263322722166776,0.0008524778531864
1769169334666,-0.0081939697265625,0.0495452880859375,-1.0206298828125,-0.0222866628319025,0.026582607999444,-0.011837750673294
1769169334676,-0.0113677978515625,0.048492431640625,-1.0065460205078125,-0.0292265955358743,0.0141784036532044,-0.0229082442820072
1769169334686,-0.008880615234375,0.046783447265625,-1.0013885498046875,-0.0501246862113475,-0.0006282397080212,-0.0303200893104076
1769169334696,0.0001220703125,0.04620361328125,-0.9907684326171876,-0.0733799412846565,-0.0093378415331244,-0.0286380369216203
1769169334706,0.009796142578125,0.0450592041015625,-0.99481201171875,-0.0817348137497901,-0.0291988980025053,-0.0288188643753528
1769169334716,0.01458740234375,0.0454559326171875,-1.0107269287109375,-0.0741655752062797,-0.0375289991497993,-0.0185987185686826
1769169334726,0.0272979736328125,0.039764404296875,-1.01983642578125,-0.0523231253027915,-0.041363950818777,-0.0097993677482008
1769169334737,0.026580810546875,0.04730224609375,-1.0351409912109375,-0.009571666829288,-0.0296023674309253,-0.0163661893457174
1769169334746,0.0139007568359375,0.054229736328125,-1.042449951171875,0.0266790147870779,-0.0191329475492239,-0.017586451023817
1769169334756,0.01629638671875,0.0578765869140625,-1.03375244140625,0.0616369992494583,-0.0028322718571871,-0.0310029238462448
1769169334766,0.0002288818359375,0.0719146728515625,-1.0267791748046875,0.0920534953474998,0.0095873801037669,-0.03866483643651
1769169334777,0.00555419921875,0.06353759765625,-1.0064239501953125,0.0851801410317421,0.0025731462519615,-0.0332359820604324
1769169334787,0.024444580078125,0.036346435546875,-0.9658203125,0.0402685925364494,-0.0043516051955521,-0.01887515373528
1769169334797,0.0249786376953125,0.032745361328125,-0.93994140625,0.0035111114848405,-0.0055183358490467,-0.0302338022738695
1769169334807,0.0019073486328125,0.053863525390625,-0.949493408203125,-0.0267948620021343,-0.0063918530941009,-0.0377614945173263
1769169334817,0.0027923583984375,0.05987548828125,-0.9517059326171876,-0.0661438629031181,-0.0148764178156852,-0.0397812351584434
1769169334827,0.0133209228515625,0.059356689453125,-0.951416015625,-0.091841772198677,-0.0207297801971435,-0.036371324211359
1769169334837,0.0221405029296875,0.0635223388671875,-0.9776153564453124,-0.0854235514998436,-0.0212251283228397,-0.0325688607990741
1769169334847,0.0232086181640625,0.0676727294921875,-1.0101776123046875,-0.0544352792203426,-0.0077306241728365,-0.0273011289536952
1769169334857,0.0213623046875,0.0646820068359375,-1.029052734375,-0.0167733877897262,0.0062083611264824,-0.0279245749115943
1769169334867,0.01690673828125,0.056121826171875,-1.0338592529296875,0.0112385395914316,0.0199113897979259,-0.0239231754094362
1769169334877,0.0207672119140625,0.052337646484375,-1.028167724609375,0.0224834717810153,0.0165677908807992,-0.0238195788115263
1769169334887,0.0160064697265625,0.05322265625,-1.0157623291015625,0.0207494869828224,0.0162436850368976,-0.0263607669621706
1769169334897,0.0137786865234375,0.0494842529296875,-1.0077056884765625,0.0133821181952953,0.0138337900862097,-0.0264995172619819
1769169334907,0.0172882080078125,0.04730224609375,-1.00146484375,0.0078272968530654,0.0126596027985215,-0.0203883629292249
1769169334917,0.020721435546875,0.0459442138671875,-1.001068115234375,0.0062973108142614,0.0098742023110389,-0.0156284943222999
1769169334927,0.015716552734375,0.0456085205078125,-1.001190185546875,0.0123325660824775,0.0041484059765934,-0.017077786847949
1769169334937,0.015625,0.0447540283203125,-1.0044097900390625,0.0205915607511997,-0.0087886974215507,-0.0133264577016234
1769169334947,0.0176544189453125,0.044830322265625,-1.001312255859375,0.0231082495301961,-0.0087178573012351,-0.0110151004046201
1769169334957,0.0233917236328125,0.0418701171875,-0.99359130859375,0.0250366441905498,-0.0036147085484117,-0.0012466256739571
1769169334968,0.0270843505859375,0.0413970947265625,-0.9921417236328124,0.0252044219523668,-0.0021584921050816,0.0044171190820634
1769169334978,0.02508544921875,0.040496826171875,-0.9950103759765624,0.0281080678105354,-0.0019417107105255,0.0055739963427186
1769169334988,0.0206756591796875,0.039093017578125,-0.9935150146484376,0.0269517228007316,0.0016996293561533,0.0071631041355431
1769169334998,0.0178680419921875,0.0365447998046875,-0.9889373779296876,0.0155209023505449,0.0087551418691873,0.0058906460180878
1769169335008,0.0145111083984375,0.036956787109375,-0.9795684814453124,0.0022298647090792,0.0147509826347231,0.0087831048294901
1769169335018,0.0164337158203125,0.037506103515625,-0.97857666015625,-0.0060376524925231,0.0243410263210535,0.0155781609937548
1769169335028,0.018768310546875,0.0384979248046875,-0.9822235107421876,-0.0093815177679061,0.0173957683145999,0.0162277054041624
1769169335038,0.0138092041015625,0.0359649658203125,-0.988616943359375,-0.0088526140898466,0.012573049403727,0.0119256349280476
1769169335048,0.0093841552734375,0.029327392578125,-0.9882965087890624,-0.0199958123266696,0.0091554149985313,0.0111711621284484
1769169335058,0.012969970703125,0.031402587890625,-0.98968505859375,-0.0177933778613805,0.0070986556820571,0.0044874264858663
1769169335068,0.0066986083984375,0.04022216796875,-0.998443603515625,-0.0148876029998064,0.0046911584213376,-0.0001062601295416
1769169335078,0.003875732421875,0.0419158935546875,-0.994293212890625,-0.0256616882979869,0.019039737060666,-0.0029704899061471
1769169335088,0.0046844482421875,0.0389556884765625,-0.9814300537109376,-0.0376640222966671,0.0148117030039429,-0.0093953656032681
1769169335098,0.00457763671875,0.0369415283203125,-0.976837158203125,-0.050087135285139,0.0153081165626645,-0.0098598208278417
1769169335108,0.0137481689453125,0.0368194580078125,-0.9801025390625,-0.0545846819877624,0.0079897493124008,-0.0074816183187067
1769169335118,0.0133056640625,0.03961181640625,-0.9934844970703124,-0.0548182427883148,-0.0170522201806306,-0.0145696215331554
1769169335128,0.0063018798828125,0.0417022705078125,-1.002471923828125,-0.0534264743328094,-0.0090542146936059,-0.0150545835494995
1769169335138,0.0147552490234375,0.041961669921875,-1.005462646484375,-0.0472130514681339,-0.0010135991033166,-0.0081042656674981
1769169335148,0.0143585205078125,0.0431671142578125,-1.009033203125,-0.0381340682506561,0.0121954139322042,-0.0079436767846345
1769169335158,0.0113983154296875,0.0438690185546875,-1.0131072998046875,-0.0202429536730051,0.0150346094742417,-0.008823319338262
1769169335168,0.009307861328125,0.0452423095703125,-1.0228118896484375,0.0070816115476191,0.008772718720138,-0.013482785783708
1769169335179,0.008697509765625,0.04425048828125,-1.0340118408203125,0.0375945121049881,0.0057380469515919,-0.015688681975007
1769169335188,0.008392333984375,0.0406494140625,-1.0318603515625,0.0567181408405303,0.0103202816098928,-0.0174500960856676
1769169335199,0.00640869140625,0.0401611328125,-1.0182952880859375,0.0648157447576522,0.01385775860399,-0.0175800584256649
1769169335209,0.0105743408203125,0.03765869140625,-1.0027618408203125,0.0540760196745395,0.0200639888644218,-0.0097144125029444
1769169335219,0.016448974609375,0.0377349853515625,-0.9835052490234376,0.0343550443649292,0.0131509555503726,-0.0050842408090829
1769169335229,0.0163421630859375,0.04229736328125,-0.9730987548828124,0.0140239400789141,-0.0086267776787281,-0.005372661165893
1769169335239,0.013458251953125,0.0444183349609375,-0.9668426513671876,-0.0099719399586319,-0.0251519586890935,-0.0112784868106246
1769169335249,0.0111846923828125,0.0431976318359375,-0.963897705078125,-0.0265682283788919,-0.0357593297958374,-0.0116215022280812
1769169335259,0.01116943359375,0.0420684814453125,-0.9688568115234376,-0.0391596518456935,-0.0319201163947582,-0.0166516806930303
1769169335269,0.007293701171875,0.0421295166015625,-0.9755706787109376,-0.0533433817327022,-0.0275831576436758,-0.0174671411514282
1769169335279,0.0085296630859375,0.0401763916015625,-0.9748382568359376,-0.0657971203327179,-0.0137576237320899,-0.0102563658729195
1769169335289,0.01910400390625,0.0398406982421875,-0.9822235107421876,-0.0620524510741233,-0.0098547609522938,-0.0057050236500799
1769169335299,0.0140380859375,0.0439910888671875,-1.002349853515625,-0.0478277094662189,0.0004024036461487,-0.0048882323317229
1769169335309,0.011199951171875,0.04595947265625,-1.00982666015625,-0.030027674511075,0.0105245457962155,-0.0096294581890106
1769169335319,0.006134033203125,0.046478271484375,-1.0130157470703125,-0.0056014265865087,0.012639096006751,-0.0176532957702875
1769169335329,0.006378173828125,0.0465240478515625,-1.02337646484375,0.0186080392450094,0.0032780850306153,-0.0226070415228605
1769169335339,0.0108642578125,0.04510498046875,-1.022979736328125,0.032945167273283,-0.0113591812551021,-0.0270715653896331
1769169335349,0.0104522705078125,0.0437774658203125,-1.0101470947265625,0.0304183587431907,-0.0031848743092268,-0.0225662961602211
1769169335359,0.019073486328125,0.0408782958984375,-0.99017333984375,0.0130327111110091,0.0016737966798245,-0.0188983231782913
1769169335369,0.0180206298828125,0.04052734375,-0.977386474609375,-0.0144066363573074,0.0057311225682497,-0.0133043536916375
1769169335379,0.019317626953125,0.038665771484375,-0.9652557373046876,-0.0446987599134445,0.0093751261010766,-0.0030916635878384
1769169335390,0.0281982421875,0.032958984375,-0.9644775390625,-0.0682943686842918,0.0112803513184189,0.0083282375708222
1769169335400,0.0247344970703125,0.0401763916015625,-0.9752044677734376,-0.0663569197058677,0.0183393266052007,0.0055138086900115
1769169335410,0.0146331787109375,0.04620361328125,-1.0041351318359375,-0.0469643138349056,0.0143371280282735,0.0031358720734715
1769169335420,0.0101165771484375,0.052398681640625,-1.0232086181640625,-0.0214006304740905,0.0136028937995433,-0.012304070405662
1769169335430,-0.0009918212890625,0.066253662109375,-1.0302581787109375,0.0198314953595399,0.0127746509388089,-0.0216674786061048
1769169335440,0.0002899169921875,0.06451416015625,-1.0347747802734375,0.0365590751171112,0.0182160213589668,-0.0196940768510103
1769169335450,0.017822265625,0.042938232421875,-1.010040283203125,0.0261786077171564,0.0133152725175023,-0.0033148366492241
1769169335460,0.0275115966796875,0.0345611572265625,-0.9889068603515624,0.0186778139322996,0.0171446315944194,-0.0131959626451134
1769169335470,0.003997802734375,0.0469512939453125,-0.98382568359375,0.0082038678228855,0.0194695722311735,-0.0154708353802561
1769169335480,0.012603759765625,0.051483154296875,-0.9723052978515624,-0.0190085787326097,0.0195531956851482,-0.0143059687688946
1769169335490,0.01434326171875,0.0526885986328125,-0.95947265625,-0.0495092310011386,0.014002101495862,-0.0101599590852856
1769169335500,0.0228729248046875,0.047393798828125,-0.95513916015625,-0.0784423425793647,0.0120273679494857,0.0062941149808466
1769169335510,0.0330963134765625,0.0463409423828125,-0.960205078125,-0.0904015377163887,0.0141616249457001,0.0158841572701931
1769169335520,0.0283966064453125,0.0492706298828125,-0.9732208251953124,-0.0948090702295303,0.0128337731584906,0.0179379880428314
1769169335530,0.017608642578125,0.0461273193359375,-0.9847564697265624,-0.0885128229856491,0.0056102150119841,0.0120755713433027
1769169335540,0.01129150390625,0.0441741943359375,-0.9969329833984376,-0.0785395503044128,-0.0018104169284924,0.0060491040349006
1769169335550,0.004425048828125,0.048675537109375,-1.00762939453125,-0.0647502318024635,-0.0056765279732644,-0.0027608990203589
1769169335560,0.0028076171875,0.049468994140625,-1.0170745849609375,-0.050486609339714,0.0001834917929954,-0.0038242992013692
1769169335570,0.0070648193359375,0.052093505859375,-1.01812744140625,-0.0391705706715583,0.0026024410035461,-0.0050243195146322
1769169335580,0.0027923583984375,0.0545806884765625,-1.0167083740234375,-0.0264683589339256,0.009402023628354,-0.0101716769859194
1769169335590,0.00128173828125,0.0553131103515625,-1.0173492431640625,-0.0154473995789885,0.0188903342932462,-0.0139248706400394
1769169335600,0.000274658203125,0.05767822265625,-1.013946533203125,0.00031292141648,0.0238318294286727,-0.0206301771104335
1769169335612,0.002471923828125,0.060150146484375,-1.017181396484375,0.014085991308093,0.0296787992119789,-0.0267844758927822
1769169335620,0.00836181640625,0.059234619140625,-1.0081024169921875,0.0164279751479625,0.0347233600914478,-0.0305275488644838
1769169335630,0.010528564453125,0.055816650390625,-0.997406005859375,0.0142026375979185,0.0256100222468376,-0.0339270755648613
1769169335641,0.0149383544921875,0.0548248291015625,-0.9896697998046876,0.0036698358599096,0.0174714010208845,-0.0373463071882724
1769169335651,0.0135040283203125,0.0529022216796875,-0.979827880859375,-0.0100302631035447,0.006065615452826,-0.0437517426908016
1769169335661,0.0133209228515625,0.0520477294921875,-0.9785308837890624,-0.022593991830945,-0.0012908341595903,-0.0473904199898242
1769169335671,0.014251708984375,0.0523834228515625,-0.9775543212890624,-0.0350597165524959,-0.0012644688831642,-0.0496586337685585
1769169335681,0.013946533203125,0.0525970458984375,-0.978240966796875,-0.0373561605811119,-0.0030549119692295,-0.0507052540779113
1769169335691,0.0124053955078125,0.0533599853515625,-0.9846038818359376,-0.0390584543347358,0.0023036343045532,-0.0491723380982875
1769169335701,0.0181427001953125,0.047454833984375,-0.981048583984375,-0.0531636178493499,0.0054610781371593,-0.0354836918413639
1769169335711,0.0313262939453125,0.037933349609375,-0.9748687744140624,-0.0711253061890602,0.0113860787823796,-0.0266190934926271
1769169335721,0.0277862548828125,0.0489349365234375,-0.9847564697265624,-0.0597940906882286,0.0244488846510648,-0.028160797432065
1769169335731,0.016387939453125,0.06573486328125,-1.00970458984375,-0.0391636490821838,0.041092574596405,-0.0316090583801269
1769169335741,0.01531982421875,0.0690155029296875,-1.0186920166015625,-0.0202408228069543,0.055107194930315,-0.0286319106817245
1769169335751,0.024658203125,0.0657196044921875,-1.0255584716796875,0.0035428032279014,0.0551665835082531,-0.0210850443691015
1769169335761,0.031982421875,0.0638885498046875,-1.0301666259765625,0.020803015679121,0.0507449358701705,-0.0164522100239992
1769169335771,0.0246124267578125,0.064666748046875,-1.0257720947265625,0.0337547659873962,0.045482262969017,-0.0229194313287735
1769169335781,0.0171661376953125,0.06170654296875,-1.018035888671875,0.0351470671594142,0.0483526177704334,-0.0235340874642133
1769169335791,0.022705078125,0.0538330078125,-1.0023956298828125,0.0250219963490962,0.0503710284829139,-0.0181694161146879
1769169335801,0.0260467529296875,0.0491943359375,-0.9860992431640624,0.0051292483694851,0.0497047044336795,-0.0090472912415862
1769169335812,0.0267791748046875,0.045867919921875,-0.974609375,-0.0129802469164133,0.037868820130825,-0.0034927357919514
1769169335821,0.0273590087890625,0.0457305908203125,-0.974761962890625,-0.0266284141689538,0.0227692276239395,0.0011749867117032
1769169335832,0.0249481201171875,0.04986572265625,-0.984893798828125,-0.0231644418090581,0.0017486315919086,-0.0026692864485085
1769169335842,0.0145721435546875,0.0560760498046875,-1.00274658203125,-0.0075577846728265,-0.012719789519906,-0.0071511198766529
1769169335852,0.013336181640625,0.05810546875,-1.01837158203125,0.018042117357254,-0.019644808024168,-0.0102489087730646
1769169335862,0.015106201171875,0.059906005859375,-1.030487060546875,0.0481499508023262,-0.0232991967350244,-0.0080901505425572
1769169335872,0.0160064697265625,0.060791015625,-1.029876708984375,0.0644314512610435,-0.0157539285719394,-0.0054229949600994
1769169335882,0.019287109375,0.05743408203125,-1.018035888671875,0.0703971982002258,-0.0085729816928505,0.0015172028215602
1769169335892,0.0259857177734375,0.0553131103515625,-1.0057220458984375,0.0692613646388053,-0.003042128868401,0.0058759986422955
1769169335902,0.027130126953125,0.0543060302734375,-0.994964599609375,0.0601411014795303,-0.0069966567680239,0.0123325660824775
1769169335912,0.02783203125,0.0554351806640625,-0.98162841796875,0.0485134720802307,-0.0233516618609428,0.0113328155130147
1769169335922,0.0229339599609375,0.0544586181640625,-0.9686431884765624,0.0248345099389553,-0.0346133708953857,0.0104856640100479
1769169335932,0.01837158203125,0.056732177734375,-0.952178955078125,-0.0103069655597209,-0.037224069237709,0.003964914008975
1769169335942,0.0178985595703125,0.05450439453125,-0.94305419921875,-0.0365803800523281,-0.0417272076010704,-0.0001709749340079
1769169335953,0.021575927734375,0.058380126953125,-0.952606201171875,-0.0513990074396133,-0.0344325415790081,-0.0026916568167507
1769169335962,0.01983642578125,0.0600128173828125,-0.963623046875,-0.0644596815109252,-0.0176623500883579,-0.0063910540193319
1769169335972,0.019378662109375,0.058746337890625,-0.97406005859375,-0.0710400864481926,0.004341484978795,-0.0039406795985996
1769169335982,0.02105712890625,0.05712890625,-0.993499755859375,-0.0586175061762332,0.0234592538326978,-0.0059899818152189
1769169335992,0.016357421875,0.055328369140625,-1.0134124755859375,-0.0385670997202396,0.0453901179134845,-0.0120388194918632
1769169336002,0.007965087890625,0.055450439453125,-1.025115966796875,-0.0115823540836572,0.0454851947724819,-0.0202698521316051
1769169336014,0.0080108642578125,0.0544586181640625,-1.034912109375,0.0125538753345608,0.035008318722248,-0.0235655140131711
1769169336022,0.010772705078125,0.051300048828125,-1.025848388671875,0.0147826746106147,0.0210352446883916,-0.0254765972495079
1769169336032,0.009368896484375,0.0507049560546875,-1.0097503662109375,0.0048389635048806,0.001210673013702,-0.0278212446719408
1769169336042,0.01239013671875,0.0438385009765625,-0.994232177734375,-0.0184623636305332,-0.0138745363801717,-0.0250166691839694
1769169336053,0.015380859375,0.038787841796875,-0.9860382080078124,-0.0357023365795612,-0.0196815598756074,-0.0256441105157136
1769169336063,0.00946044921875,0.0468292236328125,-0.9860687255859376,-0.0568827241659164,-0.0116848852485418,-0.0244621988385915
1769169336073,0.0132904052734375,0.0470123291015625,-0.986968994140625,-0.0568827241659164,-0.0116848852485418,-0.0244621988385915
1769169336084,0.011138916015625,0.064666748046875,-1.00604248046875,-0.0591362901031971,-0.0073612434789538,-0.0232563205063343
1769169336113,0.00994873046875,0.072235107421875,-1.032806396484375,0.0355955436825752,0.0023507722653448,-0.0172229297459125
1769169336114,0.0266571044921875,0.044525146484375,-1.0384368896484375,0.0355955436825752,0.0023507722653448,-0.0172229297459125
1769169336124,0.0182647705078125,0.0535736083984375,-1.03204345703125,0.1044616922736167,0.0010727213229984,-0.0351270958781242
1769169336133,0.00738525390625,0.0660247802734375,-1.0236053466796875,0.1153183355927467,0.0017813884187489,-0.0421980544924736
1769169336143,0.00634765625,0.066436767578125,-0.9937744140625,0.094795748591423,-0.0027664916124194,-0.0430364161729812
1769169336153,0.018280029296875,0.0548248291015625,-0.9578704833984376,0.0452407151460647,-0.0052054147236049,-0.0366325788199901
1769169336163,0.0207061767578125,0.0488739013671875,-0.93572998046875,-0.0049958238378167,-0.0046139266341924,-0.0323904305696487
1769169336173,0.0242767333984375,0.0439300537109375,-0.9333648681640624,-0.0415282696485519,-0.0134705351665616,-0.0278470776975154
1769169336183,0.024749755859375,0.0410919189453125,-0.9424591064453124,-0.069259762763977,-0.0123075321316719,-0.0229433998465538
1769169336193,0.0301666259765625,0.03887939453125,-0.955718994140625,-0.0799856483936309,-0.004808603785932,-0.0125802401453256
1769169336203,0.0342559814453125,0.044403076171875,-0.976470947265625,-0.0776918679475784,0.0084480792284011,-0.003149454249069
1769169336213,0.03179931640625,0.0520782470703125,-0.999481201171875,-0.0550973415374755,0.0182000435888767,0.0032128375023603
1769169336223,0.02545166015625,0.058013916015625,-1.0217437744140625,-0.0204448215663433,0.0266497209668159,0.0009544769418425
1769169336233,0.0229949951171875,0.0606842041015625,-1.0339508056640625,0.0108723547309637,0.0348330810666084,0.0014367754338309
1769169336243,0.0153961181640625,0.058380126953125,-1.0395660400390625,0.0445584133267402,0.0281983483582735,-0.0092970952391624
1769169336253,0.00762939453125,0.0553741455078125,-1.038055419921875,0.0655028447508812,0.0219732094556093,-0.0187225546687841
1769169336263,0.008544921875,0.04736328125,-1.0216522216796875,0.0662788897752761,0.0167632680386304,-0.0210586804896593
1769169336274,0.0131378173828125,0.0412750244140625,-1.0023956298828125,0.0501960590481758,0.0028114991728216,-0.019188342615962
1769169336284,0.01654052734375,0.0408172607421875,-0.9824981689453124,0.0240046679973602,0.001669269404374,-0.0161611270159482
1769169336294,0.0236663818359375,0.0403900146484375,-0.9688720703125,-0.0013267868198454,0.0007052050787024,-0.0054229949600994
1769169336304,0.02911376953125,0.0421905517578125,-0.97125244140625,-0.0198061950504779,0.0072600431740283,0.0079300943762063
1769169336314,0.0325775146484375,0.0471343994140625,-0.9759674072265624,-0.0239122565835714,0.0156058575958013,0.0174756627529859
1769169336324,0.0287628173828125,0.0513916015625,-0.9911956787109376,-0.0077950726263225,0.0183401256799697,0.022839268669486
1769169336334,0.0260162353515625,0.055908203125,-1.0158233642578125,0.0176711380481719,0.0171696655452251,0.0234624482691288
1769169336344,0.01824951171875,0.05767822265625,-1.0294952392578125,0.0460239499807357,0.0175688732415437,0.0186663623899221
1769169336354,0.0153656005859375,0.0516204833984375,-1.0302581787109375,0.0612274035811424,0.0215242002159357,0.0239900220185518
1769169336364,0.0299835205078125,0.037078857421875,-1.0187225341796875,0.0647901818156242,0.0190439987927675,0.0293030273169279
1769169336374,0.0241241455078125,0.0409393310546875,-1.0090789794921875,0.0766878500580787,0.0191412046551704,0.0245628673583269
1769169336384,0.0094451904296875,0.052459716796875,-1.0072784423828125,0.0811760798096656,0.0207263175398111,0.0191451981663703
1769169336394,0.005767822265625,0.0517425537109375,-0.9848785400390624,0.0571980401873588,0.0175028275698423,0.0114305531606078
1769169336404,0.010345458984375,0.0491943359375,-0.9632720947265624,0.0274891480803489,0.0089378347620368,0.0097056245431303
1769169336414,0.015960693359375,0.0451812744140625,-0.9587554931640624,-0.0015358449891209,0.007195062469691,0.0103913880884647
1769169336424,0.0204620361328125,0.0477447509765625,-0.9613494873046876,-0.0127245839685201,0.0053486926481127,0.0131112746894359
1769169336434,0.019989013671875,0.049468994140625,-0.9759521484375,-0.0118036624044179,0.0013211942277848,0.0124723818153142
1769169336445,0.0221710205078125,0.0494842529296875,-0.9909515380859376,-0.0005451490869745,0.0045076664537191,0.0153485964983701
1769169336454,0.0220184326171875,0.045684814453125,-1.006561279296875,0.0195089858025312,-0.0003012035158462,0.0160490069538354
1769169336465,0.018707275390625,0.041961669921875,-1.0115509033203125,0.0305115692317485,0.0009725864510983,0.0135554894804954
1769169336475,0.01617431640625,0.0423583984375,-1.0052947998046875,0.0395362228155136,0.0026916568167507,0.0109996544197201
1769169336485,0.0119781494140625,0.04205322265625,-1.006011962890625,0.0457376614212989,0.0009885653853416,0.0053883739747107
1769169336495,0.009613037109375,0.0414581298828125,-0.9989166259765624,0.0407354459166526,0.0050213900394737,0.0015462313313037
1769169336505,0.009124755859375,0.0411376953125,-0.990814208984375,0.0320088006556034,0.0082336952909827,-0.0012402341235429
1769169336515,0.0145111083984375,0.0408935546875,-0.9856719970703124,0.0165006797760725,0.0142593635246157,0.0057779941707849
1769169336525,0.02001953125,0.04034423828125,-0.9800872802734376,0.0001459412305848,0.0113820843398571,0.0055329832248389
1769169336535,0.019317626953125,0.040924072265625,-0.9786834716796876,-0.0156402122229337,0.0050890343263745,0.005266667343676
1769169336545,0.0178375244140625,0.04296875,-0.9796295166015624,-0.0218879878520965,-0.0024935177061706,0.0031670311000198
1769169336555,0.0177459716796875,0.0441741943359375,-0.9881134033203124,-0.0198243055492639,-0.0056901099160313,-0.0028040423057973
1769169336565,0.0162506103515625,0.0426177978515625,-0.99530029296875,-0.0160671174526214,-0.0027390611357986,-0.0023137542884796
1769169336575,0.017059326171875,0.041748046875,-0.9985504150390624,-0.0070674968883395,-0.0041127195581793,0.0002841592940967
1769169336585,0.0184326171875,0.0416717529296875,-1.0027313232421875,0.0025632926262915,0.0020647486671805,-0.000623179716058
1769169336595,0.0137939453125,0.0425872802734375,-1.005218505859375,0.0091186631470918,0.0090475566685199,0.0026967169251292
1769169336605,0.015350341796875,0.0440673828125,-1.0013427734375,0.0095130773261189,0.0123607954010367,0.0062099588103592
1769169336615,0.02044677734375,0.0430755615234375,-0.994232177734375,0.0053082127124071,0.0105240140110254,0.0071306135505437
1769169336625,0.0196990966796875,0.0441436767578125,-0.990142822265625,-0.0030719563364982,0.0062541672959923,0.0075157070532441
1769169336635,0.018280029296875,0.04718017578125,-0.9826202392578124,-0.0137424441054463,0.0062112906016409,0.0089506180956959
1769169336645,0.0233306884765625,0.0469818115234375,-0.978271484375,-0.0251506268978118,-0.000250603450695,0.0063124909065663
1769169336655,0.0177154541015625,0.04827880859375,-0.977752685546875,-0.0354075245559215,-0.007996673695743,0.0009576727170497
1769169336665,0.0181884765625,0.049652099609375,-0.9793548583984376,-0.0408339835703372,-0.0174386445432901,-0.0049686594866216
1769169336675,0.0200347900390625,0.0443878173828125,-0.9787139892578124,-0.0571865886449813,-0.0108566423878073,0.0041231061331927
1769169336686,0.0267486572265625,0.0402374267578125,-0.9778900146484376,-0.0611142218112945,-0.0006596649764105,0.0013124058023095
1769169336696,0.012939453125,0.048248291015625,-0.9920654296875,-0.0569828599691391,0.0125935561954975,0.0041566616855561
1769169336706,0.0186614990234375,0.0480194091796875,-1.0088958740234375,-0.0323361009359359,0.0162644572556018,0.0011752529535442
1769169336716,0.0112152099609375,0.05548095703125,-1.0271453857421875,0.0035065840929746,0.0215542949736118,-0.0019584887195378
1769169336726,0.0149383544921875,0.0501251220703125,-1.026763916015625,0.0144825363531708,0.007104514632374,0.0084938863292336
1769169336736,0.0262298583984375,0.0368804931640625,-1.006256103515625,0.0141224768012762,-0.0002990729990415,-0.0022599585354328
1769169336746,0.013336181640625,0.0381011962890625,-0.990692138671875,0.0034397388808429,-0.0021965752821415,0.0007291734800674
1769169336756,0.0240325927734375,0.0408935546875,-0.9842681884765624,0.0034123081713914,-0.0066083678975701,-0.0019094864837825
1769169336766,0.0138702392578125,0.0575103759765625,-0.9920654296875,0.0063332631252706,-0.0150130381807684,-0.0098478365689516
1769169336776,0.0033721923828125,0.066864013671875,-0.9882049560546876,-0.016578709706664,-0.0191625095903873,-0.0140031669288873
1769169336786,0.0115203857421875,0.05755615234375,-0.9682769775390624,-0.0484168007969856,-0.0192559864372015,-0.0141099598258733
1769169336796,0.018402099609375,0.052520751953125,-0.9701995849609376,-0.0661574453115463,-0.0159235727041959,-0.0122497417032718
1769169336806,0.0209808349609375,0.0469818115234375,-0.97955322265625,-0.0745203047990799,-0.0094571514055132,-0.0070366039872169
1769169336816,0.0257720947265625,0.0401763916015625,-0.991455078125,-0.0727101564407348,-0.0010812433902174,0.0053742588497698
1769169336826,0.0292816162109375,0.03924560546875,-1.004302978515625,-0.0626146420836448,-0.0007028082036413,0.0099144158884882
1769169336836,0.0244598388671875,0.04388427734375,-1.0161590576171875,-0.0401098690927028,-0.0037273601628839,0.0146758817136287
1769169336846,0.0187835693359375,0.04815673828125,-1.02716064453125,-0.0148953264579176,-0.0203635953366756,0.0096488986164331
1769169336856,0.00762939453125,0.0538787841796875,-1.0237579345703125,-0.004701810888946,-0.0227977242320776,0.0019971043802797
1769169336866,0.00469970703125,0.0536041259765625,-1.006134033203125,-0.0061772023327648,-0.0271123107522726,-0.00154649768956
1769169336877,0.01043701171875,0.05010986328125,-0.992523193359375,-0.0100608896464109,-0.0339145585894584,-0.0062251389026641
1769169336886,0.0104827880859375,0.0492095947265625,-0.9831390380859376,-0.0224120989441871,-0.028637770563364,-0.005142830312252
1769169336897,0.0162200927734375,0.0480194091796875,-0.970794677734375,-0.0412819273769855,-0.0113165704533457,0.0014935007784515
1769169336906,0.0240020751953125,0.044403076171875,-0.969268798828125,-0.0548685751855373,0.0008218514849431,0.0073359436355531
1769169336917,0.0255889892578125,0.04498291015625,-0.9779510498046876,-0.0527159422636032,0.0084584662690758,0.0155752310529351
1769169336927,0.0251617431640625,0.0485687255859375,-0.9928741455078124,-0.0398581996560096,0.0012269183062016,0.0154404751956462
1769169336937,0.0214691162109375,0.05120849609375,-1.006866455078125,-0.0222746785730123,-0.006484530866146,0.0106856673955917
1769169336947,0.0146484375,0.0536956787109375,-1.009033203125,-0.0073143718764185,-0.010865431278944,0.0047699878923594
1769169336957,0.012786865234375,0.0535736083984375,-1.011260986328125,0.0032637037802487,-0.0189726259559392,0.0018338527297601
1769169336967,0.012176513671875,0.0548095703125,-1.00189208984375,0.004097007215023,-0.0207124687731266,-0.0025347967166453
1769169336977,0.0087890625,0.0584716796875,-0.997650146484375,0.0037558560725301,-0.02529470436275,-0.0086515452712774
1769169336987,0.0108642578125,0.05615234375,-0.9947357177734376,0.0027505126781761,-0.0328263901174068,-0.0033774208277463
1769169336997,0.020660400390625,0.0438385009765625,-0.9846343994140624,-0.0252113472670316,-0.0346439965069294,0.0063644223846495
1769169337007,0.029052734375,0.040252685546875,-0.970489501953125,-0.0372999683022499,-0.0304796118289232,0.0068544438108801
1769169337017,0.0202178955078125,0.0527496337890625,-0.9793853759765624,-0.043362122029066,-0.0231697671115398,0.0128580080345273
1769169337027,0.02044677734375,0.0589141845703125,-0.9841461181640624,-0.0500168278813362,-0.0157555267214775,0.017509751021862
1769169337038,0.023681640625,0.056640625,-0.984832763671875,-0.05294044688344,-0.0144178215414285,0.0182080324739217
1769169337047,0.0240478515625,0.0595245361328125,-0.990509033203125,-0.0556582026183605,-0.0166804436594247,0.0209809150546789
1769169337057,0.0218505859375,0.060028076171875,-0.999969482421875,-0.0459461845457553,-0.0211353786289691,0.0208695959299802
1769169337067,0.02032470703125,0.0610198974609375,-1.011474609375,-0.0322122648358345,-0.0202453508973121,0.0143829341977834
1769169337077,0.0129547119140625,0.06072998046875,-1.0119476318359375,-0.018765166401863,-0.013530989177525,0.0116326874122023
1769169337091,0.0137481689453125,0.054840087890625,-1.010772705078125,-0.0079556610435247,-0.0064035709947347,0.0110467923805117
1769169337098,0.016265869140625,0.0500946044921875,-1.0075531005859375,-0.0045308358967304,-0.0023294670972973,0.011672368273139
1769169337108,0.017242431640625,0.04608154296875,-1.001434326171875,-0.0079766996204853,-0.0018458369886502,0.0070933294482529
1769169337118,0.0124053955078125,0.044097900390625,-0.9945068359375,-0.0193665064871311,0.0003459446306806,0.0086621977388858
1769169337128,0.0127410888671875,0.045806884765625,-0.989105224609375,-0.0256260018795728,-0.0015587481902912,0.0130795827135443
1769169337138,0.01507568359375,0.04925537109375,-0.99169921875,-0.03292066603899,-0.0036724992096424,0.0146593702957034
1769169337148,0.01348876953125,0.05218505859375,-0.9929656982421876,-0.0376083627343177,-0.0027246801182627,0.0181611608713865
1769169337158,0.017608642578125,0.0561065673828125,-1.00006103515625,-0.0304031800478696,-0.0103019056841731,0.0231812186539173
1769169337168,0.0194244384765625,0.060791015625,-1.0090179443359375,-0.0214901119470596,-0.0086158588528633,0.0192527901381254
1769169337178,0.01171875,0.0600433349609375,-1.007568359375,-0.0115373460575938,-0.0041670482605695,0.0160253047943115
1769169337188,0.0106658935546875,0.057464599609375,-1.0080718994140625,-0.0044432180002331,-0.0003259709046687,0.0139477737247943
1769169337198,0.008880615234375,0.0541229248046875,-1.0024261474609375,0.0028831381350755,0.0046123284846544,0.0106555735692381
1769169337208,0.0060577392578125,0.0513153076171875,-1.00103759765625,0.0057961037382483,0.0035049861762672,0.0050040795467793
1769169337218,0.008575439453125,0.048614501953125,-0.9989166259765624,0.0073601780459284,0.0073114424012601,0.0055806539021432
1769169337228,0.0105438232421875,0.049713134765625,-0.9935455322265624,0.0042669167742133,0.0067673586308956,0.0062736086547374
1769169337238,0.0116119384765625,0.0491943359375,-0.98529052734375,-0.0105815380811691,0.0042237732559442,0.0094728637486696
1769169337248,0.0145111083984375,0.0498809814453125,-0.983062744140625,-0.0190842114388942,-0.0077295587398111,0.0043271039612591
1769169337258,0.0093994140625,0.0554962158203125,-0.9842529296875,-0.0296614896506071,-0.0102438488975167,0.0014176006661728
1769169337268,0.008636474609375,0.0599365234375,-0.9828033447265624,-0.0344146974384784,-0.0148364705964922,0.003622165415436
1769169337278,0.0129241943359375,0.0608978271484375,-0.9931793212890624,-0.02893684245646,-0.018926553428173,-0.0011944277212023
1769169337288,0.008209228515625,0.06182861328125,-1.001739501953125,-0.0217974409461021,-0.0170482248067855,-0.0073993266560137
1769169337299,0.0064544677734375,0.0610809326171875,-1.0011138916015625,-0.0151046505197882,-0.0117951408028602,-0.0078613851219415
1769169337308,0.0118865966796875,0.05841064453125,-1.0012664794921875,-0.0142694832757115,-0.0060325926169753,-0.0070491209626197
1769169337319,0.015625,0.0541534423828125,-0.998291015625,-0.0158005338162183,-0.0010729875648394,-0.0031121699139475
1769169337329,0.0141754150390625,0.0515289306640625,-0.991119384765625,-0.022781478241086,0.0075388764962553,-0.0012791162589564
1769169337339,0.0188446044921875,0.0458831787109375,-0.9861297607421876,-0.0296534989029169,0.0051361722871661,0.0100289322435855
1769169337349,0.0242462158203125,0.0430145263671875,-0.9860992431640624,-0.029419407248497,0.0022072279825806,0.007594536524266
1769169337359,0.009765625,0.051788330078125,-0.9958343505859376,-0.0254358518868684,-0.0020559602417051,0.004105529282242
1769169337369,0.0072174072265625,0.0577239990234375,-0.999114990234375,-0.0088211884722113,-0.010389257222414,-0.0121996747329831
1769169337379,-0.008270263671875,0.0790863037109375,-1.0109405517578125,0.0110076433047652,-0.0208650678396224,-0.0304998513311147
1769169337389,-0.0140533447265625,0.0843963623046875,-1.0095977783203125,0.0066033080220222,-0.0238059964030981,-0.029684392735362
1769169337399,0.008697509765625,0.0567169189453125,-0.983978271484375,-0.018254105001688,-0.0288042183965444,-0.014274276793003
1769169337409,0.028106689453125,0.04144287109375,-0.967742919921875,-0.0391924083232879,-0.024143686518073,-0.0138971731066703
1769169337419,0.01116943359375,0.05535888671875,-0.971832275390625,-0.0449712015688419,-0.0101274689659476,-0.0225175600498914
1769169337429,0.0027618408203125,0.0672149658203125,-0.979736328125,-0.0494823306798934,-0.0089974896982312,-0.0269447993487119
1769169337439,0.0129241943359375,0.0677642822265625,-0.979766845703125,-0.0662181675434112,-0.010333064943552,-0.0255498345941305
1769169337449,0.0203704833984375,0.064605712890625,-0.9746551513671876,-0.0844083577394485,-0.0137046268209815,-0.0201715808361768
1769169337459,0.0208587646484375,0.06292724609375,-0.9818115234375,-0.0920007601380348,-0.0138036962598562,-0.0143951848149299
1769169337469,0.020782470703125,0.0625,-0.9957122802734376,-0.0759328454732894,-0.0213566869497299,-0.0128769166767597
1769169337479,0.0185699462890625,0.060333251953125,-1.011566162109375,-0.0667028650641441,-0.0208381693810224,-0.0088973548263311
1769169337489,0.0138397216796875,0.0565032958984375,-1.0060577392578125,-0.0682610794901847,-0.0115954028442502,-0.0063329972326755
1769169337499,0.0081939697265625,0.0557403564453125,-1.0000457763671875,-0.0663707703351974,-0.0066123628057539,-0.0076459352858364
1769169337509,0.005706787109375,0.05755615234375,-1.00506591796875,-0.0638088062405586,-0.0026714168488979,-0.0050770500674843
1769169337519,0.0067596435546875,0.059844970703125,-1.0100860595703125,-0.0533183477818965,0.0091391699388623,-0.0062557654455304
1769169337530,0.005126953125,0.0626983642578125,-1.0135955810546875,-0.0393468737602233,0.0095455683767795,-0.0081245051696896
1769169337540,0.0022430419921875,0.0650634765625,-1.0198974609375,-0.0140910511836409,0.000524376402609,-0.013291303999722
1769169337550,0.004241943359375,0.0674591064453125,-1.02191162109375,0.0089410310611128,-0.0094211986288428,-0.0153720322996377
1769169337560,0.0048370361328125,0.0675048828125,-1.0119781494140625,0.0173305198550224,-0.0136556243523955,-0.0162418205291032
1769169337570,0.008453369140625,0.065185546875,-0.9980621337890624,0.0166468881070613,-0.0122385565191507,-0.0141722783446311
1769169337580,0.012481689453125,0.0632781982421875,-0.9909820556640624,0.0099612874910235,-0.0073732277378439,-0.0063447151333093
1769169337590,0.0164947509765625,0.06256103515625,-0.98284912109375,-0.0017651431262493,0.0063849287107586,0.0062576294876635
1769169337600,0.019775390625,0.0612030029296875,-0.977813720703125,-0.0165014788508415,0.0069990535266697,0.0075125112198293
1769169337610,0.0114288330078125,0.0608673095703125,-0.976806640625,-0.0326689966022968,0.0177028309553861,0.0079229045659303
1769169337620,0.0123443603515625,0.06158447265625,-0.9740753173828124,-0.0466093122959136,0.0142737440764904,0.0098979044705629
1769169337630,0.0096893310546875,0.0652618408203125,-0.9738311767578124,-0.0593980774283409,0.003720968728885,0.0049220542423427
1769169337640,0.0026702880859375,0.06878662109375,-0.9742889404296876,-0.0700185000896453,-0.0039254995062947,0.0037273601628839
1769169337650,0.005889892578125,0.0706787109375,-0.982452392578125,-0.0677364394068718,-0.0192061848938465,0.0027427896857261
1769169337660,0.007568359375,0.06890869140625,-0.9965362548828124,-0.0595381632447242,-0.02585956081748,0.0011659319279715
1769169337670,0.007293701171875,0.0634613037109375,-1.0034942626953125,-0.0518639981746673,-0.0225804094225168,-0.0009126652730628
1769169337680,0.0080108642578125,0.06805419921875,-1.0098876953125,-0.0290987621992826,-0.0104510430246591,-0.0024391892366111
1769169337690,0.0018310546875,0.079925537109375,-1.0274200439453125,0.0011904330458492,0.0004202468262519,-0.00560915004462
1769169337700,-0.000762939453125,0.0838165283203125,-1.029449462890625,0.0196272302418947,0.0077881482429802,-0.0060043628327548
1769169337710,-1.52587890625e-05,0.0800933837890625,-1.0135955810546875,0.0233018603175878,0.0148487212136387,-0.006695719435811
1769169337720,0.003692626953125,0.0721435546875,-0.9965362548828124,0.0120284333825111,0.0214267279952764,-0.0040650488808751
1769169337730,0.0084075927734375,0.066650390625,-0.9809417724609376,-0.0033611755352467,0.0198109894990921,-0.0026634274981915
1769169337740,0.01409912109375,0.0678558349609375,-0.97808837890625,-0.0204317718744277,0.0064698834903538,0.0014487595763057
1769169337751,0.01611328125,0.07159423828125,-0.9801483154296876,-0.033178724348545,-0.005871205125004,0.0017092167399823
1769169337761,0.0159454345703125,0.069793701171875,-0.9802703857421876,-0.0406166687607765,-0.0108499843627214,-0.0032429313287138
1769169337771,0.014617919921875,0.0678253173828125,-0.980224609375,-0.0531135499477386,-0.0079141156747937,-0.0031265511643141
1769169337781,0.0129547119140625,0.0659332275390625,-0.9800262451171876,-0.0615989156067371,0.0010250506456941,-0.0006998787284828
1769169337791,0.0126953125,0.066497802734375,-0.98834228515625,-0.0566398426890373,0.00855194311589,-0.0001414138532709
1769169337801,0.009490966796875,0.06549072265625,-1.00042724609375,-0.0502397343516349,0.0187859386205673,0.0004564658156596
1769169337811,0.006195068359375,0.0686492919921875,-1.0082244873046875,-0.0337078943848609,0.026316026225686,0.000909203197807
1769169337821,0.0055389404296875,0.069183349609375,-1.0208892822265625,-0.0073966635391116,0.0176833886653184,-0.002992061432451
1769169337831,0.002685546875,0.072509765625,-1.032501220703125,0.0202613286674022,0.0084898909553885,-0.0064733456820249
1769169337841,0.0024871826171875,0.0726318359375,-1.030517578125,0.0476170517504215,0.0065705510787665,-0.0070496536791324
1769169337851,0.0043487548828125,0.0720062255859375,-1.0282745361328125,0.0658985897898674,0.0044605284929275,-0.010057427920401
1769169337861,0.0056610107421875,0.0721435546875,-1.016998291015625,0.0700600445270538,0.0022799321450293,-0.0061764032579958
1769169337871,0.007049560546875,0.0712127685546875,-0.9949951171875,0.0589091219007968,0.0042842272669076,-0.0062357918359339
1769169337881,0.01287841796875,0.0688934326171875,-0.9782867431640624,0.0350277572870254,0.0056496299803256,-0.0009227853151969
1769169337891,0.013702392578125,0.0675048828125,-0.96197509765625,-0.0006900250446051,0.0097114834934473,0.0005930859479121
1769169337901,0.014312744140625,0.0661163330078125,-0.94842529296875,-0.0351286940276622,0.0044442829675972,0.0022429141681641
1769169337911,0.0181884765625,0.065399169921875,-0.9495849609375,-0.0686938464641571,-0.0002197107824031,0.0035467979032546
1769169337921,0.0145416259765625,0.0696868896484375,-0.9561767578125,-0.0900593176484108,-0.0010950918076559,0.0018487664638087
1769169337931,0.0111541748046875,0.071563720703125,-0.9762725830078124,-0.0881168097257614,-0.0114505272358655,-0.0030948594212532
1769169337941,0.0066375732421875,0.0767974853515625,-1.00238037109375,-0.0694539099931716,-0.0152111770585179,-0.0087420921772718
1769169337952,0.00299072265625,0.0786285400390625,-1.0218505859375,-0.037769217044115,-0.0122105935588479,-0.0132785206660628
1769169337962,-0.0004425048828125,0.078033447265625,-1.0369720458984375,-0.0005408879951573,-0.0025547703262418,-0.0159896183758974
1769169337972,0.001983642578125,0.0777435302734375,-1.0444488525390625,0.0354698449373245,0.0083375582471489,-0.0135451033711433
1769169337982,0.006011962890625,0.0738677978515625,-1.0396728515625,0.0629105195403099,0.0152324819937348,-0.0123125929385423
1769169337992,0.0100250244140625,0.070037841796875,-1.027435302734375,0.0749631896615028,0.0203313697129488,-0.008142614737153
1769169338002,0.0129852294921875,0.0646820068359375,-1.0083770751953125,0.0691433846950531,0.0250102784484624,0.0012301141396164
1769169338012,0.019805908203125,0.0565185546875,-0.9823760986328124,0.0436894223093986,0.0171182658523321,0.0106814065948128
1769169338022,0.0196380615234375,0.0574951171875,-0.957489013671875,0.008224107325077,0.0168271828442811,0.0072179655544459
1769169338032,0.00604248046875,0.0642547607421875,-0.9532012939453124,-0.023927703499794,0.0021076255943626,0.0023465112317353
1769169338042,0.0061798095703125,0.074920654296875,-0.959564208984375,-0.0381559059023857,-0.0096009615808725,-0.0134646762162446
1769169338052,-0.00262451171875,0.088470458984375,-0.9792022705078124,-0.0345230884850025,-0.0172157380729913,-0.0248877722769975
1769169338062,-0.007598876953125,0.0958251953125,-0.9918365478515624,-0.0258145537227392,-0.0220781378448009,-0.0269426684826612
1769169338072,0.0090484619140625,0.074981689453125,-0.9909515380859376,-0.0356075279414653,-0.0212813206017017,-0.0026607641484588
1769169338082,0.03204345703125,0.0563507080078125,-0.98516845703125,-0.0233111809939146,-0.0067665595561265,-0.0017632789677008
1769169338092,0.01068115234375,0.07110595703125,-1.00677490234375,0.0069266157224774,0.0060717407613992,-0.0067077036947011
1769169338102,0.0025177001953125,0.0808258056640625,-1.014862060546875,0.0251663401722908,0.0137397805228829,-0.006967095658183
1769169338112,0.0061187744140625,0.077880859375,-1.0072784423828125,0.03006655536592,0.0170740578323602,-0.0085721826180815
1769169338122,0.0105133056640625,0.07598876953125,-0.998046875,0.0199252385646104,0.0161246415227651,-0.0048887645825743
1769169338132,0.016448974609375,0.0742034912109375,-0.98626708984375,0.0086115980520844,0.0107402624562382,-0.0005467469454742
1769169338142,0.0134429931640625,0.0732879638671875,-0.9849395751953124,-0.0038131140172481,0.0056293900124728,-0.0012580773327499
1769169338152,0.00750732421875,0.07196044921875,-0.983184814453125,-0.0215119495987892,-0.0026035062037408,-0.0036059201229363
1769169338162,0.00689697265625,0.069122314453125,-0.978118896484375,-0.0409335829317569,-0.012662798166275,-0.0055998289026319
1769169338173,0.00726318359375,0.0677337646484375,-0.982666015625,-0.0523620061576366,-0.0209385715425014,-0.0037942056078463
1769169338183,0.004974365234375,0.0687713623046875,-0.989501953125,-0.0495334640145301,-0.0232043880969285,-0.0127661293372511
1769169338193,0.002410888671875,0.0696563720703125,-1.0015716552734375,-0.0399785749614238,-0.0160415507853031,-0.0155603177845478
1769169338203,0.00677490234375,0.071624755859375,-1.0117645263671875,-0.0215023625642061,-0.0075748288072645,-0.0151741588488221
1769169338213,0.008453369140625,0.0726165771484375,-1.019439697265625,0.00096699380083,0.0001510012370999,-0.0128982216119766
1769169338223,0.0093231201171875,0.0714263916015625,-1.02093505859375,0.021868547424674,0.0108025800436735,-0.0119216404855251
1769169338233,0.0113372802734375,0.0700531005859375,-1.014617919921875,0.0370706692337989,0.0097546260803937,-0.0046336338855326
1769169338243,0.0144805908203125,0.0698699951171875,-1.0076446533203125,0.0388118438422679,0.0042461440898478,-0.0055146077647805
1769169338253,0.013031005859375,0.06781005859375,-0.9945220947265624,0.0271163061261177,0.0072768214158713,-0.0033071134239435
1769169338263,0.010101318359375,0.0662384033203125,-0.98138427734375,0.0127821080386638,0.0028964539524167,-0.0053497580811381
1769169338273,0.01007080078125,0.065216064453125,-0.9774932861328124,-0.0010008158860728,0.0001043959127855,-0.0063620256260037
1769169338283,0.0071563720703125,0.0645599365234375,-0.975067138671875,-0.0139086246490478,-0.0055968994274735,-0.0089061427861452
1769169338293,0.0060882568359375,0.0662384033203125,-0.979461669921875,-0.0139754703268408,-0.0098941763862967,-0.0076864156872034
1769169338303,0.006317138671875,0.0703125,-0.98870849609375,-0.0076145101338624,-0.0133163379505276,-0.0062323296442627
1769169338313,0.0060577392578125,0.07269287109375,-0.9967498779296876,-0.0008727178792469,-0.0064557688310742,-0.0057508298195898
1769169338323,0.00634765625,0.07012939453125,-0.9970855712890624,0.0076206354424357,-0.0017526262672618,-0.0007952199084684
1769169338333,0.0140380859375,0.0604248046875,-0.9972381591796876,0.005412608385086,-0.0017507621087133,0.0075625786557793
1769169338343,0.0185089111328125,0.058319091796875,-0.99151611328125,4.926848123432137e-05,-0.0038687740452587,0.0059609534218907
1769169338353,0.0032806396484375,0.0669708251953125,-0.9901123046875,-0.0021763353142887,-0.0031049794051796,0.0020727382507175
1769169338363,9.1552734375e-05,0.0730438232421875,-0.9903717041015624,-0.0107016460970044,-0.0051084756851196,-0.0014349111588671
1769169338374,-0.0004425048828125,0.0757904052734375,-0.9857177734375,-0.0225484520196914,-0.0173805877566337,-0.0083679184317588
1769169338383,-0.002166748046875,0.0770416259765625,-0.983795166015625,-0.0362221859395504,-0.0261378604918718,-0.0140018360689282
1769169338394,-0.000396728515625,0.0726470947265625,-0.9830780029296876,-0.0478516779839992,-0.0363098047673702,-0.0234145112335681
1769169338404,0.0037384033203125,0.073150634765625,-0.98602294921875,-0.0525540225207805,-0.0376554988324642,-0.0209380388259887
1769169338414,0.0087432861328125,0.076416015625,-0.9966888427734376,-0.0448076836764812,-0.0417365282773971,-0.0225921273231506
1769169338424,0.009185791015625,0.0737457275390625,-1.0074462890625,-0.0347651727497577,-0.0358123257756233,-0.0225575063377618
1769169338434,0.0095672607421875,0.07183837890625,-1.00732421875,-0.022945262491703,-0.0160556659102439,-0.0220786705613136
1769169338444,0.009979248046875,0.071533203125,-1.0087432861328125,-0.0098739359527826,0.0029156287200748,-0.0255823247134685
1769169338454,0.0059356689453125,0.0698089599609375,-1.0084381103515625,0.0026093651540577,0.0192565191537141,-0.0261264089494943
1769169338464,0.0056304931640625,0.0679168701171875,-1.0081024169921875,0.015877766534686,0.0355944782495498,-0.0305794812738895
1769169338474,0.0040435791015625,0.068084716796875,-1.0058441162109375,0.0292063541710376,0.046573095023632,-0.0283019449561834
1769169338484,0.0057373046875,0.0677337646484375,-1.0055694580078125,0.0393596552312374,0.0451184771955013,-0.0313406102359294
1769169338494,0.0042572021484375,0.0669097900390625,-0.99871826171875,0.0345542468130588,0.0438401587307453,-0.030386134982109
1769169338504,0.0040435791015625,0.069000244140625,-0.9871978759765624,0.0233860164880752,0.0352674424648284,-0.0300239454954862
1769169338514,0.0038299560546875,0.0689697265625,-0.9847412109375,0.0084917554631829,0.0225260816514492,-0.0309238266199827
1769169338524,0.0084381103515625,0.0713653564453125,-0.9860076904296876,0.0019598202779889,0.013725665397942,-0.0270009916275739
1769169338534,0.01068115234375,0.0709686279296875,-0.9939117431640624,0.0036115127149969,0.0070176958106458,-0.0249335784465074
1769169338544,0.011566162109375,0.0655364990234375,-1.0010528564453125,0.0088978875428438,0.0015190670965239,-0.0219673495739698
1769169338555,0.011932373046875,0.0591583251953125,-1.0025634765625,0.0174602158367633,-0.0051769185811281,-0.0191502589732408
1769169338564,0.0128631591796875,0.060028076171875,-1.0046844482421875,0.0215889159590005,-0.0045124599710106,-0.0209468267858028
1769169338574,0.0026702880859375,0.0611724853515625,-1.0005340576171875,0.0230632405728101,-0.0053231264464557,-0.020566526800394
1769169338584,0.0042266845703125,0.0619049072265625,-0.998992919921875,0.0273842196911573,0.0014463628176599,-0.0218885205686092
1769169338595,0.0044097900390625,0.0613861083984375,-0.998321533203125,0.0310625787824392,0.0131818484514951,-0.0224509797990322
1769169338605,0.004791259765625,0.0611419677734375,-0.9990234375,0.0366826467216014,0.0237428806722164,-0.021736454218626
1769169338615,0.0067291259765625,0.061798095703125,-1.00177001953125,0.0445104762911796,0.026851586997509,-0.0203673224896192
1769169338625,0.0043792724609375,0.06890869140625,-1.009033203125,0.0565413050353527,0.0192107129842042,-0.0202964823693037
1769169338635,0.001800537109375,0.07244873046875,-1.0060882568359375,0.0585464015603065,0.0126990173012018,-0.0248837787657976
1769169338645,0.0038909912109375,0.07208251953125,-0.99444580078125,0.0463946610689163,0.0059572248719632,-0.0260822009295225
1769169338655,0.0086517333984375,0.0704193115234375,-0.9817657470703124,0.0224262122064828,0.0114678377285599,-0.0240390226244926
1769169338665,0.00836181640625,0.0695343017578125,-0.971099853515625,0.0025952504947781,0.0107367997989058,-0.01944001019001
1769169338675,0.0110931396484375,0.0711669921875,-0.97491455078125,-0.0105519769713282,0.0124625284224748,-0.0160428825765848
1769169338685,0.0149078369140625,0.07025146484375,-0.981781005859375,-0.0165086686611175,0.0126859676092863,-0.0137211382389068
1769169338695,0.0108642578125,0.069061279296875,-0.9851837158203124,-0.014576812274754,0.0195220354944467,-0.015231417492032
1769169338705,0.0098114013671875,0.0613250732421875,-0.991058349609375,-0.0131565481424331,0.0304103698581457,-0.004800081718713
1769169338715,0.0167083740234375,0.055694580078125,-0.9991607666015624,0.0050149988383054,0.0285054109990596,-0.0061111557297408
1769169338725,0.007080078125,0.0579376220703125,-1.0163421630859375,0.0211492273956537,0.024917334318161,-0.0054006241261959
1769169338735,0.0084686279296875,0.060699462890625,-1.0211181640625,0.0503081791102886,0.0225812084972858,-0.0157435424625873
1769169338745,-0.003143310546875,0.0735015869140625,-1.0251007080078125,0.0761501640081405,0.0252459682524204,-0.0239817649126052
1769169338755,-0.004302978515625,0.076995849609375,-1.0181884765625,0.0756249874830246,0.0202690530568361,-0.0159589927643537
1769169338765,0.01287841796875,0.0543212890625,-0.985504150390625,0.0459120981395244,0.0201675854623317,-0.0034615767654031
1769169338775,0.02264404296875,0.041229248046875,-0.9590301513671876,0.0195747669786214,0.0198285654187202,-0.0055260593071579
1769169338785,0.007080078125,0.0591583251953125,-0.9669647216796876,0.0207034144550561,0.0128372348845005,-0.0267173647880554
1769169338795,-0.007904052734375,0.0825042724609375,-0.9783477783203124,0.0126215191558003,0.0061337924562394,-0.0333337225019931
1769169338805,0.0039520263671875,0.0820159912109375,-0.9727630615234376,-0.0102451806887984,-0.0075154406949877,-0.0296034328639507
1769169338816,0.015228271484375,0.0716552734375,-0.9676513671875,-0.038352183997631,-0.0159507375210523,-0.0289038196206092
1769169338826,0.010406494140625,0.068389892578125,-0.968536376953125,-0.0489118807017803,-0.0052155344747006,-0.0299310013651847
1769169338836,0.0106201171875,0.0663604736328125,-0.986358642578125,-0.0451941080391407,0.012139487080276,-0.0272222999483346
1769169338846,0.017181396484375,0.05908203125,-1.00103759765625,-0.0389497950673103,0.0380680225789547,-0.0126976855099201
1769169338856,0.022064208984375,0.0525054931640625,-1.00787353515625,-0.0261698178946971,0.0532975755631923,-0.0021315941121429
1769169338866,0.0190887451171875,0.0552215576171875,-1.021148681640625,-0.0027632960118353,0.0509260296821594,-0.002035453915596
1769169338876,0.009552001953125,0.059326171875,-1.02838134765625,0.0173624791204929,0.04496880620718,-0.0030192257836461
1769169338886,0.002227783203125,0.06365966796875,-1.028076171875,0.0446673370897769,0.026551716029644,-0.0104268081486225
1769169338896,0.004058837890625,0.067718505859375,-1.0303497314453125,0.0656674280762672,0.008502141572535,-0.0127083379775285
1769169338906,0.005157470703125,0.0662841796875,-1.018524169921875,0.0725144147872924,-0.0027936559636145,-0.0151885403320193
1769169338916,0.009979248046875,0.0631866455078125,-1.0005645751953125,0.0641869753599166,-0.0039547942578792,-0.0138998366892337
1769169338926,0.0124969482421875,0.0611572265625,-0.9813232421875,0.0450662784278392,-0.0084944181144237,-0.011354386806488
1769169338936,0.0139312744140625,0.0576019287109375,-0.964996337890625,0.0130934314802289,-0.0024194817524403,-0.0067963870242238
1769169338946,0.0178985595703125,0.055938720703125,-0.9556884765625,-0.0157936103641986,0.0074829501099884,-0.0019345202017575
1769169338956,0.020355224609375,0.054931640625,-0.9595794677734376,-0.0335379876196384,0.0183659568428993,0.0058653457090258
1769169338966,0.02105712890625,0.056884765625,-0.97265625,-0.0367156714200973,0.0209111403673887,0.0079474048689007
1769169338976,0.01483154296875,0.05950927734375,-0.989593505859375,-0.0268571805208921,0.0182969812303781,0.005388640332967
1769169338986,0.0087890625,0.0623931884765625,-1.0031890869140625,-0.009329586289823,0.013146162033081,-0.002486593555659
1769169338996,0.0010528564453125,0.063629150390625,-1.0127410888671875,0.011356784030795,0.0017808558186516,-0.0094345146790146
1769169339007,0.0003509521484375,0.0645599365234375,-1.0127716064453125,0.0199830289930105,-0.0002564624010119,-0.014559768140316
1769169339017,-0.00018310546875,0.061004638671875,-1.0061492919921875,0.023830497637391,-0.0039500002749264,-0.0145547082647681
1769169339027,0.0106353759765625,0.0505828857421875,-0.99981689453125,0.0129669308662414,-0.0017763284267857,-0.0063202138990163
1769169339037,0.0189056396484375,0.0514984130859375,-0.9930572509765624,0.0132087459787726,-0.0019547601696103,-0.0061420481652021
1769169339047,0.0078582763671875,0.061492919921875,-0.9981536865234376,0.0157747026532888,0.0065143583342432,-0.0101804658770561
1769169339057,-0.000274658203125,0.068603515625,-0.9945831298828124,0.0159531328827142,0.0079439431428909,-0.0166700575500726
1769169339067,0.0045166015625,0.0654449462890625,-0.9885711669921876,0.0064786719158291,0.0079154474660754,-0.0136321885511279
1769169339077,0.0149383544921875,0.0579986572265625,-0.981842041015625,-0.002084988867864,0.0028200212400406,-0.0090121366083621
1769169339087,0.0175933837890625,0.0589752197265625,-0.98956298828125,0.0024024376180022,-0.0065457834862172,-0.0058608185499906
1769169339097,0.012542724609375,0.059478759765625,-0.9984130859375,0.0064019728451967,-0.0068611018359661,-0.0068653631024062
1769169339107,0.0098724365234375,0.056488037109375,-0.995361328125,0.0060781324282288,-0.0123948846012353,-0.0107969874516129
1769169339117,0.0087432861328125,0.055084228515625,-0.9948577880859376,0.0057950383052229,-0.0216528307646513,-0.0130553478375077
1769169339127,0.0093536376953125,0.0525360107421875,-0.9951171875,0.0045694517903029,-0.028080902993679,-0.0120875556021928
1769169339137,0.007843017578125,0.0518341064453125,-0.9945068359375,0.0003600593772716,-0.0256651490926742,-0.0127538787201046
1769169339147,0.0034332275390625,0.0539398193359375,-0.9913330078125,0.0008327704854309,-0.0197060611099004,-0.0160367563366889
1769169339157,0.0023193359375,0.0580902099609375,-0.99456787109375,0.0034314829390496,-0.0220720134675502,-0.017421867698431
1769169339167,0.003204345703125,0.0598297119140625,-0.9952850341796876,0.0020029633305966,-0.0155187724158167,-0.0209577456116676
1769169339177,0.00439453125,0.061614990234375,-0.9919586181640624,0.0063164853490889,-0.0134215326979756,-0.0195124484598636
1769169339187,0.01287841796875,0.0615081787109375,-0.9925689697265624,0.0019249328179284,-0.0123711824417114,-0.0155888134613633
1769169339197,0.017333984375,0.062713623046875,-0.9915618896484376,-0.0001185106666525,-0.012991165742278,-0.0117922108620405
1769169339207,0.013031005859375,0.060394287109375,-0.9884796142578124,-0.005633118096739,-0.0105541069060564,-0.0089069418609142
1769169339217,0.014801025390625,0.059722900390625,-0.988494873046875,-0.0077612502500414,-0.0088888322934508,-0.0043231095187366
1769169339228,0.013946533203125,0.0598907470703125,-0.98944091796875,-0.0121722435578703,-0.0051385695114731,-0.0051865060813724
1769169339238,0.0080413818359375,0.06036376953125,-0.99346923828125,-0.0061620222404599,-0.0054466971196234,-0.0059718722477555
1769169339248,0.004364013671875,0.0614471435546875,-1.003082275390625,0.0037750308401882,-0.0023078953381627,-0.0085106641054153
1769169339258,0.00726318359375,0.0575408935546875,-1.00543212890625,0.011249991133809,0.003042128868401,-0.0061811967752873
1769169339268,0.008331298828125,0.0582733154296875,-1.0011444091796875,0.0129940956830978,0.0076355491764843,-0.0021691448055207
1769169339278,0.0099029541015625,0.059967041015625,-0.9952239990234376,0.0094310520216822,0.0072232917882502,-0.0026881948579102
1769169339288,0.007415771484375,0.0623931884765625,-0.989166259765625,0.0029702235478907,0.0036703685764223,-0.0020929782185703
1769169339298,0.0037841796875,0.0638580322265625,-0.987030029296875,0.0037060549948364,-0.002583266235888,-0.0046317698433995
1769169339308,0.0074462890625,0.0645294189453125,-0.9898529052734376,-0.0015981629258021,-0.0035092474427074,-0.0056299227289855
1769169339318,0.0095367431640625,0.0632476806640625,-0.9871063232421876,-0.0103977797552943,0.000662594451569,-0.0056088836863636
1769169339328,0.0105743408203125,0.0596466064453125,-0.9838104248046876,-0.0170865748077631,-0.001955292886123,-0.0034786208998411
1769169339338,0.012237548828125,0.0593109130859375,-0.985809326171875,-0.0282638613134622,-0.0057170079089701,-0.0007315703551284
1769169339348,0.00885009765625,0.0582122802734375,-0.9854888916015624,-0.0347989946603775,-0.0138827925547957,-0.0030778152868151
1769169339358,0.0095672607421875,0.055877685546875,-0.9900054931640624,-0.0346557162702083,-0.0148553783074021,0.0032019184436649
1769169339368,0.015838623046875,0.049957275390625,-0.9982452392578124,-0.0252630114555358,-0.0140971764922142,0.0093759251758456
1769169339378,0.010650634765625,0.054901123046875,-1.0091400146484375,-0.0020421119406819,-0.0068877334706485,0.0115756960585713
1769169339388,0.0032196044921875,0.0609283447265625,-1.0203094482421875,0.019201124086976,-0.0093772560358047,0.0096068205311894
1769169339398,0.002288818359375,0.0626068115234375,-1.018524169921875,0.037128459662199,0.0005456816870719,0.0099586248397827
1769169339408,-0.000274658203125,0.064788818359375,-1.0056304931640625,0.0266976580023765,-0.0027100327424705,0.0165076032280921
1769169339418,0.0058746337890625,0.057098388671875,-0.9779052734375,0.0038107172586023,-0.0200283024460077,0.0130026172846555
1769169339428,0.0031890869140625,0.0533447265625,-0.9610748291015624,-0.0285179279744625,-0.0305200926959514,0.0059162122197449
1769169339438,0.00360107421875,0.0515289306640625,-0.9517059326171876,-0.0569639503955841,-0.035914059728384,0.0038250982761383
1769169339449,0.005218505859375,0.0646514892578125,-0.96246337890625,-0.0552637875080108,-0.034820832312107,-0.0034253578633069
1769169339459,-0.0056915283203125,0.0852203369140625,-0.986419677734375,-0.058081679046154,-0.0348194986581802,-0.0067146280780434
1769169339469,-0.00146484375,0.08172607421875,-0.98284912109375,-0.0794916301965713,-0.0312519297003746,-0.0059503009542822
1769169339479,0.0062255859375,0.0710296630859375,-0.9772796630859376,-0.0973009839653968,-0.0224584378302097,0.001373924780637
1769169339489,0.01171875,0.0652008056640625,-0.987548828125,-0.0918231308460235,-0.0194938071072101,0.0076355491764843
1769169339499,0.011627197265625,0.0630035400390625,-1.0040130615234375,-0.0764295235276222,-0.0163363628089427,0.008970059454441
1769169339509,0.008636474609375,0.0574798583984375,-1.013580322265625,-0.0614132918417453,-0.0108238859102129,0.0096893785521388
1769169339519,0.0059661865234375,0.055633544921875,-1.0147705078125,-0.0431922115385532,-0.0141776045784354,0.009066198952496
1769169339529,0.00048828125,0.0599517822265625,-1.0192413330078125,-0.0301312711089849,-0.0186325404793024,0.0073561836034059
1769169339539,-0.004150390625,0.0624542236328125,-1.016204833984375,-0.0215803924947977,-0.0230041183531284,0.0042948797345161
1769169339549,-0.0067596435546875,0.0633697509765625,-1.00921630859375,-0.0192788895219564,-0.0223079677671194,0.0004588626616168
1769169339559,-0.00689697265625,0.0662384033203125,-1.0027313232421875,-0.0171723291277885,-0.0191039200872182,0.001080977031961
1769169339569,-0.0031585693359375,0.0654449462890625,-0.995513916015625,-0.0218232739716768,-0.0097924433648586,0.0044267061166465
1769169339579,-0.000640869140625,0.0663604736328125,-0.9864654541015624,-0.0349971316754817,-0.0006332996999844,0.0054115434177219
1769169339589,0.0024871826171875,0.06671142578125,-0.977508544921875,-0.0483259856700897,0.0006735134520567,0.0100776674225926
1769169339599,0.008392333984375,0.06500244140625,-0.9781036376953124,-0.0548424758017063,-0.0129448268562555,0.0129251200705766
1769169339609,0.009033203125,0.0660400390625,-0.9834136962890624,-0.0618950575590133,-0.0334026962518692,0.0101567637175321
1769169339619,0.0030517578125,0.0695648193359375,-0.9829864501953124,-0.0688086226582527,-0.0379950515925884,0.0039476035162806
1769169339629,0.0013275146484375,0.06976318359375,-0.9799041748046876,-0.0730656906962394,-0.0444982275366783,0.0029840720817446
1769169339639,0.0026702880859375,0.067626953125,-0.983184814453125,-0.0749445483088493,-0.0432089902460575,0.0041438788175582
1769169339649,0.0048370361328125,0.0699920654296875,-0.985931396484375,-0.0751759782433509,-0.034262366592884,0.0062022358179092
1769169339660,0.0027923583984375,0.0741424560546875,-0.9917449951171876,-0.0680677369236946,-0.027705930173397,0.0069660302251577
1769169339670,0.0005035400390625,0.0711212158203125,-1.0015411376953125,-0.057850781828165,-0.0245407633483409,0.0121227093040943
1769169339680,0.010345458984375,0.0608062744140625,-1.0069122314453125,-0.0563572831451892,-0.0207542814314365,0.0196876842528581
1769169339690,0.014556884765625,0.06146240234375,-1.0085601806640625,-0.0400997474789619,-0.008526642806828,0.0141038345173001
1769169339700,-0.001800537109375,0.0743560791015625,-1.025634765625,-0.0042498726397752,0.0034876756835728,0.0119559951126575
1769169339710,-0.0050048828125,0.0811614990234375,-1.0402984619140625,0.0278023369610309,0.0064650899730622,0.0007382282637991
1769169339720,-0.008575439453125,0.0770263671875,-1.0342254638671875,0.0406707301735878,0.0007555388147011,-0.0074829501099884
1769169339730,-0.005645751953125,0.0712738037109375,-1.010223388671875,0.0333555601537227,0.0024359934031963,-0.0139973079785704
1769169339740,-0.0016326904296875,0.068878173828125,-0.993194580078125,0.019946277141571,-0.0045694517903029,-0.0128899654373526
1769169339750,0.002685546875,0.071258544921875,-0.9862213134765624,0.0052426988258957,-0.007653126027435,-0.0106995161622762
1769169339760,0.0078582763671875,0.0728302001953125,-0.979461669921875,-0.010457701049745,-0.0052970275282859,-0.0061423145234584
1769169339770,0.0110626220703125,0.072418212890625,-0.9806365966796876,-0.0163344983011484,-0.0029052423778921,0.0003603257064241
1769169339780,0.0146484375,0.0724334716796875,-0.9908447265625,-0.0097871171310544,0.0031523837242275,0.0098209390416741
1769169339790,0.0170135498046875,0.06951904296875,-1.001983642578125,0.0039169774390757,0.0101977763697505,0.0154135776683688
1769169339800,0.0110015869140625,0.067901611328125,-1.011962890625,0.0242547392845153,0.0246422290802001,0.0164231825619936
1769169339810,0.009674072265625,0.064788818359375,-1.0175933837890625,0.0452172793447971,0.0334900505840778,0.0223535094410181
1769169339820,0.008758544921875,0.0647735595703125,-1.0205230712890625,0.0593591965734958,0.0352639816701412,0.0222552381455898
1769169339830,0.00555419921875,0.065704345703125,-1.012664794921875,0.060144830495119,0.0307427328079938,0.0207665301859378
1769169339840,0.0006256103515625,0.0661163330078125,-0.9990081787109376,0.0542901344597339,0.0149760199710726,0.018792862072587
1769169339850,-0.0007171630859375,0.06787109375,-0.989105224609375,0.0330301225185394,-0.0005448827287182,0.0162937529385089
1769169339861,0.001251220703125,0.06939697265625,-0.9694061279296876,0.0046813045628368,-0.0144316693767905,0.019243735820055
1769169339870,0.0072784423828125,0.069366455078125,-0.959228515625,-0.020158264786005,-0.0293112825602293,0.0212986301630735
1769169339881,0.00823974609375,0.068817138671875,-0.9614715576171876,-0.0452705435454845,-0.0276175122708082,0.0239146538078784
1769169339891,0.0073089599609375,0.068756103515625,-0.9655914306640624,-0.0556733831763267,-0.0166825726628303,0.0252917744219303
1769169339901,0.007904052734375,0.06964111328125,-0.982757568359375,-0.0513255037367343,-0.008158859796822,0.0284686591476202
1769169339911,0.0050048828125,0.0709991455078125,-0.9996490478515624,-0.0286726579070091,0.0042256377637386,0.0258829966187477
1769169339921,0.0034942626953125,0.071075439453125,-1.0178985595703125,-0.0008692557457834,0.0085415560752153,0.0278271045535802
1769169339931,0.0048980712890625,0.0707855224609375,-1.0272674560546875,0.0272081848233938,0.0079575255513191,0.02817970700562
1769169339941,-7.62939453125e-05,0.0693206787109375,-1.024383544921875,0.0415844619274139,0.0102771390229463,0.0253053568303585
1769169339951,-0.00396728515625,0.0671539306640625,-1.01129150390625,0.0425597093999385,0.0075593828223645,0.0239820312708616
1769169339961,-0.0031890869140625,0.06439208984375,-1.00164794921875,0.0361161939799785,0.007220628671348,0.0221084970980882
1769169339971,-0.006317138671875,0.06707763671875,-0.9936981201171876,0.0255660805851221,0.0075950692407786,0.016146745532751
1769169339981,-0.0076904296875,0.0711517333984375,-0.9912872314453124,0.0200735758990049,0.0023108248133212,0.0116683738306164
1769169339991,-0.0056610107421875,0.074676513671875,-0.988555908203125,0.0147296776995062,0.0024884575977921,0.0095974998548626
1769169340001,-0.0065765380859375,0.0749053955078125,-0.98516845703125,0.0059031629934906,-0.0006575344596058,0.0012136024888604
1769169340011,-0.006103515625,0.074462890625,-0.9821319580078124,-0.0053068809211254,-0.0072153024375438,-0.0006916229031048
1769169340021,-0.000762939453125,0.06915283203125,-0.9788818359375,-0.0182181522250175,-0.0081415493041276,-0.0043532028794288
1769169340031,-0.0001678466796875,0.067901611328125,-0.9751434326171876,-0.028971729800105,-0.0002157160488422,-0.0014181332662701
1769169340041,-0.0006866455078125,0.0677032470703125,-0.9810333251953124,-0.0259128231555223,0.0077412766404449,-0.0013712616637349
1769169340051,0.0032501220703125,0.0595855712890625,-0.995758056640625,-0.0248377062380313,0.0132556175813078,0.009052351117134
1769169340061,0.0109710693359375,0.0547027587890625,-1.0036468505859375,-0.0108494516462087,0.0156833548098802,0.005984921939671
1769169340072,-0.004486083984375,0.0630340576171875,-1.0177764892578125,0.0107881994917988,0.0123248435556888,-0.0003664509567897
1769169340082,-0.0045928955078125,0.0667572021484375,-1.0229644775390625,0.0328556858003139,0.0097751328721642,-0.0096212020143866
1769169340092,-0.017303466796875,0.0783233642578125,-1.0190277099609375,0.0483773872256279,0.0103125581517815,-0.0249343775212764
1769169340102,-0.021575927734375,0.0857696533203125,-1.0064239501953125,0.0458899922668933,0.0100153498351573,-0.0199899524450302
1769169340112,0.0073699951171875,0.063232421875,-0.982513427734375,0.0164777766913175,0.0040543964132666,0.0031499869655817
1769169340122,0.026519775390625,0.0468292236328125,-0.9611053466796876,-0.0116015281528234,-0.0018588864477351,0.0072565814480185
1769169340132,0.0029144287109375,0.0636138916015625,-0.9614715576171876,-0.0226893331855535,0.0050456249155104,-0.0049777142703533
1769169340142,-0.010986328125,0.076171875,-0.9734344482421876,-0.0308862775564193,0.0012239888310432,-0.0120500046759843
1769169340152,-0.00299072265625,0.073516845703125,-0.977294921875,-0.0455562993884086,-0.0042932820506393,-0.0157366190105676
1769169340162,0.0007476806640625,0.0705718994140625,-0.9815673828125,-0.0511425472795963,0.0003472761891316,-0.012687299400568
1769169340172,0.0068206787109375,0.0688323974609375,-0.9969635009765624,-0.0373891852796077,0.0042810314334928,-0.0050024818629026
1769169340182,0.0068817138671875,0.0702056884765625,-1.0185089111328125,-0.0126119321212172,0.0089791137725114,-0.0007912251749075
1769169340192,0.0038299560546875,0.0677642822265625,-1.025970458984375,0.0054743937216699,0.0124364299699664,-0.0009779128013178
1769169340202,0.0018310546875,0.062408447265625,-1.019378662109375,0.0201971475034952,0.0100121544674038,-0.0006258428329601
1769169340212,-0.0007781982421875,0.0606536865234375,-1.012298583984375,0.0246741864830255,-0.0019760655704885,-0.0038197718095034
1769169340222,-0.0037384033203125,0.0637054443359375,-1.0046539306640625,0.0211801193654537,-0.0057375142350792,-0.0046173888258636
1769169340232,-0.0020599365234375,0.063995361328125,-0.993743896484375,0.0145762795582413,-0.0124188531190156,-0.0031470574904233
1769169340242,0.0026702880859375,0.06427001953125,-0.9851531982421876,0.0032176312524825,-0.0128044784069061,-0.0026117621455341
1769169340252,7.62939453125e-05,0.068084716796875,-0.976226806640625,-0.0097013628110289,-0.0144670894369483,-0.0050014164298772
1769169340262,-0.0009613037109375,0.0690460205078125,-0.9698333740234376,-0.0239149201661348,-0.0100979078561067,-0.0062112906016409
1769169340272,0.0001220703125,0.068389892578125,-0.9693450927734376,-0.0356597267091274,-0.00827550701797,-0.003695135936141
1769169340282,0.0009613037109375,0.068603515625,-0.9764251708984376,-0.039538886398077,-0.0042962115257978,-0.0027278759516775
1769169340293,0.001068115234375,0.0688018798828125,-0.985626220703125,-0.0367516241967678,-0.0016663399292156,-0.0005347627447918
1769169340303,0.002288818359375,0.0678558349609375,-0.9933013916015624,-0.0292542912065982,-0.0030890004709362,-0.0014532869681715
1769169340313,0.0011444091796875,0.0659027099609375,-0.99884033203125,-0.0225657634437084,0.0022013690322637,-0.0008993495139293
1769169340323,-0.0011749267578125,0.0642547607421875,-0.9990386962890624,-0.0136566897854208,0.0042618564330041,0.0004338289436418
1769169340333,-0.0028839111328125,0.066802978515625,-0.9999542236328124,-0.0093895066529512,0.0063729444518685,0.004081028047949
1769169340343,-0.001434326171875,0.0664215087890625,-0.998809814453125,-0.0031686290167272,0.0067425910383462,0.0050448258407413
1769169340353,-0.0038604736328125,0.0681610107421875,-0.99951171875,0.0033526534680277,0.0066027753055095,0.0094544878229498
1769169340363,-0.003021240234375,0.0670928955078125,-0.9973602294921876,0.0020162791479378,0.000891892646905,0.0105706192553043
1769169340373,-0.0013580322265625,0.0634307861328125,-0.9895477294921876,-0.0012535499408841,-0.0129067441448569,0.0095527591183781
1769169340383,0.0021820068359375,0.059783935546875,-0.988616943359375,-0.0114803547039628,-0.0239434167742729,0.0101005714386701
1769169340393,-0.000152587890625,0.0677947998046875,-0.9879150390625,-0.0147986533120274,-0.0266478564590215,0.0032402679789811
1769169340403,-0.00958251953125,0.0781707763671875,-0.9928436279296876,-0.0206783805042505,-0.0181446485221385,-0.0022024342324584
1769169340413,-0.0069732666015625,0.077728271484375,-0.98779296875,-0.0336487740278244,-0.0108542451635003,-0.0011667308863252
1769169340423,-0.0045013427734375,0.0749969482421875,-0.9847412109375,-0.0393079929053783,-0.0030519824940711,-0.0051657333970069
1769169340433,-0.0041961669921875,0.0714111328125,-0.9907684326171876,-0.0395639203488826,0.0039835562929511,-0.0054221958853304
1769169340443,-0.00030517578125,0.0703887939453125,-1.000091552734375,-0.0302860010415315,0.0147941261529922,-0.0043020704761147
1769169340453,0.000762939453125,0.07061767578125,-1.014434814453125,-0.0048120655119419,0.0065678879618644,-0.0030895331874489
1769169340464,0.000701904296875,0.070098876953125,-1.0295562744140625,0.0156061239540576,0.0110808806493878,-0.0054203318431973
1769169340473,-0.00164794921875,0.0680694580078125,-1.0206451416015625,0.0300886593759059,0.0084757767617702,-0.0069868029095232
1769169340483,-0.003631591796875,0.064300537109375,-1.0166168212890625,0.0405716598033905,0.0076667079702019,-0.0091519532725214
1769169340493,-0.002593994140625,0.0611572265625,-1.009246826171875,0.0396675169467926,0.0147520480677485,-0.0047793090343475
1769169340504,0.002044677734375,0.0609588623046875,-0.9949798583984376,0.0333132147789001,0.014471617527306,-0.0021595573052763
1769169340514,-0.0014495849609375,0.0620269775390625,-0.98516845703125,0.0161661859601736,0.0138180777430534,-0.0028863339684903
1769169340524,-0.0015106201171875,0.0673828125,-0.9773101806640624,0.0038253646343946,0.0062187472358345,-0.0020240023732185
1769169340534,4.57763671875e-05,0.06884765625,-0.980010986328125,-0.0028365328907966,0.0012759204255416,-0.0055367117747664
1769169340544,-0.0008697509765625,0.0688323974609375,-0.9836578369140624,-0.0076829534955322,0.0051473579369485,-0.0063220779411494
1769169340554,-0.0018463134765625,0.0680084228515625,-0.9887237548828124,-0.0063724117353558,0.0056341835297644,-0.0048179244622588
1769169340564,-0.0014495849609375,0.07012939453125,-0.995635986328125,-3.728425554072601e-06,0.0083737773820757,-0.007815845310688
1769169340574,-0.0024871826171875,0.0705108642578125,-0.9987945556640624,0.0093663372099399,0.0156689751893281,-0.0146649628877639
1769169340584,-0.000579833984375,0.0700225830078125,-1.00164794921875,0.0160894878208637,0.0166575405746698,-0.0116952722892165
1769169340594,0.0037994384765625,0.070281982421875,-1.0037841796875,0.0247586090117692,0.0166929606348276,-0.0064863949082791
1769169340604,0.006500244140625,0.0682525634765625,-0.9990692138671876,0.0217505693435668,0.0166287776082754,-0.0046882289461791
1769169340614,0.0043487548828125,0.0638580322265625,-0.9914398193359376,0.0211026221513748,0.0099197421222925,-0.0027108315844088
1769169340624,0.005462646484375,0.064056396484375,-0.986480712890625,0.0107858022674918,0.0081886872649192,0.0023438481148332
1769169340634,0.0050811767578125,0.0636138916015625,-0.981292724609375,-0.0044432180002331,0.0084528736770153,0.0027342673856765
1769169340644,0.0048828125,0.0633087158203125,-0.9788055419921876,-0.014339524321258,-0.0010133327450603,0.0015771239995956
1769169340654,0.0010528564453125,0.065826416015625,-0.97955322265625,-0.0294556263834238,-0.0074928035028278,-0.0056560216471552
1769169340664,-0.00653076171875,0.0707550048828125,-0.9807586669921876,-0.0360560044646263,-0.0095231980085372,-0.0109256180003285
1769169340674,-0.0047454833984375,0.0724639892578125,-0.989471435546875,-0.0347262881696224,-0.0105304047465324,-0.0133799873292446
1769169340684,-0.0003662109375,0.071533203125,-0.999359130859375,-0.0239343605935573,-0.0037060549948364,-0.0137586891651153
1769169340694,9.1552734375e-05,0.0706787109375,-1.0035400390625,-0.0203518774360418,0.0040615871548652,-0.0120593262836337
1769169340704,0.0016632080078125,0.0688629150390625,-1.002532958984375,-0.0127810426056385,0.0115165738388895,-0.0106068374589085
1769169340715,0.0035247802734375,0.0686492919921875,-1.0057220458984375,-0.0066773439757525,0.0198413487523794,-0.0019281286513432
1769169340725,0.0053253173828125,0.0673370361328125,-1.0081329345703125,0.0002940129779744,0.0222539063543081,0.0010487528052181
1769169340735,0.0054931640625,0.067596435546875,-1.0099945068359375,0.0094193341210484,0.0159938801079988,0.0049281795509159
1769169340745,0.0026397705078125,0.064361572265625,-1.0072021484375,0.0128976888954639,0.0079886838793754,0.0044171190820634
1769169340755,0.0025634765625,0.058135986328125,-0.9940338134765624,0.0041087251156568,-0.0002093244547722,0.0009105347562581
1769169340765,-0.00213623046875,0.06292724609375,-0.985137939453125,-0.0047449539415538,-0.0047864993102848,-0.0028690234757959
1769169340775,-0.005340576171875,0.0677337646484375,-0.9839019775390624,-0.0177446417510509,-0.0075410068966448,-0.011356784030795
1769169340785,-0.0038604736328125,0.0735015869140625,-0.977325439453125,-0.0281677227467298,-0.0027355989441275,-0.0156585872173309
1769169340795,-0.009765625,0.085662841796875,-0.97991943359375,-0.0272444039583206,0.0040341564454138,-0.0177044291049242
1769169340805,0.0012664794921875,0.0733795166015625,-0.9883575439453124,-0.0289810504764318,0.0095769930630922,-0.0003992078418377
1769169340815,0.022430419921875,0.0541229248046875,-0.9884796142578124,-0.0268497243523597,0.0198586601763963,0.0112934010103344
1769169340825,0.01123046875,0.0606231689453125,-1.002838134765625,0.0038994003552943,0.0351627804338932,-0.0004415521107148
1769169340835,-0.00958251953125,0.0746917724609375,-1.0241241455078125,0.0305717568844556,0.0352064557373523,-0.00663872808218
1769169340845,-0.0068511962890625,0.07415771484375,-1.02301025390625,0.0451448410749435,0.0299067664891481,-0.0121496068313717
1769169340855,-0.0075836181640625,0.0722198486328125,-1.012054443359375,0.0425376072525978,0.0228445958346128,-0.0146697564050555
1769169340866,-0.001708984375,0.06878662109375,-0.998046875,0.0314918793737888,0.0209822468459606,-0.0047915591858327
1769169340875,0.0061187744140625,0.06573486328125,-0.9882354736328124,0.0167611371725797,0.0114768929779529,-0.0002175802655983
1769169340885,0.00439453125,0.064422607421875,-0.9757843017578124,-0.0116191050037741,-0.0030120352748781,0.001449025934562
1769169340895,0.003997802734375,0.064849853515625,-0.95587158203125,-0.0528938397765159,-0.0129890358075499,-5.0600061513250694e-05
1769169340905,0.001556396484375,0.0642242431640625,-0.942779541015625,-0.097888745367527,-0.0176202729344367,-0.0002442118711769
1769169340915,0.002197265625,0.066192626953125,-0.94775390625,-0.116526611149311,-0.0220618918538093,0.0019515644526109
1769169340926,0.002838134765625,0.072509765625,-0.9769439697265624,-0.1090694963932037,-0.0161701813340187,-0.0013816480059176
1769169340936,-0.0001678466796875,0.0762176513671875,-1.0063018798828125,-0.0802200064063072,-0.0033092440571635,-0.0050695934332907
1769169340946,0.00042724609375,0.0772705078125,-1.0326385498046875,-0.0370890460908412,0.0084398239850997,-0.0079580582678318
1769169340956,-0.0011444091796875,0.0760955810546875,-1.049072265625,0.0068328725174069,0.021203288808465,-0.0120798321440815
1769169340966,-0.00396728515625,0.0738983154296875,-1.0521087646484375,0.0477350316941738,0.0309070497751235,-0.0154953366145491
1769169340976,-0.002777099609375,0.0685882568359375,-1.045379638671875,0.0751775726675987,0.0305541809648275,-0.0120199108496308
1769169340986,0.0011749267578125,0.0651397705078125,-1.0248565673828125,0.0774918645620346,0.0281251110136508,-0.0113562513142824
1769169340996,0.002044677734375,0.0627288818359375,-0.9930877685546876,0.0644453018903732,0.0248859077692031,-0.0069047776050865
1769169341006,0.0059967041015625,0.0628662109375,-0.9708709716796876,0.0388648398220539,0.010808172635734,-0.0045366948470473
1769169341016,0.0052032470703125,0.0625,-0.955474853515625,0.0073940004222095,0.0082704471424222,-0.0042927493341267
1769169341026,0.0088653564453125,0.0617828369140625,-0.9500732421875,-0.0220749415457248,0.0054789213463664,-0.0005134574603289
1769169341036,0.010162353515625,0.068023681640625,-0.953857421875,-0.0442209914326667,0.0076866815797984,0.0006013417732901
1769169341046,0.0072479248046875,0.073638916015625,-0.96240234375,-0.0547300912439823,-0.0026714168488979,-0.0025963156949728
1769169341056,0.002105712890625,0.07537841796875,-0.976409912109375,-0.0591621249914169,-0.0040336237289011,0.0012104066554456
1769169341066,0.007965087890625,0.068115234375,-0.9885101318359376,-0.0613845326006412,-0.0051337755285203,0.0050703925080597
1769169341076,0.0130615234375,0.06585693359375,-0.99957275390625,-0.0461168959736824,-0.0076477997936308,0.0054690674878656
1769169341086,0.00128173828125,0.0748291015625,-1.018890380859375,-0.0131972944363951,-0.0076603163033723,-0.0034999263007193
1769169341096,-0.010833740234375,0.08062744140625,-1.0296478271484375,0.0092262551188468,-0.0023350596893578,-0.0079066585749387
1769169341106,-0.0053558349609375,0.076934814453125,-1.0225677490234375,0.0239133220165967,-0.0034314829390496,-0.0068496502935886
1769169341116,-0.003143310546875,0.0709991455078125,-1.008514404296875,0.0188658330589532,-0.0061178137548267,-0.0113996611908078
1769169341126,-0.0015106201171875,0.0657958984375,-0.9925994873046876,0.0086403600871562,-0.0026815368328243,-0.0077926754020154
1769169341138,0.0074920654296875,0.066558837890625,-0.9850311279296876,0.0002796319022309,-0.0003403519804123,-0.0046730488538742
1769169341147,0.005950927734375,0.066558837890625,-0.982666015625,-0.012507801875472,0.0032887374982237,-0.0020391824655234
1769169341157,0.0076446533203125,0.063995361328125,-0.980621337890625,-0.0210038181394338,0.0043952809646725,-0.0006886934279464
1769169341167,0.00787353515625,0.0656890869140625,-0.9850616455078124,-0.0240584649145603,0.0053992928005754,-0.002583266235888
1769169341177,0.00262451171875,0.0666656494140625,-0.9945831298828124,-0.0203252453356981,0.0019307917682453,-0.0016375777777284
1769169341187,0.001373291015625,0.067718505859375,-1.000946044921875,-0.016057264059782,0.0028242822736501,-0.0052765212021768
1769169341197,-0.001068115234375,0.0705413818359375,-1.008087158203125,-0.0085583347827196,0.0010373012628406,-0.0041976743377745
1769169341207,-0.001495361328125,0.0701904296875,-1.0085296630859375,-0.0020218719728291,0.0005158542771823,-0.0070504527539014
1769169341217,-0.0013427734375,0.068084716796875,-1.00640869140625,-0.0008506136364303,-0.0034525219816714,-0.006949252448976
1769169341227,0.0003662109375,0.0691375732421875,-1.000701904296875,0.0034732946660369,-0.0013771206140518,-0.00426079146564
1769169341237,0.0022430419921875,0.069061279296875,-0.99908447265625,0.0097831217572093,-0.0043609263375401,-0.0040259007364511
1769169341247,0.000885009765625,0.0674896240234375,-0.9983978271484376,0.0127277793362736,-0.0043625240214169,-0.0066824038513004
1769169341257,-0.001251220703125,0.0671234130859375,-0.9902191162109376,0.0084571344777941,0.0003707120195031,-0.0044008735567331
1769169341267,-0.000823974609375,0.067230224609375,-0.980926513671875,0.0003406183095648,0.0070717576891183,-0.0048871668986976
1769169341277,-0.0004425048828125,0.0667266845703125,-0.9813079833984376,-0.0082645881921052,0.0119485380128026,-0.003296194365248
1769169341287,0.0010986328125,0.067535400390625,-0.9844818115234376,-0.0174253284931182,0.0166061408817768,-0.0089149316772818
1769169341297,0.0012969970703125,0.07073974609375,-0.988555908203125,-0.0198615882545709,0.0066581689752638,-0.0143610956147313
1769169341307,-0.0013275146484375,0.0746612548828125,-0.9954376220703124,-0.0223204847425222,-0.0031076427549123,-0.023390544578433
1769169341317,-0.0035552978515625,0.0744476318359375,-0.9967193603515624,-0.0180309321731328,-0.0010450243717059,-0.0308524537831544
1769169341327,-0.0032806396484375,0.0714874267578125,-1.0018310546875,-0.0015768576413393,0.0002729740226641,-0.0335502363741397
1769169341337,0.0021820068359375,0.07122802734375,-1.0084228515625,0.0102960467338562,0.0098499674350023,-0.0374001041054725
1769169341347,0.001708984375,0.0728912353515625,-1.0017852783203125,0.0166506152600049,0.0201571993529796,-0.0407098792493343
1769169341358,0.000732421875,0.074127197265625,-0.995086669921875,0.0184093676507473,0.0208980906754732,-0.0403399653732776
1769169341368,0.0001220703125,0.076934814453125,-0.98858642578125,0.0126761142164468,0.0191015228629112,-0.0436870269477367
1769169341378,0.001983642578125,0.0750885009765625,-0.978759765625,-0.0042240396142005,0.0161062646657228,-0.0450750663876533
1769169341388,0.0048065185546875,0.072479248046875,-0.9696197509765624,-0.0231830831617116,0.0146913276985287,-0.0425280183553695
1769169341398,0.0051727294921875,0.0712432861328125,-0.9691009521484376,-0.0363894328474998,0.0142761413007974,-0.0384632349014282
1769169341408,0.0077056884765625,0.0679779052734375,-0.9736175537109376,-0.0522142015397548,0.0142897237092256,-0.0356663838028907
1769169341418,0.0092315673828125,0.06317138671875,-0.978515625,-0.0675335004925727,0.0159701779484748,-0.0238438136875629
1769169341428,0.0114593505859375,0.05999755859375,-0.982330322265625,-0.0780487284064292,0.0092795183882117,-0.0181401222944259
1769169341438,0.0071868896484375,0.0546722412109375,-0.989959716796875,-0.0838344469666481,-0.0013203952694311,-0.0122824991121888
1769169341448,0.0093536376953125,0.054473876953125,-1.0010986328125,-0.0714323744177818,-0.0012759204255416,-0.01487189065665
1769169341458,-0.00067138671875,0.062408447265625,-1.02362060546875,-0.0358277708292007,-0.0065452507697045,-0.01593236066401
1769169341468,0.0019378662109375,0.065521240234375,-1.0392303466796875,0.0050978227518498,0.0009363674325868,-0.0202714502811431
1769169341478,-0.003021240234375,0.080322265625,-1.0452423095703125,0.0503960624337196,0.01142203155905,-0.0279552023857831
1769169341488,-0.009124755859375,0.0920562744140625,-1.0477447509765625,0.0846397876739502,0.013767210766673,-0.0237002689391374
1769169341498,0.0051422119140625,0.076995849609375,-1.031524658203125,0.0822972729802131,0.0134899765253067,-0.0101066958159208
1769169341508,0.02020263671875,0.0593414306640625,-0.9996185302734376,0.0697710886597633,0.01978568919003,-0.0075721656903624
1769169341518,0.0055694580078125,0.0701904296875,-0.9868621826171876,0.0759717300534248,0.0260318666696548,-0.0235442072153091
1769169341528,-0.0106048583984375,0.088836669921875,-0.9905242919921876,0.0691068992018699,0.0173843167722225,-0.0332242660224437
1769169341538,-0.0028228759765625,0.0853729248046875,-0.9708709716796876,0.0279253739863634,0.0086707202717661,-0.0354557298123836
1769169341548,0.0061187744140625,0.0778350830078125,-0.9454345703125,-0.0269634407013654,0.0078121167607605,-0.0224856007844209
1769169341559,0.0182037353515625,0.070220947265625,-0.9401397705078124,-0.0669942125678062,0.0057311225682497,-0.011053716763854
1769169341569,0.0184783935546875,0.068115234375,-0.9600677490234376,-0.0795888379216194,0.0086054727435112,-0.0033100428991019
1769169341578,0.01458740234375,0.06573486328125,-0.9898834228515624,-0.0676224529743194,0.0149376709014177,0.0049263155087828
1769169341589,0.0121307373046875,0.060638427734375,-1.01165771484375,-0.0459856018424034,0.026183933019638,0.009133044630289
1769169341599,0.0081634521484375,0.06134033203125,-1.028411865234375,-0.0148090394213795,0.0314748361706733,0.0085026742890477
1769169341609,0.000885009765625,0.0679779052734375,-1.0413055419921875,0.01874465867877,0.038050178438425,0.0055143414065241
1769169341619,-0.0031280517578125,0.0720977783203125,-1.04608154296875,0.0498727522790432,0.0354141816496849,0.0007408913807012
1769169341629,-0.0068206787109375,0.07537841796875,-1.0360870361328125,0.0703015923500061,0.0319994799792766,-0.0070858728140592
1769169341639,-0.004638671875,0.072540283203125,-1.0160064697265625,0.0761075541377067,0.0279123242944479,-0.009507218375802
1769169341649,-0.0006866455078125,0.068756103515625,-0.9900665283203124,0.0627259686589241,0.024354875087738,-0.0100491717457771
1769169341659,0.0033721923828125,0.06787109375,-0.9692230224609376,0.0395146533846855,0.0141632230952382,-0.0096196038648486
1769169341669,0.003631591796875,0.0673828125,-0.952667236328125,0.0062112906016409,0.0120329605415463,-0.0069441925734281
1769169341679,0.0069580078125,0.0667572021484375,-0.9460601806640624,-0.0233042575418949,0.0081572625786066,-0.0023204123135656
1769169341689,0.0134429931640625,0.068084716796875,-0.954498291015625,-0.0365340411663055,0.0117171099409461,0.0042101913131773
1769169341699,0.0152130126953125,0.0690460205078125,-0.969635009765625,-0.039735160768032,0.0160745736211538,0.0100174807012081
1769169341709,0.010467529296875,0.0709075927734375,-0.9840545654296876,-0.0386978611350059,0.0262816715985536,0.0148519165813922
1769169341719,0.0105133056640625,0.0715484619140625,-0.9928131103515624,-0.027337348088622,0.0311323534697294,0.0147395310923457
1769169341729,0.006561279296875,0.074310302734375,-1.0057220458984375,-0.010203368961811,0.0297768041491508,0.0123216472566127
1769169341739,0.00048828125,0.074676513671875,-1.013427734375,0.004618720151484,0.0228776186704635,0.0085551384836435
1769169341749,0.000640869140625,0.0656280517578125,-1.0099029541015625,0.0071386033669114,0.0177361201494932,0.0068581723608076
1769169341759,0.0072784423828125,0.059051513671875,-1.0001068115234375,0.0066515109501779,0.0154495304450392,0.0086997486650943
1769169341770,0.0037078857421875,0.0648956298828125,-1.001617431640625,0.0139110218733549,0.0132492259144783,0.0037161749787628
1769169341779,-0.0056304931640625,0.0742645263671875,-1.00469970703125,0.0219476427882909,0.0135933067649602,-0.0076909428462386
1769169341789,-0.007049560546875,0.0780487060546875,-1.0000762939453125,0.01471449714154,0.000283360335743,-0.0140231410041451
1769169341800,0.0003509521484375,0.07635498046875,-0.9866180419921876,-0.0122556006535887,-0.0132923694327473,-0.0197428110986948
1769169341810,0.0038909912109375,0.07452392578125,-0.9688568115234376,-0.0442899651825428,-0.0157728381454944,-0.0225822739303112
1769169341820,0.00616455078125,0.0748291015625,-0.969635009765625,-0.0560291819274425,-0.0121831633150577,-0.0196882169693708
1769169341830,0.0133819580078125,0.074951171875,-0.985443115234375,-0.051903411746025,0.0013864416396245,-0.0170972272753715
1769169341840,0.0175018310546875,0.07061767578125,-0.9985198974609376,-0.0388989299535751,0.0118598556146025,-0.0141818653792142
1769169341850,0.0177459716796875,0.0689849853515625,-1.008514404296875,-0.0213505625724792,0.015964850783348,-0.0100861899554729
1769169341860,0.0142974853515625,0.06591796875,-1.0139923095703125,-0.0080139841884374,0.0217841248959302,-0.0107889985665678
1769169341870,0.009552001953125,0.0658721923828125,-1.0138397216796875,0.0100124198943376,0.0261450503021478,-0.0104739461094141
1769169341880,0.0042572021484375,0.0662841796875,-1.0172882080078125,0.0273557249456644,0.024068584665656,-0.0154721671715378
1769169341890,0.00201416015625,0.0682525634765625,-1.015716552734375,0.0360349677503109,0.0293440409004688,-0.0209068804979324
1769169341900,0.0029754638671875,0.06951904296875,-1.0112762451171875,0.0442271158099174,0.0295120850205421,-0.0241322331130504
1769169341910,0.004302978515625,0.06768798828125,-1.0069427490234375,0.0451030284166336,0.0303107686340808,-0.0193643774837255
1769169341920,0.0086822509765625,0.065155029296875,-0.9954833984375,0.0381977185606956,0.0273131132125854,-0.0192639753222465
1769169341930,0.009429931640625,0.0642242431640625,-0.9828948974609376,0.0248275846242904,0.0231641754508018,-0.013441240414977
1769169341940,0.014007568359375,0.064117431640625,-0.9755401611328124,0.0124159231781959,0.0254350528120994,-0.0067146280780434
1769169341950,0.012847900390625,0.0638427734375,-0.9734039306640624,0.0031188279390335,0.0172572843730449,0.0012365056900307
1769169341960,0.010528564453125,0.0660858154296875,-0.98046875,-0.0037001960445195,0.0011195929255336,-0.0023563648574054
1769169341970,0.006195068359375,0.069183349609375,-0.98297119140625,-0.0088989529758691,-0.0023766048252582,-0.0075729647651314
1769169341980,0.0030059814453125,0.068817138671875,-0.9802703857421876,-0.013244698755443,-0.0032533176708966,-0.012155732139945
1769169341990,0.006500244140625,0.0658721923828125,-0.98388671875,-0.0152681684121489,-0.005036037415266,-0.0107953893020749
1769169342001,0.009063720703125,0.0666961669921875,-0.987579345703125,-0.0155081199482083,-0.005479454062879,-0.0118047278374433
1769169342011,0.0084075927734375,0.0654754638671875,-0.98834228515625,-0.0125027419999241,0.0026802052743732,-0.0068885325454175
1769169342021,0.01104736328125,0.06787109375,-0.9923095703125,-0.0126710543408989,0.0108870025724172,-0.0026466494891792
1769169342031,0.01385498046875,0.0685882568359375,-0.9969024658203124,-0.0045742453075945,0.0160639211535453,0.0043404200114309
1769169342041,0.013671875,0.071258544921875,-1.0069580078125,0.0034027209039777,0.0151453968137502,0.0053833136335015
1769169342051,0.0077056884765625,0.0708465576171875,-1.0090789794921875,0.0130369728431105,0.0032735576387494,0.0017901768442243
1769169342061,0.0036163330078125,0.075408935546875,-1.00482177734375,0.0107751497998833,-0.0050176619552075,-0.0024192156270146
1769169342071,0.001190185546875,0.0731048583984375,-0.9941558837890624,0.0034495925065129,-0.0112188318744301,-0.0053524211980402
1769169342081,0.004547119140625,0.0721435546875,-0.9900360107421876,-0.003777427598834,-0.0193494632840156,-0.0019281286513432
1769169342091,0.0103607177734375,0.0675201416015625,-0.989593505859375,-0.0179001707583665,-0.0251775253564119,0.0017883126856759
1769169342101,0.013580322265625,0.0619049072265625,-0.98443603515625,-0.0236233044415712,-0.0242707189172506,0.0055316518992185
1769169342111,0.00897216796875,0.0690460205078125,-0.988616943359375,-0.025569275021553,-0.016626913100481,0.0066198194399476
1769169342121,0.00677490234375,0.0681610107421875,-0.995849609375,-0.0177329238504171,-0.010792726650834,0.003696467494592
1769169342131,0.0030670166015625,0.07647705078125,-1.0034942626953125,0.0077889473177492,0.0087032103911042,-0.0045369612053036
1769169342141,-0.000640869140625,0.0789031982421875,-1.01123046875,0.0140814641490578,0.0059455069713294,0.0088113350793719
1769169342151,0.0197296142578125,0.0602874755859375,-0.9975738525390624,0.012214321643114,-0.0007872303831391,0.0080459425225853
1769169342161,0.0061187744140625,0.0615081787109375,-0.9875946044921876,0.0032357405871152,-0.0044679851271212,0.0003424825263209
1769169342171,0.00360107421875,0.0678558349609375,-0.9794921875,0.0046956855803728,-0.0034938009921461,-0.0100659495219588
1769169342181,-0.00164794921875,0.081634521484375,-0.984832763671875,0.0026202842127531,-0.005804359447211,-0.0132271219044923
1769169342191,-0.0054473876953125,0.0867462158203125,-0.979949951171875,-0.0212014261633157,-0.0095652751624584,-0.017266072332859
1769169342201,-0.0003204345703125,0.07659912109375,-0.9615020751953124,-0.0513036660850048,-0.0134047549217939,-0.0141027690842747
1769169342212,0.0119171142578125,0.0727691650390625,-0.966033935546875,-0.0642964318394661,-0.0121583957225084,-0.0118806278333067
1769169342222,0.0116424560546875,0.070037841796875,-0.9857635498046876,-0.0634215846657753,-0.0042959451675415,-0.0086949542164802
1769169342232,0.00982666015625,0.0672607421875,-0.9993896484375,-0.0569184087216854,0.0025233451742678,-0.008249407634139
1769169342242,0.0125885009765625,0.0652008056640625,-1.0092315673828125,-0.04554458335042,0.0050978227518498,-0.0063332631252706
1769169342252,0.0100250244140625,0.065032958984375,-1.0200042724609375,-0.0245753843337297,0.0116223013028502,-0.0055968994274735
1769169342262,0.006103515625,0.068389892578125,-1.023681640625,0.0010229201288893,0.0093607446178793,-0.0092225270345807
1769169342272,0.002532958984375,0.072174072265625,-1.027587890625,0.0221148896962404,0.0016088156262412,-0.0111471936106681
1769169342282,0.0023193359375,0.073333740234375,-1.0196990966796875,0.0310388766229152,-0.0024927188642323,-0.0116968695074319
1769169342292,0.0058746337890625,0.0701446533203125,-1.0034332275390625,0.0305704250931739,-0.0131751904264092,-0.0108502507209777
1769169342302,0.00775146484375,0.0673065185546875,-0.989288330078125,0.0193654429167509,-0.0162167865782976,-0.0070267505943775
1769169342312,0.0098724365234375,0.06591796875,-0.9737091064453124,-0.0029425267130136,-0.0082941483706235,0.000647680775728
1769169342322,0.0139312744140625,0.06622314453125,-0.9619903564453124,-0.0276710428297519,0.0020746025256812,0.0092733930796384
1769169342332,0.017608642578125,0.0679931640625,-0.963165283203125,-0.0432835593819618,-0.0007201187545433,0.0111788846552371
1769169342342,0.0118408203125,0.06787109375,-0.974090576171875,-0.0464881397783756,-0.004481301177293,0.0135674737393856
1769169342352,0.010498046875,0.0682525634765625,-0.98626708984375,-0.0414789989590644,-0.0042069954797625,0.013613280840218
1769169342362,0.004547119140625,0.0711822509765625,-0.9976654052734376,-0.0263668932020664,-0.0059146145358681,0.0114236297085881
1769169342373,0.0017852783203125,0.0723419189453125,-1.0047760009765625,-0.0139445774257183,-0.0005179848521947,0.0089258505031466
1769169342382,0.0003814697265625,0.071868896484375,-1.0072479248046875,-0.0035329493694007,0.0002530002966523,0.0103969806805253
1769169342392,0.003753662109375,0.07196044921875,-1.0052337646484375,-0.0015158712631091,-0.0016354472609236,0.0190852768719196
1769169342402,0.0103912353515625,0.0646820068359375,-0.9993743896484376,-0.0126076703891158,-0.0035364115610718,0.0261964499950408
1769169342412,0.0125579833984375,0.0632781982421875,-0.98724365234375,-0.0142785385251045,-0.0031550468411296,0.0206778477877378
1769169342423,0.00225830078125,0.0737457275390625,-0.9965057373046876,-0.00252600829117,-0.0116848852485418,0.0176085550338029
1769169342433,0.00262451171875,0.077423095703125,-0.9990997314453124,-0.0022695458028465,-0.0190048497170209,0.0178724732249975
1769169342443,0.0032806396484375,0.075592041015625,-0.9806365966796876,-0.0181334633380174,-0.026291524991393,0.0140220755711197
1769169342453,0.0029754638671875,0.0760650634765625,-0.970977783203125,-0.03823047503829,-0.0300966501235961,0.0098877847194671
1769169342463,0.0017242431640625,0.0790863037109375,-0.9728851318359376,-0.0530698746442794,-0.0302979853004217,0.0062839947640895
1769169342473,0.0062713623046875,0.080596923828125,-0.9798126220703124,-0.0588036626577377,-0.0308303497731685,0.0085388934239745
1769169342483,0.0112762451171875,0.0794525146484375,-0.9890289306640624,-0.0577605031430721,-0.0244757812470197,0.0113778226077556
1769169342493,0.0083770751953125,0.07781982421875,-0.99725341796875,-0.0522938296198844,-0.0252454355359077,0.0101541001349687
1769169342503,0.0089569091796875,0.0756988525390625,-1.0023345947265625,-0.0471936091780662,-0.0188344083726406,0.0112470621243119
1769169342513,0.007720947265625,0.071014404296875,-1.0050048828125,-0.0373106189072132,-0.0077687073498964,0.0114060528576374
1769169342523,0.006317138671875,0.068878173828125,-1.009552001953125,-0.0211982298642396,-0.0032927324064075,0.0122542697936296
1769169342533,0.0062103271484375,0.068115234375,-1.0153045654296875,-0.0062738750129938,0.0018184063956141,0.0119400164112448
1769169342543,0.0068817138671875,0.0699005126953125,-1.014923095703125,0.0058301920071244,0.0033957967534661,0.0131485592573881
1769169342553,0.00299072265625,0.072845458984375,-1.0099334716796875,0.0091562140733003,-0.0003800330741796,0.0125448200851678
1769169342563,0.0008544921875,0.0761871337890625,-1.0011444091796875,0.008716526441276,-0.0050336406566202,0.0103290705010294
1769169342573,0.000732421875,0.0787200927734375,-0.99261474609375,0.0021190773695707,-0.0152684347704052,0.0084299696609377
1769169342583,0.001495361328125,0.080047607421875,-0.9866485595703124,-0.006548180244863,-0.0207140669226646,0.0074054519645869
1769169342593,0.0026092529296875,0.0781097412109375,-0.984039306640625,-0.0153605807572603,-0.0227215569466352,0.0058155446313321
1769169342604,0.006683349609375,0.076416015625,-0.979766845703125,-0.0281000770628452,-0.0212325844913721,0.0080683128908276
1769169342614,0.0077972412109375,0.0742340087890625,-0.98126220703125,-0.0330897755920887,-0.0159986745566129,0.007799067068845
1769169342623,0.006561279296875,0.074737548828125,-0.9870758056640624,-0.033660490065813,-0.0087596690282225,0.0118356207385659
1769169342634,0.0122528076171875,0.073333740234375,-0.997222900390625,-0.0262252129614353,0.0010186590952798,0.01691560074687
1769169342644,0.0100555419921875,0.0730743408203125,-1.0012664794921875,-0.017298562452197,0.0072832130827009,0.0175789929926395
1769169342654,0.0055084228515625,0.0739288330078125,-1.004058837890625,-0.0096600838005542,0.0030876689124852,0.0174727328121662
1769169342664,0.0021820068359375,0.073211669921875,-1.0003509521484375,-0.0048863678239285,0.0006777744856663,0.0123727796599268
1769169342674,-0.00115966796875,0.0752105712890625,-0.99810791015625,0.0008250473183579,-0.0091277183964848,0.0070113041438162
1769169342684,0.0002593994140625,0.0773468017578125,-1.000213623046875,0.001302285818383,-0.0107439905405044,0.004081827122718
1769169342694,0.0012664794921875,0.0767974853515625,-0.9976043701171876,-0.0022309301421046,-0.0134114129468798,0.0026152241043746
1769169342704,0.002166748046875,0.0785064697265625,-0.99334716796875,-0.0094158723950386,-0.0121602592989802,-0.0009611348505131
1769169342714,0.001678466796875,0.0784912109375,-0.991302490234375,-0.0129530830308794,-0.0089053446426987,-0.0068523134104907
1769169342724,0.00128173828125,0.0788116455078125,-0.989227294921875,-0.0195358842611312,-0.0038043255917727,-0.0048480182886123
