timestamp_ms,acc_x,acc_y,acc_z,gyro_x,gyro_y,gyro_z
1770451233996,-0.105682373046875,-0.9871826171875,-0.0840301513671875,-0.0036573191173374,0.0026855315081775,0.0014636733103543
1770451234006,-0.1102142333984375,-0.9871826171875,-0.0919952392578125,0.0011693940032273,-0.0008554073283448,0.0007313040550798
1770451234016,-0.1081390380859375,-0.987701416015625,-0.0909271240234375,0.0023355921730399,-0.0076941386796534,0.0013217268278822
1770451234026,-0.109527587890625,-0.986328125,-0.088043212890625,0.003008573083207,-0.0007374293054454,0.0008753810543566
1770451234036,-0.108673095703125,-0.9876556396484376,-0.0837860107421875,-0.0002173139364458,0.0054751927964389,0.0027422569692134
1770451234046,-0.1090850830078125,-0.9906463623046876,-0.0840606689453125,-0.0028980518691241,0.0131320469081401,-0.0017891116440296
1770451234056,-0.1087493896484375,-0.9880828857421876,-0.0891876220703125,-0.0030149647500365,0.0108449244871735,-0.001300155185163
1770451234066,-0.1091766357421875,-0.9881134033203124,-0.0908660888671875,-0.0022365227341651,0.0129983564838767,0.0020623519085347
1770451234076,-0.1078643798828125,-0.9870452880859376,-0.091278076171875,-0.001677791471593,0.0100590260699391,0.0030226877424865
1770451234086,-0.108428955078125,-0.9859771728515624,-0.092742919921875,0.0067553743720054,0.0049798446707427,0.0035590485204011
1770451234096,-0.1093292236328125,-0.98681640625,-0.0970458984375,0.0143706835806369,-0.0066674901172518,0.003008573083207
1770451234106,-0.1122283935546875,-0.987274169921875,-0.092681884765625,0.0195097848773002,-0.0171827152371406,-9.58738019107841e-05
1770451234116,-0.1131744384765625,-0.985931396484375,-0.0906524658203125,0.0240526050329208,-0.0233591180294752,-0.0036373452749103
1770451234126,-0.1140899658203125,-0.9853668212890624,-0.0901336669921875,0.0288476273417472,-0.0294665452092885,-0.0079913474619388
1770451234136,-0.111572265625,-0.986480712890625,-0.0858917236328125,0.0278646536171436,-0.0254161432385444,-0.0086571378633379
1770451234146,-0.1058502197265625,-0.989959716796875,-0.0869140625,0.0284135323017835,-0.0230965297669172,-0.0073857447132468
1770451234156,-0.10479736328125,-0.9914703369140624,-0.08258056640625,0.0257892534136772,-0.0222624279558658,-0.0035124430432915
1770451234166,-0.1064910888671875,-0.987091064453125,-0.0772857666015625,0.018392588943243,-0.0099754026159644,-0.0006111954571679
1770451234177,-0.113037109375,-0.9849700927734376,-0.079803466796875,0.0110332099720835,-0.0025236115325242,-0.0045348308049142
1770451234187,-0.1139984130859375,-0.9889373779296876,-0.0823974609375,0.0091183967888355,-0.0076379459351301,-0.0060746702365577
1770451234197,-0.11090087890625,-0.9903106689453124,-0.08203125,0.0033374733757227,-0.0074517908506095,-0.0059207398444414
1770451234207,-0.1088409423828125,-0.9867095947265624,-0.078094482421875,-0.0028687571175396,0.001553688198328,-0.0070110377855598
1770451234217,-0.1054840087890625,-0.987274169921875,-0.0771636962890625,-0.0120329605415463,0.0104505103081464,-0.0054221958853304
1770451234227,-0.1009521484375,-0.99127197265625,-0.0799407958984375,-0.0181300025433301,0.0135315209627151,0.0035880769137293
1770451234237,-0.1064453125,-0.9945526123046876,-0.090057373046875,-0.0183174889534711,0.0073287528939545,0.0048429584130644
1770451234247,-0.1081085205078125,-0.9889068603515624,-0.08721923828125,-0.0161880254745483,0.0062262043356895,0.0086776437237858
1770451234257,-0.112152099609375,-0.977783203125,-0.0808258056640625,-0.0188698284327983,0.013653228059411,0.0016074840677902
1770451234267,-0.1153411865234375,-0.97149658203125,-0.0843505859375,-0.0112388059496879,0.0133650740608572,-0.0096566220745444
1770451234277,-0.1161956787109375,-0.9812774658203124,-0.08636474609375,-0.0039513320662081,0.0118822259828448,-0.0135536259040236
1770451234287,-0.111572265625,-0.997894287109375,-0.079498291015625,-0.0144377946853637,0.0067146280780434,-0.0120526682585477
1770451234297,-0.1034698486328125,-1.003631591796875,-0.084747314453125,-0.0198525339365005,0.0079063922166824,-0.0048256479203701
1770451234307,-0.1015167236328125,-0.9983062744140624,-0.08941650390625,-0.0216272640973329,0.0028181569650769,0.0037997981999069
1770451234317,-0.10137939453125,-0.989959716796875,-0.088104248046875,-0.0205793101340532,0.0019811254460364,0.0036693033762276
1770451234327,-0.1076202392578125,-0.9765625,-0.0837860107421875,-0.0121831633150577,0.0119458753615617,-0.0024679512716829
1770451234337,-0.113525390625,-0.9719085693359376,-0.0897674560546875,-0.0008266451768577,0.0011472897604107,-0.0148263499140739
1770451234348,-0.1160736083984375,-0.9817962646484376,-0.0900421142578125,0.0066296732984483,-0.0046943537890911,-0.0203952863812446
1770451234358,-0.113372802734375,-0.9906005859375,-0.0849761962890625,-0.0038141792174428,-0.0125011447817087,-0.0185771472752094
1770451234367,-0.1064300537109375,-0.9962310791015624,-0.080902099609375,-0.0166815090924501,0.0044120587408542,-0.0127352364361286
1770451234378,-0.10345458984375,-0.996337890625,-0.0870819091796875,-0.024247283115983,0.0168623365461826,-0.007137537933886
1770451234387,-0.1014251708984375,-0.99627685546875,-0.09075927734375,-0.0320314355194568,0.021442973986268,-0.0028591696172952
1770451234397,-0.1063232421875,-0.9909515380859376,-0.09326171875,-0.0300782732665538,0.0238022692501544,-0.0018540926976129
1770451234408,-0.109832763671875,-0.9891357421875,-0.094818115234375,-0.0223553720861673,0.010211625136435,-0.0010612696642056
1770451234418,-0.1130828857421875,-0.9847564697265624,-0.0894927978515625,-0.0171459633857011,0.0058411112986505,-0.0019683423452079
1770451234428,-0.11566162109375,-0.9843902587890624,-0.087738037109375,-0.0102414526045322,0.0104470485821366,-0.0062344600446522
1770451234438,-0.11297607421875,-0.98779296875,-0.090972900390625,-0.0009331716573797,0.0044069988653063,-0.0057098171673715
1770451234448,-0.11114501953125,-0.9898834228515624,-0.09539794921875,0.0077870828099548,-0.0041220407001674,-0.0116590531542897
1770451234458,-0.1108245849609375,-0.9873046875,-0.0910491943359375,0.0128984879702329,-0.0075617795810103,-0.0129339080303907
1770451234468,-0.1082916259765625,-0.9884185791015624,-0.089630126953125,0.0157390162348747,-0.0143927875906229,-0.0125911589711904
1770451234478,-0.106689453125,-0.98919677734375,-0.08526611328125,0.01084172911942,-0.0046677226200699,-0.0115967346355319
1770451234488,-0.105621337890625,-0.987640380859375,-0.083465576171875,0.0070547135546803,0.0141246076673269,-0.0128614697605371
1770451234498,-0.107635498046875,-0.98858642578125,-0.0909576416015625,0.0094132088124752,0.0053697316907346,-0.0125104654580354
1770451234508,-0.106658935546875,-0.9918670654296876,-0.0902862548828125,0.0086022764444351,-0.0056237974204123,-0.0142772067338228
1770451234518,-0.1073760986328125,-0.9900970458984376,-0.084320068359375,0.0045774411410093,-0.0125221833586692,-0.0122545352205634
1770451234528,-0.10333251953125,-0.99163818359375,-0.0826568603515625,-0.0027012443169951,-0.0194080527871847,-0.0074888090603053
1770451234538,-0.105377197265625,-0.9899749755859376,-0.0781707763671875,-0.0113914050161838,-0.0074368771165609,-0.0074158385396003
1770451234548,-0.10455322265625,-0.988006591796875,-0.0777587890625,-0.017724934965372,0.0020836573094129,-0.0076155755668878
1770451234558,-0.1032562255859375,-0.9883270263671876,-0.077362060546875,-0.0270763579756021,0.006884004920721,-0.0030897995457053
1770451234568,-0.1033477783203125,-0.988616943359375,-0.08343505859375,-0.031773641705513,0.0038783615455031,-0.0014860439114272
1770451234578,-0.106231689453125,-0.990203857421875,-0.08404541015625,-0.0392509996891021,0.0053236591629683,0.0014197311829775
1770451234589,-0.106597900390625,-0.989501953125,-0.09063720703125,-0.0456638894975185,0.0057510961778461,0.0023007048293948
1770451234598,-0.1074676513671875,-0.982940673828125,-0.0928192138671875,-0.0413421131670475,0.0131874410435557,0.0024003069847822
1770451234608,-0.1090545654296875,-0.989532470703125,-0.0934906005859375,-0.0347992591559886,0.0105330683290958,0.0064128916710615
1770451234619,-0.1112518310546875,-0.9872894287109376,-0.09210205078125,-0.0290987621992826,0.0069646988995373,0.0003691141318995
1770451234628,-0.1106719970703125,-0.9837493896484376,-0.091827392578125,-0.0209026187658309,-0.0009888317435979,-0.0052898367866873
1770451234639,-0.109283447265625,-0.984649658203125,-0.091400146484375,-0.0142958490177989,-0.0016210661269724,-0.0090347742661833
1770451234649,-0.1090545654296875,-0.987060546875,-0.088104248046875,-0.0093117430806159,0.0107101686298847,-0.0097074881196022
1770451234659,-0.1076812744140625,-0.9878997802734376,-0.088470458984375,-0.0130652021616697,0.0132681345567107,-0.011313640512526
1770451234669,-0.106903076171875,-0.988861083984375,-0.0907135009765625,-0.0125581361353397,0.0077814902178943,-0.011354386806488
1770451234679,-0.1058197021484375,-0.9921722412109376,-0.0969085693359375,-0.0115493303164839,-0.0086600668728351,-0.0097141461446881
1770451234689,-0.1048126220703125,-0.9911956787109376,-0.094696044921875,-0.0112878084182739,-0.0126129975542426,-0.0083972131833434
1770451234699,-0.105560302734375,-0.9901580810546876,-0.0919952392578125,-0.0136471027508378,-0.0110832778736948,-0.0034685009159147
1770451234709,-0.10552978515625,-0.9860076904296876,-0.0864105224609375,-0.0227998550981283,0.0025220136158168,-0.0038290929514914
1770451234719,-0.10546875,-0.9863739013671876,-0.0833282470703125,-0.0254789944738149,0.0168101396411657,-0.0037752971984446
1770451234729,-0.10443115234375,-0.9879913330078124,-0.090423583984375,-0.0235910788178443,0.0107828732579946,0.0003209109127055
1770451234739,-0.103851318359375,-0.9899139404296876,-0.0950469970703125,-0.0192266907542943,0.0069817430339753,0.000127831735881
1770451234749,-0.104766845703125,-0.9889373779296876,-0.0983428955078125,-0.0101535683497786,0.0014745922526344,-0.0002314286975888
1770451234759,-0.1067962646484375,-0.9850311279296876,-0.0968170166015625,-0.0080917486920952,-0.0056709353812038,-0.0008293083519674
1770451234769,-0.108062744140625,-0.98431396484375,-0.0911407470703125,-0.0042056641541421,0.0092025529593229,-0.0030397321097552
1770451234779,-0.105926513671875,-0.9881744384765624,-0.097503662109375,0.0065263425931334,0.0021728731226176,-0.0019944412633776
1770451234789,-0.1050872802734375,-0.9886322021484376,-0.1011505126953125,0.0106153599917888,-0.0085303708910942,-0.0034141724463552
1770451234799,-0.10333251953125,-0.9882354736328124,-0.0905609130859375,0.0104204164817929,-0.0068302094005048,-0.0020450414158403
1770451234809,-0.1038055419921875,-0.9879913330078124,-0.085845947265625,0.0069242189638316,0.0012809804175049,-5.5926382628967986e-05
1770451234819,-0.1044921875,-0.99066162109375,-0.0919647216796875,0.007889081723988,-0.0033369408920407,0.000826378876809
1770451234829,-0.106292724609375,-0.9884796142578124,-0.0865325927734375,0.0047377636656165,-0.0056115468032658,0.003679423360154
1770451234840,-0.1051788330078125,-0.986541748046875,-0.08258056640625,0.0017781927017495,0.0087860347703099,0.003548395819962
1770451234850,-0.1071929931640625,-0.9882965087890624,-0.086700439453125,-0.0016112125013023,0.0022570290602743,0.0007960188668221
1770451234860,-0.10943603515625,-0.9852142333984376,-0.0909423828125,-0.0001810949470382,-0.0049654636532068,0.0013954964233562
1770451234870,-0.10760498046875,-0.98590087890625,-0.0916748046875,0.0022104235831648,-0.0125693213194608,0.0014484933344647
1770451234880,-0.108062744140625,-0.9862213134765624,-0.0918121337890625,0.0006005428149364,-0.0222874619066715,-0.0003432814555708
1770451234890,-0.10546875,-0.9855194091796876,-0.08770751953125,0.001480983919464,-0.0173355806618928,0.0023204123135656
1770451234900,-0.103057861328125,-0.9883270263671876,-0.09033203125,0.0021438447292894,-0.0105818044394254,0.0020218719728291
1770451234910,-0.10565185546875,-0.990234375,-0.0888214111328125,-0.0002178465801989,-0.0051601408049464,0.0023494407068938
1770451234920,-0.1047210693359375,-0.9889068603515624,-0.083984375,-0.0019278622930869,0.0180708803236484,0.0033803503029048
1770451234930,-0.1042327880859375,-0.9892120361328124,-0.087799072265625,-0.0033920682035386,0.0225678924471139,0.0022772690281271
1770451234940,-0.10565185546875,-0.992889404296875,-0.09100341796875,-0.004120975267142,0.0140841277316212,0.0032746228389441
1770451234950,-0.1092529296875,-0.9907684326171876,-0.08795166015625,-0.0043300334364175,0.0099269328638911,0.00135714688804
1770451234960,-0.1102142333984375,-0.988372802734375,-0.0891876220703125,-0.0062347264029085,-0.0018120148451998,0.0024527714122086
1770451234970,-0.1071014404296875,-0.987060546875,-0.0866241455078125,-0.0087143955752253,-0.004424575716257,0.0029489181470125
1770451234980,-0.1085052490234375,-0.98516845703125,-0.08392333984375,-0.0130460271611809,0.0037675739731639,0.0003195793251506
1770451234991,-0.1082305908203125,-0.9866943359375,-0.085723876953125,-0.0146556412801146,0.0090390350669622,-0.0018540926976129
1770451235000,-0.1102142333984375,-0.988189697265625,-0.086883544921875,-0.0178066939115524,0.0075591164641082,-0.0030248183757066
1770451235011,-0.10919189453125,-0.987213134765625,-0.0861053466796875,-0.0214230008423328,0.0069950590841472,-0.0044016726315021
1770451235020,-0.106292724609375,-0.9853668212890624,-0.0866546630859375,-0.0265985876321792,0.0102747417986392,-0.0052794506773352
1770451235030,-0.103302001953125,-0.9885711669921876,-0.083465576171875,-0.0294684097170829,0.00981215108186,-0.0029137644451111
1770451235041,-0.1033477783203125,-0.9890899658203124,-0.08551025390625,-0.0310971997678279,0.0189377386122941,-0.0015739281661808
1770451235051,-0.1026763916015625,-0.98883056640625,-0.0876007080078125,-0.0357481427490711,0.0188226904720067,-0.000974184309598
1770451235061,-0.103607177734375,-0.986968994140625,-0.0855560302734375,-0.0367436334490776,0.0163435526192188,-0.0013409015955403
1770451235071,-0.109283447265625,-0.98748779296875,-0.090484619140625,-0.0362493507564067,0.016979781910777,-0.0014106763992458
1770451235081,-0.108154296875,-0.9881744384765624,-0.0948486328125,-0.0329970978200435,0.0086965523660182,-0.0004564658156596
1770451235091,-0.106597900390625,-0.9875030517578124,-0.090179443359375,-0.0354868881404399,0.0215644147247076,-0.000801345158834
1770451235101,-0.1078338623046875,-0.985321044921875,-0.0923919677734375,-0.0314189083874225,0.0319877602159976,-0.0039747678674757
1770451235111,-0.1071624755859375,-0.9896697998046876,-0.1007537841796875,-0.0241263750940561,0.0174495633691549,-0.0033182986080646
1770451235121,-0.1036834716796875,-0.987274169921875,-0.0994415283203125,-0.0202693194150924,0.009533317759633,-0.0047590686008334
1770451235131,-0.1035614013671875,-0.9871978759765624,-0.0928955078125,-0.0177616868168115,0.0047641289420425,-0.0019731360953301
1770451235141,-0.1036834716796875,-0.9885101318359376,-0.091461181640625,-0.0157379508018493,0.0048996838741004,0.0008924252470023
1770451235151,-0.1064910888671875,-0.98681640625,-0.09588623046875,-0.0137328561395406,0.0113783553242683,-0.0007270429632626
1770451235161,-0.1121826171875,-0.9845123291015624,-0.0983734130859375,-0.0069511164911091,0.0016184030100703,-0.0027238810434937
1770451235171,-0.1103363037109375,-0.9864654541015624,-0.0997314453125,-3.462109361862531e-06,0.0017787253018468,-0.001145159243606
1770451235181,-0.1093597412109375,-0.987823486328125,-0.0980377197265625,0.0038405444938689,-0.0026202842127531,-0.0042485408484935
1770451235191,-0.1049346923828125,-0.989501953125,-0.098846435546875,0.0033593112602829,-0.0066403257660567,-0.0002777676854748
1770451235201,-0.101654052734375,-0.9901275634765624,-0.0964508056640625,0.0042743734084069,-0.0002125202590832,0.0010255833622068
1770451235211,-0.1044769287109375,-0.99407958984375,-0.0970458984375,0.0089335739612579,-0.0099916476756334,0.0007424892974086
1770451235221,-0.103759765625,-0.997314453125,-0.0977020263671875,0.0102718118578195,-0.0155906779691576,0.0034213629551231
1770451235231,-0.1049652099609375,-0.988800048828125,-0.0936737060546875,0.0102118914946913,-0.007292800117284,0.0036956686526536
1770451235241,-0.10888671875,-0.9818115234375,-0.096221923828125,0.0193436034023761,-0.0066043729893863,0.0029055087361484
1770451235251,-0.1138916015625,-0.9746551513671876,-0.0959625244140625,0.0259301345795393,-0.0056770602241158,-0.0081055974587798
1770451235262,-0.1097564697265625,-0.976318359375,-0.0899505615234375,0.0325744561851024,-0.0073679015040397,-0.0145323369652032
1770451235272,-0.109619140625,-0.987457275390625,-0.080596923828125,0.0276840925216674,0.0043556001037359,-0.0159946791827678
1770451235282,-0.10125732421875,-1.012359619140625,-0.08612060546875,0.0144385937601327,-0.0050765178166329,-0.0049643986858427
1770451235292,-0.100799560546875,-1.0008392333984375,-0.083740234375,0.0022200110834091,0.002192314248532,0.0034796863328665
1770451235302,-0.0988311767578125,-0.98760986328125,-0.081787109375,-0.0067726848646998,0.0058291270397603,0.00890161562711
1770451235312,-0.1033782958984375,-0.9749298095703124,-0.085052490234375,-0.0019883159548044,0.0130460271611809,0.0017731325933709
1770451235322,-0.105926513671875,-0.972747802734375,-0.0894775390625,0.0054443003609776,0.0076997312717139,-0.0060927798040211
1770451235332,-0.111572265625,-0.9760589599609376,-0.094390869140625,0.0085625955834984,-0.0085351653397083,-0.0164002776145935
1770451235342,-0.11090087890625,-0.9850006103515624,-0.0934600830078125,0.0094744618982076,-0.0140244727954268,-0.0160609912127256
1770451235352,-0.1068572998046875,-0.9944000244140624,-0.0948028564453125,0.0033665020018815,-0.020648818463087,-0.0122545352205634
1770451235362,-0.1025238037109375,-0.9950714111328124,-0.092254638671875,-0.0055918390862643,-0.0091349091380834,-0.0050413641147315
1770451235372,-0.1014556884765625,-0.9918060302734376,-0.088287353515625,-0.0122350947931408,0.0170274525880813,-0.0008612662786617
1770451235382,-0.10223388671875,-0.9946136474609376,-0.0927276611328125,-0.0135443042963743,0.0199734419584274,0.0012383698485791
1770451235392,-0.103240966796875,-0.9970855712890624,-0.0993194580078125,-0.0069098374806344,0.0008426241693086,0.0037651772145181
1770451235402,-0.1051483154296875,-0.9901580810546876,-0.092681884765625,-0.0060136839747428,-0.0078030619770288,0.0032447953708469
1770451235412,-0.105133056640625,-0.987823486328125,-0.0844268798828125,-0.0092688659206032,-0.003566239029169,0.0056650764308869
1770451235422,-0.108062744140625,-0.987823486328125,-0.0817718505859375,-0.0091402353718876,0.0071524516679346,0.0024003069847822
1770451235432,-0.109649658203125,-0.9886016845703124,-0.0874481201171875,-0.0032072449102997,5.5926382628967986e-05,0.0008647284121252
1770451235442,-0.1114501953125,-0.985198974609375,-0.08441162109375,-0.004644020460546,-0.0065316688269376,-0.0024756744969636
1770451235453,-0.111236572265625,-0.981414794921875,-0.084747314453125,-0.0081162499263882,-0.0064472467638552,-0.0058962386101484
1770451235462,-0.1106719970703125,-0.9799041748046876,-0.0888824462890625,-0.0104302698746323,0.0007464840309694,-0.0085032070055603
1770451235472,-0.107940673828125,-0.98187255859375,-0.0888214111328125,-0.0151318153366446,0.0127512151375412,-0.0088845714926719
1770451235483,-0.1029510498046875,-0.9893951416015624,-0.089508056640625,-0.0186048429459333,0.0199401527643203,-0.0101591609418392
1770451235493,-0.1003875732421875,-0.9907989501953124,-0.08905029296875,-0.0208725240081548,0.0233487319201231,-0.0063260728493332
1770451235503,-0.098876953125,-0.99237060546875,-0.095123291015625,-0.0191619768738746,0.0150157008320093,-0.0032202943693846
1770451235513,-0.099151611328125,-0.991455078125,-0.0941314697265625,-0.0161486100405454,0.006115416996181,0.0004985437262803
1770451235523,-0.1021728515625,-0.989410400390625,-0.093475341796875,-0.0123528065159916,0.0018234663875773,0.0030711572617292
1770451235533,-0.1043243408203125,-0.9891510009765624,-0.09576416015625,-0.0109546463936567,-0.0121637219563126,0.0040344228036701
1770451235543,-0.1072845458984375,-0.987213134765625,-0.08905029296875,-0.0092555498704314,-0.0071175643242895,0.0053787864744663
1770451235553,-0.1063995361328125,-0.988311767578125,-0.0911712646484375,-0.0093389069661498,-0.0044440170750021,0.005445631686598
1770451235563,-0.106475830078125,-0.9910430908203124,-0.0910797119140625,-0.0173169393092393,0.0027598338201642,0.0067138290032744
1770451235573,-0.1038360595703125,-0.9837646484375,-0.092498779296875,-0.0185097679495811,0.0035025894176214,0.0090595409274101
1770451235583,-0.1059112548828125,-0.9875335693359376,-0.094635009765625,-0.0159163828939199,0.0014077469240874,0.0112521219998598
1770451235593,-0.101837158203125,-0.9923248291015624,-0.09326171875,-0.009517072699964,-4.5273736759554595e-06,0.0150085100904107
1770451235603,-0.102142333984375,-0.9844970703125,-0.0938873291015625,-0.0036679718177765,-0.0025470473337918,0.0130689302459359
1770451235613,-0.1068572998046875,-0.9809112548828124,-0.0930633544921875,0.0013142699608579,-0.0029212213121354,0.0104648917913436
1770451235623,-0.1076812744140625,-0.9838104248046876,-0.094268798828125,0.0109330751001834,-0.007374026812613,0.004128432366997
1770451235633,-0.1095123291015625,-0.98443603515625,-0.0937347412109375,0.0151536529883742,-0.0142702823504805,-0.0001816275907913
1770451235643,-0.1116180419921875,-0.9836883544921876,-0.0894622802734375,0.0180439818650484,-0.0066605657339096,0.0007563377148471
1770451235653,-0.110809326171875,-0.9847259521484376,-0.086151123046875,0.0118316253647208,-0.0034184334799647,0.0008663262706249
1770451235663,-0.1060791015625,-0.987396240234375,-0.0856170654296875,0.0047540087252855,0.0019608854781836,0.0023145533632487
1770451235673,-0.10211181640625,-0.9902191162109376,-0.0884552001953125,-0.0017158746486529,0.0040599890053272,0.0041239047423005
1770451235683,-0.09954833984375,-0.9916839599609376,-0.083251953125,-0.0106995161622762,0.0072145033627748,0.0104004433378577
1770451235694,-0.102569580078125,-0.9908294677734376,-0.0814666748046875,-0.0181473121047019,0.0219867918640375,0.0133749274536967
1770451235704,-0.1053009033203125,-0.989990234375,-0.088623046875,-0.0193483978509902,0.0127118006348609,0.0128074083477258
1770451235714,-0.10888671875,-0.986785888671875,-0.09051513671875,-0.0201444160193204,0.0060645504854619,0.0118428105488419
1770451235724,-0.1098785400390625,-0.98260498046875,-0.0904388427734375,-0.0196653138846158,0.0017968347528949,0.0081098582595586
1770451235734,-0.11004638671875,-0.9842681884765624,-0.0897979736328125,-0.020878117531538,-0.0038248319178819,0.0075825522653758
1770451235744,-0.1077117919921875,-0.986663818359375,-0.094940185546875,-0.014443919993937,-0.0058464375324547,0.0079356869682669
1770451235754,-0.107696533203125,-0.9845733642578124,-0.096343994140625,-0.0136985015124082,-0.0088281128555536,0.0068115671165287
1770451235764,-0.11090087890625,-0.9842071533203124,-0.0939178466796875,-0.0080605894327163,0.0001121190798585,0.0044733118265867
1770451235774,-0.1096649169921875,-0.9853668212890624,-0.1015167236328125,0.0008567389450035,-0.0065673552453517,0.0026565031148493
1770451235784,-0.109405517578125,-0.9894561767578124,-0.1080474853515625,0.0124164558947086,-0.0186874009668827,0.0022527680266648
1770451235794,-0.1076812744140625,-0.98828125,-0.1025848388671875,0.0231865458190441,-0.0187979228794574,0.0031832763925194
1770451235804,-0.1055145263671875,-0.9865570068359376,-0.085968017578125,0.0178719405084848,0.0001012001230265,0.0030394657514989
1770451235814,-0.1033782958984375,-0.9871368408203124,-0.0860595703125,0.0159920156002044,0.0256254691630601,0.0022221414837986
1770451235824,-0.109405517578125,-0.9919891357421876,-0.0950927734375,0.0179427806288003,0.0125546734780073,0.0024610271211713
1770451235834,-0.1071624755859375,-0.989990234375,-0.09417724609375,0.0191923361271619,0.001040230737999,0.0038429414853453
1770451235844,-0.1085357666015625,-0.9882049560546876,-0.093658447265625,0.0215857196599245,-0.0021286646369844,0.0037593182642012
1770451235854,-0.1143646240234375,-0.984710693359375,-0.091552734375,0.0218445789068937,-0.0024722123052924,-8.335694292327389e-05
1770451235864,-0.112274169921875,-0.988555908203125,-0.0927886962890625,0.026684608310461,-0.0113836815580725,0.0005259743193164
1770451235874,-0.1093597412109375,-0.9859771728515624,-0.0871734619140625,0.0187406651675701,-0.0079511338844895,-0.002280997345224
1770451235884,-0.1079254150390625,-0.985809326171875,-0.0836334228515625,0.0147358030080795,0.0048637310974299,-0.0033409355673938
1770451235894,-0.105712890625,-0.99444580078125,-0.0901031494140625,0.0143355298787355,-0.0050339070148766,-0.0013733921805396
1770451235904,-0.1041412353515625,-0.9930267333984376,-0.0889739990234375,0.0117525300011038,-0.0065290057100355,0.0012109393719583
1770451235915,-0.1017913818359375,-0.9868316650390624,-0.0864410400390625,0.0094374436885118,-0.0005906891310587,0.0038405444938689
1770451235925,-0.1069183349609375,-0.9878387451171876,-0.0856170654296875,0.0047092675231397,-0.00374600244686,0.0040626521222293
1770451235935,-0.108795166015625,-0.9877471923828124,-0.0837860107421875,0.0061116884462535,0.001659948262386,0.0038804919458925
1770451235945,-0.1066741943359375,-0.9862518310546876,-0.0855712890625,0.0032186964526772,0.006190251559019,0.0043649207800626
1770451235955,-0.1080169677734375,-0.986419677734375,-0.0869140625,0.0036272252909839,0.0051604071632027,0.0027899276465177
1770451235965,-0.10809326171875,-0.9887847900390624,-0.089385986328125,0.0054376423358917,-0.0014801849611103,0.0033217607997357
1770451235975,-0.107879638671875,-0.9883880615234376,-0.0821685791015625,-0.000835966260638,-0.0059018312022089,0.0049228533171117
1770451235985,-0.10772705078125,-0.9865264892578124,-0.084014892578125,-0.0034434671979397,-0.004447478801012,0.0048517468385398
1770451235995,-0.109893798828125,-0.9880218505859376,-0.0866546630859375,-0.0076880133710801,-0.010464359074831,0.0049532135017216
1770451236005,-0.1077423095703125,-0.9881591796875,-0.085845947265625,-0.0068022459745407,0.0016429040115326,0.0070432620123028
1770451236015,-0.1062164306640625,-0.985748291015625,-0.0863189697265625,-0.009092298336327,0.0087996171787381,0.0045231129042804
1770451236025,-0.1087493896484375,-0.9824371337890624,-0.08642578125,-0.006778810173273,0.0151419350877404,0.0032748891972005
1770451236035,-0.10748291015625,-0.9868927001953124,-0.0890960693359375,-0.0034551850985735,0.0041252365335822,0.0019097528420388
1770451236045,-0.107696533203125,-0.988311767578125,-0.0876617431640625,-0.0041928808204829,5.77905957470648e-05,0.0032823460642248
1770451236055,-0.108642578125,-0.9869232177734376,-0.085662841796875,-0.0021046961192041,0.0013912353897467,0.0030479878187179
1770451236065,-0.10980224609375,-0.9876708984375,-0.08709716796875,-0.0031364047899842,-0.0017417073249816,0.0016386429779231
1770451236075,-0.105560302734375,-0.985870361328125,-0.0892486572265625,-0.0034248251467943,-0.0015305186389014,0.0048751826398074
1770451236085,-0.1036529541015625,-0.988250732421875,-0.0861358642578125,-0.0086845681071281,0.0011555455857887,0.0064104949124157
1770451236096,-0.1040802001953125,-0.9913482666015624,-0.0850677490234375,-0.0145613653585314,0.0132612101733684,0.0111772874370217
1770451236105,-0.1041412353515625,-0.988555908203125,-0.0862884521484375,-0.0168239865452051,0.0081953452900052,0.0158660486340522
1770451236116,-0.1083831787109375,-0.9865264892578124,-0.0853424072265625,-0.0219548344612121,0.0040352218784391,0.0147632332518696
1770451236125,-0.1147918701171875,-0.982666015625,-0.0886383056640625,-0.0198725070804357,0.0047558732330799,0.0099229384213685
1770451236135,-0.115081787109375,-0.9839019775390624,-0.091400146484375,-0.0165456868708133,0.0018642127979546,0.0056336508132517
1770451236146,-0.11309814453125,-0.9896087646484376,-0.092132568359375,-0.0137688089162111,0.0061010355129837,0.0060134176164865
1770451236156,-0.1148681640625,-0.99114990234375,-0.0935211181640625,-0.0106989834457635,0.0035441347863525,0.0037870150990784
1770451236166,-0.112152099609375,-0.990692138671875,-0.091766357421875,-0.0112316152080893,-0.0056038233451545,0.0035822179634124
1770451236176,-0.1101531982421875,-0.9930419921875,-0.0906829833984375,-0.0118633173406124,-0.0090885693207383,0.0056682717986404
1770451236186,-0.1075897216796875,-0.9921722412109376,-0.0886077880859375,-0.0152106443420052,-0.0092017538845539,0.0093002915382385
1770451236196,-0.10504150390625,-0.9875946044921876,-0.0900726318359375,-0.0167086720466613,-7.163903501350433e-05,0.0112428003922104
1770451236206,-0.1109161376953125,-0.9788818359375,-0.086761474609375,-0.0135552231222391,0.0132047515362501,0.005454153753817
1770451236216,-0.11688232421875,-0.9723968505859376,-0.0877838134765625,-0.0057574878446757,0.0246243868023157,-0.0070219566114246
1770451236226,-0.11871337890625,-0.97637939453125,-0.0955810546875,0.0117671769112348,0.018473282456398,-0.0167504847049713
1770451236236,-0.118499755859375,-0.9921875,-0.0984649658203125,0.0195960719138383,-0.0013512879377231,-0.0176634155213832
1770451236246,-0.1041107177734375,-1.0071868896484375,-0.1009979248046875,0.0179664827883243,-0.0186037775129079,-0.0053393715061247
1770451236256,-0.1018829345703125,-0.998931884765625,-0.0955810546875,0.0186708904802799,-0.016245549544692,0.0036376116331666
1770451236266,-0.0961761474609375,-0.9913787841796876,-0.086578369140625,0.0135296573862433,-0.0063601611182093,0.0121131222695112
1770451236276,-0.0981292724609375,-0.983856201171875,-0.0783233642578125,0.0097189396619796,0.0195752996951341,0.0125307058915495
1770451236286,-0.104248046875,-0.9834442138671876,-0.082305908203125,0.0093170693144202,0.0172564852982759,0.005626194179058
1770451236296,-0.1100616455078125,-0.979644775390625,-0.0812835693359375,0.0047790426760911,0.011901400052011,-0.0011661982862278
1770451236306,-0.1127166748046875,-0.980560302734375,-0.0809478759765625,-0.0021044297609478,0.0067021111026406,0.0005198490689508
1770451236316,-0.1154937744140625,-0.985260009765625,-0.0823211669921875,-0.0161020047962665,0.001136903418228,0.0050978227518498
1770451236326,-0.1085205078125,-0.9920654296875,-0.0808868408203125,-0.0328969620168209,0.005298891570419,0.0125307058915495
1770451236336,-0.1040496826171875,-0.9931793212890624,-0.0803680419921875,-0.0451315268874168,0.0192661061882972,0.0151949319988489
1770451236347,-0.1073455810546875,-0.9937286376953124,-0.08819580078125,-0.0502370707690715,0.0246803127229213,0.0173057541251182
1770451236357,-0.1078033447265625,-0.99249267578125,-0.0924835205078125,-0.0507313534617424,0.0144324684515595,0.0190434660762548
1770451236367,-0.1110687255859375,-0.986785888671875,-0.0913543701171875,-0.0464945323765277,0.0129094067960977,0.0171446315944194
1770451236377,-0.1120147705078125,-0.98565673828125,-0.090179443359375,-0.0415983088314533,0.0186687596142292,0.0154452687129378
1770451236387,-0.1128997802734375,-0.9856414794921876,-0.091949462890625,-0.0323193222284317,0.0244771130383014,0.0146529786288738
1770451236397,-0.1160888671875,-0.9876556396484376,-0.0999908447265625,-0.0212933048605918,0.0123213808983564,0.0123826339840888
1770451236407,-0.1119232177734375,-0.9847259521484376,-0.099090576171875,-0.013604225590825,0.0044903559610247,0.0113756926730275
1770451236417,-0.1127166748046875,-0.9851226806640624,-0.094085693359375,-0.0119016664102673,0.0109943281859159,0.0074986624531447
1770451236427,-0.112396240234375,-0.9870452880859376,-0.092864990234375,-0.0115141766145825,0.0171811170876026,0.0064168865792453
1770451236437,-0.111572265625,-0.988861083984375,-0.0920562744140625,-0.011674765497446,0.0214658770710229,0.0040163132362067
1770451236447,-0.1131439208984375,-0.988555908203125,-0.090484619140625,-0.0142007740214467,0.0204235166311264,0.0034165694378316
1770451236457,-0.1121673583984375,-0.98583984375,-0.0922698974609375,-0.0148995872586965,0.0198080595582723,0.0015899071004241
1770451236467,-0.11114501953125,-0.9876251220703124,-0.0950927734375,-0.0117179090157151,0.0107016460970044,0.0035385421942919
1770451236477,-0.109893798828125,-0.98968505859375,-0.09869384765625,-0.0058853197842836,-0.0067178239114582,0.0033646377269178
1770451236487,-0.109100341796875,-0.98846435546875,-0.0937347412109375,-0.0069678947329521,-0.011069162748754,0.0049936934374272
1770451236497,-0.1101226806640625,-0.9871673583984376,-0.08837890625,-0.0132582811638712,0.0021102889440953,0.0057969028130173
1770451236507,-0.112579345703125,-0.987457275390625,-0.08941650390625,-0.0135640120133757,0.0090411659330129,0.0063955811783671
1770451236517,-0.1107635498046875,-0.9885101318359376,-0.0934600830078125,-0.0156093193218112,0.0074773575179278,0.005626194179058
1770451236527,-0.11083984375,-0.98919677734375,-0.0955352783203125,-0.0148977227509021,0.0015150723047554,0.0049010151997208
1770451236537,-0.109283447265625,-0.988616943359375,-0.0919647216796875,-0.0234384797513484,0.0037361485883593,0.0069258166477084
1770451236548,-0.1107635498046875,-0.9842071533203124,-0.0936279296875,-0.0199745073914527,0.0103197488933801,0.0094475634396076
1770451236557,-0.116790771484375,-0.988128662109375,-0.0992431640625,-0.0165928248316049,0.0097857853397727,0.0091010862961411
1770451236568,-0.1117095947265625,-0.99090576171875,-0.0960845947265625,-0.0143515085801482,0.0089828418567776,0.0088973548263311
1770451236578,-0.1115875244140625,-0.986236572265625,-0.0932159423828125,-0.0108574414625763,0.0061953114345669,0.0052256546914577
1770451236588,-0.111663818359375,-0.98455810546875,-0.0957794189453125,-0.0017473000334575,0.0016128103015944,0.0004580637032631
1770451236598,-0.115020751953125,-0.98223876953125,-0.0977325439453125,0.008920257911086,-0.004046939779073,-0.0040067257359623
1770451236608,-0.1152496337890625,-0.9832611083984376,-0.097686767578125,0.0198562629520893,-0.0096251964569091,-0.0049742520786821
1770451236618,-0.1130523681640625,-0.9862060546875,-0.093719482421875,0.0204155258834362,-0.0002577939885668,-0.0059971725568175
1770451236628,-0.112762451171875,-0.989959716796875,-0.095367431640625,0.0226520486176013,-0.0083484770730137,-0.0073239593766629
1770451236638,-0.1113739013671875,-0.993255615234375,-0.0942230224609375,0.0200597289949655,-0.0153414057567715,-0.0043566650710999
1770451236648,-0.107574462890625,-0.9903717041015624,-0.0889129638671875,0.0112185664474964,-0.0039627836085855,0.0002039981336565
1770451236658,-0.1061553955078125,-0.9893798828125,-0.08819580078125,0.004734834190458,0.005543103441596,0.0031124362722039
1770451236668,-0.1084136962890625,-0.98907470703125,-0.091278076171875,0.0029672940727323,0.0066959857940673,0.0078280959278345
1770451236678,-0.109222412109375,-0.9900665283203124,-0.0935516357421875,0.0032192291691899,0.0016913736471906,0.0087908282876014
1770451236688,-0.10992431640625,-0.9888153076171876,-0.0931396484375,0.0061961105093359,-0.0065103634260594,0.0078541943803429
1770451236698,-0.1118621826171875,-0.9892425537109376,-0.0949554443359375,0.0117413448169827,-0.0169502217322587,0.006123139988631
1770451236708,-0.11358642578125,-0.985504150390625,-0.0886077880859375,0.0087077375501394,-0.0189896691590547,0.005314870737493
1770451236718,-0.11163330078125,-0.9854278564453124,-0.08465576171875,0.0059652146883308,0.0002687129599507,0.003981692250818
1770451236728,-0.1117095947265625,-0.98687744140625,-0.087738037109375,0.0041694450192153,0.0097173424437642,0.0032216259278357
1770451236738,-0.1109619140625,-0.9897003173828124,-0.0851898193359375,-0.0020682108588516,0.009402023628354,0.0035305526107549
1770451236748,-0.1084442138671875,-0.9915771484375,-0.087646484375,-0.0054573495872318,0.0116001972928643,0.0076549900695681
1770451236758,-0.1125030517578125,-0.9859161376953124,-0.08941650390625,-0.010661432519555,0.009640909731388,0.0052118063904345
1770451236769,-0.11505126953125,-0.9842071533203124,-0.089935302734375,-0.0146543104201555,-0.0023174828384071,0.0058645470999181
1770451236779,-0.11456298828125,-0.986846923828125,-0.091064453125,-0.0183116290718317,-0.0083303675055503,0.0069218217395246
1770451236789,-0.115570068359375,-0.9841156005859376,-0.0885162353515625,-0.0207289811223745,0.0022506373934447,0.0049497513100504
1770451236799,-0.1118927001953125,-0.98406982421875,-0.0879669189453125,-0.0221369937062263,0.0107064405456185,0.0053167347796261
1770451236809,-0.1149444580078125,-0.98358154296875,-0.088226318359375,-0.0253857839852571,0.0166460890322923,0.0023124227300286
1770451236819,-0.1151275634765625,-0.9881744384765624,-0.0946044921875,-0.0198538657277822,0.0088563421741127,0.0016114787431433
1770451236829,-0.1164703369140625,-0.989501953125,-0.09771728515625,-0.0152748264372348,0.0009185242815874,0.0006101301987655
1770451236839,-0.114044189453125,-0.9857940673828124,-0.0948486328125,-0.0099085569381713,0.0040227049030363,0.0009544769418425
1770451236849,-0.1139984130859375,-0.9843292236328124,-0.098663330078125,-0.003320695599541,0.0076797576621174,-0.0003382214636076
1770451236859,-0.1120147705078125,-0.9875640869140624,-0.1013946533203125,0.0034706315491348,0.0002599245344754,-3.488740912871435e-05
1770451236869,-0.1092987060546875,-0.9906768798828124,-0.0969390869140625,0.0030740867368876,-0.0002902845444623,0.0009036105475388
1770451236879,-0.112060546875,-0.991912841796875,-0.0919342041015625,0.0019262643763795,0.0059734703972935,0.0017161410069093
1770451236889,-0.1132354736328125,-0.9921112060546876,-0.092926025390625,0.0028250813484191,0.0061050304211676,0.0016735304379835
1770451236899,-0.1164398193359375,-0.989013671875,-0.0973663330078125,0.0055233961902558,-0.0002157160488422,0.0021505025215446
1770451236909,-0.1129608154296875,-0.98394775390625,-0.096649169921875,0.0106489155441522,0.0040264334529638,0.0027012443169951
1770451236919,-0.1107635498046875,-0.9864044189453124,-0.09942626953125,0.0181015059351921,0.0025691515766084,-0.000622114399448
1770451236929,-0.1144866943359375,-0.986419677734375,-0.102203369140625,0.0263226833194494,-0.0118449414148926,-0.0027465180028229
1770451236939,-0.114532470703125,-0.984893798828125,-0.0952606201171875,0.0311944037675857,-0.0079354206100106,-0.0055260593071579
1770451236949,-0.113311767578125,-0.987030029296875,-0.0922088623046875,0.0331590175628662,-0.0062959790229797,-0.0056336508132517
1770451236959,-0.110595703125,-0.988800048828125,-0.09320068359375,0.0361697226762771,-0.0086675239726901,-0.0070110377855598
1770451236969,-0.1131134033203125,-0.9884796142578124,-0.0897369384765625,0.0337526388466358,-0.0113535886630415,-0.0058072889223694
1770451236979,-0.1100921630859375,-0.9877166748046876,-0.0827789306640625,0.0287584103643894,-0.0067343353293836,-0.0028740833513438
1770451236990,-0.112884521484375,-0.986114501953125,-0.0822296142578125,0.0243040081113576,-0.0044019389897584,-0.0024919197894632
1770451237000,-0.113677978515625,-0.9865570068359376,-0.086151123046875,0.0192368105053901,-0.0106254797428846,-0.003189668059349
1770451237010,-0.11334228515625,-0.987060546875,-0.0824432373046875,0.0140737406909465,-0.0138367200270295,-0.0018807243322953
1770451237020,-0.1104278564453125,-0.9817047119140624,-0.0814971923828125,0.0063340622000396,-0.0095588844269514,-0.003410177771002
1770451237030,-0.1113128662109375,-0.9822540283203124,-0.0786895751953125,-0.0003912183747161,-0.0041449437849223,-0.0038298920262604
1770451237040,-0.111785888671875,-0.9876251220703124,-0.0785064697265625,-0.0086653931066393,0.0111613078042864,-0.0039425436407327
1770451237050,-0.107818603515625,-0.990478515625,-0.082977294921875,-0.0094150733202695,0.0123735787346959,-0.0024072313681244
1770451237061,-0.1117095947265625,-0.98748779296875,-0.08160400390625,-0.0145816057920455,0.0181680843234062,-0.0023156185634434
1770451237070,-0.1149139404296875,-0.984405517578125,-0.0833282470703125,-0.0145003795623779,0.0208429638296365,-0.0027198863681405
1770451237080,-0.11395263671875,-0.9832000732421876,-0.0883636474609375,-0.0138649493455886,0.0077910777181386,-0.0030509172938764
1770451237090,-0.11517333984375,-0.983245849609375,-0.089813232421875,-0.0121450796723365,-0.0016213324852287,-0.0051691955886781
1770451237100,-0.112518310546875,-0.9893035888671876,-0.0876312255859375,-0.0154551230370998,0.0003257046046201,-0.0029723541811108
1770451237110,-0.1097412109375,-0.99005126953125,-0.088165283203125,-0.0204139277338981,0.0065119615755975,-0.000438888935605
1770451237120,-0.108489990234375,-0.9915313720703124,-0.091644287109375,-0.0192535892128944,0.0039254995062947,0.0030402645934373
1770451237130,-0.1048736572265625,-0.9947357177734376,-0.091400146484375,-0.0217375196516513,0.001023719087243,0.0077844196930527
1770451237140,-0.108978271484375,-0.9914093017578124,-0.092071533203125,-0.0238099917769432,0.0004900216590613,0.0117045929655432
1770451237150,-0.1088409423828125,-0.9904937744140624,-0.09686279296875,-0.0192983299493789,-0.0046091326512396,0.0174737982451915
1770451237160,-0.1117401123046875,-0.982757568359375,-0.09881591796875,-0.0080270338803529,-0.0123948846012353,0.0154021261259913
1770451237170,-0.119842529296875,-0.9725189208984376,-0.095367431640625,-0.0037766287568956,-0.0115171065554022,0.0011843077372759
1770451237181,-0.1230621337890625,-0.973876953125,-0.0906219482421875,0.0100108226761221,0.0008077367674559,-0.0087351687252521
1770451237191,-0.1227569580078125,-0.9868011474609376,-0.092193603515625,0.0196927450597286,-0.0038013961166143,-0.012621252797544
1770451237201,-0.1139068603515625,-1.003143310546875,-0.096038818359375,0.0134119456633925,-0.0129964919760823,-0.0059582903049886
1770451237211,-0.10369873046875,-0.9995880126953124,-0.09124755859375,0.0129368379712104,0.0003424825263209,0.0038437403272837
1770451237221,-0.1003265380859375,-0.9953765869140624,-0.0894775390625,0.0105314701795578,0.0033675672020763,0.012998622842133
1770451237231,-0.1044769287109375,-0.98638916015625,-0.0873565673828125,0.0113365435972809,0.0117543935775756,0.0097343865782022
1770451237241,-0.1110382080078125,-0.979736328125,-0.085052490234375,0.0157446078956127,0.0119181787595152,-0.0008372978190891
1770451237251,-0.12042236328125,-0.97314453125,-0.0840301513671875,0.0214837212115526,0.0029150960035622,-0.0090347742661833
1770451237261,-0.121673583984375,-0.9781951904296876,-0.087432861328125,0.0226895995438098,-0.0089767174795269,-0.0144982486963272
1770451237271,-0.1178131103515625,-0.9878692626953124,-0.086090087890625,0.0145805403590202,-0.0157009325921535,-0.0112132392823696
1770451237281,-0.111785888671875,-0.99267578125,-0.0849761962890625,0.0035057852510362,-0.0187907312065362,-0.0043084621429443
1770451237291,-0.1109619140625,-0.9914398193359376,-0.0855712890625,-0.0050999536179006,-0.0061524347402155,0.0008684568456374
1770451237301,-0.107177734375,-0.9892578125,-0.085174560546875,-0.0132217956706881,-0.0020764668006449,0.0028245486319065
1770451237311,-0.103912353515625,-0.9891204833984376,-0.090667724609375,-0.0126055404543876,0.0015363775892183,0.0094254594296216
1770451237321,-0.107147216796875,-0.989593505859375,-0.0911712646484375,-0.0108105698600411,0.002936934120953,0.0125709194689989
1770451237331,-0.110015869140625,-0.990325927734375,-0.0909576416015625,-0.0027630296535789,0.0062270034104585,0.0144865307956933
1770451237341,-0.1156463623046875,-0.988128662109375,-0.0919189453125,0.0050176619552075,-4.181162876193411e-05,0.0122430836781859
1770451237351,-0.118621826171875,-0.988555908203125,-0.090789794921875,0.0148324752226471,-0.0038898130878806,0.0098619516938924
1770451237361,-0.118988037109375,-0.9877471923828124,-0.0841217041015625,0.0167217217385768,-0.0030040456913411,0.0050608050078153
1770451237371,-0.119659423828125,-0.9843597412109376,-0.08349609375,0.0147541789337992,-0.0003992078418377,-0.0014058827655389
1770451237381,-0.1194915771484375,-0.986907958984375,-0.0832977294921875,0.0102371908724308,0.003337207250297,-0.0039539951831102
1770451237391,-0.1152496337890625,-0.988525390625,-0.081787109375,0.0050208577886223,0.0010189254535362,-0.0033148366492241
1770451237401,-0.116729736328125,-0.9855804443359376,-0.0839691162109375,-0.0013576794881373,-0.0003664509567897,-0.0049401638098061
1770451237411,-0.1124420166015625,-0.9876251220703124,-0.083770751953125,-0.0077593862079083,-0.0073186331428587,-0.0042895535007119
1770451237422,-0.110137939453125,-0.987945556640625,-0.076629638671875,-0.0179736744612455,-0.0048211202956736,-0.0047143278643488
1770451237432,-0.1109771728515625,-0.98797607421875,-0.0753631591796875,-0.0275458730757236,0.006001966074109,-0.0023513049818575
1770451237442,-0.107574462890625,-0.9896087646484376,-0.0809173583984375,-0.0339001752436161,-0.0023161512799561,0.0015081481542438
1770451237452,-0.1064910888671875,-0.9883880615234376,-0.0777435302734375,-0.0438486821949481,0.0083583313971757,0.007448861375451
1770451237462,-0.1083831787109375,-0.9845428466796876,-0.080718994140625,-0.0485837794840335,0.0229212939739227,0.0081119881942868
1770451237472,-0.1139373779296875,-0.986968994140625,-0.0902557373046875,-0.0476415529847145,0.0119890188798308,0.0110497213900089
1770451237482,-0.1124114990234375,-0.99078369140625,-0.090576171875,-0.0483720600605011,0.0015701997326686,0.0116420090198516
1770451237492,-0.113433837890625,-0.9917144775390624,-0.0892333984375,-0.0528546907007694,-0.0004402205231599,0.0113330818712711
1770451237502,-0.112274169921875,-0.9865570068359376,-0.0949859619140625,-0.0535969138145446,-0.0035678369458764,0.0120963435620069
1770451237512,-0.1130523681640625,-0.98297119140625,-0.094696044921875,-0.0500037781894207,0.0001454086013836,0.0137850539758801
1770451237522,-0.11431884765625,-0.988616943359375,-0.08843994140625,-0.0513801015913486,0.0131805166602134,0.0174583531916141
1770451237532,-0.11285400390625,-0.9846343994140624,-0.0926361083984375,-0.0488498322665691,0.0224283430725336,0.0151557829231023
1770451237542,-0.11602783203125,-0.9798126220703124,-0.099700927734375,-0.033937994390726,0.0183683540672063,0.0078019965440034
1770451237552,-0.117950439453125,-0.984222412109375,-0.099151611328125,-0.0250880420207977,0.0084323668852448,0.004449876025319
1770451237562,-0.1169586181640625,-0.9855804443359376,-0.0954437255859375,-0.0200741086155176,0.0098294615745544,0.0008828379213809
1770451237572,-0.1155548095703125,-0.9847259521484376,-0.094207763671875,-0.0181800685822963,0.0171084124594926,0.0016924388473853
1770451237582,-0.1179351806640625,-0.9851226806640624,-0.09912109375,-0.0106923254206776,0.0190192312002182,-0.0020224044565111
1770451237592,-0.1158599853515625,-0.98992919921875,-0.100738525390625,-0.0097066890448331,0.010571151971817,0.000670317618642
1770451237602,-0.113922119140625,-0.992523193359375,-0.092529296875,-0.0135078188031911,0.0158290304243564,0.0011494202772155
1770451237612,-0.11279296875,-0.9901885986328124,-0.0957794189453125,-0.0135437715798616,0.0104086985811591,0.0024157534353435
1770451237622,-0.11712646484375,-0.9916229248046876,-0.1002960205078125,-0.0102547677233815,0.0020687435753643,0.0021584921050816
1770451237633,-0.1133575439453125,-0.991485595703125,-0.0995330810546875,-0.0037167076952755,-0.0005115932435728,0.0035960664972662
1770451237643,-0.116058349609375,-0.9868011474609376,-0.0957794189453125,-0.0033009881153702,-0.004250671248883,0.0026860642246901
1770451237653,-0.115203857421875,-0.987335205078125,-0.092803955078125,-0.0012333098566159,-0.0011595403775572,0.0037729002069681
1770451237663,-0.1147308349609375,-0.98785400390625,-0.095977783203125,0.006335926707834,0.0009643306257203,0.0039063245058059
1770451237673,-0.11474609375,-0.9887542724609376,-0.098968505859375,0.0116816898807883,-0.0106995161622762,0.0037246970459818
1770451237683,-0.1138916015625,-0.9882354736328124,-0.0964202880859375,0.0153238289058208,-0.0128596061840653,0.003957191016525
1770451237693,-0.11273193359375,-0.9850311279296876,-0.0926971435546875,0.0154125122353434,-0.0074832164682447,0.003613643348217
1770451237703,-0.1122589111328125,-0.9842987060546876,-0.091217041015625,0.0148958591744303,-0.0014117417158558,0.0033691651187837
1770451237713,-0.1134185791015625,-0.986724853515625,-0.08966064453125,0.0101256044581532,4.101268132217229e-05,0.0022996396292001
1770451237723,-0.114654541015625,-0.9874114990234376,-0.0843963623046875,0.0029004486277699,0.0035425368696451,0.0026762105990201
1770451237733,-0.1165618896484375,-0.9856719970703124,-0.08843994140625,-0.0008833705214783,0.0034714303910732,0.0034730283077806
1770451237743,-0.115692138671875,-0.983978271484375,-0.0888519287109375,-0.0025566346012055,0.0058949068188667,0.0029688919894397
1770451237753,-0.117095947265625,-0.9839630126953124,-0.08917236328125,-0.0011033476330339,0.0095474328845739,0.0028919265605509
1770451237763,-0.1143951416015625,-0.9871063232421876,-0.095916748046875,0.0030953921377658,0.0036610474344342,0.0021004350855946
1770451237773,-0.115142822265625,-0.9857025146484376,-0.0965118408203125,0.0066163572482764,-0.0070621706545352,0.0009515474666841
1770451237783,-0.119293212890625,-0.984619140625,-0.0849609375,0.0001757686259225,0.0037763623986393,-0.0013076120521873
1770451237793,-0.1121826171875,-0.9853057861328124,-0.0849151611328125,-0.0024567660875618,0.0151853440329432,0.0026727484073489
1770451237803,-0.112274169921875,-0.98956298828125,-0.0950927734375,0.0001691107318038,0.0142116928473114,0.0027627632953226
1770451237813,-0.115142822265625,-0.9894561767578124,-0.095977783203125,0.0050256513059139,0.0138223385438323,0.001333444728516
1770451237823,-0.1159820556640625,-0.9895477294921876,-0.0949554443359375,0.0092701977118849,0.002288986928761,-0.0011989551130682
1770451237833,-0.117767333984375,-0.987945556640625,-0.096435546875,0.0113922040909528,-0.0066198194399476,-0.0021933794487267
1770451237844,-0.119232177734375,-0.9857940673828124,-0.0922698974609375,0.0109139000996947,-0.012107528746128,-0.0026658242568373
1770451237853,-0.116943359375,-0.9866943359375,-0.0889129638671875,0.0112433331087231,-0.0064459149725735,-0.000662594451569
1770451237864,-0.1146087646484375,-0.98626708984375,-0.090972900390625,0.0104843322187662,-0.0071804150938987,-0.0015755260828882
1770451237874,-0.114532470703125,-0.9871673583984376,-0.087921142578125,0.005421929527074,-0.0036621128674596,-0.0023648869246244
1770451237884,-0.1128082275390625,-0.986572265625,-0.083282470703125,-0.0006332996999844,0.0055897086858749,-4.340952364145778e-05
1770451237894,-0.1116180419921875,-0.9854278564453124,-0.08355712890625,-0.005765211302787,0.0138055607676506,0.0008551410282962
1770451237904,-0.1123809814453125,-0.9862518310546876,-0.089935302734375,-0.0041619879193603,0.0103525063022971,0.0015326491557061
1770451237914,-0.11639404296875,-0.9871978759765624,-0.0943603515625,-0.0013289173366501,0.007514907978475,0.0013675332302227
1770451237924,-0.11785888671875,-0.9865875244140624,-0.0964202880859375,0.0038799594622105,0.0044213798828423,-0.0011880361707881
1770451237934,-0.1190643310546875,-0.9866790771484376,-0.093902587890625,0.0067018447443842,-6.631271389778703e-05,-0.0035366779193282
1770451237944,-0.1139068603515625,-0.986083984375,-0.08990478515625,0.0065428540110588,-0.0019939087796956,-0.0047079361975193
1770451237954,-0.112701416015625,-0.9877471923828124,-0.0899810791015625,0.004449876025319,0.0011134676169604,-0.0030176278669387
1770451237964,-0.109893798828125,-0.9900360107421876,-0.0912933349609375,0.0036381443496793,-0.0013459615875035,0.0008860336965881
1770451237974,-0.109619140625,-0.98828125,-0.0879669189453125,0.0003123887872789,0.0133118107914924,0.0011342403013259
1770451237984,-0.116912841796875,-0.98516845703125,-0.0920257568359375,0.000532099569682,0.0107557084411382,0.0005145227187313
1770451237994,-0.1166534423828125,-0.98590087890625,-0.0928192138671875,0.0027840686962008,-0.0065268753096461,-0.0006575344596058
1770451238004,-0.116851806640625,-0.9828643798828124,-0.0838623046875,0.0010847054654732,0.002698581200093,0.0004546015989035
1770451238014,-0.114410400390625,-0.98236083984375,-0.0877838134765625,0.0028559740167111,0.0024144218768924,-0.0044163200072944
1770451238024,-0.115966796875,-0.98876953125,-0.086700439453125,-0.0018184063956141,-0.0012391688069328,-0.0065881279297173
1770451238034,-0.114044189453125,-0.9892425537109376,-0.0793914794921875,-0.0116518624126911,0.0074302195571362,-0.0061138188466429
1770451238044,-0.1160736083984375,-0.98797607421875,-0.085205078125,-0.0130897033959627,0.0038061898667365,-0.0075636436231434
1770451238055,-0.1160888671875,-0.98699951171875,-0.0927581787109375,-0.0126231173053383,-0.0085263764485716,-0.0067825387232005
1770451238064,-0.1153411865234375,-0.985626220703125,-0.0905303955078125,-0.0148130347952246,-0.0078339548781514,-0.0045433528721332
1770451238075,-0.115020751953125,-0.98468017578125,-0.087646484375,-0.0146431252360343,-0.0031513185240328,-0.0064523066394031
1770451238085,-0.1170654296875,-0.98944091796875,-0.08929443359375,-0.0150713613256812,0.0071114390157163,-0.007367368787527
1770451238095,-0.113189697265625,-0.990936279296875,-0.089202880859375,-0.0185731519013643,0.0139704104512929,-0.0077647124417126
1770451238105,-0.116668701171875,-0.989837646484375,-0.090240478515625,-0.0189172327518463,0.0210389718413352,-0.0103477127850055
1770451238115,-0.1133575439453125,-0.98980712890625,-0.095428466796875,-0.01643942669034,0.0019904465880244,-0.0072070462629199
1770451238125,-0.1142730712890625,-0.9897003173828124,-0.0856475830078125,-0.0266779493540525,0.0026410568971186,-0.0025113609153777
1770451238135,-0.111480712890625,-0.9895782470703124,-0.0875091552734375,-0.0276862233877182,0.0170791186392307,0.0003062635369133
1770451238145,-0.1118621826171875,-0.98614501953125,-0.0950469970703125,-0.0232398081570863,0.012419119477272,0.0006921555614098
1770451238155,-0.11871337890625,-0.9779205322265624,-0.090240478515625,-0.0245080068707466,0.0179936476051807,-0.0092070801183581
1770451238165,-0.1200714111328125,-0.9754180908203124,-0.0923614501953125,-0.0123674534261226,0.0253730006515979,-0.0226749517023563
1770451238175,-0.1236419677734375,-0.98333740234375,-0.0974578857421875,0.0004812332044821,0.004293814767152,-0.0227375365793705
1770451238185,-0.11602783203125,-1.002593994140625,-0.1019744873046875,-0.0036868802271783,-0.0212994292378425,-0.0160194467753171
1770451238195,-0.1063079833984375,-0.996429443359375,-0.098663330078125,-0.0015949672088027,-0.0106177572160959,-0.0101389205083251
1770451238205,-0.1025543212890625,-0.992828369140625,-0.09381103515625,-0.0010034791193902,-0.0006159891490824,-0.0014546185266226
1770451238215,-0.1045989990234375,-0.9859771728515624,-0.0919342041015625,0.0008692557457834,0.0023422501981258,-0.0042701126076281
1770451238225,-0.10736083984375,-0.9798583984375,-0.083953857421875,0.0005866943974979,0.0077729681506752,-0.0104132257401943
1770451238235,-0.113189697265625,-0.977294921875,-0.080413818359375,-0.0038317560683935,0.0118960738182067,-0.0161323640495538
1770451238245,-0.1176910400390625,-0.984222412109375,-0.08343505859375,-0.0101775359362363,0.0030711572617292,-0.0184527765959501
1770451238255,-0.11773681640625,-0.9879302978515624,-0.08709716796875,-0.0217005014419555,0.0003960120375268,-0.0159209091216325
1770451238266,-0.116455078125,-0.98712158203125,-0.087066650390625,-0.0359689183533191,0.0109205581247806,-0.0098941763862967
1770451238275,-0.1104736328125,-0.9904632568359376,-0.090606689453125,-0.0448345839977264,0.0196107197552919,-0.0061007691547274
1770451238286,-0.1092681884765625,-0.9930267333984376,-0.096923828125,-0.0485054850578308,0.0182221475988626,-0.0062163504771888
1770451238296,-0.1091766357421875,-0.992279052734375,-0.1009979248046875,-0.0420848689973354,0.0094808535650372,-0.0048054079525172
1770451238306,-0.113128662109375,-0.9880828857421876,-0.0970611572265625,-0.0376930497586727,0.0060738716274499,-0.004376106429845
1770451238316,-0.1161651611328125,-0.9857330322265624,-0.0961456298828125,-0.0293032936751842,0.0117802266031503,-0.0060485713183879
1770451238326,-0.1205291748046875,-0.9829559326171876,-0.103118896484375,-0.0138835916295647,0.0087807085365057,-0.0104734133929014
1770451238336,-0.1168670654296875,-0.98590087890625,-0.10186767578125,-0.0010359697043895,0.0020964404102414,-0.0116558568552136
1770451238346,-0.113311767578125,-0.9871673583984376,-0.0934906005859375,8.442220860160887e-05,0.0157595220953226,-0.0141930505633354
1770451238356,-0.1127166748046875,-0.99151611328125,-0.097198486328125,0.003915645647794,0.0099447760730981,-0.0157440751791
1770451238366,-0.1130523681640625,-0.9906463623046876,-0.09576416015625,0.0008988168556243,0.0005038700764998,-0.0163693856447935
1770451238376,-0.1137237548828125,-0.9863128662109376,-0.0882415771484375,-0.0057265954092144,-0.000933704257477,-0.015173359774053
1770451238386,-0.1118621826171875,-0.985198974609375,-0.08929443359375,-0.008445949293673,0.0047209854237735,-0.0159318279474973
1770451238396,-0.1133575439453125,-0.9855499267578124,-0.0953216552734375,-0.0102683501318097,0.0006695187184959,-0.0143685527145862
1770451238406,-0.1085968017578125,-0.986419677734375,-0.091156005859375,-0.0150852091610431,0.0049058091826736,-0.0121336281299591
1770451238416,-0.104736328125,-0.9896697998046876,-0.0916900634765625,-0.0185574386268854,0.0159973427653312,-0.011323494836688
1770451238426,-0.10418701171875,-0.9932861328125,-0.0965118408203125,-0.0175984352827072,0.0047401604242622,-0.0076970681548118
1770451238436,-0.10546875,-0.991729736328125,-0.0938873291015625,-0.0208978243172168,-0.0041830269619822,-0.0032240226864814
1770451238446,-0.1065826416015625,-0.9881591796875,-0.09063720703125,-0.0264236181974411,0.0013070794520899,-1.7310547264060006e-05
1770451238456,-0.109161376953125,-0.9881744384765624,-0.092742919921875,-0.0289746597409248,0.0046477485448122,0.0027968517970293
1770451238466,-0.11029052734375,-0.986846923828125,-0.096527099609375,-0.026876887306571,0.0073348782025277,0.0045279064215719
1770451238476,-0.1105804443359375,-0.986328125,-0.0974273681640625,-0.0314157120883464,0.006008624099195,0.0055076833814382
1770451238487,-0.1118316650390625,-0.9835205078125,-0.0947113037109375,-0.0348599776625633,0.0111250886693596,0.0028607675340026
1770451238497,-0.118255615234375,-0.982513427734375,-0.0999908447265625,-0.0276119206100702,0.0142793366685509,0.0018538264557719
1770451238507,-0.110137939453125,-0.9936676025390624,-0.1008453369140625,-0.0272111147642135,0.0056613478809595,0.0077412766404449
1770451238517,-0.10888671875,-0.987457275390625,-0.096649169921875,-0.0224805418401956,0.0122497417032718,0.0041470741853117
1770451238527,-0.1129608154296875,-0.9822235107421876,-0.0997314453125,-0.0158095899969339,0.0074520572088658,-0.0002308960683876
1770451238537,-0.1125030517578125,-0.9858245849609376,-0.0983428955078125,-0.0098212053999304,-0.0031278827227652,-0.0027518442366272
1770451238547,-0.112518310546875,-0.986785888671875,-0.09759521484375,-0.0038352182600647,-0.0074752266518771,-0.0054749264381825
1770451238557,-0.1137237548828125,-0.987457275390625,-0.1003265380859375,0.000446612102678,-0.0106760803610086,-0.0077641797251999
1770451238567,-0.1127777099609375,-0.9898681640625,-0.09490966796875,-0.0047771781682968,-0.006435262504965,-0.0061114220879971
1770451238577,-0.1110076904296875,-0.9903106689453124,-0.08984375,-0.0122689167037606,0.0111362747848033,-0.0043124565854668
1770451238587,-0.1085968017578125,-0.9913787841796876,-0.0938568115234375,-0.0222302041947841,0.0148577755317091,-0.002739327494055
1770451238597,-0.10699462890625,-0.9889373779296876,-0.0908355712890625,-0.0299914553761482,0.0209827795624732,0.0005816344055347
1770451238607,-0.1085662841796875,-0.9860076904296876,-0.090423583984375,-0.0373553596436977,0.0158258341252803,0.0031798142008483
1770451238617,-0.11083984375,-0.985015869140625,-0.0934906005859375,-0.0390259623527526,0.013202354311943,0.003402188187465
1770451238627,-0.1133880615234375,-0.985595703125,-0.0955047607421875,-0.0420869998633861,0.0014628743520006,0.0032932648900896
1770451238637,-0.11181640625,-0.9852294921875,-0.0893707275390625,-0.0461011826992034,0.0021861889399588,0.0034429347142577
1770451238647,-0.1089935302734375,-0.9850006103515624,-0.08721923828125,-0.0528546907007694,0.0111429318785667,0.0030887341126799
1770451238657,-0.1080169677734375,-0.9853057861328124,-0.0900726318359375,-0.0609110221266746,0.0193936713039875,0.0018192053539678
1770451238667,-0.107757568359375,-0.9875946044921876,-0.0933990478515625,-0.0642375722527504,0.0272177718579769,0.0026964505668729
1770451238677,-0.112518310546875,-0.9876556396484376,-0.1014556884765625,-0.0594153888523578,0.016995495185256,0.0035039209760725
1770451238687,-0.114990234375,-0.98321533203125,-0.10455322265625,-0.0549804270267486,0.0073146382346749,0.0012687299167737
1770451238697,-0.1154937744140625,-0.9826507568359376,-0.108001708984375,-0.046518500894308,0.0017528926255181,0.001612277701497
1770451238707,-0.1107940673828125,-0.9843597412109376,-0.1110992431640625,-0.0359955504536628,-0.0002468750171829,-8.309062832267955e-05
1770451238718,-0.1093902587890625,-0.98663330078125,-0.1119384765625,-0.028883846476674,0.001285774167627,0.0009230516152456
1770451238728,-0.1073760986328125,-0.985015869140625,-0.1084442138671875,-0.0242584683001041,0.0037904770579189,0.003057841444388
1770451238738,-0.11126708984375,-0.9880218505859376,-0.1118621826171875,-0.0145469848066568,0.0004663194995373,0.0013078784104436
1770451238748,-0.1110382080078125,-0.9887237548828124,-0.113372802734375,-0.003540406236425,-0.0104060359299182,0.002274605911225
1770451238758,-0.111328125,-0.9870147705078124,-0.111846923828125,0.0050821104086935,-0.0130609404295682,0.0025459819007664
1770451238768,-0.1123809814453125,-0.9857330322265624,-0.10992431640625,0.0100329266861081,-0.0114238960668444,-0.0019236012594774
1770451238778,-0.1125335693359375,-0.9858245849609376,-0.1081085205078125,0.019039737060666,-0.0085056042298674,-0.0031870049424469
1770451238788,-0.1145172119140625,-0.9877166748046876,-0.107513427734375,0.0222981143742799,-0.0099106878042221,-0.0054898401722311
1770451238798,-0.1156463623046875,-0.985565185546875,-0.0991058349609375,0.0170479584485292,-0.0099450424313545,-0.0076744314283132
1770451238809,-0.111968994140625,-0.98272705078125,-0.0962066650390625,0.0119693111628293,0.0078755002468824,-0.0081354239955544
1770451238818,-0.10833740234375,-0.988189697265625,-0.1013031005859375,0.0105647603049874,0.007292800117284,-0.006426740437746
1770451238828,-0.109588623046875,-0.988006591796875,-0.09912109375,0.008780974894762,0.0030767500866204,-0.0053114085458219
1770451238838,-0.1132049560546875,-0.9869842529296876,-0.103607177734375,0.013457485474646,-0.0004271710349712,-0.0078957397490739
1770451238848,-0.113525390625,-0.984954833984375,-0.1024322509765625,0.0160181149840354,-0.0091676656156778,-0.0091410344466567
1770451238858,-0.1143341064453125,-0.98480224609375,-0.0994873046875,0.0203875638544559,-0.0096787260845303,-0.0123027386143803
1770451238868,-0.1112060546875,-0.98394775390625,-0.1045684814453125,0.0247093401849269,-0.0124153904616832,-0.0096414424479007
1770451238878,-0.110015869140625,-0.984100341796875,-0.106842041015625,0.031782429665327,-0.0159193109720945,-0.0105567704886198
1770451238888,-0.107818603515625,-0.98876953125,-0.1034393310546875,0.0329009592533111,-0.018688466399908,-0.0104073667898774
1770451238898,-0.1055908203125,-0.9891815185546876,-0.098876953125,0.0324849709868431,-0.0138172786682844,-0.0071031833067536
1770451238908,-0.10693359375,-0.9890899658203124,-0.0980224609375,0.0345180295407772,-0.0119780991226434,-0.0067330040037631
1770451238918,-0.108154296875,-0.9876708984375,-0.0970916748046875,0.0311254281550645,-0.0141914524137973,-0.0059897154569625
1770451238928,-0.109527587890625,-0.98541259765625,-0.08807373046875,0.0235996022820472,-0.0039393478073179,-0.0052938316948711
1770451238939,-0.1085052490234375,-0.987030029296875,-0.0888824462890625,0.0161118581891059,0.0036815537605434,-0.0040988712571561
1770451238949,-0.1064453125,-0.989471435546875,-0.0902862548828125,0.0091197285801172,0.0012098740553483,0.0004950816510245
1770451238959,-0.106109619140625,-0.988311767578125,-0.0859222412109375,-0.0017675400013104,0.007219829596579,0.0016671388875693
1770451238969,-0.1105499267578125,-0.9854278564453124,-0.08343505859375,-0.0146124986931681,0.0140646863728761,-0.0008242483600042
1770451238979,-0.1130523681640625,-0.981353759765625,-0.0855560302734375,-0.0229732263833284,0.0214195381850004,-0.0016660735709592
1770451238989,-0.111663818359375,-0.9828643798828124,-0.093658447265625,-0.0253357160836458,0.0135243311524391,-0.0023073628544807
1770451238999,-0.1105499267578125,-0.9852752685546876,-0.0967254638671875,-0.0248451624065637,0.0061585600487887,-0.0038964708801358
1770451239009,-0.110565185546875,-0.9871978759765624,-0.09710693359375,-0.0272638443857431,-0.00173371785786,-0.0017217335989698
1770451239019,-0.1068878173828125,-0.9886016845703124,-0.094512939453125,-0.0299656223505735,-0.0031292142812162,-0.0020152139477431
1770451239029,-0.1097564697265625,-0.9860076904296876,-0.092559814453125,-0.0340194851160049,-0.0043947482481598,-0.0016389093361794
1770451239039,-0.1094970703125,-0.984893798828125,-0.08746337890625,-0.0416798032820224,0.007628624793142,-0.0002796319022309
1770451239049,-0.1087799072265625,-0.9876861572265624,-0.0892333984375,-0.0496628955006599,0.0150204943493008,0.0002607234637252
1770451239059,-0.110015869140625,-0.9864959716796876,-0.0934906005859375,-0.0566180050373077,0.0098931109532713,0.0025276062078773
1770451239069,-0.1123809814453125,-0.98760986328125,-0.0973968505859375,-0.0600612051784992,0.0091964276507496,0.0008202536264434
1770451239079,-0.1126251220703125,-0.989349365234375,-0.0982666015625,-0.0640106722712516,0.0046607982367277,0.0015100123127922
1770451239089,-0.109893798828125,-0.9886474609375,-0.1029205322265625,-0.0661622434854507,0.0062067629769444,0.0029707562644034
1770451239099,-0.1077117919921875,-0.9926605224609376,-0.105377197265625,-0.0674357637763023,0.0086898943409323,0.0067873322404921
1770451239109,-0.10791015625,-0.9891357421875,-0.1076812744140625,-0.063760869204998,0.0201486777514219,0.0051185954362154
1770451239119,-0.1110076904296875,-0.9816131591796876,-0.108673095703125,-0.054763913154602,0.0237897522747516,0.0048235175199806
1770451239129,-0.117523193359375,-0.9730224609375,-0.114715576171875,-0.0404566116631031,0.025402296334505,-0.0040804953314363
1770451239139,-0.1143951416015625,-0.9744873046875,-0.121551513671875,-0.0162343643605709,0.0128247188404202,-0.01201724819839
1770451239150,-0.1168365478515625,-0.98394775390625,-0.1154937744140625,0.0005384911783039,0.0059867859818041,-0.015598933212459
1770451239160,-0.10491943359375,-1.00494384765625,-0.1220703125,0.0080022662878036,-0.000508930068463,-0.0054791877046227
1770451239170,-0.102996826171875,-1.002685546875,-0.125701904296875,0.0218208767473697,-0.0067391293123364,0.0031827439088374
1770451239180,-0.1045684814453125,-0.9930572509765624,-0.1207275390625,0.0348051190376281,-0.0153440684080123,0.0089591396972537
1770451239190,-0.1069793701171875,-0.9826202392578124,-0.116943359375,0.0518464185297489,-0.016457537189126,0.0009962886106222
1770451239200,-0.1116485595703125,-0.9761505126953124,-0.115509033203125,0.0712075978517532,-0.0202027391642332,-0.0092600770294666
1770451239210,-0.1169586181640625,-0.973846435546875,-0.1109161376953125,0.0805893838405609,-0.0336631536483764,-0.0188783500343561
1770451239220,-0.116912841796875,-0.977752685546875,-0.1079864501953125,0.0882129520177841,-0.0341736823320388,-0.022781478241086
1770451239230,-0.11529541015625,-0.988616943359375,-0.1059112548828125,0.0860435366630554,-0.0351974032819271,-0.0207002181559801
1770451239240,-0.10919189453125,-0.989990234375,-0.0982818603515625,0.0754934251308441,-0.0210986267775297,-0.0142849292606115
1770451239250,-0.103973388671875,-0.9913177490234376,-0.0948333740234375,0.065410166978836,-0.0101716769859194,-0.0103972470387816
1770451239260,-0.10247802734375,-0.994415283203125,-0.096466064453125,0.0580119043588638,-0.0135807897895574,-0.0049841059371829
1770451239270,-0.1017913818359375,-0.9920806884765624,-0.0937652587890625,0.0528317876160144,-0.0115053886547684,0.0017965685110539
1770451239280,-0.1058197021484375,-0.990570068359375,-0.0873260498046875,0.0475443489849567,-0.0060339239425957,0.003164634341374
1770451239290,-0.10992431640625,-0.9878387451171876,-0.0845947265625,0.0431706383824348,0.0059905145317316,0.004496481269598
1770451239300,-0.11248779296875,-0.9847564697265624,-0.09014892578125,0.0431895479559898,0.0026431872975081,-4.420847471919842e-05
1770451239310,-0.1128997802734375,-0.9854736328125,-0.0966033935546875,0.0484926998615264,-0.0083314329385757,0.0006074670236557
1770451239320,-0.1146240234375,-0.983795166015625,-0.0995025634765625,0.055221177637577,-0.0272025931626558,-0.0041665155440568
1770451239330,-0.1119384765625,-0.9805908203125,-0.0923004150390625,0.0544445998966693,-0.0242302380502223,-0.0052773198112845
1770451239340,-0.1095123291015625,-0.9849395751953124,-0.0908660888671875,0.0543090440332889,-0.0164524763822555,-0.0097463708370924
1770451239350,-0.108642578125,-0.9852142333984376,-0.0908966064453125,0.0509241670370101,-0.0057449708692729,-0.0093221291899681
1770451239361,-0.1087646484375,-0.989532470703125,-0.094146728515625,0.0493076294660568,-0.0063263392075896,-0.0113237611949443
1770451239370,-0.1063232421875,-0.994720458984375,-0.0913543701171875,0.0451813265681266,-0.0177321247756481,-0.0088526140898466
1770451239381,-0.1106414794921875,-0.9916839599609376,-0.089019775390625,0.0424169637262821,-0.0222517754882574,-0.0071588433347642
1770451239391,-0.1130523681640625,-0.98895263671875,-0.08544921875,0.0357185825705528,-0.0231878776103258,-0.0073862774297595
1770451239401,-0.1127166748046875,-0.98773193359375,-0.0834503173828125,0.0278745088726282,-0.0139339249581098,-0.0087186563760042
1770451239411,-0.109405517578125,-0.9859771728515624,-0.0808563232421875,0.0182333327829837,-0.006950051523745,-0.0063761402852833
1770451239421,-0.108062744140625,-0.985992431640625,-0.0775604248046875,0.0099634183570742,0.0020879183430224,-0.0055462992750108
1770451239431,-0.105499267578125,-0.98577880859375,-0.0751800537109375,-0.0082805668935179,0.0082880239933729,-0.0025648903101682
1770451239441,-0.105804443359375,-0.9896240234375,-0.0744476318359375,-0.0236480720341205,0.0175182726234197,-0.0024080302100628
1770451239451,-0.1046600341796875,-0.993988037109375,-0.0836639404296875,-0.0344370678067207,0.0200690496712923,0.0029606360476464
1770451239461,-0.109893798828125,-0.9869842529296876,-0.090179443359375,-0.03383120149374,0.0190040506422519,0.0024639565963298
1770451239471,-0.1100921630859375,-0.9853973388671876,-0.0988311767578125,-0.0252451691776514,0.0038203045260161,0.0041558630764484
1770451239481,-0.11297607421875,-0.9822845458984376,-0.0972900390625,-0.0136726684868335,-0.0068464544601738,0.0025955168530344
1770451239491,-0.1092681884765625,-0.9794464111328124,-0.0941314697265625,-0.0037851508241146,0.0013962953817099,-0.0039814258925616
1770451239501,-0.10748291015625,-0.984405517578125,-0.0998992919921875,0.0105722164735198,-0.0023981765843927,-0.0075476649217307
1770451239511,-0.1074981689453125,-0.9871826171875,-0.097991943359375,0.0187443923205137,-0.0014349111588671,-0.0074525899253785
1770451239521,-0.109130859375,-0.987579345703125,-0.0976409912109375,0.0263128299266099,-0.0013009541435167,-0.0063612265512347
1770451239531,-0.1086578369140625,-0.9891357421875,-0.0956878662109375,0.0302327368408441,-0.0068909293040633,-0.0049217878840863
1770451239541,-0.1075439453125,-0.9900054931640624,-0.092529296875,0.0281336326152086,-0.0110939303413033,-0.003704457078129
1770451239551,-0.1100311279296875,-0.9874725341796876,-0.089141845703125,0.0252547562122344,-0.007333546411246,-0.0045340317301452
1770451239561,-0.1067962646484375,-0.9889678955078124,-0.08892822265625,0.0242534074932336,-0.0040754354558885,-0.0023161512799561
1770451239571,-0.10723876953125,-0.9939422607421876,-0.0908050537109375,0.0258531682193279,-0.0132345790043473,0.0005371595616452
1770451239581,-0.10931396484375,-0.9903411865234376,-0.0875701904296875,0.026391128078103,-0.0179470423609018,0.0004822984628845
1770451239592,-0.10870361328125,-0.9869384765625,-0.0938568115234375,0.0322602018713951,-0.0350320190191268,-0.0033190976828336
1770451239602,-0.1110382080078125,-0.9882659912109376,-0.09869384765625,0.0431099198758602,-0.0583312176167964,-0.0043188482522964
1770451239612,-0.1107177734375,-0.99005126953125,-0.09234619140625,0.0466596484184265,-0.0713804364204406,-0.0038320224266499
1770451239622,-0.107177734375,-0.98681640625,-0.0838470458984375,0.0463632382452487,-0.067621923983097,-0.0013081447687
1770451239632,-0.1110382080078125,-0.9840850830078124,-0.08074951171875,0.0422214902937412,-0.0564872436225414,-0.001881523290649
1770451239642,-0.106170654296875,-0.9898681640625,-0.0834503173828125,0.0457368604838848,-0.0351992659270763,-0.0025768745690584
1770451239652,-0.1080169677734375,-0.9896697998046876,-0.0879364013671875,0.0470934771001338,-0.0320231802761554,-0.0009358347742818
1770451239662,-0.111358642578125,-0.9865264892578124,-0.0848388671875,0.0460122339427471,-0.025840651243925,-0.0024517059791833
1770451239672,-0.1090240478515625,-0.986572265625,-0.0844268798828125,0.0457706823945045,-0.0276089906692504,-0.0022607573773711
1770451239682,-0.10760498046875,-0.98931884765625,-0.0841827392578125,0.0462785474956035,-0.032696958631277,-0.0023273364640772
1770451239692,-0.1107940673828125,-0.9894256591796876,-0.079986572265625,0.043285422027111,-0.0365747883915901,-0.0006258428329601
1770451239702,-0.1081390380859375,-0.987701416015625,-0.0748138427734375,0.0378096960484981,-0.0243908278644084,-0.0001081243390217
1770451239712,-0.10736083984375,-0.987274169921875,-0.07855224609375,0.0367849133908748,-0.0250142738223075,-0.0014711301773786
1770451239722,-0.1086273193359375,-0.9897613525390624,-0.078521728515625,0.0298740100115537,-0.0302732177078723,-0.0015161376213654
1770451239732,-0.109405517578125,-0.9867706298828124,-0.0674285888671875,0.0192144401371479,-0.0059590893797576,-0.0040112533606588
1770451239742,-0.107574462890625,-0.98822021484375,-0.069976806640625,0.011396731249988,-0.0020554277580231,-0.0032591766212135
1770451239752,-0.111083984375,-0.9876556396484376,-0.0762939453125,0.0074286214075982,-0.0053316485136747,-0.0027382622938603
1770451239762,-0.1108551025390625,-0.98565673828125,-0.07904052734375,0.0048296428285539,-0.0122366929426789,-0.0012053466634824
1770451239772,-0.106842041015625,-0.9872283935546876,-0.0765838623046875,-0.0003922836331184,-0.0051582767628133,-0.0019070896087214
1770451239782,-0.10894775390625,-0.9885406494140624,-0.0757598876953125,-0.0036573191173374,0.0081934817135334,-0.0013944311067461
1770451239792,-0.1057281494140625,-0.9905548095703124,-0.0792694091796875,-0.0052797170355916,0.0112433331087231,0.0013853764394298
1770451239803,-0.103546142578125,-0.9920196533203124,-0.0757904052734375,-0.0077873491682112,0.0146995838731527,0.0008833705214783
1770451239813,-0.1056365966796875,-0.9887542724609376,-0.075653076171875,-0.0143352635204792,0.0066571035422384,0.005657619331032
1770451239823,-0.1107940673828125,-0.98809814453125,-0.0745086669921875,-0.0177041627466678,0.0031846079509705,0.0021917815320193
1770451239833,-0.11309814453125,-0.98895263671875,-0.0766143798828125,-0.0210027527064085,-0.0020061591640114,0.0005917543894611
1770451239843,-0.1122589111328125,-0.9862518310546876,-0.0770416259765625,-0.0247365050017833,-0.0050347060896456,0.0006354302167892
1770451239853,-0.1102294921875,-0.9870452880859376,-0.078643798828125,-0.025652365759015,-0.0003976099542342,-0.0002745719102676
1770451239863,-0.11004638671875,-0.9870452880859376,-0.080078125,-0.0248704627156257,-0.003491137875244,0.0004503405361901
1770451239873,-0.1079864501953125,-0.9853057861328124,-0.0844879150390625,-0.0255599543452262,-0.0080696446821093,-0.0007821703911758
1770451239883,-0.1079559326171875,-0.9888458251953124,-0.0883026123046875,-0.0189209599047899,-0.0150641705840826,0.0008748483960516
1770451239893,-0.10595703125,-0.9894866943359376,-0.0867462158203125,-0.0124452179297804,-0.0140598928555846,0.0053931674920022
1770451239903,-0.1057586669921875,-0.987823486328125,-0.0867156982421875,-0.00758787849918,-0.0082363579422235,0.0048291101120412
1770451239913,-0.1070556640625,-0.989044189453125,-0.0866546630859375,-0.0039798277430236,-0.0060142166912555,0.0046943537890911
1770451239923,-0.1051483154296875,-0.98785400390625,-0.0882415771484375,0.0019659455865621,-0.0083490097895264,0.0079591227695345
1770451239933,-0.1076202392578125,-0.988372802734375,-0.090179443359375,0.010750382207334,-0.0094662057235836,0.007219829596579
1770451239943,-0.1085968017578125,-0.98724365234375,-0.0864715576171875,0.0144274085760116,-0.0079237027093768,0.0060568270273506
1770451239954,-0.112548828125,-0.98834228515625,-0.081939697265625,0.0186168272048234,-0.0022895196452736,0.0029318740125745
1770451239963,-0.11181640625,-0.9933013916015624,-0.0824432373046875,0.0176240000873804,-0.0072070462629199,0.0044962149113416
1770451239973,-0.1122894287109375,-0.991546630859375,-0.082000732421875,0.0187862049788236,-0.0103122927248477,0.0041761030443012
1770451239983,-0.112762451171875,-0.98974609375,-0.0804443359375,0.0132601456716656,-0.0162048023194074,0.0047521446831524
1770451239993,-0.1103668212890625,-0.9879913330078124,-0.0738525390625,0.0076986658386886,-0.0077186399139463,0.0054408381693065
1770451240004,-0.108245849609375,-0.9871063232421876,-0.0744781494140625,0.0042711775749921,-0.0016924388473853,0.0064270067960023
1770451240014,-0.105377197265625,-0.9877166748046876,-0.074554443359375,-0.0014429006259888,0.0072544505819678,0.0081993406638503
1770451240024,-0.1097869873046875,-0.9889068603515624,-0.076019287109375,-0.0049095372669398,0.009991381317377,0.0053771883249282
1770451240034,-0.108734130859375,-0.9914093017578124,-0.07623291015625,-0.0075820195488631,0.008127967827022,0.0091002881526947
1770451240044,-0.1091461181640625,-0.990966796875,-0.0759735107421875,-0.0122494753450155,0.0087767131626605,0.0087090693414211
1770451240054,-0.1100311279296875,-0.9878997802734376,-0.0809173583984375,-0.0125549398362636,0.0067612333223223,0.0079759014770388
1770451240064,-0.1099090576171875,-0.986480712890625,-0.082550048828125,-0.0106627643108367,0.0075434036552906,0.0091887041926383
1770451240074,-0.1158447265625,-0.9780426025390624,-0.079345703125,-0.004546548705548,0.0111842108890414,-0.0020711403340101
1770451240084,-0.117950439453125,-0.9764404296875,-0.0786895751953125,0.0013299826532602,0.0076781595125794,-0.0097634149715304
1770451240094,-0.1160888671875,-0.9811553955078124,-0.075164794921875,0.0052719935774803,0.0028455876745283,-0.012410863302648
1770451240104,-0.1101531982421875,-1.00152587890625,-0.0727081298828125,-0.0089940279722213,-0.0004660531994886,-0.0015283881220966
1770451240114,-0.0980072021484375,-1.0042724609375,-0.07391357421875,-0.0200911536812782,0.007424094248563,0.0088829733431339
1770451240124,-0.0982666015625,-0.9922332763671876,-0.0719757080078125,-0.0292729344218969,0.0234816242009401,0.0178431794047355
1770451240134,-0.0999755859375,-0.983306884765625,-0.075103759765625,-0.0303975865244865,0.0340716838836669,0.0149374045431613
1770451240144,-0.1085205078125,-0.97967529296875,-0.074615478515625,-0.0260132253170013,0.0279879588633775,0.0102153532207012
1770451240155,-0.1160125732421875,-0.975982666015625,-0.075531005859375,-0.02390400134027,0.016490027308464,0.0006791060441173
1770451240164,-0.1208038330078125,-0.9767913818359376,-0.08038330078125,-0.0208043474704027,-0.0010969560826197,-0.0100829945877194
1770451240174,-0.118255615234375,-0.986053466796875,-0.0842437744140625,-0.0250145401805639,-0.0193691700696945,-0.0078968051820993
1770451240184,-0.1123046875,-0.9893035888671876,-0.0860443115234375,-0.0325920321047306,-0.0190663691610097,-0.0015659386990591
1770451240194,-0.1071014404296875,-0.99114990234375,-0.08148193359375,-0.044921401888132,-0.0009837717516347,0.0006255765329115
1770451240204,-0.1025848388671875,-0.9934234619140624,-0.08013916015625,-0.0537271425127983,0.019246133044362,0.009990582242608
1770451240214,-0.1010589599609375,-0.9958953857421876,-0.086669921875,-0.0551937483251094,0.0234118495136499,0.0128417629748582
1770451240224,-0.10650634765625,-0.9900970458984376,-0.084686279296875,-0.0519665293395519,0.0257152169942855,0.0152199659496545
1770451240234,-0.111724853515625,-0.988067626953125,-0.0860748291015625,-0.0397814996540546,0.023592410609126,0.0147576406598091
1770451240245,-0.1136016845703125,-0.987213134765625,-0.092742919921875,-0.0272095166146755,0.0185758154839277,0.0152242267504334
1770451240255,-0.1141510009765625,-0.9864959716796876,-0.0940704345703125,-0.01419198513031,0.0104691525921225,0.0122982114553451
1770451240265,-0.1149749755859375,-0.9886932373046876,-0.09088134765625,-0.0062605589628219,0.0029931266326457,0.0095769930630922
1770451240275,-0.117523193359375,-0.9848480224609376,-0.083282470703125,-0.0055199339985847,0.0108784800395369,0.0035270904190838
1770451240285,-0.1136322021484375,-0.988555908203125,-0.0899810791015625,0.0003113235288765,0.011012171395123,0.0008090683259069
1770451240295,-0.110687255859375,-0.99163818359375,-0.09271240234375,0.0064887921325862,0.0002053297212114,0.0014413028256967
1770451240305,-0.108001708984375,-0.9844512939453124,-0.0812835693359375,-0.0034466630313545,0.0073958644643425,0.0005185174522921
1770451240315,-0.112701416015625,-0.9790496826171876,-0.06573486328125,-0.0197063274681568,0.0390893444418907,-0.0019014970166608
1770451240325,-0.1139373779296875,-0.9862060546875,-0.0831146240234375,-0.0219231415539979,0.0336543656885623,-0.0014237258583307
1770451240335,-0.109832763671875,-0.9949493408203124,-0.092620849609375,-0.0192269571125507,0.0147898653522133,0.0001741707383189
1770451240345,-0.108367919921875,-0.9944305419921876,-0.08685302734375,-0.0208421647548675,0.0104355970397591,0.0001315601548412
1770451240355,-0.1101837158203125,-0.992645263671875,-0.0830535888671875,-0.0234019961208105,0.0067636300809681,0.0039001994300633
1770451240365,-0.111419677734375,-0.9898834228515624,-0.0834808349609375,-0.022082932293415,0.0005102616851218,0.0054014232009649
1770451240375,-0.1141357421875,-0.9850616455078124,-0.08380126953125,-0.0282036755234003,-0.0063572316430509,0.0052030179649591
1770451240385,-0.10693359375,-0.9747161865234376,-0.065460205078125,-0.0480607375502586,0.0331366471946239,0.0103274723514914
1770451240395,-0.1053924560546875,-0.9857177734375,-0.0675201416015625,-0.0649004355072975,0.0607405789196491,0.0134076848626136
1770451240405,-0.1037750244140625,-1.0039520263671875,-0.0895233154296875,-0.0698627009987831,0.051476240158081,0.0176024287939071
1770451240415,-0.1096954345703125,-0.9949493408203124,-0.1004638671875,-0.0621118396520614,0.0344242863357067,0.022192919626832
1770451240425,-0.1185455322265625,-0.990264892578125,-0.098846435546875,-0.054075751453638,0.0157573912292718,0.0227593742311
1770451240435,-0.122039794921875,-0.9853973388671876,-0.100738525390625,-0.0372823923826217,2.157160452043172e-05,0.0174777936190366
1770451240445,-0.124359130859375,-0.9761962890625,-0.0972900390625,-0.026770893484354,0.0012351741315796,0.0072400695644319
1770451240455,-0.12091064453125,-0.976837158203125,-0.0937042236328125,-0.0151587128639221,0.0130534842610359,-0.0033159018494188
1770451240465,-0.116790771484375,-0.9834747314453124,-0.0980377197265625,-0.0043755737133324,0.0087002804502844,-0.0071955947205424
1770451240476,-0.11376953125,-0.987579345703125,-0.09893798828125,0.0048866341821849,-0.0026226809713989,-0.0101367896422743
1770451240486,-0.1109619140625,-0.9905548095703124,-0.095367431640625,0.0084211817011237,-0.0069697587750852,-0.0072280853055417
1770451240496,-0.109039306640625,-0.9898223876953124,-0.0936126708984375,0.0136210033670067,0.0036615801509469,-0.0055902414023876
1770451240506,-0.1118316650390625,-0.9913787841796876,-0.1023712158203125,0.02187573723495,-0.0093812514096498,-0.0042498726397752
1770451240516,-0.113250732421875,-0.9911956787109376,-0.090240478515625,0.0188511852174997,-0.0085356971248984,-0.0025052356068044
1770451240526,-0.1109466552734375,-0.9899139404296876,-0.0869293212890625,0.0142108937725424,-0.0005880259559489,-0.0020056266803294
1770451240536,-0.113006591796875,-0.9883880615234376,-0.0909271240234375,0.0147411292418837,-0.002551042009145,0.0025446503423154
1770451240546,-0.1082611083984375,-0.9871673583984376,-0.0850982666015625,0.0074581825174391,0.0074182352982461,0.005232844967395
1770451240557,-0.1128387451171875,-0.9880523681640624,-0.0863189697265625,0.0102374572306871,0.0181249417364597,0.0039507993496954
1770451240566,-0.1147003173828125,-0.98779296875,-0.0899658203125,0.0129091404378414,0.0208453610539436,0.0009603358921594
1770451240576,-0.1100006103515625,-0.9879608154296876,-0.0927276611328125,0.0186365339905023,0.0111165670678019,0.0011683288030326
1770451240586,-0.1091156005859375,-0.9881591796875,-0.08966064453125,0.0206650644540786,0.0086209187284111,0.0010756507981568
1770451240596,-0.110076904296875,-0.9886932373046876,-0.0915679931640625,0.0237442106008529,0.0092925680801272,0.0022572954185307
1770451240606,-0.1117706298828125,-0.987030029296875,-0.0956573486328125,0.0314857549965381,-0.0028032432310283,-0.0011984225129708
1770451240616,-0.1133270263671875,-0.9866790771484376,-0.093902587890625,0.03705495595932,-0.0127272466197609,0.0017385114915668
1770451240626,-0.114166259765625,-0.9862518310546876,-0.086029052734375,0.036127645522356,-0.0132641401141881,-0.000622114399448
1770451240636,-0.113494873046875,-0.987213134765625,-0.0838165283203125,0.0361209847033023,-0.0092289187014102,-0.0008503473363816
1770451240646,-0.1095733642578125,-0.99224853515625,-0.0880584716796875,0.0342889986932277,-0.017716147005558,0.0028189560398459
1770451240656,-0.11029052734375,-0.9905242919921876,-0.0765380859375,0.0242001451551914,-0.0098289288580417,0.0056749298237264
1770451240666,-0.1094512939453125,-0.9917449951171876,-0.0710906982421875,0.01240926515311,0.011780759319663,0.0065018413588404
1770451240677,-0.114410400390625,-0.99127197265625,-0.0775146484375,0.0059993029572069,0.0125251123681664,0.0086528770625591
1770451240687,-0.1158294677734375,-0.985687255859375,-0.0811767578125,0.0001430117554264,-0.0018295916961506,0.0094986967742443
1770451240697,-0.1168670654296875,-0.9821319580078124,-0.078704833984375,0.0001872202265076,-0.0062168831937015,0.0073338127695024
1770451240707,-0.116912841796875,-0.98187255859375,-0.08526611328125,0.0068930597044527,-0.0116883479058742,0.0013427657540887
1770451240717,-0.117095947265625,-0.9863433837890624,-0.0832366943359375,0.0064661549404263,-0.0151390051469206,-0.0011853729374706
1770451240727,-0.113433837890625,-0.9875335693359376,-0.0725555419921875,-0.0003499393642414,0.0071194283664226,-0.004144677426666
1770451240737,-0.114990234375,-0.988922119140625,-0.0766448974609375,-0.0047028763219714,0.0174988321959972,-0.0084219807758927
1770451240747,-0.112823486328125,-0.9923858642578124,-0.0842742919921875,-0.0070746871642768,0.0095602152869105,-0.0056514940224587
1770451240757,-0.109405517578125,-0.991058349609375,-0.0806427001953125,-0.0124111296609044,0.0108068408444523,0.0001251685753231
1770451240767,-0.1092987060546875,-0.9870758056640624,-0.0792999267578125,-0.0171928349882364,0.0152311511337757,0.0025363946333527
1770451240777,-0.11065673828125,-0.9853057861328124,-0.0833740234375,-0.0180519707500934,0.0156266298145055,0.0030503845773637
1770451240787,-0.1124267578125,-0.986541748046875,-0.0847625732421875,-0.017478059977293,0.0046954192221164,0.0026218821294605
1770451240797,-0.11236572265625,-0.986236572265625,-0.0804595947265625,-0.0205430909991264,0.0016498282784596,0.0042743734084069
1770451240807,-0.1118621826171875,-0.9862823486328124,-0.08416748046875,-0.0177190750837326,0.0024160197935998,0.0022679478861391
1770451240817,-0.11083984375,-0.989105224609375,-0.0911407470703125,-0.0127030117437243,-0.0073007899336516,0.0027222833596169
1770451240827,-0.1116943359375,-0.9879608154296876,-0.0892486572265625,-0.0105192195624113,-0.0110880713909864,0.0058080879971385
1770451240837,-0.1131744384765625,-0.9759368896484376,-0.0793304443359375,-0.0091772526502609,0.0145030422136187,0.0023172164801508
1770451240847,-0.1136474609375,-0.9780426025390624,-0.083221435546875,-0.0024389228783547,0.025456890463829,-0.0030418625101447
1770451240857,-0.11175537109375,-0.9891204833984376,-0.0937347412109375,0.0080251693725585,0.0050701261498034,-0.0014423680258914
1770451240867,-0.1091156005859375,-0.9937286376953124,-0.093536376953125,0.0119333583861589,-0.0107924602925777,-0.0001510012370999
1770451240878,-0.111236572265625,-0.989349365234375,-0.0832366943359375,0.0100481063127517,-0.0001046622273861,0.0025808694772422
1770451240888,-0.1085357666015625,-0.9899139404296876,-0.081939697265625,0.0053660031408071,0.0091594094410538,0.0058829230256378
1770451240897,-0.1102294921875,-0.990203857421875,-0.085418701171875,0.0007755124825052,0.004408330656588,0.0091080106794834
1770451240908,-0.112457275390625,-0.9862213134765624,-0.08148193359375,-0.0054339137859642,0.0004695153038483,0.0087026776745915
1770451240918,-0.112701416015625,-0.98773193359375,-0.08184814453125,-0.0100656831637024,-0.0008631304954178,0.0095849828794598
1770451240928,-0.1134033203125,-0.987152099609375,-0.07952880859375,-0.0125189879909157,0.010495251044631,0.0113831497728824
1770451240938,-0.1114349365234375,-0.9864959716796876,-0.079559326171875,-0.0160364899784326,0.0150460610166192,0.0116223013028502
1770451240948,-0.113616943359375,-0.987030029296875,-0.077789306640625,-0.0194642450660467,0.0251093469560146,0.0092411693185567
1770451240958,-0.11236572265625,-0.98846435546875,-0.0846405029296875,-0.0180847272276878,0.022756177932024,0.0138702755793929
1770451240968,-0.1148681640625,-0.9896240234375,-0.088134765625,-0.0204360336065292,0.0087966872379183,0.0106731504201889
1770451240978,-0.1186676025390625,-0.9879150390625,-0.08038330078125,-0.0238254386931657,0.0103562343865633,0.0095889773219823
1770451240988,-0.119659423828125,-0.9859161376953124,-0.08648681640625,-0.0202693194150924,0.0066459183581173,0.0070773507468402
1770451240998,-0.12030029296875,-0.9847869873046876,-0.096282958984375,-0.0110798152163624,-0.0038314899429678,0.0031521173659712
1770451241008,-0.1212921142578125,-0.985809326171875,-0.0991973876953125,0.0008527441532351,-0.0148489875718951,-0.0017518273089081
1770451241018,-0.116119384765625,-0.9889678955078124,-0.0940093994140625,0.0092654032632708,-0.0216584242880344,-0.0027731496375054
1770451241028,-0.1126251220703125,-0.9892425537109376,-0.090545654296875,0.015051120892167,-0.0109599726274609,-0.0041891522705554
1770451241038,-0.113922119140625,-0.99224853515625,-0.0949859619140625,0.0248387698084115,-0.0105216167867183,-0.0043699811212718
1770451241048,-0.1124114990234375,-0.987091064453125,-0.0917205810546875,0.0301981158554554,-0.0046898266300559,-0.0013627394801005
1770451241058,-0.116180419921875,-0.9761199951171876,-0.08282470703125,0.0352852866053581,0.0167203899472951,-0.0123914219439029
1770451241069,-0.1175689697265625,-0.9746856689453124,-0.0875701904296875,0.0421791449189186,0.0100667485967278,-0.0196144469082355
1770451241078,-0.11639404296875,-0.9840850830078124,-0.082305908203125,0.0470996014773845,0.0053407032974064,-0.0193417407572269
1770451241089,-0.1121978759765625,-1.0005035400390625,-0.0777130126953125,0.0357143208384513,0.0010210559703409,-0.0107210874557495
1770451241099,-0.104766845703125,-1.0058746337890625,-0.0826416015625,0.029471606016159,-0.0111525198444724,-0.0043798345141112
1770451241109,-0.1072540283203125,-0.9975128173828124,-0.0775299072265625,0.0195678416639566,-0.0083074644207954,0.006132461130619
1770451241120,-0.105072021484375,-0.9894256591796876,-0.0734405517578125,0.0132771898061037,0.0001374191051581,0.0106108328327536
1770451241129,-0.1072845458984375,-0.9824066162109376,-0.0768585205078125,0.0119027318432927,0.0031350732315331,0.0055798552930355
1770451241139,-0.111480712890625,-0.9753875732421876,-0.0804443359375,0.0166633985936641,-0.0015582155901938,-0.0021731394808739
1770451241149,-0.113983154296875,-0.9750518798828124,-0.0806884765625,0.0198565293103456,-0.0105373291298747,-0.0103932525962591
1770451241159,-0.1155853271484375,-0.98590087890625,-0.08502197265625,0.0203643944114446,-0.0225729532539844,-0.0102230766788125
1770451241169,-0.11395263671875,-0.994293212890625,-0.0831451416015625,0.0161741767078638,-0.0259330626577138,-0.0022772690281271
1770451241179,-0.1088104248046875,-0.9929351806640624,-0.0764007568359375,0.002044775057584,-0.0084494110196828,0.0027505126781761
1770451241189,-0.1065521240234375,-0.993621826171875,-0.07904052734375,-0.0038288265932351,0.0108776809647679,0.007276555057615
1770451241199,-0.107818603515625,-0.995208740234375,-0.08270263671875,-0.0062459115870296,0.013129117898643,0.0121983429417014
1770451241209,-0.1102142333984375,-0.9911346435546876,-0.0810394287109375,-0.00817537214607,0.0119903497397899,0.0142332641407847
1770451241219,-0.115936279296875,-0.9873046875,-0.079559326171875,-0.0053476272150874,0.0078778965398669,0.0131424339488148
1770451241229,-0.119720458984375,-0.9871978759765624,-0.0854644775390625,0.0030746194534003,-0.011502725072205,0.0108238859102129
1770451241239,-0.120758056640625,-0.9853973388671876,-0.0817413330078125,0.0079458076506853,-0.0072789518162608,0.009318133816123
1770451241249,-0.1173858642578125,-0.9858245849609376,-0.07525634765625,0.0083404881879687,0.0161784365773201,0.0050171292386949
1770451241259,-0.1166534423828125,-0.9896392822265624,-0.0773773193359375,0.0092962961643934,0.0233567208051681,0.0018583538476377
1770451241269,-0.1174468994140625,-0.98748779296875,-0.081939697265625,0.0097775291651487,0.0192346815019845,0.0004713795206043
1770451241279,-0.1196441650390625,-0.9910736083984376,-0.083404541015625,0.0097096189856529,0.0038972699549049,-0.0021281319204717
1770451241290,-0.11651611328125,-0.9894561767578124,-0.083709716796875,0.0121000725775957,-0.0109780821949243,-0.0007731156656518
1770451241299,-0.1154937744140625,-0.9861297607421876,-0.0835418701171875,0.0138630848377943,-0.0164516773074865,-0.0040749027393758
1770451241309,-0.1155853271484375,-0.9853973388671876,-0.0797882080078125,0.0100829945877194,-0.0094797881320118,-0.0037800907157361
1770451241320,-0.1139373779296875,-0.985870361328125,-0.0738525390625,0.0077982684597373,-0.002755040070042,-0.0059929112903773
1770451241330,-0.1121673583984375,-0.989166259765625,-0.0760040283203125,0.0040245689451694,-0.0042565301991999,-0.0035353463608771
1770451241340,-0.1091156005859375,-0.9921722412109376,-0.07415771484375,-0.000638626050204,0.0048980857245624,0.0001182443520519
1770451241350,-0.1060333251953125,-0.989776611328125,-0.0794677734375,-0.0030131004750728,-0.0005020058597438,0.0033049827907234
1770451241360,-0.1087646484375,-0.9879913330078124,-0.080230712890625,-0.0029060414526611,0.0006681871018372,0.0059242015704512
1770451241370,-0.11224365234375,-0.98712158203125,-0.0829010009765625,-0.0013672668719664,-0.0098899146541953,0.0086837690323591
1770451241380,-0.1135711669921875,-0.9889068603515624,-0.0770111083984375,-0.005667739547789,-0.0091692637652158,0.0108694257214665
1770451241390,-0.1127777099609375,-0.990386962890625,-0.076324462890625,-0.0111945979297161,-0.004416053649038,0.0123299034312367
1770451241400,-0.1143798828125,-0.9883270263671876,-0.0780029296875,-0.0166953559964895,0.006067213602364,0.0131592117249965
1770451241410,-0.1125030517578125,-0.982391357421875,-0.0774688720703125,-0.0171358436346054,0.0158503353595733,0.0111083108931779
1770451241420,-0.113800048828125,-0.989410400390625,-0.08428955078125,-0.0103429183363914,0.0125131290405988,0.0127432253211736
1770451241430,-0.112823486328125,-0.9910125732421876,-0.085662841796875,-0.0053327139467,0.0010908307740464,0.0101098921149969
1770451241440,-0.1168365478515625,-0.984832763671875,-0.0794525146484375,-0.0019931097049266,-0.0040165795944631,0.0040581249631941
1770451241450,-0.121337890625,-0.9843902587890624,-0.07867431640625,0.0019406455103307,-0.001324922661297,0.0013475595042109
1770451241460,-0.1166839599609375,-0.9864349365234376,-0.076324462890625,-0.0005728459218516,-0.0059548281133174,-0.0011155981337651
1770451241470,-0.1165924072265625,-0.98724365234375,-0.0770111083984375,-0.0037894118577241,-0.0010351707460358,-0.0035981968976557
1770451241480,-0.117034912109375,-0.98577880859375,-0.0791168212890625,-0.0040860879234969,-0.0001006674865493,-0.0004873584839515
1770451241491,-0.116302490234375,-0.9849853515625,-0.079833984375,-0.0072786854580044,0.006196909584105,0.0009827064350247
1770451241500,-0.111602783203125,-0.9908294677734376,-0.0776519775390625,-0.0135666746646165,0.0094286557286977,0.0027414578944444
1770451241510,-0.1108245849609375,-0.991790771484375,-0.080657958984375,-0.0180138871073722,0.0147637659683823,0.0043723778799176
1770451241522,-0.111907958984375,-0.992584228515625,-0.0811004638671875,-0.0227631032466888,0.0127693247050046,0.009443568997085
1770451241531,-0.111663818359375,-0.9931488037109376,-0.0776519775390625,-0.027951207011938,0.0113442670553922,0.0148268826305866
1770451241541,-0.118011474609375,-0.98828125,-0.07818603515625,-0.0259506404399871,0.0138473724946379,0.0099106878042221
1770451241551,-0.1207275390625,-0.986572265625,-0.084686279296875,-0.0225580390542745,0.0067375311627984,0.0112542519345879
1770451241561,-0.117279052734375,-0.9876251220703124,-0.08447265625,-0.0201188512146472,-0.0037619813811033,0.0088696582242846
1770451241571,-0.1119384765625,-0.9867095947265624,-0.0754547119140625,-0.0232456680387258,0.0086230495944619,0.0107937920838594
1770451241581,-0.1171875,-0.984344482421875,-0.0797271728515625,-0.018205901607871,0.0171041525900363,0.0069122347049415
1770451241591,-0.1197357177734375,-0.986053466796875,-0.090667724609375,-0.0095322523266077,0.0057758637703955,0.0040133837610483
1770451241601,-0.11651611328125,-0.98541259765625,-0.088287353515625,-0.0041263019666075,0.001299888943322,0.0046834349632263
1770451241611,-0.1144866943359375,-0.98529052734375,-0.0908203125,0.0034740935079753,-0.0047185886651277,0.0035553199704736
1770451241622,-0.1150054931640625,-0.986053466796875,-0.0875244140625,0.0086339684203267,-0.00534043693915,0.0029880667570978
1770451241631,-0.11505126953125,-0.9866180419921876,-0.0817413330078125,0.0102289356291294,0.0023824640084058,0.0041513354517519
1770451241641,-0.117431640625,-0.985107421875,-0.0772705078125,0.0051244543865323,0.008772718720138,0.0014186658663675
1770451241651,-0.1176605224609375,-0.9858856201171876,-0.07611083984375,0.0003347593592479,0.0145658934488892,0.0001019990668282
1770451241661,-0.1180877685546875,-0.9883575439453124,-0.0782012939453125,-0.0014162691077217,0.005559348501265,-0.0001510012370999
1770451241671,-0.11749267578125,-0.9887237548828124,-0.077056884765625,-0.0053729275241494,0.0032250881195068,0.0018255969043821
1770451241681,-0.1163177490234375,-0.98626708984375,-0.075103759765625,-0.0087836375460028,0.0141403200104832,0.0004756405542138
1770451241691,-0.11480712890625,-0.985321044921875,-0.0786590576171875,-0.0082286354154348,0.0166335720568895,0.0040754354558885
1770451241701,-0.11248779296875,-0.98809814453125,-0.079193115234375,-0.0141805335879325,0.0038242992013692,0.0055441688746213
1770451241711,-0.1096954345703125,-0.9884796142578124,-0.069671630859375,-0.0244691241532564,0.0060704094357788,0.0105716837570071
1770451241721,-0.1134033203125,-0.98883056640625,-0.0759124755859375,-0.03025484085083,0.0185473188757896,0.0096931075677275
1770451241731,-0.1180877685546875,-0.98834228515625,-0.083404541015625,-0.0277615897357463,0.0113192331045866,0.0087213199585676
1770451241741,-0.1204986572265625,-0.98785400390625,-0.0895233154296875,-0.0198424141854047,0.0045718485489487,0.004873052239418
1770451241752,-0.1226654052734375,-0.9869842529296876,-0.091888427734375,-0.0110433297231793,-0.0108774146065115,0.0038141792174428
1770451241762,-0.120361328125,-0.9863739013671876,-0.0905914306640625,-0.0019891150295734,-0.0164117310196161,0.0009510148083791
1770451241772,-0.1206512451171875,-0.9880218505859376,-0.0944061279296875,0.0117498664185404,-0.017159279435873,-0.0017662084428593
1770451241782,-0.1172027587890625,-0.988250732421875,-0.0930938720703125,0.0208970252424478,-0.0212208665907382,-0.0003789678157772
1770451241792,-0.11541748046875,-0.9870758056640624,-0.085479736328125,0.0226584412157535,-0.0108819426968693,-0.0021542310714721
1770451241802,-0.11602783203125,-0.9898223876953124,-0.08642578125,0.030722226947546,-0.0046237800270318,-0.0036248285323381
1770451241812,-0.1157073974609375,-0.990447998046875,-0.092071533203125,0.0385298170149326,-0.0207276493310928,-0.0011558119440451
1770451241822,-0.11981201171875,-0.9893798828125,-0.088531494140625,0.044181041419506,-0.0291794575750827,-0.0037507959641516
1770451241832,-0.117401123046875,-0.9858551025390624,-0.082183837890625,0.0453179478645324,-0.0205819737166166,-0.0017845842521637
1770451241842,-0.1173095703125,-0.98681640625,-0.081207275390625,0.0484482273459434,-0.0149352736771106,-0.0041300300508737
1770451241852,-0.117401123046875,-0.9883880615234376,-0.080841064453125,0.0495803356170654,-0.0224776118993759,-0.0014487595763057
1770451241862,-0.111907958984375,-0.98956298828125,-0.0751800537109375,0.0449922420084476,-0.0215550921857357,-0.0013856426812708
1770451241872,-0.113494873046875,-0.9838409423828124,-0.0698699951171875,0.0368120782077312,-0.006287723314017,0.0014676681021228
1770451241882,-0.1127777099609375,-0.98492431640625,-0.0725250244140625,0.0321808382868766,-0.0087396958842873,0.0040280311368405
1770451241892,-0.111419677734375,-0.989715576171875,-0.0776214599609375,0.031996015459299,-0.0138239366933703,0.0063383234664797
1770451241902,-0.1125335693359375,-0.9926300048828124,-0.0730438232421875,0.0255133491009473,0.0031649006996303,0.0071551147848367
1770451241912,-0.114715576171875,-0.990997314453125,-0.070709228515625,0.0192149728536605,0.0050541469827294,0.0080832261592149
1770451241922,-0.11883544921875,-0.9874114990234376,-0.0718536376953125,0.0173856485635042,-0.0010274475207552,0.0081857582554221
1770451241932,-0.12139892578125,-0.985748291015625,-0.0715484619140625,0.0142838647589087,-0.0068243504501879,0.0071415328420698
1770451241942,-0.121917724609375,-0.987213134765625,-0.071380615234375,0.0095383776351809,-0.0141802672296762,0.0056965015828609
1770451241952,-0.11920166015625,-0.9866943359375,-0.0727691650390625,0.0081482073292136,-0.0141064980998635,0.0041460092179477
1770451241963,-0.1190032958984375,-0.98406982421875,-0.070831298828125,0.0014546185266226,-0.0044456147588789,0.0027939223218709
1770451241973,-0.113800048828125,-0.9877471923828124,-0.0695953369140625,-0.0006018743733875,0.0010700580896809,0.0067244814708828
1770451241983,-0.11309814453125,-0.9936676025390624,-0.0736236572265625,-0.0021710088476538,-0.0017646105261519,0.0070131681859493
1770451241993,-0.1141510009765625,-0.98974609375,-0.07208251953125,-0.0073271552100777,-0.0011885687708854,0.0081572625786066
1770451242003,-0.1148834228515625,-0.9879150390625,-0.06890869140625,-0.0143230129033327,0.0024703482631593,0.0129197929054498
1770451242013,-0.1168060302734375,-0.9864959716796876,-0.07244873046875,-0.0157336890697479,0.0054403054527938,0.009532518684864
1770451242023,-0.1213531494140625,-0.9877471923828124,-0.0764312744140625,-0.0152071826159954,-0.0008607336785644,0.0085239792242646
1770451242033,-0.1207733154296875,-0.9860992431640624,-0.079681396484375,-0.0149674974381923,0.0037470676470547,0.0076078521087765
1770451242043,-0.122100830078125,-0.988311767578125,-0.0840606689453125,-0.0086848344653844,-0.004718055948615,0.0042075281962752
1770451242053,-0.1207122802734375,-0.993804931640625,-0.0821533203125,-0.0088326400145888,-0.0096992328763008,0.0044623925350606
1770451242063,-0.11761474609375,-0.9938812255859376,-0.0792694091796875,-0.0063074305653572,-0.0034048515371978,0.0059950416907668
1770451242073,-0.1133270263671875,-0.9964447021484376,-0.0824737548828125,-0.001072454964742,-0.0069383336231112,0.0140740070492029
1770451242083,-0.1177978515625,-0.9885101318359376,-0.0797576904296875,-0.0013912353897467,-0.0011475561186671,0.0123586654663085
1770451242093,-0.123321533203125,-0.976409912109375,-0.077911376953125,0.0087570063769817,0.0072837453335523,0.0051271175034344
1770451242103,-0.1277008056640625,-0.97357177734375,-0.0886383056640625,0.0224112998694181,-0.0080733727663755,-0.0098933773115277
1770451242113,-0.12921142578125,-0.9757232666015624,-0.0851898193359375,0.0429551899433136,-0.0158114545047283,-0.0156274288892745
1770451242123,-0.123016357421875,-0.991546630859375,-0.0828704833984375,0.0493478402495384,-0.0270257592201232,-0.0123091302812099
1770451242133,-0.1121673583984375,-1.00360107421875,-0.08282470703125,0.0465475283563137,-0.0299847964197397,-0.0094941696152091
1770451242143,-0.1087799072265625,-0.99993896484375,-0.0744781494140625,0.0445823818445205,-0.0182178858667612,-0.0006913566030561
1770451242153,-0.1085357666015625,-0.9943389892578124,-0.0690155029296875,0.0436468124389648,-0.0074374098330736,0.006483731791377
1770451242163,-0.1131134033203125,-0.9840850830078124,-0.062896728515625,0.0379670895636081,0.0108518488705158,-5.832322858623229e-05
1770451242173,-0.1167449951171875,-0.9793243408203124,-0.0623779296875,0.0392568595707416,0.018179003149271,-0.0091101415455341
1770451242184,-0.1225433349609375,-0.97857666015625,-0.0723876953125,0.0449277944862842,0.0016572851454839,-0.015207715332508
1770451242194,-0.12237548828125,-0.98443603515625,-0.0694427490234375,0.0377348624169826,-0.0170799177139997,-0.0153568517416715
1770451242204,-0.1169281005859375,-0.991668701171875,-0.066162109375,0.0283440239727497,-0.0274630486965179,-0.0068158279173076
1770451242214,-0.1147918701171875,-0.9937591552734376,-0.0654296875,0.0144380610436201,-0.0317797660827636,-0.0024549018125981
1770451242224,-0.11151123046875,-0.99188232421875,-0.0624542236328125,0.0032985913567245,-0.0225833393633365,0.0060640177689492
1770451242234,-0.1106719970703125,-0.994293212890625,-0.064239501953125,-0.0070139672607183,-0.0102180168032646,0.0092326467856764
1770451242244,-0.1126861572265625,-0.988922119140625,-0.065887451171875,-0.0119229722768068,0.0079727051779627,0.0097040263935923
1770451242254,-0.116607666015625,-0.986724853515625,-0.0690765380859375,-0.0143927875906229,0.0122777055948972,0.0108648985624313
1770451242264,-0.1235198974609375,-0.98699951171875,-0.072235107421875,-0.0081008030101656,0.0151853440329432,0.0105855325236916
1770451242274,-0.1222381591796875,-0.9862823486328124,-0.0754241943359375,0.0005400890368036,0.0124883614480495,0.00932053104043
1770451242284,-0.1204833984375,-0.988250732421875,-0.073028564453125,0.0049886330962181,0.0073865433223545,0.0048080710694193
1770451242294,-0.122711181640625,-0.987396240234375,-0.068634033203125,0.0049036783166229,0.0074778897687792,0.0016024239594116
1770451242304,-0.1248931884765625,-0.9886322021484376,-0.071624755859375,0.0084062675014138,0.0031300131231546,-0.0018152105621993
1770451242314,-0.12322998046875,-0.9897003173828124,-0.06951904296875,0.0047401604242622,-0.0048360340297222,-0.001750495750457
1770451242324,-0.1230621337890625,-0.98736572265625,-0.0674591064453125,0.0012556804576888,-0.0041595911607146,-0.0041766352951526
1770451242334,-0.1196441650390625,-0.9846954345703124,-0.0687713623046875,0.0011523497523739,-0.007473362609744,-0.002183792181313
1770451242344,-0.1182861328125,-0.986358642578125,-0.0697174072265625,-2.7430558475316506e-05,-0.0174303892999887,-0.0007331682136282
1770451242354,-0.1159515380859375,-0.9898681640625,-0.0668487548828125,-0.0040344228036701,-0.0141019709408283,-0.003539873752743
1770451242364,-0.11627197265625,-0.9897613525390624,-0.062774658203125,-0.0117080546915531,0.0016684704460203,-0.0052560148760676
1770451242374,-0.1191864013671875,-0.98968505859375,-0.0627288818359375,-0.0158945433795452,0.0056562880054116,-0.0050014164298772
1770451242384,-0.11614990234375,-0.9896697998046876,-0.066741943359375,-0.0192855466157197,0.0122215123847126,-0.0024413196370005
1770451242395,-0.1145477294921875,-0.987030029296875,-0.0703277587890625,-0.0188573114573955,0.0133991623297333,0.0007683219737373
1770451242405,-0.11590576171875,-0.990020751953125,-0.076080322265625,-0.0135810561478137,0.0010929612908512,0.0022019015159457
1770451242415,-0.1156463623046875,-0.9901123046875,-0.0763702392578125,-0.0107810087502002,-0.009572465904057,0.0026775421574711
1770451242425,-0.116607666015625,-0.9925384521484376,-0.0715789794921875,-0.012367719784379,-0.008730374276638,0.0069551113992929
1770451242435,-0.1147918701171875,-0.98846435546875,-0.0755615234375,-0.0149334091693162,-0.006557501386851,0.0066714850254356
1770451242445,-0.120697021484375,-0.98150634765625,-0.0722198486328125,-0.0153778912499547,0.0004431499983184,0.0078496672213077
1770451242455,-0.122467041015625,-0.9864044189453124,-0.0700836181640625,-0.0148172955960035,0.0126422923058271,0.0078414110466837
1770451242465,-0.1187896728515625,-0.989166259765625,-0.076934814453125,-0.009131446480751,0.00720358453691,0.0042751724831759
1770451242475,-0.1192626953125,-0.9841461181640624,-0.0737762451171875,-0.001873267465271,0.0039476035162806,-0.0013057478936389
1770451242485,-0.1219482421875,-0.9871978759765624,-0.071075439453125,0.0030818099621683,0.0069681610912084,-0.0046938215382397
1770451242495,-0.121856689453125,-0.9907073974609376,-0.0756683349609375,0.008118912577629,-0.0013315805699676,-0.0088100032880902
1770451242505,-0.1231689453125,-0.989349365234375,-0.07171630859375,0.0073697655461728,0.0061953114345669,-0.0091857751831412
1770451242515,-0.121856689453125,-0.985809326171875,-0.070465087890625,0.0056637446396052,0.0078667113557457,-0.010056628845632
1770451242525,-0.11767578125,-0.99072265625,-0.0682373046875,-0.0031936627347022,0.006009689066559,-0.0080768344923853
1770451242535,-0.115203857421875,-0.992095947265625,-0.066619873046875,-0.0115493303164839,0.0106023102998733,-0.0052594766020774
1770451242545,-0.116119384765625,-0.9923858642578124,-0.0705718994140625,-0.0165488831698894,0.0118611864745616,-0.0027750139124691
1770451242556,-0.1174774169921875,-0.9933013916015624,-0.073577880859375,-0.0176956392824649,0.0079442095011472,-0.0022628880105912
1770451242565,-0.118560791015625,-0.9900360107421876,-0.0751190185546875,-0.011607120744884,0.0060845240950584,0.0010362359462305
1770451242575,-0.1176300048828125,-0.987091064453125,-0.0760498046875,-0.0053308494389057,-0.0064552361145615,-0.0016503608785569
1770451242585,-0.118682861328125,-0.9872894287109376,-0.0709686279296875,-0.0058011636137962,-0.0071087758988142,-0.0015811186749488
1770451242595,-0.1183319091796875,-0.9862213134765624,-0.064849853515625,-0.0063535035587847,0.0017459683585911,-0.003443733556196
1770451242605,-0.11627197265625,-0.9892120361328124,-0.0730133056640625,-0.001211738330312,0.0016674051294103,-0.002248240634799
1770451242615,-0.1161346435546875,-0.9896087646484376,-0.077117919921875,0.0026453179307281,-0.0049926280044019,-0.0028724854346364
1770451242626,-0.11639404296875,-0.987274169921875,-0.0729217529296875,0.0046850331127643,-0.0107996510341763,-0.0053359093144536
1770451242636,-0.1175079345703125,-0.9882049560546876,-0.0689544677734375,0.003640008624643,-0.0024104269687086,-0.0068973209708929
1770451242646,-0.1156005859375,-0.9898223876953124,-0.0703277587890625,0.0026359967887401,-0.0012950951931998,-0.0066342004574835
1770451242656,-0.11676025390625,-0.9922332763671876,-0.0670166015625,-0.0051817125640809,-0.0025515747256577,-0.0059140818193554
1770451242666,-0.1153411865234375,-0.9915008544921876,-0.0613555908203125,-0.0125022092834115,0.004741758108139,-0.0013028184184804
1770451242676,-0.11614990234375,-0.9905242919921876,-0.0658416748046875,-0.0196125842630863,-0.0029694247059524,0.0008306399104185
1770451242686,-0.120330810546875,-0.9876708984375,-0.0697174072265625,-0.0202434863895177,-0.0047790426760911,0.0012309130979701
1770451242696,-0.1194305419921875,-0.9858245849609376,-0.0724029541015625,-0.0195175092667341,-0.0092094773426651,0.0004729774082079
1770451242706,-0.1216583251953125,-0.983245849609375,-0.0716400146484375,-0.0173030905425548,-0.0062435148283839,-0.0016397082945331
1770451242716,-0.119964599609375,-0.98541259765625,-0.071990966796875,-0.0183009766042232,-0.0138268657028675,-0.0020975056104362
1770451242726,-0.1150665283203125,-0.9864349365234376,-0.0694427490234375,-0.0212432369589805,-0.0176532957702875,0.0013960290234535
1770451242736,-0.1131591796875,-0.9896392822265624,-0.06414794921875,-0.031186681240797,-0.0137730697169899,0.0035143073182553
1770451242746,-0.115234375,-0.9901123046875,-0.056121826171875,-0.0438111312687397,0.0143922548741102,0.0056618805974721
1770451242756,-0.1189727783203125,-0.9891204833984376,-0.057464599609375,-0.0604377761483192,0.0330437049269676,0.0049713226035237
1770451242766,-0.1196746826171875,-0.9874420166015624,-0.060394287109375,-0.073173813521862,0.0355342924594879,0.0055452338419854
1770451242776,-0.123260498046875,-0.984619140625,-0.068206787109375,-0.0777560472488403,0.0453296639025211,0.00027563716867
1770451242787,-0.1212005615234375,-0.98724365234375,-0.0793609619140625,-0.0735088363289833,0.0365132689476013,-0.0007406250806525
1770451242796,-0.12103271484375,-0.9890289306640624,-0.0822296142578125,-0.0677002146840095,0.0255255997180938,-0.0016157397767528
1770451242806,-0.119049072265625,-0.9874420166015624,-0.0843353271484375,-0.0585219003260135,0.0159526020288467,-0.0036384107079356
1770451242816,-0.11871337890625,-0.9907684326171876,-0.0900115966796875,-0.045346975326538,4.314320904086344e-05,-0.0049774479120969
1770451242826,-0.1180572509765625,-0.989349365234375,-0.090118408203125,-0.0323888324201107,-0.0046765110455453,-0.0077697723172605
1770451242837,-0.1207733154296875,-0.987030029296875,-0.087554931640625,-0.0250142738223075,-0.0006418218254111,-0.0106824720278382
1770451242847,-0.1221466064453125,-0.9882049560546876,-0.0833282470703125,-0.0180048327893018,0.0062440475448966,-0.0105924569070339
1770451242857,-0.1189727783203125,-0.9858245849609376,-0.0834197998046875,-0.0137118175625801,0.015073224902153,-0.0112254898995161
1770451242867,-0.1184234619140625,-0.9878997802734376,-0.0913543701171875,-0.002748648636043,0.0153637761250138,-0.0114670386537909
1770451242877,-0.1164398193359375,-0.989990234375,-0.088134765625,0.0060805291868746,0.0117043266072869,-0.0106148272752761
1770451242887,-0.1163177490234375,-0.990753173828125,-0.085968017578125,0.0141658866778016,0.0064078317955136,-0.0109780821949243
1770451242897,-0.1171112060546875,-0.9881134033203124,-0.0819854736328125,0.0160135868936777,0.0004530037112999,-0.0090390350669622
1770451242907,-0.1167755126953125,-0.9880218505859376,-0.0789642333984375,0.0182237457484006,-0.0054142065346241,-0.0086049400269985
1770451242917,-0.1177520751953125,-0.9885406494140624,-0.0803375244140625,0.0198770351707935,-0.0103335976600646,-0.0061332597397267
1770451242927,-0.1159820556640625,-0.98785400390625,-0.0802764892578125,0.0217540320008993,-0.0088193239644169,-0.0041428133845329
1770451242937,-0.1148223876953125,-0.988128662109375,-0.0765838623046875,0.0219420511275529,0.0007637945818714,-0.0032381375785917
1770451242947,-0.1163482666015625,-0.988861083984375,-0.075775146484375,0.0207971576601266,-0.0026330673135817,-0.0052978261373937
1770451242957,-0.1145172119140625,-0.9905853271484376,-0.0770416259765625,0.0241942852735519,-0.011837750673294,-0.0060059609822928
1770451242967,-0.1143951416015625,-0.991241455078125,-0.0734100341796875,0.0222610961645841,-0.0181960482150316,-0.0056022256612777
1770451242977,-0.1158294677734375,-0.9900970458984376,-0.0706787109375,0.0180937834084033,-0.0137885166332125,-0.0061803977005183
1770451242988,-0.11737060546875,-0.98516845703125,-0.0702362060546875,0.0144918570294976,-0.0093239927664399,-0.0040586576797068
1770451242997,-0.118438720703125,-0.980499267578125,-0.0731658935546875,0.0147136989980936,-0.0036248285323381,-0.0026410568971186
1770451243007,-0.122314453125,-0.98114013671875,-0.0770721435546875,0.0195009969174861,-0.0063226106576621,-0.0045742453075945
1770451243017,-0.119110107421875,-0.9878997802734376,-0.0766754150390625,0.0200978107750415,-0.0182117614895105,-0.0070632356218993
1770451243027,-0.114654541015625,-0.99114990234375,-0.0702056884765625,0.0149198276922106,-0.0119440108537673,-0.0074134413152933
1770451243037,-0.1175079345703125,-0.9936065673828124,-0.0711517333984375,0.0127176595851778,-0.0096568884328007,-0.0079101212322711
1770451243047,-0.115509033203125,-0.9980621337890624,-0.07568359375,0.0093663372099399,-0.0179808642715215,-0.0046291067264974
1770451243058,-0.114593505859375,-0.9953765869140624,-0.0636138916015625,-0.0014796522445976,-0.0026229473296552,0.0022098910994827
1770451243068,-0.11468505859375,-0.99481201171875,-0.0637359619140625,-0.0147139653563499,0.0133901070803403,0.0032016523182392
1770451243078,-0.1180572509765625,-0.9835052490234376,-0.068572998046875,-0.0158039964735507,0.0193337500095367,0.0024269386194646
1770451243088,-0.123992919921875,-0.9756317138671876,-0.0711212158203125,-0.0193004608154296,0.016062056645751,-0.0071567129343748
1770451243098,-0.1222991943359375,-0.97576904296875,-0.071624755859375,-0.0143741453066468,0.0189571790397167,-0.0144010437652468
1770451243108,-0.124053955078125,-0.9781494140625,-0.0693511962890625,-0.0044003408402204,0.0235769655555486,-0.0212035551667213
1770451243118,-0.12188720703125,-1.00445556640625,-0.0772705078125,-0.0114420056343078,0.0063798688352108,-0.0153701677918434
1770451243128,-0.1055908203125,-1.0051116943359375,-0.0778961181640625,-0.0129043469205498,0.0129879703745245,-0.0050701261498034
1770451243138,-0.1100616455078125,-0.9956207275390624,-0.076385498046875,-0.0128457574173808,0.0207867715507745,-0.0025648903101682
1770451243148,-0.1103668212890625,-0.9864501953125,-0.0783843994140625,-0.0088358353823423,0.012721387669444,-0.0020943097770214
1770451243158,-0.11328125,-0.9794158935546876,-0.07379150390625,-0.0017028251895681,0.0094598140567541,-0.0090350406244397
1770451243168,-0.1143646240234375,-0.9762420654296876,-0.0713958740234375,-0.0020346550736576,0.0130524188280105,-0.0164745803922414
1770451243178,-0.1190032958984375,-0.9799957275390624,-0.0740509033203125,0.0029294772539287,0.0111562479287385,-0.0242880284786224
1770451243189,-0.1172943115234375,-0.987518310546875,-0.0758056640625,-0.002518817782402,0.0107099022716283,-0.0212520249187946
1770451243198,-0.1162872314453125,-0.99224853515625,-0.0718231201171875,-0.0114148408174514,0.0269578471779823,-0.0167968235909938
1770451243209,-0.115753173828125,-0.992706298828125,-0.0712127685546875,-0.0226911976933479,0.0420987159013748,-0.0086017437279224
1770451243218,-0.108123779296875,-0.9926300048828124,-0.07354736328125,-0.028057200834155,0.0678296461701393,-0.0044149882160127
1770451243228,-0.1092681884765625,-0.9914093017578124,-0.0770111083984375,-0.0300782732665538,0.0751749128103256,-0.0045153894461691
1770451243238,-0.112030029296875,-0.9898834228515624,-0.078155517578125,-0.0288625415414571,0.0793792456388473,0.0003624562232289
1770451243249,-0.11273193359375,-0.9909515380859376,-0.083099365234375,-0.0192549210041761,0.0727274641394615,0.0027848675381392
1770451243259,-0.1166534423828125,-0.991485595703125,-0.0861053466796875,-0.0031949942931532,0.0497939214110374,0.0001360875321552
1770451243269,-0.115966796875,-0.9909210205078124,-0.083099365234375,0.0063788034021854,0.0264134984463453,0.0007869640830904
1770451243279,-0.115325927734375,-0.98785400390625,-0.0771636962890625,0.0120571954175829,0.0241301041096448,-0.0006538060260936
1770451243289,-0.11505126953125,-0.98590087890625,-0.0770263671875,0.0139168808236718,0.0282385628670454,-0.0018548916559666
1770451243299,-0.11553955078125,-0.987091064453125,-0.074493408203125,0.0132265891879796,0.027785025537014,-0.0035191010683774
