timestamp_ms,acc_x,acc_y,acc_z,gyro_x,gyro_y,gyro_z
1769234217391,-0.24188232421875,0.33465576171875,-0.93231201171875,-0.0170386377722024,-0.0045215147547423,0.0002119876153301
1769234217397,-0.2441253662109375,0.33740234375,-0.932098388671875,-0.0027318706270307,0.0029726203065365,-0.0036818201187998
1769234217407,-0.2459564208984375,0.3376617431640625,-0.9264678955078124,0.004555070772767,0.0083101280033588,-0.0037223002873361
1769234217417,-0.245208740234375,0.3337249755859375,-0.9207305908203124,0.0048924931325018,0.0078920116648077,-0.0034384073223918
1769234217427,-0.2444000244140625,0.3322296142578125,-0.9148406982421876,0.0026844663079828,0.0044618602842092,-0.0065969163551926
1769234217437,-0.2431640625,0.3326416015625,-0.9111328125,0.0023289343807846,-0.0024604944046586,-0.008904012851417
1769234217448,-0.2404937744140625,0.33087158203125,-0.9093017578125,-0.002919623395428,-0.0138617530465126,-0.0085713835433125
1769234217458,-0.2382049560546875,0.3309173583984375,-0.9044189453125,-0.0083181168884038,-0.0214283261448144,-0.0094334492459893
1769234217468,-0.240234375,0.329559326171875,-0.90216064453125,-0.0157533958554267,-0.0280111283063888,-0.0092273205518722
1769234217478,-0.23907470703125,0.3310394287109375,-0.9000701904296875,-0.0259740762412548,-0.0281972829252481,-0.009092298336327
1769234217488,-0.2389373779296875,0.3321685791015625,-0.90179443359375,-0.0258129555732011,-0.0288228597491979,-0.0083034699782729
1769234217498,-0.238311767578125,0.3351593017578125,-0.9103240966796876,-0.0164356976747512,-0.0275964736938476,-0.0093471631407737
1769234217508,-0.235321044921875,0.3355865478515625,-0.9190826416015624,-0.007840346544981,-0.0236222390085458,-0.0066211512312293
1769234217518,-0.2350616455078125,0.335174560546875,-0.921295166015625,-0.0051731904968619,-0.0174434389919042,-0.0039518647827208
1769234217528,-0.23681640625,0.3339080810546875,-0.9173126220703124,0.0065449848771095,-0.0230272877961397,0.0038839541375637
1769234217538,-0.231903076171875,0.33306884765625,-0.920806884765625,0.0132191330194473,-0.0207457579672336,0.0198903512209653
1769234217548,-0.227203369140625,0.3334197998046875,-0.9197235107421876,0.0181454475969076,-0.0154053214937448,0.0347068458795547
1769234217558,-0.2270050048828125,0.333892822265625,-0.9176788330078124,0.0227175634354352,-0.0150551162660121,0.0456694848835468
1769234217568,-0.22943115234375,0.333282470703125,-0.913421630859375,0.0206022132188081,-0.016782708466053,0.04818856716156
1769234217578,-0.235687255859375,0.3313140869140625,-0.90869140625,0.0159712433815002,-0.0214549582451581,0.0401245169341564
1769234217588,-0.2418670654296875,0.3323516845703125,-0.9025421142578124,0.0020514330826699,-0.0207742545753717,0.0362128652632236
1769234217598,-0.2396697998046875,0.3315582275390625,-0.8982391357421875,-0.0120228407904505,-0.0205028783529996,0.0321305058896541
1769234217608,-0.2355499267578125,0.328125,-0.899200439453125,-0.0203452184796333,-0.0181550346314907,0.0414353236556053
1769234217618,-0.230010986328125,0.3260345458984375,-0.9028167724609376,-0.0249793864786624,-0.0139725413173437,0.0489568896591663
1769234217628,-0.230255126953125,0.3297119140625,-0.9098968505859376,-0.0209846440702676,-0.0045334990136325,0.0522528178989887
1769234217638,-0.2357177734375,0.3315277099609375,-0.9171295166015624,-0.0069130333140492,-0.0020157466642558,0.0457211509346962
1769234217649,-0.2451324462890625,0.334503173828125,-0.92431640625,0.0091697964817285,0.005559348501265,0.0270191002637147
1769234217659,-0.257110595703125,0.33966064453125,-0.9292755126953124,0.0177867207676172,0.010283263400197,0.0139451101422309
1769234217669,-0.2573699951171875,0.3382110595703125,-0.9246978759765624,0.022938871756196,0.0145874647423625,0.0023347933311015
1769234217679,-0.2537994384765625,0.3353118896484375,-0.9148101806640624,0.0197484046220779,0.0112308161333203,-0.001497761812061
1769234217689,-0.2504425048828125,0.332000732421875,-0.9057464599609376,0.0099325254559516,0.0079082567244768,-0.0007076018955558
1769234217699,-0.24456787109375,0.32855224609375,-0.9013824462890624,-0.0027608990203589,0.0031720912083983,0.0025268071331083
1769234217709,-0.2429046630859375,0.32733154296875,-0.8983917236328125,-0.0104955174028873,0.0020903151016682,0.0005510080372914
1769234217719,-0.244293212890625,0.329132080078125,-0.90081787109375,-0.0120630543678998,-0.0010729875648394,-0.0028674255590885
1769234217729,-0.242950439453125,0.3314056396484375,-0.9067535400390624,-0.009296029806137,0.0001757686259225,-0.0063814665190875
1769234217739,-0.242218017578125,0.33306884765625,-0.911590576171875,-0.0033518546260893,0.0048440238460898,-0.0126745160669088
1769234217749,-0.2447967529296875,0.3338623046875,-0.9146575927734376,0.0033084449823945,0.0075729647651314,-0.0185161605477333
1769234217759,-0.244476318359375,0.3317718505859375,-0.912078857421875,0.0003097256412729,0.0127189913764595,-0.0181499756872653
1769234217769,-0.2387542724609375,0.329864501953125,-0.9071502685546876,-0.0035840822383761,0.0123336315155029,-0.0089647332206368
1769234217779,-0.2313690185546875,0.3295745849609375,-0.909027099609375,-0.0041798311285674,0.0098619516938924,-0.0019275959348306
1769234217789,-0.232666015625,0.3273468017578125,-0.9105224609375,-0.0017939052777364,0.0023086944129318,-0.0004290352517273
1769234217799,-0.238525390625,0.3301544189453125,-0.9108428955078124,-0.0002804308605846,-0.0041111218743026,-0.0086563387885689
1769234217809,-0.24566650390625,0.3329925537109375,-0.911407470703125,-0.0009981527691707,-0.0052277850918471,-0.0182871278375387
1769234217819,-0.2490234375,0.3353118896484375,-0.9113922119140624,-0.001637311419472,-0.0023094932548701,-0.022111427038908
1769234217829,-0.245819091796875,0.3353729248046875,-0.9114837646484376,0.0005009406013414,0.0009177253232337,-0.0233583189547061
1769234217839,-0.2427215576171875,0.3334503173828125,-0.9100494384765624,-0.0010732539230957,0.0053497580811381,-0.0165030770003795
1769234217850,-0.233551025390625,0.3314208984375,-0.9101104736328124,-0.0004271710349712,0.0086446208879351,-0.0048613343387842
1769234217859,-0.23095703125,0.3295745849609375,-0.9125823974609376,-0.0004197141970507,0.0110814133659005,0.0004953479510731
1769234217870,-0.2308502197265625,0.3282012939453125,-0.912567138671875,0.0017853832105174,0.0103644905611872,0.0014919028617441
1769234217879,-0.233001708984375,0.3292083740234375,-0.9116363525390624,0.0036133769899606,0.0047960868105292,0.0025105618406087
1769234217890,-0.2373199462890625,0.3299560546875,-0.91217041015625,0.0015627428656443,-0.0003925499331671,-0.0040506678633391
1769234217900,-0.2440338134765625,0.329132080078125,-0.907470703125,-0.0076501965522766,0.0012719257501885,-0.0053457631729543
1769234217910,-0.242889404296875,0.32843017578125,-0.9012603759765624,-0.0129597410559654,0.0033633061684668,-0.006491188891232
1769234217920,-0.2404022216796875,0.3294219970703125,-0.9049224853515624,-0.0140423160046339,0.004081827122718,-0.0048869005404412
1769234217930,-0.238128662109375,0.329681396484375,-0.9134368896484376,-0.0060187438502907,0.0060933125205338,-0.0030690268613398
1769234217940,-0.2381134033203125,0.3311614990234375,-0.91851806640625,0.0017808558186516,0.0104350643232464,0.0013171994360163
1769234217950,-0.2380218505859375,0.3324737548828125,-0.920806884765625,0.0104276072233915,0.0143344644457101,0.0020940436515957
1769234217960,-0.2388763427734375,0.3335113525390625,-0.9209442138671876,0.0111067136749625,0.0167278479784727,0.0016365124611184
1769234217970,-0.238983154296875,0.3310394287109375,-0.916534423828125,0.0103048356249928,0.0130090089514851,0.0032919333316385
1769234217980,-0.238006591796875,0.3295745849609375,-0.909759521484375,0.0062597598880529,0.0085700526833534,0.0010769823566079
1769234217990,-0.237823486328125,0.32904052734375,-0.906524658203125,-0.0025169535074383,0.0056341835297644,0.0007395598222501
1769234218001,-0.2382049560546875,0.328643798828125,-0.9044036865234376,-0.0076310215517878,0.0058645470999181,-3.861583536490798e-05
1769234218010,-0.2393341064453125,0.3301544189453125,-0.908782958984375,-0.0003214435419067,0.0032471923623234,-0.0088001498952507
1769234218020,-0.24517822265625,0.332489013671875,-0.9180755615234376,0.0086584696546196,0.0110396016389131,-0.0145999817177653
1769234218030,-0.2469940185546875,0.3310394287109375,-0.918914794921875,0.0161153208464384,0.013309946283698,-0.0136870499700307
1769234218040,-0.2418060302734375,0.3308563232421875,-0.9170379638671876,0.0173978991806507,0.0130396354943513,-0.0135216675698757
1769234218050,-0.240142822265625,0.3282623291015625,-0.9125518798828124,0.0110172312706708,0.0097032273188233,-0.0139552298933267
1769234218060,-0.2374114990234375,0.3223724365234375,-0.9084014892578124,0.0014426343841478,0.0116116488352417,-0.0083793699741363
1769234218071,-0.2298431396484375,0.3245086669921875,-0.9069671630859376,-0.0059399143792688,0.0139813292771577,-0.0027542412281036
1769234218081,-0.2281951904296875,0.32757568359375,-0.91302490234375,0.0016463662032037,0.0176269300282001,0.003353452309966
1769234218091,-0.232635498046875,0.329559326171875,-0.9266510009765624,0.0213697366416454,0.0281264428049325,0.0024415859952569
1769234218101,-0.2393341064453125,0.3363800048828125,-0.9371185302734376,0.049221608787775,0.037812627851963,0.0036820864770561
1769234218111,-0.2425384521484375,0.340179443359375,-0.9385986328125,0.0663862153887748,0.0396315641701221,-0.0001286306796828
1769234218121,-0.247955322265625,0.3385772705078125,-0.9287567138671876,0.070009708404541,0.0405072122812271,-0.0066355322487652
1769234218131,-0.2462158203125,0.33709716796875,-0.9105072021484376,0.0598825067281723,0.0315763019025325,-0.0108704911544919
1769234218141,-0.243255615234375,0.3350067138671875,-0.8983612060546875,0.03860305249691,0.0217809285968542,-0.0179603584110736
1769234218151,-0.239715576171875,0.3291778564453125,-0.89019775390625,0.0132646728307008,0.0097546260803937,-0.0221527069807052
1769234218161,-0.23260498046875,0.3256683349609375,-0.886962890625,-0.0075436700135469,-0.0018037590198218,-0.0209556147456169
1769234218171,-0.2245025634765625,0.3220367431640625,-0.892425537109375,-0.0213265940546989,-0.0085117295384407,-0.0090891020372509
1769234218181,-0.2194671630859375,0.32049560546875,-0.902557373046875,-0.0224251486361026,-0.0096307890489697,0.004954544827342
1769234218191,-0.21917724609375,0.32330322265625,-0.9130859375,-0.0224251486361026,-0.0096307890489697,0.004954544827342
1769234218201,-0.22528076171875,0.3272705078125,-0.9188385009765624,-0.0163395591080188,-0.0028495823498815,0.018900454044342
1769234218211,-0.2325592041015625,0.3282470703125,-0.9202423095703124,0.0063519054092466,0.0130649358034133,0.0194019265472888
1769234218221,-0.2427215576171875,0.330657958984375,-0.9225006103515624,0.0176429096609354,0.019188342615962,0.0079351551830768
1769234218231,-0.2504730224609375,0.3298797607421875,-0.9250640869140624,0.0259088296443223,0.0228150337934494,-0.0033012544736266
1769234218241,-0.24774169921875,0.330780029296875,-0.9207000732421876,0.0297296661883592,0.02554477378726,-0.0092307822778821
1769234218251,-0.243255615234375,0.3275299072265625,-0.9147491455078124,0.027383953332901,0.021098893135786,-0.0105394599959254
1769234218261,-0.23931884765625,0.3251800537109375,-0.91131591796875,0.0266236215829849,0.0212648082524538,-0.0068629658780992
1769234218271,-0.237945556640625,0.326385498046875,-0.911529541015625,0.0225311424583196,0.0175646133720874,-0.0009526127250865
1769234218281,-0.2378997802734375,0.3250579833984375,-0.9081573486328124,0.0142175517976284,0.0152846807613968,0.0021667478140443
1769234218291,-0.23858642578125,0.325164794921875,-0.9083099365234376,0.0122390892356634,0.0070821442641317,0.002224538475275
1769234218301,-0.239959716796875,0.3246002197265625,-0.912078857421875,0.0156545937061309,0.0032637037802487,-0.0004487426485866
1769234218312,-0.242462158203125,0.326385498046875,-0.91558837890625,0.0163984149694442,0.0009131979313679,-0.0056243296712636
1769234218322,-0.241607666015625,0.3244476318359375,-0.9168853759765624,0.0152663048356771,-0.0001850896951509,-0.0010354369878768
1769234218332,-0.232879638671875,0.3251953125,-0.9139404296875,0.0170668680220842,-0.0025806031189858,0.0031454595737159
1769234218342,-0.2296142578125,0.326324462890625,-0.9180908203125,0.0238395519554615,0.0017614146927371,0.0049510826356709
1769234218352,-0.230010986328125,0.327178955078125,-0.9241943359375,0.0342671610414981,0.00656602345407,0.0105421226471662
1769234218362,-0.2321624755859375,0.3260650634765625,-0.924102783203125,0.0403634011745452,0.0097748665139079,0.0139155490323901
1769234218372,-0.231903076171875,0.3272552490234375,-0.9210357666015624,0.0440894290804863,0.013357350602746,0.0188778173178434
1769234218382,-0.233428955078125,0.324432373046875,-0.91607666015625,0.0452915802597999,0.0145176900550723,0.0171686001121997
1769234218392,-0.2377777099609375,0.3250885009765625,-0.91082763671875,0.0379034392535686,0.0093104112893342,0.0162122584879398
1769234218402,-0.2398529052734375,0.3220977783203125,-0.9020233154296876,0.0226014498621225,0.0080025326460599,0.0117916781455278
1769234218412,-0.239501953125,0.32177734375,-0.8952789306640625,0.0077058565802872,0.0057516288943588,0.0141922514885663
1769234218422,-0.2367401123046875,0.32147216796875,-0.8987579345703125,0.0018594190478324,0.0012546151410788,0.0139807965606451
1769234218432,-0.2361602783203125,0.32257080078125,-0.9077301025390624,0.0029878003988415,-0.0002463423879817,0.0147571079432964
1769234218442,-0.23748779296875,0.3247528076171875,-0.918487548828125,0.0128966234624385,0.0032682311721146,0.0089743202552199
1769234218452,-0.237060546875,0.3260040283203125,-0.926025390625,0.0225303433835506,0.0048304414376616,0.0100188115611672
1769234218462,-0.2350311279296875,0.3251495361328125,-0.9287567138671876,0.0251357126981019,0.0030469226185232,0.01066888961941
1769234218472,-0.2353973388671875,0.3201751708984375,-0.922515869140625,0.022915968671441,0.0048339036293327,0.0131056820973753
1769234218482,-0.237152099609375,0.31927490234375,-0.9152984619140624,0.0150383375585079,0.0058613512665033,0.0149360727518796
1769234218493,-0.23834228515625,0.3189239501953125,-0.9129486083984376,0.0123661225661635,0.008125570602715,0.0162705816328525
1769234218503,-0.236907958984375,0.320037841796875,-0.9133148193359376,0.0124654583632946,0.0093144057318568,0.0136276613920927
1769234218512,-0.237823486328125,0.3221435546875,-0.91754150390625,0.0161552671343088,0.0107921939343214,0.0080185113474726
1769234218523,-0.24017333984375,0.3238983154296875,-0.92034912109375,0.0247191954404115,0.0148319425061345,0.0060871872119605
1769234218533,-0.2400970458984375,0.3233184814453125,-0.9223480224609376,0.033653300255537,0.0142471129074692,0.0051771849393844
1769234218543,-0.2389068603515625,0.3224945068359375,-0.9214630126953124,0.0347041860222816,0.014258031733334,0.0039539951831102
1769234218553,-0.2401275634765625,0.3206787109375,-0.9161376953125,0.030630612745881,0.0101748732849955,0.0022533005103468
1769234218563,-0.2397613525390625,0.319366455078125,-0.9096832275390624,0.0219295341521501,0.0064142234623432,-0.0034871431998908
1769234218573,-0.24072265625,0.3179473876953125,-0.9065093994140624,0.0156306251883506,0.0046267095021903,-0.0047899615019559
1769234218583,-0.23602294921875,0.318115234375,-0.9080810546875,0.0137682761996984,0.00645044259727,-0.0035750274546444
1769234218593,-0.23236083984375,0.3166961669921875,-0.910980224609375,0.0108715556561946,0.0060400492511689,-0.0015712650492787
1769234218603,-0.233306884765625,0.31573486328125,-0.9112091064453124,0.0078912125900387,0.0045556034892797,0.0021470405627042
1769234218613,-0.2330780029296875,0.31671142578125,-0.911041259765625,0.0034208304714411,0.0050855726003646,0.0055058193393051
1769234218623,-0.2317047119140625,0.3162994384765625,-0.9111328125,0.0019369170768186,0.0057263290509581,0.0078270304948091
1769234218633,-0.2321624755859375,0.3160858154296875,-0.9163360595703124,0.0067910607904195,0.0067966533824801,0.0090827103704214
1769234218644,-0.23626708984375,0.3197021484375,-0.9216156005859376,0.0130058135837316,0.0061798654496669,0.0026770094409585
1769234218653,-0.24017333984375,0.3213958740234375,-0.9273223876953124,0.0290087480098009,0.0058352523483335,-0.001054611755535
1769234218663,-0.2396087646484375,0.32208251953125,-0.9310760498046876,0.0347997918725013,0.0116276275366544,-0.0030458574183285
1769234218673,-0.240020751953125,0.3206024169921875,-0.925018310546875,0.0322277098894119,0.0134130110964179,-0.0060222060419619
1769234218683,-0.238006591796875,0.3190765380859375,-0.919647216796875,0.0264883320778608,0.009066998027265,-0.0032810145057737
1769234218693,-0.2383270263671875,0.3188934326171875,-0.9129638671875,0.0176394470036029,0.0065223476849496,-0.0068152956664562
1769234218703,-0.2367401123046875,0.3161468505859375,-0.910980224609375,0.0075157070532441,0.0019180085510015,-0.0057747983373701
1769234218713,-0.234283447265625,0.31427001953125,-0.9079742431640624,0.002813097089529,4.900216299574822e-05,-0.0038924762047827
1769234218724,-0.232086181640625,0.3127899169921875,-0.9094696044921876,-0.0034115093294531,0.0048600025475025,0.0014176006661728
1769234218734,-0.229522705078125,0.314666748046875,-0.912109375,-0.0007811051327735,0.0077244988642632,0.0035790221299976
1769234218748,-0.230072021484375,0.3154296875,-0.9178009033203124,0.0080715082585811,0.0098992362618446,0.0022280006669461
1769234218754,-0.2343902587890625,0.3169708251953125,-0.92559814453125,0.0180101599544286,0.013441240414977,0.0008865662966854
1769234218764,-0.2344207763671875,0.317291259765625,-0.9262542724609376,0.0250289198011159,0.0158583261072635,0.004357464145869
1769234218774,-0.23162841796875,0.3184661865234375,-0.92181396484375,0.0254779290407896,0.0105687547475099,0.0069953249767422
1769234218784,-0.2289276123046875,0.3156280517578125,-0.9161224365234376,0.0183670222759246,0.0141978440806269,0.0094294548034667
1769234218794,-0.2310943603515625,0.3116302490234375,-0.90899658203125,0.0070307450369,0.0125083345919847,0.0132825160399079
1769234218804,-0.2318572998046875,0.310089111328125,-0.904144287109375,-0.0068134311586618,0.0024458470288664,0.0113953994587063
1769234218814,-0.232574462890625,0.3106842041015625,-0.9051666259765624,-0.0157443415373563,-0.0003254382754676,0.0122081963345408
1769234218824,-0.2347259521484375,0.3139190673828125,-0.907745361328125,-0.018695656210184,-0.0002830940356943,0.0089436937123537
1769234218834,-0.2399139404296875,0.3148651123046875,-0.91357421875,-0.0173142757266759,0.0025976472534239,0.0033768883440643
1769234218844,-0.2420806884765625,0.315704345703125,-0.920166015625,-0.0091402353718876,0.0073979953303933,0.0053372411057353
1769234218854,-0.2357025146484375,0.31817626953125,-0.92578125,-0.0034365430474281,0.0092970952391624,0.0108111025765538
1769234218864,-0.23028564453125,0.3134765625,-0.926239013671875,-0.0041185785084962,0.0088757835328578,0.0187595728784799
1769234218874,-0.2268524169921875,0.3113861083984375,-0.91656494140625,-0.0100901843979954,0.0039518647827208,0.0256952438503503
1769234218885,-0.2269439697265625,0.311126708984375,-0.91644287109375,-0.0134385768324136,-0.0038802255876362,0.0238347593694925
1769234218894,-0.2333984375,0.3177032470703125,-0.920806884765625,-0.0079692434519529,-0.0009808422764763,0.0121006052941083
1769234218904,-0.240386962890625,0.3250732421875,-0.9281158447265624,0.0084265079349279,0.0102057661861181,0.0023606258910149
1769234218914,-0.2471771240234375,0.3284149169921875,-0.9326171875,0.0254600867629051,0.0236217062920331,-0.008353803306818
1769234218924,-0.2471923828125,0.325897216796875,-0.9309539794921876,0.0310540553182363,0.0332202725112438,-0.0103149553760886
1769234218934,-0.2406768798828125,0.3211669921875,-0.9228057861328124,0.0280063338577747,0.0279911551624536,-0.0093823168426752
1769234218945,-0.230987548828125,0.3180694580078125,-0.914031982421875,0.0184072367846965,0.0249157361686229,-0.0094725973904132
1769234218955,-0.2276763916015625,0.315155029296875,-0.908111572265625,0.002248773118481,0.0126683907583355,-0.0127813089638948
1769234218965,-0.2274322509765625,0.314605712890625,-0.905120849609375,-0.0120574617758393,0.0041798311285674,-0.0166143961250782
1769234218975,-0.2294921875,0.3121490478515625,-0.9078369140625,-0.0208165980875492,0.0045793056488037,-0.0162159875035285
1769234218985,-0.2249755859375,0.3105010986328125,-0.91229248046875,-0.0230704322457313,0.0059905145317316,-0.0054666707292199
1769234218995,-0.2212677001953125,0.311248779296875,-0.9187164306640624,-0.0161310322582721,0.0092608761042356,0.0072174328379333
1769234219005,-0.2220458984375,0.31231689453125,-0.9288787841796876,-0.0017411747248843,0.0163845662027597,0.0170064140111207
1769234219015,-0.2273101806640625,0.3151702880859375,-0.9332427978515624,0.0109682288020849,0.022433403879404,0.019834691658616
1769234219025,-0.2307586669921875,0.315673828125,-0.93035888671875,0.0196727700531482,0.0233956035226583,0.0204112660139799
1769234219035,-0.2361907958984375,0.316314697265625,-0.9272918701171876,0.0264364015311002,0.0234557911753654,0.0094358455389738
1769234219045,-0.2438812255859375,0.3174896240234375,-0.924713134765625,0.0265330728143453,0.0165574047714471,-0.0026887273415923
1769234219055,-0.2467193603515625,0.3173370361328125,-0.9214324951171876,0.0224379301071167,0.0093900393694639,-0.0122505407780408
1769234219065,-0.24456787109375,0.313873291015625,-0.9151763916015624,0.0178730059415102,0.0080131851136684,-0.0176548939198255
1769234219075,-0.2352294921875,0.3106842041015625,-0.9126739501953124,0.0114313522353768,0.0034906051587313,-0.0095655415207147
1769234219085,-0.2255096435546875,0.3070526123046875,-0.91192626953125,0.0048165931366384,0.0080576604232192,0.004980111028999
1769234219095,-0.2179718017578125,0.30670166015625,-0.9102020263671876,0.0013683321885764,0.0090880375355482,0.0211481619626283
1769234219105,-0.2173919677734375,0.3043975830078125,-0.9086151123046876,-0.0002423476544208,0.0119711756706237,0.0315792299807071
1769234219115,-0.222015380859375,0.3080291748046875,-0.9123992919921876,0.0005350290448404,0.0118992701172828,0.0346003212034702
1769234219125,-0.22735595703125,0.31036376953125,-0.916168212890625,0.0017286578658968,0.0135799907147884,0.027466244995594
1769234219135,-0.2352294921875,0.314544677734375,-0.9177398681640624,0.0067633637227118,0.0102925850078463,0.0147978542372584
1769234219145,-0.2395782470703125,0.3192291259765625,-0.9214324951171876,0.0082600601017475,0.0067266123369336,-0.0005033374181948
1769234219155,-0.240692138671875,0.3204193115234375,-0.92022705078125,0.0092547507956624,0.0047715855762362,-0.0069335396401584
1769234219166,-0.241607666015625,0.3190155029296875,-0.9215545654296876,0.0076704365201294,0.0077037261798977,-0.0097002983093261
1769234219175,-0.2342529296875,0.3182220458984375,-0.9186859130859376,0.0030218889005482,0.0099993711337447,0.00131799839437
1769234219186,-0.225677490234375,0.316009521484375,-0.9169769287109376,0.0058887819759547,0.0096028260886669,0.0114744957536458
1769234219196,-0.22406005859375,0.313934326171875,-0.921295166015625,0.0090275835245847,0.0122377574443817,0.0186439920216798
1769234219206,-0.226165771484375,0.314788818359375,-0.9200439453125,0.0049239182844758,0.0121051324531435,0.015165370889008
1769234219216,-0.23248291015625,0.3132171630859375,-0.91632080078125,-0.0008711199625395,0.0078733693808317,0.0059079565107822
1769234219226,-0.2369232177734375,0.3131561279296875,-0.912506103515625,-0.0089567434042692,0.00028842035681,-0.0074621774256229
1769234219236,-0.23687744140625,0.313201904296875,-0.91290283203125,-0.0159166492521762,-0.0067242155782878,-0.0140598928555846
1769234219248,-0.232330322265625,0.310211181640625,-0.914947509765625,-0.0177957750856876,-0.0074842814356088,-0.0087500819936394
1769234219256,-0.2240142822265625,0.311553955078125,-0.92083740234375,-0.0138377845287323,-0.0086843017488718,-0.0003318298549856
1769234219266,-0.2240753173828125,0.3106842041015625,-0.92425537109375,-0.0110244220122694,-0.0055702677927911,0.0033420007675886
1769234219277,-0.22515869140625,0.3088531494140625,-0.9248809814453124,-0.0075897425413131,-0.0018714033067226,0.0105511778965592
1769234219286,-0.2273712158203125,0.3140869140625,-0.92510986328125,-0.0026674221735447,-0.0027012443169951,0.0118683772161602
1769234219296,-0.2356414794921875,0.3125457763671875,-0.9229583740234376,-0.0014008227735757,-0.0006077333819121,0.0023323965724557
1769234219306,-0.239532470703125,0.3149566650390625,-0.9188690185546876,-0.0043558664619922,-0.0030732878949493,-0.0066741481423377
1769234219316,-0.2405548095703125,0.3148345947265625,-0.9193267822265624,-0.0029782131314277,-0.000859668420162,-0.0116305574774742
1769234219326,-0.23504638671875,0.3129119873046875,-0.9196929931640624,-0.000429834210081,0.0007566040731035,-0.0111072454601526
1769234219336,-0.228607177734375,0.3126983642578125,-0.91937255859375,-0.0003664509567897,0.0017142767319455,-0.0076848175376653
1769234219346,-0.2245330810546875,0.3119049072265625,-0.9176025390625,-0.0011590076610445,0.0029254823457449,0.000417051021941
1769234219356,-0.2216949462890625,0.3087310791015625,-0.9132537841796876,-0.0076416744850575,-0.0021505025215446,0.0080350236967206
1769234219367,-0.2271270751953125,0.3116302490234375,-0.9095306396484376,-0.0151930674910545,-0.0047995490022003,0.0023662187159061
1769234219377,-0.232696533203125,0.313385009765625,-0.9115142822265624,-0.0182141568511724,-0.005249623209238,-0.0063734771683812
1769234219387,-0.2353363037109375,0.315032958984375,-0.9143218994140624,-0.0187915302813053,-0.0059622852131724,-0.011083809658885
1769234219397,-0.231781005859375,0.3174896240234375,-0.91766357421875,-0.0177275985479354,-0.0067756143398582,-0.0070051788352429
1769234219407,-0.2278900146484375,0.3173828125,-0.9216461181640624,-0.0130870398133993,-0.0073109096847474,-0.0079537965357303
1769234219417,-0.229644775390625,0.316497802734375,-0.9224090576171876,-0.0114020574837923,-0.007481085602194,-0.0054190000519156
1769234219427,-0.231536865234375,0.31439208984375,-0.920501708984375,-0.0159249044954776,-0.0046520098112523,-0.003025084733963
1769234219437,-0.2304229736328125,0.3156585693359375,-0.917877197265625,-0.0168197266757488,-0.0094017572700977,-0.0051164650358259
1769234219447,-0.23443603515625,0.315887451171875,-0.9205474853515624,-0.0159619227051734,-0.0097309239208698,-0.0074552530422806
1769234219457,-0.2337493896484375,0.3166961669921875,-0.92230224609375,-0.012956278398633,-0.0096973683685064,-0.0059449742548167
1769234219467,-0.2326812744140625,0.3155670166015625,-0.92333984375,-0.0092286523431539,-0.0052576125599443,-0.0096741989254951
1769234219477,-0.2332611083984375,0.315704345703125,-0.9225616455078124,-0.0047369645908474,-0.007995874620974,-0.0095721995458006
1769234219487,-0.2296142578125,0.315887451171875,-0.9265594482421876,-0.0018975022248923,-0.0058831889182329,-0.0078872181475162
1769234219497,-0.230010986328125,0.3123016357421875,-0.9261474609375,-0.0011209244839847,-0.008445949293673,-0.0074238278903067
1769234219507,-0.230804443359375,0.3127899169921875,-0.92138671875,-0.0020964404102414,-0.0049020806327462,-0.0047316383570432
1769234219517,-0.228515625,0.31201171875,-0.9190216064453124,-0.0026634274981915,-0.0044528055004775,-0.0037675739731639
1769234219527,-0.2299346923828125,0.3142242431640625,-0.92108154296875,-0.0006588660762645,-0.0036487970501184,-0.0030599720776081
1769234219537,-0.2336578369140625,0.3140716552734375,-0.9203033447265624,-0.0011653993278741,-0.0014474280178546,-0.0083157205954194
1769234219547,-0.2354583740234375,0.31585693359375,-0.91973876953125,2.663161103555467e-05,0.0052541503682732,-0.0089604714885354
1769234219557,-0.234527587890625,0.3181610107421875,-0.9206390380859376,0.0045896917581558,0.0049926280044019,-0.0086523443460464
1769234219567,-0.2332763671875,0.3199462890625,-0.9268035888671876,0.0134132774546742,0.002919090911746,-0.0125626632943749
1769234219581,-0.234832763671875,0.321807861328125,-0.9270782470703124,0.0171488933265209,0.0023057649377733,-0.0120974089950323
1769234219587,-0.2313079833984375,0.3193817138671875,-0.9200897216796876,0.0132143385708332,-0.0048094023950397,-0.0121589284390211
1769234219598,-0.23150634765625,0.31494140625,-0.91302490234375,0.0031848743092268,-0.0141645548865199,-0.01413419470191
1769234219608,-0.23223876953125,0.3145904541015625,-0.908172607421875,-0.0048035434447228,-0.0191265568137168,-0.014177338220179
1769234219618,-0.2329254150390625,0.3141021728515625,-0.906341552734375,-0.0101927164942026,-0.0127525469288229,-0.0100281331688165
1769234219628,-0.2306365966796875,0.313232421875,-0.9086456298828124,-0.0123264407739043,-0.0090566119179129,-0.0014833806781098
1769234219638,-0.2276763916015625,0.312286376953125,-0.91412353515625,-0.0046283076517283,-0.0056688045151531,0.0035747610963881
1769234219648,-0.2289581298828125,0.3118896484375,-0.9197998046875,0.0001824265345931,-0.0123821012675762,0.0052269860170781
1769234219658,-0.227386474609375,0.310791015625,-0.919158935546875,-0.0028314727824181,-0.0220986437052488,0.0006578007596544
1769234219668,-0.22900390625,0.30767822265625,-0.913330078125,-0.013317403383553,-0.0282878298312425,0.0034256239887326
1769234219678,-0.2281494140625,0.3095550537109375,-0.9076690673828124,-0.02213672734797,-0.0288300495594739,0.0032474587205797
1769234219688,-0.230194091796875,0.314056396484375,-0.9105377197265624,-0.0200794357806444,-0.0256592910736799,7.190534688561456e-06
1769234219698,-0.2350311279296875,0.3182373046875,-0.920257568359375,-0.0116201704367995,-0.0328391715884208,0.0018753979820758
1769234219708,-0.2414398193359375,0.32061767578125,-0.9240875244140624,-0.0073444657027721,-0.0115874139592051,0.0014953649369999
1769234219718,-0.242523193359375,0.3192596435546875,-0.9213104248046876,-0.0041041974909603,-0.0012175972806289,0.0038213697262108
1769234219728,-0.2400970458984375,0.3192291259765625,-0.9217529296875,0.0024634238798171,0.0045611960813403,0.0014743260107934
1769234219738,-0.235992431640625,0.3194732666015625,-0.92327880859375,0.0048046088777482,0.0018266622209921,0.0020911141764372
1769234219748,-0.22998046875,0.3169097900390625,-0.919281005859375,-0.0009776464430615,-0.0036666402593255,0.0030919299460947
1769234219758,-0.229034423828125,0.31390380859375,-0.911773681640625,-0.0102331964299082,-0.0103258742019534,0.0024796691723167
1769234219774,-0.2298583984375,0.3102874755859375,-0.9090576171875,-0.0213556215167045,-0.0145504465326666,0.0011052117915824
1769234219782,-0.2326202392578125,0.307769775390625,-0.9067230224609376,-0.0355015359818935,-0.0164998807013034,0.0040677119977772
1769234219788,-0.2323150634765625,0.307037353515625,-0.907623291015625,-0.0397460795938968,-0.0217186119407415,0.0039683762006461
1769234219798,-0.23809814453125,0.308868408203125,-0.912139892578125,-0.0424204282462596,-0.0163438189774751,0.0023558323737233
1769234219808,-0.242919921875,0.31182861328125,-0.9139556884765624,-0.0443418994545936,-0.0147555097937583,0.0035955337807536
1769234219818,-0.243499755859375,0.31640625,-0.9158172607421876,-0.0423977896571159,-0.0112276207655668,-0.0023353260476142
1769234219829,-0.248321533203125,0.3198089599609375,-0.9193572998046876,-0.0411463715136051,-0.0095527591183781,-0.0099924467504024
1769234219839,-0.25341796875,0.322113037109375,-0.92303466796875,-0.0401021465659141,-0.0092254560440778,-0.0247711259871721
1769234219849,-0.2540130615234375,0.3210906982421875,-0.9213409423828124,-0.04288275167346,-0.0058810585178434,-0.0368943698704242
1769234219859,-0.2498779296875,0.32049560546875,-0.918670654296875,-0.0483813807368278,-0.0104632936418056,-0.0406310483813285
1769234219869,-0.238739013671875,0.318878173828125,-0.9190521240234376,-0.0532562956213951,-0.012934174388647,-0.0427863448858261
1769234219879,-0.23101806640625,0.314117431640625,-0.918701171875,-0.0525769256055355,-0.0098539618775248,-0.0340794064104557
1769234219889,-0.2287445068359375,0.3151702880859375,-0.91900634765625,-0.0419945865869522,-0.0001398159511154,-0.0296630878001451
1769234219899,-0.2318572998046875,0.3169403076171875,-0.92462158203125,-0.0296282004565,-0.0013185309944674,-0.0269402712583541
1769234219909,-0.2359771728515625,0.318328857421875,-0.927093505859375,-0.0235460717231035,-0.0035840822383761,-0.0310671050101518
1769234219919,-0.2384033203125,0.3177947998046875,-0.9199981689453124,-0.0289730615913867,-0.0061604240909218,-0.0309776235371828
1769234219929,-0.2358245849609375,0.3161773681640625,-0.911285400390625,-0.034982219338417,-0.0096161421388387,-0.0291200689971447
1769234219939,-0.2323760986328125,0.316864013671875,-0.9103851318359376,-0.034982219338417,-0.0096161421388387,-0.0291200689971447
1769234219949,-0.2329254150390625,0.3172149658203125,-0.9148712158203124,-0.0405658036470413,-0.0083418190479278,-0.0254739336669445
1769234219959,-0.233245849609375,0.3155517578125,-0.9220123291015624,-0.0301911924034357,-0.0018034926615655,-0.0120808975771069
1769234219969,-0.232147216796875,0.3177642822265625,-0.926910400390625,-0.0164886955171823,0.0018141453620046,-0.0059476378373801
1769234219979,-0.2335968017578125,0.321868896484375,-0.9337005615234376,0.0002777676854748,0.0051564122550189,-0.0002838929649442
1769234219989,-0.23486328125,0.3241424560546875,-0.9398193359375,0.0186336059123277,0.0072363414801657,-0.0008370315190404
1769234219999,-0.2363128662109375,0.3248291015625,-0.9355316162109376,0.0279879588633775,0.01018872205168,-0.0016437029698863
1769234220009,-0.240081787109375,0.3204498291015625,-0.9253082275390624,0.0318599268794059,0.0105988485738635,-0.0029284118209034
1769234220019,-0.2409820556640625,0.3169097900390625,-0.9156494140625,0.0243205185979604,0.006907707080245,-0.0017283915076404
1769234220030,-0.239044189453125,0.3140869140625,-0.9076080322265624,0.0123544046655297,0.0012064119800925,0.0022575615439563
1769234220040,-0.2371673583984375,0.3130340576171875,-0.9019012451171876,0.0011350392596796,-0.0017765947850421,0.0053779873996973
1769234220050,-0.234832763671875,0.3131103515625,-0.90533447265625,-0.0016820525052025,-0.0027361316606402,0.0106885973364114
1769234220060,-0.23541259765625,0.31396484375,-0.9125213623046876,0.0004447478859219,-0.0031920648179948,0.012794891372323
1769234220070,-0.2370452880859375,0.3148040771484375,-0.9183807373046876,0.0057926415465772,0.0013198626693338,0.0133629431948065
1769234220081,-0.238494873046875,0.3133392333984375,-0.916229248046875,0.0085159903392195,0.0007795072160661,0.0144694866612553
1769234220090,-0.2393341064453125,0.314208984375,-0.913543701171875,0.00604351144284,-0.0029901971574872,0.0164482146501541
1769234220100,-0.24102783203125,0.3154296875,-0.9110260009765624,0.0033582460600882,-0.0080565949901938,0.0140809314325451
1769234220110,-0.2450714111328125,0.315673828125,-0.9053497314453124,-0.0067122313193976,-0.0057460363022983,0.0105226822197437
1769234220120,-0.247344970703125,0.3170166015625,-0.90057373046875,-0.0173025578260421,-0.0075021246448159,0.0103178853169083
1769234220130,-0.246826171875,0.321380615234375,-0.89984130859375,-0.0262332018464803,-0.0088635329157114,0.0089279813691973
1769234220140,-0.24383544921875,0.32525634765625,-0.906097412109375,-0.0240688510239124,-0.0054831821471452,0.0070195598527789
1769234220150,-0.2436676025390625,0.331024169921875,-0.9180908203125,-0.0148556446656584,-0.00412257341668,0.0050336406566202
1769234220160,-0.2414398193359375,0.3290557861328125,-0.9248046875,-0.0128122018650174,-0.0064459149725735,0.0070139672607183
1769234220170,-0.237274169921875,0.3267059326171875,-0.9240264892578124,-0.0082661854103207,-0.0083032036200165,0.0056834518909454
1769234220180,-0.2339935302734375,0.327301025390625,-0.924560546875,-0.0035148400347679,-0.0098560927435755,0.0067577711306512
1769234220190,-0.2340850830078125,0.32464599609375,-0.92681884765625,0.001383512164466,-0.0141717456281185,0.0062680160626769
1769234220200,-0.2331085205078125,0.324737548828125,-0.92388916015625,0.0025281386915594,-0.0121373562142252,0.0054879761300981
1769234220210,-0.235748291015625,0.32183837890625,-0.9185943603515624,-0.0004082625964656,-0.0094539551064372,0.0095791239291429
1769234220220,-0.232818603515625,0.3188323974609375,-0.9136199951171876,-0.000843689427711,-0.0038722362369298,0.0159949455410242
1769234220230,-0.2302703857421875,0.317474365234375,-0.916534423828125,0.0027830032631754,-0.0005446164286695,0.0208653341978788
1769234220241,-0.2307281494140625,0.316009521484375,-0.9210662841796876,0.0094470316544175,0.0003427488263696,0.0275543965399265
1769234220251,-0.2333984375,0.3166351318359375,-0.9229888916015624,0.0150236906483769,0.0045473473146557,0.0327486246824264
1769234220261,-0.233917236328125,0.3164825439453125,-0.923095703125,0.0181358605623245,0.0005664543714374,0.0296087581664323
1769234220271,-0.240081787109375,0.317352294921875,-0.919281005859375,0.0187092386186122,0.0010607370641082,0.024368455633521
1769234220281,-0.2462158203125,0.3173065185546875,-0.916229248046875,0.0182274729013443,-0.0056917080655694,0.0178964417427778
1769234220291,-0.2481231689453125,0.3191680908203125,-0.9126434326171876,0.0154109140858054,-0.0059769325889647,0.0101458448916673
1769234220301,-0.2497100830078125,0.317291259765625,-0.908203125,0.0081514036282897,-0.0062347264029085,0.0047284425236284
1769234220311,-0.24737548828125,0.3136444091796875,-0.9048919677734376,0.000336090917699,-0.0061455103568732,0.0017427726415917
1769234220321,-0.2418975830078125,0.312530517578125,-0.9033660888671876,-0.0047665257006883,-0.0083913542330265,0.0065665561705827
1769234220331,-0.23883056640625,0.31109619140625,-0.9071044921875,-0.005626194179058,-0.0057716025039553,0.0083343628793954
1769234220341,-0.2368011474609375,0.3091583251953125,-0.9093017578125,-0.0038852856960147,-0.0004210457555018,0.0095855155959725
1769234220351,-0.236480712890625,0.3088531494140625,-0.911285400390625,-0.0040173786692321,0.006057892460376,0.015474297106266
1769234220361,-0.2347412109375,0.3071746826171875,-0.911041259765625,-0.005665342323482,0.0133387083187699,0.0216717403382062
1769234220371,-0.229522705078125,0.3105621337890625,-0.9120635986328124,-0.0019824570044875,0.0138761345297098,0.0316125191748142
1769234220381,-0.2300567626953125,0.315765380859375,-0.9210357666015624,0.0070240874774754,0.0123205818235874,0.0349028557538986
1769234220391,-0.2357330322265625,0.3197021484375,-0.9257354736328124,0.0152279548346996,0.0013827132061123,0.0258449129760265
1769234220401,-0.2489013671875,0.3256683349609375,-0.9229888916015624,0.0178114883601665,0.0031808796338737,0.0094920387491583
1769234220411,-0.25958251953125,0.32440185546875,-0.921356201171875,0.0068709556944668,0.0107051087543368,-0.0027678234037011
1769234220421,-0.25653076171875,0.3231964111328125,-0.9132843017578124,-0.0060983723960816,0.006983074825257,-0.0147272804751992
1769234220431,-0.2505340576171875,0.31915283203125,-0.9091796875,-0.0126119321212172,3.382214708835818e-05,-0.017239972949028
1769234220441,-0.2425384521484375,0.317840576171875,-0.912872314453125,-0.020821925252676,-0.0237641856074333,-0.0189928654581308
1769234220452,-0.237213134765625,0.3159332275390625,-0.9155426025390624,-0.0254377163946628,-0.0065154237672686,-0.0153893427923321
1769234220462,-0.24041748046875,0.320526123046875,-0.918731689453125,-0.0192226972430944,0.0077793598175048,-0.0098941763862967
1769234220472,-0.2403106689453125,0.32061767578125,-0.9248809814453124,-0.0085058705881237,0.0122587969526648,-0.0036107138730585
1769234220482,-0.2419891357421875,0.3261871337890625,-0.9303131103515624,0.0024506407789885,0.0114406738430261,-0.0134971663355827
1769234220492,-0.248046875,0.3227691650390625,-0.9289398193359376,0.0059202071279287,0.0100449109449982,-0.0212901085615158
1769234220502,-0.2439727783203125,0.319061279296875,-0.9211578369140624,-0.0041899513453245,0.0061620222404599,-0.0223974511027336
1769234220512,-0.2351531982421875,0.3170013427734375,-0.9114227294921876,-0.0139685459434986,0.001005609636195,-0.0238989405333995
1769234220522,-0.2343597412109375,0.3162078857421875,-0.9100494384765624,-0.017346765846014,0.0033673008438199,-0.0243210513144731
1769234220532,-0.237213134765625,0.3177947998046875,-0.9126129150390624,-0.0145158255472779,0.0090211918577551,-0.0190165676176548
1769234220542,-0.237701416015625,0.3170928955078125,-0.9142608642578124,-0.0132303182035684,0.0198243055492639,-0.0098411794751882
1769234220552,-0.2358856201171875,0.31866455078125,-0.914764404296875,-0.0066722836345434,0.0282289739698171,-0.0083998767659068
1769234220562,-0.2391510009765625,0.3177642822265625,-0.915679931640625,-0.0056315204128623,0.0284361690282821,-0.0122169852256774
1769234220572,-0.241851806640625,0.3151702880859375,-0.9107818603515624,-0.0112457303330302,0.0300577674061059,-0.0132556175813078
1769234220582,-0.235748291015625,0.31304931640625,-0.90472412109375,-0.0158284977078437,0.0274803601205348,-0.0135360490530729
1769234220592,-0.2281494140625,0.3075103759765625,-0.903533935546875,-0.0252222660928964,0.022964971140027,-0.0027896612882614
1769234220602,-0.22125244140625,0.3031005859375,-0.9037017822265624,-0.0314013324677944,0.0192977972328662,0.0141967786476016
1769234220614,-0.2183837890625,0.302154541015625,-0.9058685302734376,-0.0319379605352878,0.016308132559061,0.0312916114926338
1769234220622,-0.2239990234375,0.3059234619140625,-0.9137115478515624,-0.026179140433669,0.0166226532310247,0.0399585999548435
1769234220633,-0.2301025390625,0.3151702880859375,-0.9245452880859376,0.0082379560917615,0.0112286861985921,0.0367241911590099
1769234220642,-0.2425994873046875,0.3208465576171875,-0.943115234375,0.0098515655845403,0.014838334172964,0.0336490385234355
1769234220652,-0.2528533935546875,0.329498291015625,-0.9257049560546876,0.0140564301982522,0.0083937514573335,0.0178213417530059
1769234220663,-0.2629852294921875,0.327911376953125,-0.9198150634765624,0.0082744415849447,0.0091783180832862,0.0011334413429722
1769234220672,-0.25958251953125,0.326171875,-0.91461181640625,0.0082744415849447,0.0091783180832862,0.0011334413429722
1769234220682,-0.2501220703125,0.323760986328125,-0.9144744873046876,0.0075822859071195,0.0050988881848752,-0.006336991675198
1769234220692,-0.239410400390625,0.3206939697265625,-0.9194488525390624,0.0101498393341898,0.0012519520241767,-0.0018785938154906
1769234220703,-0.2280731201171875,0.320587158203125,-0.9162445068359376,0.0031225562561303,0.0024959144648164,0.0086709856986999
1769234220713,-0.2227325439453125,0.3182525634765625,-0.909515380859375,-0.0020671456586569,-0.0005536712124012,0.0176341217011213
1769234220723,-0.2237396240234375,0.3187713623046875,-0.91143798828125,-0.001953961327672,-7.430219557136297e-05,0.0239487420767545
1769234220733,-0.2290802001953125,0.3223876953125,-0.917266845703125,0.0033742249943315,-0.0018751317402347,0.0216317921876907
1769234220743,-0.2370758056640625,0.3242645263671875,-0.918609619140625,0.0048022121191024,-0.0027318706270307,0.0138764008879661
1769234220753,-0.2426300048828125,0.3216552734375,-0.9153900146484376,-0.0002407497668173,-0.0020016317721456,0.0049734534695744
1769234220763,-0.2411346435546875,0.322601318359375,-0.910369873046875,-0.0088904304429888,-0.0080462088808417,-0.0034115093294531
1769234220773,-0.2386016845703125,0.3217315673828125,-0.9110107421875,-0.0118515994399786,-0.0093093458563089,-0.0081950789317488
1769234220783,-0.23724365234375,0.3208160400390625,-0.9171142578125,-0.0089420955628156,-0.0034887411165982,-0.0087239826098084
1769234220793,-0.233734130859375,0.321502685546875,-0.9230499267578124,-0.0057987668551504,-0.0003020024741999,-0.0016959009226411
1769234220803,-0.2306976318359375,0.31988525390625,-0.924591064453125,-0.0002189118386013,-0.0002700445184018,0.0067151607945561
1769234220813,-0.2331695556640625,0.319610595703125,-0.92413330078125,0.0020591560751199,0.0050616040825843,0.005854426883161
1769234220823,-0.2367706298828125,0.3172760009765625,-0.92095947265625,0.0030192257836461,0.0078715048730373,0.0024490428622812
1769234220833,-0.236480712890625,0.315521240234375,-0.9181671142578124,0.0032136365771293,0.0090001532807946,0.0017126789316534
1769234220843,-0.2318878173828125,0.310760498046875,-0.914794921875,-0.0007824367494322,0.0098201399669051,0.0096507631242275
1769234220853,-0.229705810546875,0.30889892578125,-0.9129180908203124,-0.0068371333181858,0.0098800612613558,0.0156037267297506
1769234220863,-0.2288055419921875,0.3074493408203125,-0.913543701171875,-0.0062176822684705,0.0098824584856629,0.022801985964179
1769234220873,-0.2263031005859375,0.30889892578125,-0.91888427734375,-0.0044157872907817,0.0068781459704041,0.0344370678067207
1769234220883,-0.2260589599609375,0.312225341796875,-0.9232025146484376,-0.0008402272942475,0.005781456362456,0.0349404066801071
1769234220894,-0.2346649169921875,0.315887451171875,-0.9260711669921876,0.0072408686392009,0.0026908579748123,0.030894000083208
1769234220904,-0.2444610595703125,0.3207550048828125,-0.92730712890625,0.0140596264973282,0.0003832288784906,0.016603210940957
1769234220914,-0.2540740966796875,0.322052001953125,-0.92669677734375,0.0170580800622701,0.001929193851538,0.0032434638123959
1769234220924,-0.25311279296875,0.3209075927734375,-0.9195098876953124,0.0124212494120001,0.0036679718177765,-0.0052016861736774
1769234220934,-0.2484588623046875,0.318084716796875,-0.9109039306640624,0.0027973842807114,0.0025656893849372,-0.0076629798859357
1769234220944,-0.2406463623046875,0.3135986328125,-0.9070281982421876,-0.0033894050866365,0.0025001754984259,-0.0058701396919786
1769234220954,-0.2334442138671875,0.3131256103515625,-0.9101409912109376,-0.0067716194316744,0.0022871226537972,-0.0006255765329115
1769234220964,-0.2317047119140625,0.3125457763671875,-0.914520263671875,-0.0072224927134811,0.0043992758728563,0.0010266485624015
1769234220974,-0.2313995361328125,0.3153533935546875,-0.915771484375,-0.005836583673954,0.0093010896816849,0.0010245180455967
1769234220984,-0.2350616455078125,0.317108154296875,-0.9191741943359376,-0.006287723314017,0.008183361031115,0.0001547296560602
1769234220994,-0.2364349365234375,0.3172454833984375,-0.9157257080078124,-0.0134383104741573,0.010448645800352,-0.0009390306076966
1769234221004,-0.2364654541015625,0.317596435546875,-0.909576416015625,-0.0236035957932472,0.0146668273955583,-0.0049854377284646
1769234221014,-0.23638916015625,0.3175201416015625,-0.9082489013671876,-0.0281829014420509,0.0148194264620542,-0.0051199272274971
1769234221024,-0.2328338623046875,0.317291259765625,-0.91009521484375,-0.0333313234150409,0.0131328459829092,-0.002011751756072
1769234221034,-0.2288055419921875,0.3187408447265625,-0.9144287109375,-0.0342879332602024,0.012008992023766,-0.0008205199264921
1769234221044,-0.231048583984375,0.3196563720703125,-0.92193603515625,-0.0287557486444711,0.0118111195042729,0.0017102820565924
1769234221054,-0.2327728271484375,0.31829833984375,-0.925994873046875,-0.0221385918557643,0.0097112171351909,-0.0004386226355563
1769234221064,-0.23675537109375,0.3201141357421875,-0.92877197265625,-0.0194985996931791,0.006320746615529,-0.0033774208277463
1769234221074,-0.241851806640625,0.3191375732421875,-0.925140380859375,-0.0217937119305133,0.0060677463188767,-0.0069348714314401
1769234221084,-0.23968505859375,0.316925048828125,-0.9196929931640624,-0.0230800192803144,0.0041827606037259,-0.0038370825350284
1769234221094,-0.2364654541015625,0.3137054443359375,-0.9168853759765624,-0.0269179008901119,-0.0006335660000331,-0.0038802255876362
1769234221104,-0.2371063232421875,0.315032958984375,-0.917999267578125,-0.0285016819834709,-0.0002772350562736,-0.0073564499616622
1769234221115,-0.2390594482421875,0.3162384033203125,-0.919097900390625,-0.0269416030496358,0.0044583980925381,-0.0074291541241109
1769234221124,-0.23687744140625,0.317596435546875,-0.9220123291015624,-0.0185531787574291,0.0083633912727236,-0.0057204701006412
1769234221135,-0.232879638671875,0.31890869140625,-0.92425537109375,-0.009402023628354,0.0108577078208327,-0.0013576794881373
1769234221145,-0.2325439453125,0.321563720703125,-0.928314208984375,0.0010359697043895,0.0133288549259305,-0.00421844702214
1769234221155,-0.241455078125,0.32220458984375,-0.927001953125,0.0064877266995608,0.0102244075387716,-0.0116193713620305
1769234221165,-0.243927001953125,0.321746826171875,-0.9202880859375,0.0055066179484128,0.0062291338108479,-0.0168058779090642
1769234221175,-0.24530029296875,0.3196868896484375,-0.9122161865234376,0.0015201322967186,0.0057835867628455,-0.0229053162038326
1769234221185,-0.244964599609375,0.3183746337890625,-0.90740966796875,-0.0063007730059325,0.0061713429167866,-0.0260073654353618
1769234221195,-0.2413482666015625,0.31671142578125,-0.902191162109375,-0.0134822530671954,0.0053910370916128,-0.02647022344172
1769234221205,-0.2359466552734375,0.315582275390625,-0.901031494140625,-0.0159933473914861,0.0056725330650806,-0.0259285364300012
1769234221215,-0.233642578125,0.3159027099609375,-0.903106689453125,-0.0186911299824714,0.009279784746468,-0.0152023890987038
1769234221225,-0.23077392578125,0.320465087890625,-0.9070892333984376,-0.0168279819190502,0.0072675002738833,-0.0115631790831685
1769234221235,-0.2289276123046875,0.32342529296875,-0.9122467041015624,-0.0197374857962131,-0.0156665779650211,-0.0158527325838804
1769234221246,-0.2321929931640625,0.3238983154296875,-0.909088134765625,-0.0218837279826402,0.001751561067067,-0.0160838942974805
1769234221255,-0.2393798828125,0.3276214599609375,-0.9090423583984376,-0.0205699894577264,0.0050432281568646,-0.0228805486112833
1769234221265,-0.240264892578125,0.3268585205078125,-0.9132843017578124,-0.0215218029916286,0.0007930893916636,-0.0244366340339183
1769234221275,-0.2331695556640625,0.3239898681640625,-0.9132537841796876,-0.0225415285676717,-0.0053601441904902,-0.0240643229335546
1769234221285,-0.2299346923828125,0.3233795166015625,-0.9142303466796876,-0.020240556448698,-0.0062887887470424,-0.0159632544964551
1769234221295,-0.2267303466796875,0.32159423828125,-0.916015625,-0.0145126301795244,0.0027555727865546,-0.0055793225765228
1769234221305,-0.2269134521484375,0.321990966796875,-0.9184417724609376,-0.0099088232964277,0.0087301079183816,0.0044349622912704
1769234221315,-0.22991943359375,0.3236236572265625,-0.9190826416015624,-0.0058850534260272,0.0095745967701077,0.0077135795727372
1769234221326,-0.2321624755859375,0.3239593505859375,-0.9200286865234376,-0.0028266792651265,0.0073346118442714,0.0057010287418961
1769234221336,-0.2360382080078125,0.3229522705078125,-0.9185791015625,-0.0034293525386601,0.0026149577461183,0.0038964708801358
1769234221346,-0.2360687255859375,0.3202972412109375,-0.9167327880859376,-0.0111479926854372,-0.0009848369518294,0.001538241864182
1769234221356,-0.2299652099609375,0.321990966796875,-0.91357421875,-0.0138084897771477,-0.008510397747159,0.0069375345483422
1769234221366,-0.2269287109375,0.323638916015625,-0.9188995361328124,-0.0070413979701697,-0.0069489860907197,0.0114145744591951
1769234221376,-0.2294464111328125,0.3278045654296875,-0.9266815185546876,0.0085705853998661,-0.0015425028977915,0.0123035376891493
1769234221386,-0.2373199462890625,0.3305206298828125,-0.9306488037109376,0.0206605363637208,0.0061873220838606,0.0116667756810784
1769234221396,-0.2425079345703125,0.32952880859375,-0.9264068603515624,0.0245476868003606,0.0122755747288465,0.0061084926128387
1769234221406,-0.24365234375,0.324371337890625,-0.9161834716796876,0.0189664997160434,0.0136074218899011,0.0069580408744513
1769234221416,-0.23797607421875,0.32257080078125,-0.907867431640625,0.0106720849871635,0.0148348724469542,0.0084968153387308
1769234221426,-0.231201171875,0.3183746337890625,-0.9051971435546876,0.0016588830621913,0.0120468093082308,0.0101591609418392
1769234221436,-0.2281646728515625,0.3145599365234375,-0.9026947021484376,-0.0109296133741736,0.0098590226843953,0.0171696655452251
1769234221447,-0.2246551513671875,0.311126708984375,-0.90191650390625,-0.0201167203485965,0.0060277986340224,0.0246169287711381
1769234221456,-0.22332763671875,0.3134765625,-0.90802001953125,-0.021918348968029,0.0034703651908785,0.0304282139986753
1769234221466,-0.227691650390625,0.3176727294921875,-0.9192047119140624,-0.0135469678789377,0.0034109766129404,0.0304852053523063
1769234221476,-0.2339324951171875,0.3226165771484375,-0.9278106689453124,0.0045577338896691,0.0053755906410515,0.027591148391366
1769234221486,-0.2409515380859375,0.3272552490234375,-0.93585205078125,0.02203313075006,0.0049470881931483,0.0171475615352392
1769234221496,-0.2484588623046875,0.3268280029296875,-0.9328155517578124,0.0274856872856616,0.0026354643050581,0.0084933536127209
1769234221506,-0.2483673095703125,0.323699951171875,-0.9224700927734376,0.0250001586973667,0.000835433602333,0.0051561463624238
1769234221516,-0.24578857421875,0.3197174072265625,-0.9159393310546876,0.0204546749591827,-0.0083380909636616,-0.0011771172285079
1769234221526,-0.24395751953125,0.3155364990234375,-0.9105682373046876,0.0146447224542498,-0.0102989766746759,-0.0027917916886508
1769234221536,-0.240966796875,0.3133697509765625,-0.9092254638671876,0.0083783045411109,-0.0103375921025872,-0.0028530445415526
1769234221546,-0.240081787109375,0.31329345703125,-0.907623291015625,0.0047766459174454,-0.0085703190416097,0.0013574132462963
1769234221557,-0.23663330078125,0.3130035400390625,-0.907958984375,-0.0010958907660096,-0.0090688625350594,0.0075210332870483
1769234221567,-0.2343902587890625,0.316192626953125,-0.9078521728515624,-0.0048157940618693,-0.0031411985401064,0.0078267641365528
1769234221577,-0.2389678955078125,0.3180084228515625,-0.910064697265625,-0.0035675705876201,-0.0020535634830594,0.0046597328037023
1769234221587,-0.240814208984375,0.32098388671875,-0.91644287109375,0.0002399508084636,-0.0004868258547503,-0.000107325387944
1769234221597,-0.2394256591796875,0.3230743408203125,-0.92071533203125,0.0056834518909454,0.002060487633571,-0.0045715821906924
1769234221607,-0.2377777099609375,0.3242340087890625,-0.9251556396484376,0.0094049535691738,-0.0002862898109015,-0.0064254086464643
1769234221617,-0.235076904296875,0.3259124755859375,-0.9239654541015624,0.0088230529800057,0.0006993460701778,-0.0047598676756024
1769234221627,-0.2318878173828125,0.3238677978515625,-0.92236328125,0.0110776843503117,-0.000622114399448,-0.0044091292656958
1769234221637,-0.2350921630859375,0.3248748779296875,-0.922576904296875,0.0111589115113019,0.0002410160814179,-0.0079106539487838
1769234221647,-0.2408447265625,0.32501220703125,-0.918975830078125,0.0084611289203166,0.0028674255590885,-0.0076517942361533
1769234221657,-0.238372802734375,0.3267974853515625,-0.9174652099609376,0.0053191315382719,0.0055122110061347,-0.0094997622072696
1769234221667,-0.236083984375,0.321746826171875,-0.9158172607421876,0.0047742486931383,0.0112190982326865,-0.0073631075210869
1769234221677,-0.2320709228515625,0.3215484619140625,-0.915008544921875,0.006672816351056,0.0121528031304478,-0.0039452067576348
1769234221687,-0.227752685546875,0.3189697265625,-0.9169921875,0.0078970715403556,0.0133530898019671,0.001529986038804
1769234221697,-0.227081298828125,0.3164215087890625,-0.9151458740234376,0.0020543625578284,0.0180575642734766,0.0086922915652394
1769234221707,-0.22808837890625,0.31500244140625,-0.9100494384765624,-0.0012769857421517,0.0146053079515695,0.0127517478540539
1769234221717,-0.2301788330078125,0.31304931640625,-0.90887451171875,-0.0050237872637808,0.013065468519926,0.0097106844186782
1769234221727,-0.2352752685546875,0.3152313232421875,-0.9115142822265624,-0.0066853333264589,0.0121983429417014,0.0049795787781476
1769234221738,-0.2388916015625,0.315643310546875,-0.9115447998046876,-0.008635033853352,0.0114164389669895,0.0011398328933864
1769234221747,-0.240081787109375,0.3173828125,-0.9122772216796876,-0.0086576705798506,0.0116622485220432,-8.81506348378025e-05
1769234221757,-0.2389984130859375,0.3170013427734375,-0.913543701171875,-0.003884752979502,0.010138121433556,-0.0019891150295734
1769234221768,-0.2379150390625,0.318939208984375,-0.915069580078125,0.0016833840636536,0.0102766063064336,0.0005174521938897
1769234221778,-0.238494873046875,0.3224029541015625,-0.916839599609375,0.0067298081703484,0.0091681983321905,-0.0027877970132976
1769234221788,-0.239288330078125,0.323486328125,-0.9185333251953124,0.0115029914304614,0.0089154643937945,-0.0048016794025897
1769234221798,-0.2358856201171875,0.32135009765625,-0.919189453125,0.0131296506151556,0.0061372546479105,-0.0026024410035461
1769234221808,-0.228668212890625,0.3193206787109375,-0.917144775390625,0.012702745385468,0.0014429006259888,0.0069897323846817
1769234221818,-0.2227935791015625,0.317413330078125,-0.9135284423828124,0.0085460841655731,0.0001850896951509,0.0141645548865199
1769234221828,-0.2209930419921875,0.3136749267578125,-0.9100799560546876,0.0058640143834054,-0.004341484978795,0.0224429909139871
1769234221838,-0.2197265625,0.3162994384765625,-0.9097900390625,0.0042898198589682,-0.0140415169298648,0.0258800666779279
1769234221848,-0.227813720703125,0.316436767578125,-0.912353515625,0.0030293457675725,-0.0174346510320901,0.0259333290159702
1769234221858,-0.2298126220703125,0.3170013427734375,-0.9112548828125,-0.0001009338011499,-0.0167331732809543,0.0267655681818723
1769234221868,-0.2322845458984375,0.3177337646484375,-0.910736083984375,-0.001120125525631,-0.017780328169465,0.0306175630539655
1769234221878,-0.2325897216796875,0.316925048828125,-0.913787841796875,-0.0028826056513935,-0.0156926773488521,0.0316825620830059
1769234221888,-0.232513427734375,0.3182525634765625,-0.914306640625,-0.0062677497044205,-0.0160093270242214,0.0338996425271034
1769234221898,-0.2342071533203125,0.320648193359375,-0.9177093505859376,-0.0117211043834686,-0.0154428724199533,0.0339441187679767
1769234221908,-0.235076904296875,0.3232269287109375,-0.9221038818359376,-0.0051686628721654,-0.0143075669184327,0.0304487198591232
1769234221918,-0.2401580810546875,0.32403564453125,-0.9289093017578124,7.909588020993397e-05,-0.0175784602761268,0.0267266854643821
1769234221928,-0.239410400390625,0.3257904052734375,-0.9325408935546876,0.0075601814314723,-0.0143483132123947,0.0247655343264341
1769234221938,-0.239227294921875,0.3228759765625,-0.9316864013671876,0.0138167459517717,-0.0131863756105303,0.0216807946562767
1769234221948,-0.24078369140625,0.3187103271484375,-0.9250640869140624,0.01035010907799,-0.0096960365772247,0.0185356009751558
1769234221958,-0.239105224609375,0.3153533935546875,-0.9165191650390624,0.0055082160979509,-0.0132785206660628,0.0171081461012363
1769234221969,-0.238189697265625,0.3134613037109375,-0.91278076171875,0.0012740562669932,-0.0105333346873521,0.0176450405269861
1769234221979,-0.238433837890625,0.3123779296875,-0.9115142822265624,-0.0006945523782633,-0.0044136568903923,0.0160791017115116
1769234221989,-0.23883056640625,0.3133392333984375,-0.9149169921875,0.0024341291282325,0.0020434434991329,0.0168852396309375
1769234221999,-0.2406158447265625,0.314422607421875,-0.9188385009765624,0.009557818993926,0.0109152318909764,0.0201734453439712
1769234222009,-0.239959716796875,0.3163299560546875,-0.920196533203125,0.0149568449705839,0.0128284469246864,0.0184032414108514
1769234222019,-0.2433319091796875,0.3143310546875,-0.919342041015625,0.0147328730672597,0.0136465700343251,0.0113019226118922
1769234222029,-0.2451171875,0.3135986328125,-0.9121551513671876,0.0082853604108095,0.0118145812302827,0.0067218183539807
1769234222039,-0.2430267333984375,0.3132781982421875,-0.9062957763671876,0.0007177218794822,0.0096068205311894,-0.0016141419764608
1769234222049,-0.2398223876953125,0.30926513671875,-0.9038238525390624,-0.0101911183446645,0.0005566006875596,0.0026565031148493
1769234222059,-0.2328033447265625,0.3094024658203125,-0.9011993408203124,-0.0175302568823099,-0.0062296665273606,0.0037539917975664
1769234222069,-0.232574462890625,0.310882568359375,-0.9061279296875,-0.018719358369708,-0.0112009895965456,0.0059873186983168
1769234222079,-0.2391815185546875,0.3153533935546875,-0.911468505859375,-0.0166322402656078,-0.0114268250763416,0.0014165353495627
1769234222089,-0.246368408203125,0.31610107421875,-0.910980224609375,-0.019376628100872,-0.0081098582595586,-0.0030567762441933
1769234222099,-0.250640869140625,0.3202972412109375,-0.9106597900390624,-0.0201987456530332,-0.0073441993445158,-0.0127757163718342
1769234222109,-0.249176025390625,0.322479248046875,-0.91485595703125,-0.0227447263896465,-0.0105759454891085,-0.0174439717084169
1769234222119,-0.2421722412109375,0.317596435546875,-0.91058349609375,-0.0312892124056816,-0.0166618004441261,-0.0179265365004539
1769234222129,-0.232696533203125,0.31524658203125,-0.907806396484375,-0.036530315876007,-0.0255682095885276,-0.0124249784275889
1769234222139,-0.22967529296875,0.3155670166015625,-0.9121551513671876,-0.0399511456489563,-0.0229945313185453,-0.0108960568904876
1769234222149,-0.2293243408203125,0.321075439453125,-0.917938232421875,-0.0322609990835189,-0.0211420375853776,-0.0085375616326928
1769234222159,-0.234283447265625,0.3249359130859375,-0.924285888671875,-0.0189894028007984,-0.0137403132393956,-0.0081633878871798
1769234222169,-0.2377777099609375,0.327911376953125,-0.9309539794921876,0.0007912251749075,-0.0045766420662403,-0.0067657604813575
1769234222179,-0.2435302734375,0.3272857666015625,-0.930572509765625,0.0077953389845788,0.0035766253713518,-0.0097871171310544
1769234222189,-0.242462158203125,0.322845458984375,-0.918792724609375,0.0010644654976204,0.0048232511617243,-0.0080563286319375
1769234222200,-0.2322998046875,0.322601318359375,-0.909149169921875,-0.0110907340422272,-0.0007675230153836,-0.0067567061632871
1769234222209,-0.2268524169921875,0.319580078125,-0.9089202880859376,-0.0182192176580429,-0.0075002606026828,-0.0028626318089663
1769234222220,-0.2260589599609375,0.3182525634765625,-0.9111175537109376,-0.0266228225082159,-0.0060677463188767,0.0003901530872099
1769234222230,-0.2253265380859375,0.319091796875,-0.9150543212890624,-0.0252978987991809,-0.0070270169526338,0.005477855913341
1769234222240,-0.2301483154296875,0.3186798095703125,-0.920867919921875,-0.0205244496464729,-0.0056698699481785,0.0067814732901751
1769234222250,-0.2348480224609375,0.32098388671875,-0.9251556396484376,-0.011528824456036,-0.0064842645078897,0.0032184300944209
1769234222260,-0.2421112060546875,0.3244781494140625,-0.9274444580078124,-0.0041278996504843,0.0013291836949065,0.0005350290448404
1769234222270,-0.246063232421875,0.32403564453125,-0.924163818359375,0.0026479810476303,0.0066334013827145,-0.001857554889284
1769234222281,-0.24822998046875,0.322723388671875,-0.921356201171875,0.0061042313463985,0.0100752711296081,-0.0041007352992892
1769234222290,-0.246795654296875,0.321136474609375,-0.9171600341796876,0.0061867893673479,0.0141203459352254,-0.0013289173366501
1769234222300,-0.243011474609375,0.31829833984375,-0.9154205322265624,0.0052802492864429,0.0122161861509084,0.0006783071439713
1769234222310,-0.2395172119140625,0.3160247802734375,-0.912353515625,0.0048962216824293,0.0109296133741736,0.0050040795467793
1769234222320,-0.23773193359375,0.317535400390625,-0.9098358154296876,0.0011925635626539,0.0067934575490653,0.0028919265605509
1769234222330,-0.237060546875,0.3156890869140625,-0.9072265625,0.0004178499802947,-0.0007472829893231,0.0008202536264434
1769234222340,-0.2372283935546875,0.3164520263671875,-0.9040374755859376,-0.0029108349699527,-0.0074078487232327,-0.0014639396686106
1769234222350,-0.2394561767578125,0.316558837890625,-0.9053192138671876,-0.007660849019885,-0.0115570537745952,-0.0112079130485653
1769234222360,-0.24334716796875,0.3201141357421875,-0.902679443359375,-0.0114952689036726,-0.012826582416892,-0.011633220128715
1769234222370,-0.242767333984375,0.3204803466796875,-0.902740478515625,-0.0149094406515359,-0.0123924873769283,-0.0156628489494323
1769234222381,-0.2390899658203125,0.3186187744140625,-0.9052734375,-0.0209233909845352,-0.0088129322975873,-0.0084728468209505
1769234222390,-0.2292022705078125,0.3199615478515625,-0.9069671630859376,-0.0228432640433311,-0.0128422956913709,0.0028208203148096
1769234222400,-0.225616455078125,0.3206634521484375,-0.9128875732421876,-0.021604361012578,-0.0148247526958584,0.0112808840349316
1769234222411,-0.22760009765625,0.3229522705078125,-0.9188079833984376,-0.0154647100716829,-0.0101690143346786,0.0120888873934745
1769234222421,-0.2335205078125,0.324432373046875,-0.9237060546875,-0.0101162837818264,-0.0072893383912742,0.0153288887813687
1769234222431,-0.2372589111328125,0.3251495361328125,-0.9232940673828124,-0.0050874366424977,-0.0082880239933729,0.0143666891381144
1769234222441,-0.2399139404296875,0.328582763671875,-0.925018310546875,0.0008756473544053,-0.0048887645825743,0.0105450525879859
1769234222451,-0.2426300048828125,0.3284759521484375,-0.922882080078125,0.0017158746486529,-0.003131611039862,0.0080344909802079
1769234222461,-0.242279052734375,0.3247222900390625,-0.918670654296875,0.0015832493081688,-0.0020700751338154,0.0054357778280973
1769234222471,-0.2387847900390625,0.32403564453125,-0.9174652099609376,0.0011235876008868,-0.0050616040825843,0.0023025691043585
1769234222481,-0.2394866943359375,0.3217010498046875,-0.9158172607421876,-0.0029720878228545,-0.0069428607821464,0.0015126754296943
1769234222491,-0.2393951416015625,0.31817626953125,-0.9125823974609376,-0.0106329368427395,-0.0082435486838221,0.001294029993005
1769234222501,-0.2366943359375,0.31512451171875,-0.91119384765625,-0.0156127819791436,-0.007637146860361,0.0071833445690572
1769234222511,-0.234405517578125,0.314697265625,-0.9134979248046876,-0.0178245361894369,-0.0071686971932649,0.0099407816305756
1769234222521,-0.2372894287109375,0.3154449462890625,-0.9134979248046876,-0.0182365272194147,-0.0056762616150081,0.0100278668105602
1769234222531,-0.23876953125,0.3178863525390625,-0.9171600341796876,-0.0146268792450428,-0.004332962911576,0.0116476016119122
1769234222541,-0.2423095703125,0.31976318359375,-0.9212646484375,-0.0085572693496942,0.0004556668573059,0.0081314295530319
1769234222551,-0.243682861328125,0.32049560546875,-0.9223785400390624,-0.0018908443162217,0.0041635860688984,0.0059463060460984
1769234222561,-0.2435150146484375,0.3208770751953125,-0.9227447509765624,0.0034778220579028,0.0076009281910955,0.0063596284016966
1769234222571,-0.2409210205078125,0.3196258544921875,-0.919464111328125,0.0064363274723291,0.0080046635121107,0.0066179553978145
1769234222581,-0.2371063232421875,0.3177337646484375,-0.9162445068359376,0.0058914450928568,0.0057015614584088,0.009345032274723
1769234222591,-0.2369384765625,0.3162078857421875,-0.9135284423828124,0.0029438582714647,0.0025020397733896,0.0086747147142887
1769234222601,-0.2377777099609375,0.3177947998046875,-0.910888671875,0.0011331749847158,-0.0015137407463043,0.010882475413382
1769234222611,-0.239532470703125,0.317230224609375,-0.908416748046875,-0.0032437301706522,-0.0026908579748123,0.004137753508985
1769234222621,-0.24310302734375,0.319000244140625,-0.9087371826171876,-0.0055393748916685,-0.0051761199720203,0.0011816446203738
1769234222632,-0.242706298828125,0.3225555419921875,-0.9120330810546876,-0.004316717851907,-0.0028780782595276,-0.0012817793758586
1769234222642,-0.24163818359375,0.3234100341796875,-0.9125518798828124,-0.0061305966228246,-0.0002545981842558,-0.0040650488808751
1769234222652,-0.2415771484375,0.323577880859375,-0.913970947265625,-0.0068491175770759,-0.0005472796037793,-0.0092084119096398
1769234222662,-0.2429046630859375,0.3236236572265625,-0.915557861328125,-0.0076707028783857,-0.0005155879771336,-0.0087612671777606
1769234222672,-0.239501953125,0.32177734375,-0.9174346923828124,-0.0084933536127209,-0.0006383596919476,-0.0071686971932649
1769234222682,-0.2340850830078125,0.3208160400390625,-0.91815185546875,-0.0078784292563796,-0.0018026937032118,0.0012626046082004
1769234222692,-0.2334747314453125,0.320404052734375,-0.9165496826171876,-0.0081295650452375,0.0026394589804112,0.0045324340462684
1769234222702,-0.2326507568359375,0.31976318359375,-0.917755126953125,-0.0047737164422869,0.0049236523918807,0.0068307416513562
1769234222712,-0.2355499267578125,0.3197021484375,-0.918701171875,-0.0009105347562581,0.0065196845680475,0.0093663372099399
1769234222722,-0.238494873046875,0.321807861328125,-0.91888427734375,0.0014351775171235,0.0028224179986864,0.0078696412965655
1769234222732,-0.2434539794921875,0.3217620849609375,-0.917327880859375,-0.0009302421822212,0.0038365498185157,0.0002825613773893
1769234222742,-0.24517822265625,0.32275390625,-0.91217041015625,-0.0044679851271212,0.0054645403288304,-0.0026964505668729
1769234222752,-0.242034912109375,0.3222503662109375,-0.9117584228515624,-0.0088174603879451,0.0031808796338737,-0.0095298560336232
1769234222762,-0.2432403564453125,0.3238525390625,-0.91217041015625,-0.0081503381952643,0.0054014232009649,-0.0090789822861552
1769234222772,-0.241790771484375,0.32275390625,-0.9144287109375,-0.0074792215600609,0.0067346016876399,-0.0077700386755168
1769234222782,-0.23858642578125,0.323760986328125,-0.916168212890625,-0.0036903421860188,0.0118249673396348,-0.0058352523483335
1769234222792,-0.2390899658203125,0.3225860595703125,-0.915435791015625,0.0005139900604262,0.0114838164299726,-0.0047148605808615
1769234222802,-0.239593505859375,0.32281494140625,-0.9171142578125,0.0063865263946354,0.0128585407510399,-0.0028719529509544
1769234222812,-0.237579345703125,0.3232879638671875,-0.918060302734375,0.0080720409750938,0.0089727221056818,-0.0030719563364982
1769234222822,-0.2372283935546875,0.317626953125,-0.913360595703125,0.0034232272300869,0.0017387778498232,-0.002755040070042
1769234222832,-0.2363739013671875,0.3165130615234375,-0.9069366455078124,-0.0016937704058364,-0.0039710393175482,-0.0072637717239558
1769234222843,-0.2395172119140625,0.3165130615234375,-0.910125732421875,0.0003691141318995,-0.003098854329437,-0.0117783620953559
1769234222853,-0.2423553466796875,0.314361572265625,-0.9113006591796876,-0.0008034756756387,0.0016357135027647,-0.0075431372970342
1769234222864,-0.240997314453125,0.31427001953125,-0.911102294921875,-0.0018532937392592,0.0069857379421591,-0.0005126585019752
1769234222873,-0.2378082275390625,0.3175201416015625,-0.913543701171875,0.0056685381568968,0.0073031866922974,0.0063045010901987
1769234222883,-0.2388916015625,0.3185577392578125,-0.9190521240234376,0.0098206726834177,0.0066581689752638,0.0087306406348943
1769234222893,-0.2396392822265625,0.316619873046875,-0.922698974609375,0.0143176866695284,-0.0023965786676853,0.0060789315029978
1769234222903,-0.2414093017578125,0.31927490234375,-0.92047119140625,0.0077617829665541,-0.0100510362535715,-0.0030439931433647
1769234222913,-0.2474822998046875,0.3226470947265625,-0.918609619140625,0.005086903925985,-0.0131855765357613,-0.0161475446075201
1769234222923,-0.251922607421875,0.324462890625,-0.919464111328125,0.0085570029914379,-0.0066618975251913,-0.0224222186952829
1769234222933,-0.253692626953125,0.32672119140625,-0.9222259521484376,0.017399763688445,0.004636563360691,-0.0264438576996326
1769234222943,-0.2482757568359375,0.32574462890625,-0.9250946044921876,0.0236707087606191,0.0140572292730212,-0.0256699435412883
1769234222953,-0.2441558837890625,0.321746826171875,-0.92083740234375,0.028799956664443,0.0192647743970155,-0.0178016331046819
1769234222963,-0.23516845703125,0.320556640625,-0.9178314208984376,0.0302665587514638,0.0188021827489137,-0.0086158588528633
1769234222973,-0.2309722900390625,0.318115234375,-0.9135894775390624,0.024517860263586,0.0127333719283342,-0.0033462618011981
1769234222983,-0.22955322265625,0.315032958984375,-0.9070587158203124,0.0114246942102909,0.0061654839664697,-0.0041052629239857
1769234222993,-0.2310943603515625,0.3142852783203125,-0.902587890625,-0.0026024410035461,-0.0053127398714423,-0.0089783146977424
1769234223003,-0.2349853515625,0.3145294189453125,-0.9034271240234376,-0.0141565650701522,-0.0127765154466032,-0.0148846739903092
1769234223013,-0.2405242919921875,0.3155059814453125,-0.9088897705078124,-0.0190290845930576,-0.0106803411617875,-0.0131506891921162
1769234223023,-0.23870849609375,0.318084716796875,-0.913787841796875,-0.0152710983529686,-0.0067039751447737,-0.0105256112292408
1769234223033,-0.2375946044921875,0.3193359375,-0.9230804443359376,-0.0039651803672313,0.0034914042335003,-0.0033129723742604
1769234223043,-0.2365264892578125,0.3199005126953125,-0.92852783203125,0.0063686831854283,0.0095900427550077,0.0003459446306806
1769234223053,-0.2375030517578125,0.32122802734375,-0.9274444580078124,0.017503360286355,0.0201023388653993,0.0025558357592672
1769234223064,-0.237762451171875,0.319580078125,-0.9269866943359376,0.0259780716150999,0.0255564916878938,0.0033358754590153
1769234223074,-0.2381134033203125,0.3192596435546875,-0.9243011474609376,0.0346695631742477,0.0277810301631689,-0.0008066715090535
1769234223084,-0.2428131103515625,0.31817626953125,-0.924468994140625,0.0436313673853874,0.0277027338743209,-0.0088968221098184
1769234223094,-0.2432861328125,0.3156280517578125,-0.924957275390625,0.0523937009274959,0.0284518804401159,-0.0137075567618012
1769234223104,-0.2389984130859375,0.3129730224609375,-0.921112060546875,0.0758292526006698,0.020723920315504,-0.0145073039457201
1769234223115,-0.2335662841796875,0.3101806640625,-0.9302825927734376,0.0974330827593803,0.0151288853958249,-0.0049492185935378
1769234223124,-0.22454833984375,0.3155059814453125,-0.92742919921875,0.0802056193351745,0.025677666068077,0.0075846826657652
1769234223134,-0.237579345703125,0.3104705810546875,-0.899261474609375,0.0544147714972496,0.0220839977264404,-0.0022692794445902
1769234223144,-0.249420166015625,0.308380126953125,-0.89019775390625,0.0440912954509258,0.0103783383965492,-0.0114875454455614
1769234223154,-0.2450714111328125,0.310394287109375,-0.8985595703125,0.0219652205705642,0.0095516936853528,-0.008698683232069
1769234223164,-0.2399139404296875,0.313812255859375,-0.8960113525390625,0.0075338161550462,0.0051297806203365,-0.0062608253210783
1769234223174,-0.236541748046875,0.3125457763671875,-0.9024658203125,-0.009328787215054,0.0294625516980886,-0.0101008368656039
1769234223184,-0.239776611328125,0.3095855712890625,-0.8986358642578125,-0.0157627183943986,0.0100265350192785,-0.0022421153262257
1769234223194,-0.2288360595703125,0.3152923583984375,-0.90692138671875,-0.008264853619039,0.0027664916124194,0.0034570493735373
1769234223204,-0.22857666015625,0.316558837890625,-0.92706298828125,0.0003414172388147,0.0071540493518114,0.0074350130744278
1769234223214,-0.2317962646484375,0.318389892578125,-0.9239044189453124,0.0056640109978616,0.0143456496298313,0.0060754693113267
1769234223224,-0.2388916015625,0.3188934326171875,-0.9211273193359376,0.009958891198039,0.010873420163989,0.0059617524966597
1769234223234,-0.23974609375,0.3198699951171875,-0.920196533203125,0.010685933753848,0.0066989152692258,0.0030594393610954
1769234223244,-0.2409210205078125,0.3202056884765625,-0.9186248779296876,0.0050586746074259,0.0032589102629572,-0.0019070896087214
1769234223254,-0.2412567138671875,0.3158111572265625,-0.9146575927734376,-0.0061777345836162,-0.0001352885883534,-0.0018069547368213
1769234223264,-0.2384490966796875,0.31353759765625,-0.9148101806640624,-0.0130183305591344,-0.0076432721689343,-0.0033111080992966
1769234223274,-0.236602783203125,0.3102569580078125,-0.9146881103515624,-0.0198538657277822,-0.0097884489223361,0.000662594451569
1769234223285,-0.2352294921875,0.3089599609375,-0.9174652099609376,-0.0250158701092004,-0.0102883242070674,0.0049058091826736
1769234223295,-0.2325897216796875,0.3098907470703125,-0.91839599609375,-0.0226224884390831,-0.0102486424148082,0.0095469001680612
1769234223305,-0.2350311279296875,0.3073272705078125,-0.92205810546875,-0.017936123535037,-0.008381500840187,0.0080347573384642
1769234223315,-0.2375946044921875,0.30877685546875,-0.9249725341796876,-0.011993546038866,-0.0070427292957901,0.0070978570729494
1769234223325,-0.239898681640625,0.3118743896484375,-0.927520751953125,-0.003738012863323,-0.0040021985769271,0.0016466324450448
1769234223335,-0.2443084716796875,0.311309814453125,-0.9270782470703124,-0.0013081447687,-2.450108149787411e-05,-0.0021382521372288
1769234223345,-0.2455902099609375,0.3116302490234375,-0.923309326171875,0.0011432950850576,0.0012865731259807,-0.0081071946769952
1769234223355,-0.2431793212890625,0.309844970703125,-0.91925048828125,0.0006223807577043,0.0003350256592966,-0.0052584116347134
1769234223365,-0.2377777099609375,0.3087158203125,-0.91778564453125,-0.0017955031944438,0.0019297265680506,0.0004958806093782
1769234223375,-0.2357940673828125,0.30975341796875,-0.92034912109375,0.0044221789576113,0.0028402612078934,0.0010495517635717
1769234223385,-0.2387237548828125,0.3112945556640625,-0.922698974609375,0.0088355690240859,0.0014849785948172,-0.0027398602105677
1769234223395,-0.2446136474609375,0.3101043701171875,-0.92071533203125,0.0084752440452575,-0.0041329595260322,-0.0099186766892671
1769234223405,-0.247833251953125,0.311279296875,-0.915863037109375,0.0067849354818463,-0.008788963779807,-0.0175137463957071
1769234223415,-0.2474212646484375,0.311492919921875,-0.9120635986328124,0.0027686222456395,-0.0098241344094276,-0.0229910686612129
1769234223425,-0.24493408203125,0.3123779296875,-0.911163330078125,0.0015797871164977,-0.0112401377409696,-0.022840866819024
1769234223435,-0.24298095703125,0.310943603515625,-0.912322998046875,-0.0037686391733586,-0.0101756723597645,-0.021580658853054
1769234223445,-0.2388153076171875,0.3080596923828125,-0.9125823974609376,-0.0084395576268434,-0.0065274075604975,-0.0143797378987073
1769234223455,-0.23480224609375,0.3067169189453125,-0.9122161865234376,-0.0103024384006857,-0.0013310478534549,-0.008396946825087
1769234223465,-0.231536865234375,0.3080902099609375,-0.915985107421875,-0.013054815120995,-0.0044307010248303,-0.0021406488958746
1769234223475,-0.2332763671875,0.3112335205078125,-0.9181671142578124,-0.0118926120921969,-0.0023872575256973,0.0004090615548193
1769234223485,-0.2369232177734375,0.31048583984375,-0.9198150634765624,-0.009989783167839,0.0001174454009742,0.0022551647853106
1769234223495,-0.2388458251953125,0.3133544921875,-0.9214630126953124,-0.0067271450534462,0.001235706731677,0.002747849561274
1769234223506,-0.2398529052734375,0.316619873046875,-0.921295166015625,-0.0061947791837155,0.0002111886715283,-0.0015169365797191
1769234223516,-0.24176025390625,0.3180999755859375,-0.92010498046875,-0.0078051923774182,0.002347043948248,-0.0099050952121615
1769234223526,-0.244537353515625,0.3189544677734375,-0.9224395751953124,-0.0083207804709672,1.810949470382184e-05,-0.0141547014936804
1769234223536,-0.2427978515625,0.318572998046875,-0.9202423095703124,-0.0101386541500687,0.0019409117521718,-0.0136974360793828
1769234223546,-0.2389678955078125,0.3158111572265625,-0.920867919921875,-0.0097301248461008,0.0063590961508452,-0.0130873061716556
1769234223556,-0.2361297607421875,0.3150787353515625,-0.9210052490234376,-0.0074738953262567,0.0050011500716209,-0.0084824347868561
1769234223566,-0.2359771728515625,0.3139801025390625,-0.9195098876953124,-0.0084659224376082,0.0070208916440606,-0.0057036918587982
1769234223576,-0.2367401123046875,0.314239501953125,-0.91595458984375,-0.0101674161851406,0.0108899315819144,-0.0036748959682881
1769234223586,-0.2356719970703125,0.314422607421875,-0.914581298828125,-0.0077540599741041,0.0134042222052812,-0.0028828717768192
1769234223596,-0.2361297607421875,0.313323974609375,-0.9177703857421876,-0.0075489962473511,0.0117232352495193,-0.001939846551977
1769234223606,-0.23614501953125,0.311126708984375,-0.9141998291015624,-0.0134018259122967,0.008829710073769,-0.0036333505995571
1769234223616,-0.2360076904296875,0.309539794921875,-0.90789794921875,-0.0195587873458862,0.0010000169277191,-0.0011611381778493
1769234223626,-0.23492431640625,0.310150146484375,-0.90948486328125,-0.0209409687668085,-0.0026871294248849,0.0003709783486556
1769234223636,-0.237548828125,0.310333251953125,-0.91522216796875,-0.0187848731875419,0.0019017633749172,0.0010082727530971
1769234223647,-0.2396087646484375,0.310272216796875,-0.9176788330078124,-0.0119168469682335,0.0062525696121156,0.0024011060595512
1769234223656,-0.2420806884765625,0.3130340576171875,-0.922027587890625,-0.0029925941489636,0.0065766763873398,-0.0004063983797095
1769234223666,-0.2447357177734375,0.3131256103515625,-0.9236297607421876,0.0020554277580231,0.0044762413017451,-0.0019859191961586
1769234223676,-0.2420654296875,0.3079833984375,-0.9222869873046876,0.000183758107596,0.0028157602064311,0.0023819312918931
1769234223686,-0.2330780029296875,0.307098388671875,-0.91534423828125,-0.0077189062722027,-0.0035585158038884,0.0109051121398806
1769234223697,-0.227813720703125,0.3073272705078125,-0.9150390625,-0.0097394464537501,-0.0094781899824738,0.0192503929138183
1769234223706,-0.2290191650390625,0.307891845703125,-0.914581298828125,-0.0105650266632437,-0.0060429787263274,0.0221380591392517
1769234223717,-0.23828125,0.31219482421875,-0.9170379638671876,-0.0074717649258673,0.0025084314402192,0.0216272640973329
1769234223727,-0.24578857421875,0.3143463134765625,-0.9176788330078124,-0.0041500041261315,0.0090193273499608,0.0163382273167371
1769234223737,-0.2490234375,0.316864013671875,-0.919036865234375,-0.0026109630707651,0.0157691091299057,0.0137922447174787
1769234223747,-0.2466583251953125,0.319580078125,-0.9190216064453124,0.0004791026876773,0.0180314648896455,0.002584597794339
1769234223757,-0.24407958984375,0.319671630859375,-0.9229583740234376,0.0058871838264167,0.0194956697523593,-0.0076906764879822
1769234223767,-0.2449798583984375,0.3208160400390625,-0.9248046875,0.0019070896087214,0.010078732855618,-0.0135661428794264
1769234223777,-0.2408294677734375,0.3173370361328125,-0.919403076171875,-0.0064171529375016,0.0045023402199149,-0.013080115430057
1769234223787,-0.2353057861328125,0.3129119873046875,-0.9151458740234376,-0.0136529617011547,0.0001043959127855,-0.0054890410974621
1769234223797,-0.2316436767578125,0.309814453125,-0.9159393310546876,-0.0167456902563571,0.002306830137968,-0.0008535431115888
1769234223807,-0.2341156005859375,0.3101959228515625,-0.9192962646484376,-0.014160294085741,0.0079375514760613,0.0011155981337651
1769234223817,-0.2390289306640625,0.3100738525390625,-0.92230224609375,-0.0142939845100045,0.018282601609826,0.0006258428329601
1769234223827,-0.2393951416015625,0.3104400634765625,-0.92486572265625,-0.0063324645161628,0.0233719013631343,-0.000508930068463
1769234223837,-0.2391204833984375,0.3104400634765625,-0.9277801513671876,0.0016900419723242,0.0267280172556638,-0.0021166803780943
1769234223847,-0.241912841796875,0.311859130859375,-0.927947998046875,0.0037270938046276,0.0296657495200634,-0.0020746025256812
1769234223857,-0.242645263671875,0.3140869140625,-0.9259490966796876,0.0084528736770153,0.0344650335609912,-0.0084587326273322
1769234223867,-0.2455596923828125,0.313018798828125,-0.9239044189453124,0.0115008614957332,0.0395996086299419,-0.010605240240693
1769234223877,-0.2437896728515625,0.3128662109375,-0.9252471923828124,0.0186682268977165,0.0421943254768848,-0.0139096900820732
1769234223887,-0.2405242919921875,0.3154449462890625,-0.924346923828125,0.0300116948783397,0.0475360937416553,-0.0172026883810758
1769234223897,-0.240997314453125,0.31536865234375,-0.9275054931640624,0.0404262505471706,0.0536206178367137,-0.017160877585411
1769234223907,-0.2384490966796875,0.3135528564453125,-0.924346923828125,0.0500162951648235,0.0562390387058258,-0.0162492766976356
1769234223918,-0.2364501953125,0.311798095703125,-0.918121337890625,0.0537431240081787,0.0616612322628498,-0.0122039355337619
1769234223928,-0.2362518310546875,0.30682373046875,-0.9129180908203124,0.0496660880744457,0.0578126981854438,-0.0081351585686206
1769234223938,-0.232269287109375,0.304962158203125,-0.90728759765625,0.0365574769675731,0.0526509620249271,-0.0006189186242409
1769234223949,-0.2291717529296875,0.3050994873046875,-0.9036865234375,0.0269692987203598,0.0448899753391742,0.0053002233617007
1769234223958,-0.2297210693359375,0.3058013916015625,-0.905517578125,0.0202871616929769,0.0349768921732902,0.0048131309449672
1769234223968,-0.235595703125,0.308807373046875,-0.910125732421875,0.0172327831387519,0.0286383032798767,-0.0045982138253748
1769234223978,-0.2397918701171875,0.306976318359375,-0.91302490234375,0.0165752489119768,0.0270340144634246,-0.0075306207872927
1769234223988,-0.2369232177734375,0.3087310791015625,-0.916107177734375,0.0197651833295822,0.0277884881943464,-0.0087695233523845
1769234223998,-0.234893798828125,0.309295654296875,-0.9190521240234376,0.0212192684412002,0.0293416436761617,-0.0107565075159072
1769234224008,-0.23431396484375,0.3074188232421875,-0.919342041015625,0.0212192684412002,0.0293416436761617,-0.0107565075159072
1769234224018,-0.2310333251953125,0.30743408203125,-0.915435791015625,0.0174130778759717,0.0300995782017707,-0.0092331795021891
1769234224028,-0.2281494140625,0.3055572509765625,-0.9142303466796876,-0.0004415521107148,0.0238467436283826,0.0011249192757532
1769234224038,-0.2260894775390625,0.3043212890625,-0.9157257080078124,-0.0079455412924289,0.0173401087522506,0.0039193741977214
1769234224048,-0.2266387939453125,0.30609130859375,-0.9188232421875,-0.0197555944323539,0.0121456123888492,0.0068334047682583
1769234224058,-0.2259368896484375,0.308135986328125,-0.919342041015625,-0.0289474949240684,0.0066517773084342,0.0118547948077321
1769234224068,-0.2255096435546875,0.3079986572265625,-0.9227142333984376,-0.0301509778946638,0.0001408812240697,0.0123488111421465
1769234224078,-0.2281494140625,0.313262939453125,-0.93316650390625,-0.0227607060223817,0.0011520835105329,0.0083077307790517
1769234224088,-0.23406982421875,0.3157196044921875,-0.9413604736328124,-0.0108225541189312,0.0092997588217258,0.0035601137205958
1769234224098,-0.2371673583984375,0.3171539306640625,-0.9456634521484376,0.0017467673169448,0.0166034772992134,-0.0033673008438199
1769234224108,-0.2392730712890625,0.3165283203125,-0.944488525390625,0.0121464114636182,0.0251535568386316,-0.009067797102034
1769234224118,-0.238006591796875,0.3147735595703125,-0.9412841796875,0.0223564375191926,0.0314894840121269,-0.0132889077067375
1769234224129,-0.2353363037109375,0.311431884765625,-0.9372100830078124,0.0292289908975362,0.0391492657363414,-0.0149451270699501
1769234224139,-0.2320404052734375,0.3084259033203125,-0.9343109130859376,0.0326705947518348,0.0447522923350334,-0.0132138058543205
1769234224148,-0.2263641357421875,0.3050689697265625,-0.92730712890625,0.0357950143516063,0.0460902638733387,-0.0056672068312764
1769234224159,-0.2206878662109375,0.2989959716796875,-0.9203033447265624,0.0322972200810909,0.0424135029315948,0.0032330774702131
1769234224169,-0.219268798828125,0.3015289306640625,-0.9144744873046876,0.0285903662443161,0.0365761220455169,0.0046991477720439
1769234224179,-0.2262420654296875,0.301910400390625,-0.908050537109375,0.0214259289205074,0.0353657118976116,-0.001283377292566
1769234224189,-0.2337799072265625,0.302886962890625,-0.9066162109375,0.0148069094866514,0.0335880555212497,-0.0065657570958137
1769234224199,-0.2325439453125,0.304290771484375,-0.90716552734375,0.0143576338887214,0.0298103597015142,-0.011951201595366
1769234224209,-0.2332611083984375,0.30364990234375,-0.9082794189453124,0.0092739257961511,0.0242981482297182,-0.0180391874164342
1769234224219,-0.23431396484375,0.304290771484375,-0.90667724609375,0.000934236915782,0.0190330799669027,-0.0171747263520956
1769234224229,-0.2292022705078125,0.3033599853515625,-0.9057464599609376,-0.0090342415496706,0.0147784138098359,-0.0140202110633254
1769234224239,-0.2242889404296875,0.3022308349609375,-0.9067840576171876,-0.0166633985936641,0.0122936842963099,-0.0076035913079977
1769234224249,-0.2212066650390625,0.3006744384765625,-0.909637451171875,-0.0211534891277551,0.0029507824219763,-0.002215217333287
1769234224259,-0.220794677734375,0.3001556396484375,-0.9150390625,-0.0248483587056398,0.0026897927746176,0.0051942295394837
1769234224269,-0.2228851318359375,0.3030853271484375,-0.9169158935546876,-0.0278787687420845,0.0015438344562426,0.0087852356955409
1769234224279,-0.2262725830078125,0.3065032958984375,-0.922332763671875,-0.0233410093933343,-4.6072687837295234e-05,0.0104827350005507
1769234224289,-0.22930908203125,0.3094635009765625,-0.928619384765625,-0.0194650441408157,0.0006652576266787,0.0091735245659947
1769234224299,-0.2334442138671875,0.312591552734375,-0.9316253662109376,-0.0097588878124952,0.0035542547702789,0.0006748450105078
1769234224309,-0.2378082275390625,0.313446044921875,-0.9356231689453124,-0.0039169774390757,0.0055715991184115,-0.0069503178820014
1769234224319,-0.2388458251953125,0.3135833740234375,-0.93426513671875,-0.0016200009267777,0.0045737125910818,-0.0108582405373454
1769234224329,-0.2345733642578125,0.31298828125,-0.9313507080078124,-0.0024019049014896,0.0033563817851245,-0.0123400231823325
1769234224340,-0.2304229736328125,0.31402587890625,-0.9281768798828124,-0.0007249124464578,0.0043124565854668,-0.0122947497293353
1769234224350,-0.2317657470703125,0.3114776611328125,-0.9278717041015624,0.0002870887692552,0.0072986590676009,-0.0089599387720227
1769234224360,-0.226287841796875,0.31219482421875,-0.9251861572265624,-0.0004799016169272,0.0059130163863301,-0.0079141156747937
1769234224370,-0.224090576171875,0.3104400634765625,-0.922821044921875,-0.001008006511256,0.0033523871097713,-0.0067708208225667
1769234224380,-0.2249603271484375,0.307769775390625,-0.9246063232421876,-0.0053103431127965,0.0008926916052587,-0.0103210806846618
1769234224390,-0.2256317138671875,0.3067779541015625,-0.9206390380859376,-0.0046189865097403,-0.0031313446816056,-0.0124494787305593
1769234224400,-0.2256622314453125,0.3060302734375,-0.9190521240234376,-0.0072339442558586,-0.0018764632986858,-0.0155515288934111
1769234224410,-0.227752685546875,0.3041839599609375,-0.91619873046875,-0.0106648951768875,-0.0010061422362923,-0.0172133408486843
1769234224420,-0.22747802734375,0.3031768798828125,-0.9154052734375,-0.0112611763179302,0.0054440340027213,-0.0113245602697134
1769234224430,-0.2257232666015625,0.302978515625,-0.914459228515625,-0.0108087053522467,0.0076304893009364,-0.0065516424365341
1769234224440,-0.2257080078125,0.3016510009765625,-0.91705322265625,-0.0132452314719557,0.004422711674124,-0.0027856663800776
1769234224450,-0.2219085693359375,0.300323486328125,-0.9185638427734376,-0.0138449752703309,0.0019190738676115,0.003795270808041
1769234224460,-0.218170166015625,0.304229736328125,-0.92071533203125,-0.0116116488352417,0.0022381206508725,0.0082896212115883
1769234224470,-0.218841552734375,0.30609130859375,-0.926300048828125,-0.0029047098942101,0.0048679918982088,0.0130673320963978
1769234224480,-0.2232208251953125,0.307708740234375,-0.9307098388671876,0.0079050613567233,0.0120574617758393,0.0139017011970281
1769234224490,-0.227630615234375,0.3099822998046875,-0.933074951171875,0.01970100030303,0.0215889159590005,0.0110177639871835
1769234224500,-0.2342376708984375,0.3100738525390625,-0.9295501708984376,0.0259405206888914,0.0264614354819059,0.010883274488151
1769234224510,-0.23492431640625,0.30963134765625,-0.922027587890625,0.0244017466902732,0.0400664582848548,0.0044240429997444
1769234224520,-0.229400634765625,0.3084869384765625,-0.9149627685546876,0.0200951490551233,0.0231125093996524,0.0088289119303226
1769234224530,-0.228302001953125,0.306793212890625,-0.914031982421875,0.0050594732165336,0.0147680267691612,0.0061519020237028
1769234224540,-0.224639892578125,0.30572509765625,-0.9083404541015624,-0.0133067509159445,0.0064499098807573,0.0064200824126601
1769234224550,-0.2242584228515625,0.3057708740234375,-0.909912109375,-0.0257359892129898,-0.0007305050967261,0.0072057149372994
1769234224561,-0.223297119140625,0.3072662353515625,-0.9151611328125,-0.0278294999152421,-0.009932791814208,0.0060744038783013
1769234224570,-0.227264404296875,0.30963134765625,-0.9272613525390624,-0.0205353684723377,-0.0091628720983862,0.0048871668986976
1769234224581,-0.232208251953125,0.312896728515625,-0.936492919921875,-0.0071143684908747,-0.0041774343699216,0.0030551783274859
1769234224591,-0.2329559326171875,0.313812255859375,-0.9411773681640624,0.0080179786309599,0.0054291202686727,0.0018237327458336
1769234224601,-0.2316741943359375,0.3150482177734375,-0.9411773681640624,0.0183803383260965,0.0143927875906229,-0.0009432916413061
1769234224611,-0.233123779296875,0.3125,-0.93829345703125,0.0280223134905099,0.0197252351790666,-0.0046325684525072
1769234224621,-0.231475830078125,0.3094635009765625,-0.933929443359375,0.0302439220249652,0.021049091592431,-0.0119317602366209
1769234224631,-0.2317657470703125,0.3055267333984375,-0.9283599853515624,0.0262142941355705,0.0132076805457472,-0.0114851482212543
1769234224641,-0.22967529296875,0.3021392822265625,-0.91864013671875,0.0168175958096981,0.0119940787553787,-0.009935189038515
1769234224651,-0.22637939453125,0.3017578125,-0.912384033203125,0.0110249537974596,0.0086824381723999,-0.0099005680531263
1769234224661,-0.223724365234375,0.300628662109375,-0.9114227294921876,0.0060200756415724,0.0064246095716953,-0.0085295718163251
1769234224671,-0.221466064453125,0.30206298828125,-0.9111785888671876,0.0049577406607568,0.0024722123052924,-0.0005091963685117
1769234224681,-0.220489501953125,0.302947998046875,-0.9146575927734376,0.0058741346001625,0.0024003069847822,-0.0007366303470917
1769234224691,-0.2258148193359375,0.3033294677734375,-0.9152984619140624,0.0037342845462262,0.0008125304593704,-0.0011912320042029
1769234224701,-0.2272796630859375,0.3050689697265625,-0.911407470703125,-0.0068626999855041,-0.0011009507579728,-0.0006862966110929
1769234224711,-0.22442626953125,0.3048095703125,-0.9133758544921876,-0.010694989003241,-0.0045766420662403,-0.0007350324303843
1769234224721,-0.22247314453125,0.3053131103515625,-0.9166259765625,-0.0107812751084566,-0.0081436801701784,-0.0011579424608498
1769234224731,-0.2247467041015625,0.3054046630859375,-0.9209442138671876,-0.0074238278903067,-0.007195328362286,0.0010679275728762
1769234224741,-0.224884033203125,0.3050994873046875,-0.92633056640625,-0.0004351605311967,-0.0035779569298028,0.0019912454299628
1769234224751,-0.2281494140625,0.3068084716796875,-0.927337646484375,0.0048924931325018,0.0012378372484818,0.0034189661964774
1769234224761,-0.229156494140625,0.309478759765625,-0.9266204833984376,0.0100630205124616,0.0051755872555077,0.0018247979460284
1769234224771,-0.2305755615234375,0.3086700439453125,-0.926177978515625,0.0162932202219963,0.0049912966787815,-0.0033007217571139
1769234224782,-0.23175048828125,0.307708740234375,-0.924713134765625,0.0171267893165349,0.0042549325153231,-0.0072829467244446
1769234224791,-0.231231689453125,0.30401611328125,-0.922698974609375,0.0155595187097787,0.0063702813349664,-0.0109578426927328
1769234224802,-0.22967529296875,0.301666259765625,-0.920867919921875,0.0130185969173908,0.0066168899647891,-0.0095935054123401
1769234224811,-0.226043701171875,0.3016815185546875,-0.921722412109375,0.009745305404067,0.0026101642288267,-0.0082771042361855
1769234224822,-0.224212646484375,0.30133056640625,-0.9247894287109376,0.0094920387491583,-0.0039167110808193,-0.0078227696940302
1769234224832,-0.2244415283203125,0.3025970458984375,-0.9263763427734376,0.0076368805021047,-0.0070704263634979,-0.00894396007061
1769234224842,-0.22833251953125,0.305877685546875,-0.931884765625,0.012533901259303,-0.009549562819302,-0.0106009785085916
1769234224852,-0.2332611083984375,0.3094635009765625,-0.93572998046875,0.018507370725274,-0.0047553405165672,-0.0169273186475038
1769234224862,-0.2367095947265625,0.3099517822265625,-0.93585205078125,0.0252438373863697,0.0034370757639408,-0.0262459851801395
1769234224872,-0.2398529052734375,0.3089599609375,-0.937652587890625,0.0301344655454158,0.0044104610569775,-0.0363481529057025
1769234224882,-0.23895263671875,0.307159423828125,-0.9352569580078124,0.0306782834231853,0.0053606769070029,-0.0432340241968631
1769234224892,-0.235595703125,0.30517578125,-0.9312591552734376,0.0281221810728311,0.0161107927560806,-0.0433490723371505
1769234224902,-0.224853515625,0.299468994140625,-0.9250946044921876,0.0368826501071453,0.0154316872358322,-0.0344573110342025
1769234224912,-0.217010498046875,0.29351806640625,-0.9309234619140624,0.0394419468939304,0.0217907819896936,-0.0202368274331092
1769234224922,-0.21453857421875,0.2935791015625,-0.922760009765625,0.0307714939117431,0.0268545169383287,-0.0040432112291455
1769234224932,-0.2157440185546875,0.29345703125,-0.9132537841796876,0.024580443277955,0.0202038045972585,-0.0026477146893739
1769234224942,-0.2257080078125,0.2939910888671875,-0.914581298828125,0.0160253047943115,0.0166301093995571,0.0026519757229834
1769234224952,-0.2230377197265625,0.2996063232421875,-0.9137115478515624,0.0120643861591815,0.0105373291298747,0.0058003650046885
1769234224962,-0.2245025634765625,0.2989349365234375,-0.9154510498046876,0.0075489962473511,0.0036597158759832,0.001302285818383
1769234224972,-0.2311553955078125,0.3016204833984375,-0.917999267578125,0.00365572120063,-0.0045497445389628,-0.0051516187377274
1769234224982,-0.23101806640625,0.3033294677734375,-0.916015625,-0.0023166837636381,-0.0112662361934781,-0.0096595510840415
1769234224992,-0.2299652099609375,0.3025054931640625,-0.917816162109375,-0.0098142810165882,-0.0157214384526014,-0.0126082031056284
1769234225003,-0.2304840087890625,0.302642822265625,-0.9190216064453124,-0.0133738620206713,-0.0168607383966445,-0.0127951577305793
1769234225013,-0.2283935546875,0.2987060546875,-0.9200897216796876,-0.0166303757578134,-0.014136591926217,-0.0078486017882823
1769234225023,-0.2202911376953125,0.29510498046875,-0.919158935546875,-0.0175747331231832,-0.0105027081444859,0.0075015919283032
1769234225033,-0.212921142578125,0.2935028076171875,-0.9205780029296876,-0.0196370836347341,-0.0083804354071617,0.0238390192389488
1769234225043,-0.213043212890625,0.2938690185546875,-0.92327880859375,-0.0141488425433635,-0.0101719433441758,0.0319589972496032
1769234225053,-0.2247467041015625,0.29888916015625,-0.9268646240234376,-0.0050421627238392,-0.0048378985375165,0.0252459682524204
1769234225063,-0.235076904296875,0.3003387451171875,-0.9275054931640624,-0.0012745888670906,-0.0027915253303945,0.0140766706317663
1769234225073,-0.2401275634765625,0.3036041259765625,-0.926239013671875,-0.0008743157959543,-0.0045508095063269,0.0065143583342432
1769234225083,-0.24053955078125,0.3035125732421875,-0.9213714599609376,-0.0011526161106303,-0.0039457394741475,0.0039294939488172
1769234225093,-0.23675537109375,0.304840087890625,-0.91912841796875,-0.0045747780241072,-0.0040346891619265,0.0038879488129168
1769234225103,-0.2308349609375,0.30426025390625,-0.920440673828125,-0.0053715957328677,-0.0077050575055181,0.0020256002899259
1769234225113,-0.2290802001953125,0.30023193359375,-0.9171600341796876,-0.0153709668666124,-0.0126641299575567,0.0033414682839065
1769234225123,-0.2274932861328125,0.299713134765625,-0.91497802734375,-0.0231942683458328,-0.0189465265721082,-0.0007499461644329
1769234225133,-0.2285919189453125,0.2985687255859375,-0.9169769287109376,-0.0241290386766195,-0.0228829458355903,-0.0002924150903709
1769234225143,-0.2315521240234375,0.3001556396484375,-0.9192962646484376,-0.0226395316421985,-0.0207220558077096,0.0010756507981568
1769234225153,-0.233367919921875,0.300750732421875,-0.9233245849609376,-0.0192996617406606,-0.0141323301941156,0.0004040015337523
1769234225164,-0.2350311279296875,0.300323486328125,-0.927001953125,-0.0125671904534101,-0.0109384013339877,0.000899615813978
1769234225173,-0.235260009765625,0.3015289306640625,-0.9282379150390624,-0.011323494836688,-0.0142106274142861,-0.0011864382540807
1769234225183,-0.2313690185546875,0.2986907958984375,-0.92376708984375,-0.0154210338369011,-0.0153246279805898,0.0040983385406434
1769234225193,-0.2247772216796875,0.2964324951171875,-0.92156982421875,-0.020021378993988,-0.0161842964589595,0.0113021889701485
1769234225203,-0.2213897705078125,0.2978515625,-0.921722412109375,-0.0221926532685756,-0.0227412655949592,0.011510981246829
1769234225213,-0.2288970947265625,0.3018341064453125,-0.92645263671875,-0.0168684627860784,-0.0183156244456768,0.0044056675396859
1769234225223,-0.2392120361328125,0.3052215576171875,-0.93170166015625,-0.0043886229395866,-0.0095144091174006,-0.0017611484508961
1769234225234,-0.2414398193359375,0.308135986328125,-0.9357147216796876,0.0073892069049179,0.000835966260638,-0.0042666504159569
1769234225244,-0.23944091796875,0.307281494140625,-0.93212890625,0.0126827722415328,0.0068411282263696,-0.0020932445768266
1769234225254,-0.2342529296875,0.30389404296875,-0.9246978759765624,0.0077282269485294,0.0074185016565024,-0.0023989754263311
1769234225264,-0.227508544921875,0.301849365234375,-0.920562744140625,0.0007805725326761,0.0018455706303939,-0.0043095271103084
1769234225274,-0.2266387939453125,0.3004302978515625,-0.91943359375,-0.0086909597739577,0.0013350426452234,-0.0025092302821576
1769234225284,-0.2222900390625,0.2983245849609375,-0.91650390625,-0.0086909597739577,0.0013350426452234,-0.0025092302821576
1769234225294,-0.2225189208984375,0.29852294921875,-0.918792724609375,-0.0237910822033882,-0.0121280355378985,0.0011427623685449
1769234225304,-0.2266693115234375,0.2987823486328125,-0.921905517578125,-0.0264478530734777,-0.0122771728783845,-0.0008165251929312
1769234225314,-0.2320098876953125,0.3011627197265625,-0.9264068603515624,-0.0196424107998609,-0.0087346360087394,-0.0062040998600423
1769234225324,-0.2394256591796875,0.3058929443359375,-0.9332122802734376,-0.0119064608588814,-0.0062150191515684,-0.0171970967203378
1769234225334,-0.2436065673828125,0.3073577880859375,-0.9346160888671876,-0.0037683728151023,-0.0039385487325489,-0.0240020062774419
1769234225344,-0.2436676025390625,0.3067779541015625,-0.9326324462890624,0.0014711301773786,-0.0033438650425523,-0.0331885777413845
1769234225354,-0.2434539794921875,0.304656982421875,-0.93170166015625,0.0053039514459669,-0.002961168764159,-0.0350381433963775
1769234225364,-0.2381439208984375,0.301055908203125,-0.9271240234375,0.0028668928425759,-0.0014764565275982,-0.0303006470203399
1769234225374,-0.23333740234375,0.3000030517578125,-0.922607421875,0.0038687740452587,-0.0011411645682528,-0.0240467470139265
1769234225384,-0.2308807373046875,0.295379638671875,-0.9216461181640624,0.0042003374546766,-0.0028983182273805,-0.0182887259870767
1769234225394,-0.2278594970703125,0.2952880859375,-0.91876220703125,-0.0002748382103163,-0.000143278070027,-0.0104462495073676
1769234225404,-0.2244873046875,0.2946624755859375,-0.91485595703125,-0.0036767602432519,-0.0027912592049688,-0.0071162325330078
1769234225414,-0.2249755859375,0.2965545654296875,-0.9132080078125,-0.0053761233575642,-0.0039135152474045,-0.0007693872321397
1769234225424,-0.22589111328125,0.2969207763671875,-0.91302490234375,-0.0113836815580725,-0.0050653321668505,0.0036482643336057
1769234225434,-0.2285003662109375,0.2945556640625,-0.9108428955078124,-0.019307117909193,-0.0036272252909839,0.0078318240121006
1769234225446,-0.227752685546875,0.29681396484375,-0.9097747802734376,-0.0263660941272974,-0.0045526740141212,0.0119975404813885
1769234225455,-0.2234954833984375,0.3023529052734375,-0.9171905517578124,-0.0232832189649343,-0.0079644499346613,0.0144612304866313
1769234225465,-0.2281494140625,0.30535888671875,-0.9246673583984376,-0.0157858878374099,-0.0071343421004712,0.0148175619542598
1769234225475,-0.23492431640625,0.305816650390625,-0.92816162109375,-0.0134697360917925,-0.0054075485095381,0.010725880973041
1769234225486,-0.23663330078125,0.3069000244140625,-0.9290771484375,-0.0116358837112784,-0.0043931505642831,0.0092696649953722
1769234225495,-0.2373199462890625,0.3103485107421875,-0.92755126953125,-0.0089748529717326,-0.0030051108915358,0.0063662864267826
1769234225505,-0.238128662109375,0.3088531494140625,-0.92755126953125,-0.0075404741801321,-0.0020061591640114,0.0057447045110166
1769234225515,-0.23504638671875,0.308074951171875,-0.925689697265625,-0.0037830201908946,0.0021702100057154,0.0025129588320851
1769234225525,-0.23358154296875,0.3037872314453125,-0.9240875244140624,-0.006901049055159,-0.0010588727891445,0.0060192765668034
1769234225535,-0.2299346923828125,0.3013763427734375,-0.9188995361328124,-0.0156439412385225,0.000467118457891,0.0084757767617702
1769234225546,-0.22552490234375,0.3005523681640625,-0.914276123046875,-0.0181973800063133,-0.001284442609176,0.0137522974982857
1769234225555,-0.2242431640625,0.298583984375,-0.9188690185546876,-0.0208280496299266,-0.0071354075334966,0.0161438155919313
1769234225565,-0.229034423828125,0.300079345703125,-0.925994873046875,-0.0178658161312341,-0.0059529640711843,0.0172703340649604
1769234225575,-0.231109619140625,0.3028411865234375,-0.9284210205078124,-0.0178658161312341,-0.0059529640711843,0.0172703340649604
1769234225585,-0.2347869873046875,0.3027801513671875,-0.9319000244140624,-0.0137717388570308,0.0002245044743176,0.0145869320258498
1769234225595,-0.236724853515625,0.3047943115234375,-0.9329833984375,0.0011073424248024,-0.0030644994694739,0.0090848412364721
1769234225605,-0.2400054931640625,0.3030548095703125,-0.9301605224609376,0.002167813014239,-0.0002692455891519,0.0048272456042468
1769234225615,-0.24066162109375,0.303802490234375,-0.925079345703125,-0.0007523429812863,0.000507065851707,0.0034218956716358
1769234225625,-0.240234375,0.3031768798828125,-0.9202728271484376,-0.0035942022223025,0.0013462279457598,-0.0011531487107276
1769234225635,-0.23828125,0.3012847900390625,-0.9210205078125,-0.0059242015704512,0.0010775149567052,-0.0019997677300125
1769234225647,-0.2360076904296875,0.301849365234375,-0.9204559326171876,-0.0033063145820051,0.0036903421860188,-0.0020503676496446
1769234225655,-0.232177734375,0.303985595703125,-0.9238128662109376,0.0003635214816313,0.0009443568997085,-0.0008884305134415
1769234225665,-0.2318267822265625,0.3035736083984375,-0.9233245849609376,0.0040091224946081,-0.0018692727899178,-0.0016825852217152
1769234225675,-0.232574462890625,0.3015594482421875,-0.9207000732421876,-0.0020461066160351,-0.0045963497832417,-0.0012178635224699
1769234225686,-0.232086181640625,0.298980712890625,-0.9141998291015624,-0.0096832532435655,-0.0070017166435718,0.0008428904693573
1769234225696,-0.23089599609375,0.3003692626953125,-0.909759521484375,-0.0183481145650148,-0.0098957736045122,0.0041153826750814
1769234225706,-0.2310333251953125,0.3011016845703125,-0.911468505859375,-0.0234030596911907,-0.0055731972679495,0.0056144762784242
1769234225716,-0.233245849609375,0.30328369140625,-0.916748046875,-0.0235990695655345,-0.0028458540327847,0.0068765482865273
1769234225726,-0.23394775390625,0.304901123046875,-0.9210662841796876,-0.0204389616847038,0.0013875069562345,0.0025896579027175
1769234225736,-0.2329559326171875,0.3060760498046875,-0.928466796875,-0.0138961086049675,0.0006671218434348,-0.0015925703337416
1769234225746,-0.235870361328125,0.3068084716796875,-0.9295654296875,-0.0092012211680412,-0.0027483822777867,-0.003892742563039
1769234225756,-0.2365570068359375,0.307708740234375,-0.92962646484375,-0.0054999603889882,-0.0043204464018344,-0.011166900396347
1769234225766,-0.239044189453125,0.305511474609375,-0.92822265625,-0.0059825251810252,-0.0008540757698938,-0.0128233870491385
1769234225776,-0.2374267578125,0.3023529052734375,-0.9232330322265624,-0.0112896719947457,0.0007566040731035,-0.0136425755918025
1769234225786,-0.2339019775390625,0.30126953125,-0.9196014404296876,-0.0143341980874538,0.0037297571543604,-0.0099674127995967
1769234225796,-0.229461669921875,0.2998046875,-0.9191741943359376,-0.0158873535692691,0.0033265545498579,-0.0053644054569303
1769234225806,-0.22833251953125,0.299652099609375,-0.9232025146484376,-0.0153565853834152,0.0039891488850116,-0.0010394317796453
1769234225816,-0.2266998291015625,0.2996978759765625,-0.9241485595703124,-0.0148545801639556,0.0041297636926174,-0.0007382282637991
1769234225826,-0.22930908203125,0.3020172119140625,-0.9249725341796876,-0.0106507800519466,0.0050099384970963,0.0024644893128424
1769234225837,-0.2300872802734375,0.3019561767578125,-0.9241943359375,-0.0088728535920381,0.0052813147194683,-0.0020269318483769
1769234225846,-0.2335357666015625,0.3045501708984375,-0.9229278564453124,-0.0103381248190999,0.0042903525754809,-0.0030176278669387
1769234225856,-0.2366943359375,0.3040924072265625,-0.9194793701171876,-0.0144495125859975,0.0090789822861552,-0.0042160502634942
1769234225867,-0.2348785400390625,0.301666259765625,-0.9143524169921876,-0.0174610149115324,0.0067785438150167,-0.0022841931786388
1769234225877,-0.2318572998046875,0.3007049560546875,-0.912567138671875,-0.0235047936439514,0.0018913770327344,-0.0009286442655138
1769234225887,-0.2327117919921875,0.3024139404296875,-0.9145355224609376,-0.0220826659351587,-0.0053036850877106,-0.0065865297801792
1769234225897,-0.2374114990234375,0.30389404296875,-0.9208526611328124,-0.0216959752142429,-0.0045771747827529,-0.0120116556063294
1769234225907,-0.2404632568359375,0.306732177734375,-0.92181396484375,-0.0218227412551641,-0.0037143107037991,-0.0185313392430543
1769234225917,-0.2427520751953125,0.307586669921875,-0.924163818359375,-0.018818961456418,8.388957212446257e-05,-0.0196741018444299
1769234225927,-0.242279052734375,0.3073883056640625,-0.9249267578125,-0.0155560560524463,0.0008783105295151,-0.0209364406764507
1769234225937,-0.238494873046875,0.306182861328125,-0.9248504638671876,-0.0183931216597557,0.0018439727136865,-0.0126604018732905
1769234225947,-0.2301788330078125,0.3020477294921875,-0.9213409423828124,-0.0206378996372222,-0.0023363912478089,-0.0045374939218163
1769234225957,-0.2257537841796875,0.3019866943359375,-0.9205780029296876,-0.0283887647092342,-0.00426851445809,-0.0010929612908512
1769234225967,-0.2258148193359375,0.3040618896484375,-0.92205810546875,-0.024172980338335,-0.0042421491816639,-2.370213405811228e-05
1769234225977,-0.2283477783203125,0.3087310791015625,-0.927978515625,-0.0139403166249394,-0.0007850998663343,-0.007105313707143
1769234225987,-0.2358856201171875,0.311981201171875,-0.93450927734375,0.0027209515683352,0.0087154610082507,-0.0117986025288701
1769234225997,-0.2409820556640625,0.3134307861328125,-0.93365478515625,0.0126737169921398,0.0188977904617786,-0.0145405931398272
1769234226007,-0.2419891357421875,0.3109588623046875,-0.9244232177734376,0.0091937649995088,0.0213313866406679,-0.0171755254268646
1769234226017,-0.238555908203125,0.3083648681640625,-0.9158172607421876,0.0025587652344256,0.0180559661239385,-0.0198155157268047
1769234226027,-0.2337493896484375,0.3082275390625,-0.9116363525390624,-0.0086464853957295,0.0162468813359737,-0.0191790200769901
1769234226037,-0.227691650390625,0.3066253662109375,-0.91015625,-0.018926553428173,0.0093463640660047,-0.0133445672690868
1769234226047,-0.22198486328125,0.3035888671875,-0.9110565185546876,-0.0275951419025659,0.0033854104112833,-0.0049667954444885
1769234226057,-0.220367431640625,0.3023834228515625,-0.9106292724609376,-0.0364434942603111,-0.0026266756467521,0.0066432552412152
1769234226068,-0.2184295654296875,0.3061065673828125,-0.916107177734375,-0.0380363315343856,-0.0027955202385783,0.0124321682378649
1769234226077,-0.223602294921875,0.30865478515625,-0.92620849609375,-0.0288966298103332,-0.0032932648900896,0.0157344881445169
1769234226088,-0.2324981689453125,0.3120574951171875,-0.93438720703125,-0.0186210889369249,0.0007960188668221,0.0141760064288973
1769234226098,-0.238677978515625,0.3147430419921875,-0.936767578125,-0.0044000749476253,0.0047910269349813,0.0014498248929157
1769234226108,-0.243072509765625,0.3166351318359375,-0.9404449462890624,0.0086547406390309,0.010072074830532,-0.0089713903144001
1769234226118,-0.2416229248046875,0.3119049072265625,-0.9380950927734376,0.0136479018256068,0.0117458719760179,-0.0088515486568212
1769234226128,-0.235626220703125,0.3089447021484375,-0.92938232421875,0.0124513432383537,0.0061138188466429,-0.0056759952567517
1769234226138,-0.2313385009765625,0.3021240234375,-0.9207763671875,0.003606985323131,0.0049686594866216,0.0001267664629267
1769234226148,-0.2287750244140625,0.299072265625,-0.912567138671875,-0.0061218081973493,0.0024509071372449,0.008167115971446
1769234226158,-0.2269439697265625,0.2979278564453125,-0.909210205078125,-0.0142465801909565,-0.0014974954538047,0.0099578257650136
1769234226168,-0.2305450439453125,0.299835205078125,-0.909637451171875,-0.0164282415062189,-0.0052035502158105,0.0087924264371395
1769234226178,-0.23291015625,0.303314208984375,-0.911041259765625,-0.0174090843647718,-0.0090512856841087,0.0072142370045185
1769234226188,-0.2342987060546875,0.3067169189453125,-0.9163970947265624,-0.013442039489746,-0.0097426418215036,0.0050429617986083
1769234226198,-0.2362823486328125,0.3077850341796875,-0.9193267822265624,-0.0066520436666905,-0.0125426901504397,0.0012303803814575
1769234226208,-0.2352447509765625,0.306427001953125,-0.91839599609375,-0.0078821582719683,-0.0117706395685672,-0.005550826434046
1769234226218,-0.2349700927734375,0.3048248291015625,-0.917633056640625,-0.0128803784027695,-0.0120683806017041,-0.0026317357551306
1769234226228,-0.2288360595703125,0.3044281005859375,-0.9139251708984376,-0.0153986634686589,-0.0137435086071491,0.0070736221969127
1769234226238,-0.227081298828125,0.3025054931640625,-0.915863037109375,-0.0164740476757287,-0.0115594509989023,0.0153296878561377
1769234226248,-0.2261505126953125,0.3051300048828125,-0.920440673828125,-0.0146601693704724,-0.0075689698569476,0.0231987964361906
1769234226258,-0.22821044921875,0.307281494140625,-0.9222869873046876,-0.0128074083477258,-0.0026402578223496,0.0279530715197324
1769234226268,-0.2324371337890625,0.3101654052734375,-0.923919677734375,-0.0065894592553377,-0.0024887239560484,0.0236187763512134
1769234226278,-0.24102783203125,0.31024169921875,-0.9256134033203124,-0.0014317154418677,-0.0021499700378626,0.0150436637923121
1769234226288,-0.2445220947265625,0.3126678466796875,-0.9230194091796876,-0.0004924184759147,-0.0022517025936394,0.0043454798869788
1769234226299,-0.24530029296875,0.3124847412109375,-0.9219970703125,0.0007246461464092,-0.0057921088300645,-0.0047268443740904
1769234226309,-0.2424163818359375,0.31097412109375,-0.9208526611328124,-0.0006932208198122,-0.0082488749176263,0.0006764429272152
1769234226319,-0.2362213134765625,0.3076934814453125,-0.9187469482421876,-0.0034698324743658,-0.0089482208713889,0.0017944378778338
1769234226329,-0.232696533203125,0.305084228515625,-0.91839599609375,-0.0068728197365999,-0.0079527320340275,0.008127168752253
1769234226339,-0.2320404052734375,0.3042755126953125,-0.9178314208984376,-0.0117722367867827,-0.0086057391017675,0.0149456597864627
1769234226349,-0.23095703125,0.3048553466796875,-0.921356201171875,-0.0158977396786212,-0.0117051256820559,0.0155254304409027
1769234226359,-0.236724853515625,0.3056182861328125,-0.924102783203125,-0.0138242030516266,-0.0115485312417149,0.0115133775398135
1769234226369,-0.2424774169921875,0.3078155517578125,-0.927947998046875,-0.0084470147266983,-0.0124244457110762,0.0057138120755553
1769234226381,-0.242645263671875,0.3090972900390625,-0.929473876953125,-0.0051644020713865,-0.0124521423131227,-0.0024554345291107
1769234226389,-0.2428436279296875,0.3073577880859375,-0.9271697998046876,-0.0002639192680362,-0.0101881893351674,-0.0082009378820657
1769234226399,-0.2419281005859375,0.30841064453125,-0.9242706298828124,0.0011656655697152,-0.0104278735816478,-0.0121288346126675
1769234226409,-0.239593505859375,0.306121826171875,-0.9188995361328124,-0.0006538060260936,-0.0038666436448693,-0.0097548924386501
1769234226419,-0.2362518310546875,0.303985595703125,-0.9169464111328124,-0.0013520868960767,-0.0013158678775653,-0.0076933396048843
1769234226429,-0.23492431640625,0.3034210205078125,-0.9169464111328124,-0.0058064898476004,-0.000224238159717,-0.0065415226854383
1769234226439,-0.233551025390625,0.3029937744140625,-0.91552734375,-0.0072208950296044,-0.0022863238118588,-0.0097048254683613
1769234226449,-0.2332611083984375,0.3026123046875,-0.9131011962890624,-0.011300591751933,-0.0011539476690813,-0.006580404471606
1769234226459,-0.23248291015625,0.3041229248046875,-0.913330078125,-0.0118137821555137,-0.0028684907592833,-0.00720358453691
1769234226469,-0.2362823486328125,0.3057403564453125,-0.916046142578125,-0.0121871577575802,-0.002331863855943,-0.0090086748823523
1769234226480,-0.236572265625,0.3058929443359375,-0.917144775390625,-0.01612064614892,-0.0013725932221859,-0.0090230563655495
1769234226489,-0.236785888671875,0.3084716796875,-0.9183349609375,-0.018687667325139,-0.0031427964568138,-0.0072246235795319
1769234226499,-0.2382659912109375,0.3079376220703125,-0.9185791015625,-0.0221356619149446,-0.0039976709522306,-0.0052528190426528
1769234226509,-0.2349853515625,0.307342529296875,-0.919769287109375,-0.0215138141065835,-0.0059998356737196,-0.0015696671325713
1769234226520,-0.2353973388671875,0.3098602294921875,-0.9234619140625,-0.0168285146355628,-0.0048437574878335,-0.0061196777969598
1769234226529,-0.239166259765625,0.311004638671875,-0.9270477294921876,-0.0127240512520074,-0.0024090954102575,-0.0122047346085309
1769234226540,-0.2401275634765625,0.311553955078125,-0.9296722412109376,-0.0065521751530468,-0.0006090649403631,-0.0162348970770835
1769234226550,-0.2401275634765625,0.311859130859375,-0.928680419921875,0.0003603257064241,0.0005890912143513,-0.0192645080387592
1769234226560,-0.238433837890625,0.310516357421875,-0.9287567138671876,0.0015219965716823,0.0067383302375674,-0.0179819297045469
1769234226570,-0.235107421875,0.30792236328125,-0.9243621826171876,0.0007637945818714,0.0049793124198913,-0.0100089581683278
1769234226580,-0.2313385009765625,0.306610107421875,-0.9175567626953124,-0.0039505329914391,0.0051345746032893,-0.0075804218649864
1769234226590,-0.233123779296875,0.30517578125,-0.9141998291015624,-0.0087894964963197,0.0044773062691092,-0.0043867588974535
1769234226600,-0.235595703125,0.3065948486328125,-0.9136199951171876,-0.0124497450888156,0.0062810652889311,-0.0042618564330041
1769234226610,-0.2354583740234375,0.3086090087890625,-0.9152069091796876,-0.0140226082876324,0.0071364725008606,-0.0038069887086749
1769234226620,-0.2344207763671875,0.309478759765625,-0.920440673828125,-0.0094350473955273,0.0096334526315331,-0.0002340918581467
1769234226630,-0.2330780029296875,0.310272216796875,-0.9241790771484376,-0.0024623586796224,0.0124827688559889,-0.0003760383406188
1769234226640,-0.2329254150390625,0.310150146484375,-0.926971435546875,0.0023486416321247,0.0137720052152872,0.0021624867804348
1769234226650,-0.23297119140625,0.311370849609375,-0.9259185791015624,0.0049707903526723,0.0124729145318269,0.0027896612882614
1769234226660,-0.2360687255859375,0.3132781982421875,-0.9239501953125,0.0038421424105763,0.0113772908225655,0.0026857978664338
1769234226670,-0.2385406494140625,0.314422607421875,-0.9197845458984376,0.0044333641417324,0.0091628720983862,-0.0016966998809948
1769234226680,-0.2393035888671875,0.3112030029296875,-0.9199371337890624,0.0069236862473189,0.0118505340069532,-0.0046661244705319
1769234226690,-0.2376861572265625,0.307861328125,-0.9198150634765624,0.0092728603631258,0.0104358633980154,-0.0040195090696215
1769234226700,-0.2328643798828125,0.305755615234375,-0.91656494140625,0.0046975496225059,0.0063468455336987,-0.0011387676931917
1769234226710,-0.23199462890625,0.304779052734375,-0.9113616943359376,-0.0061287325806915,0.0043686493299901,0.0007874967413954
1769234226720,-0.2310333251953125,0.3047027587890625,-0.9083099365234376,-0.0088235856965184,0.0037310887128114,0.0079260999336838
1769234226730,-0.2350006103515625,0.3073272705078125,-0.9146575927734376,-0.0085801724344491,0.0038394792936742,0.0056150089949369
1769234226741,-0.2403717041015625,0.3085174560546875,-0.92034912109375,-0.0026075011119246,0.0053484262898564,0.0045785065740346
1769234226751,-0.243194580078125,0.3101806640625,-0.9222412109375,0.000605869165156,0.0066547067835927,-0.0040416130796074
1769234226761,-0.2485504150390625,0.309783935546875,-0.9178009033203124,-0.0058275288902223,0.002347043948248,-0.0070267505943775
