timestamp_ms,acc_x,acc_y,acc_z,gyro_x,gyro_y,gyro_z
1770453742977,0.0436859130859375,-0.2575836181640625,-0.9786224365234376,-0.1153114140033721,-0.0309704318642616,0.0391519293189048
1770453742989,0.037506103515625,-0.2571868896484375,-0.995697021484375,-0.0746409446001052,-0.0798839107155799,0.0386017225682735
1770453742995,0.033721923828125,-0.25994873046875,-1.005462646484375,-0.0364485532045364,-0.1300685256719589,0.0263850018382072
1770453743005,0.027374267578125,-0.2540130615234375,-1.00244140625,-0.0170322470366954,-0.1704891771078109,0.0230011902749538
1770453743020,0.02703857421875,-0.2412109375,-0.99359130859375,-0.0247591417282819,-0.1856676042079925,0.0166894979774951
1770453743025,0.0235748291015625,-0.237274169921875,-0.9750823974609376,-0.0369947701692581,-0.1370643824338913,-0.0048410943709313
1770453743035,0.0175018310546875,-0.2408599853515625,-0.9678497314453124,-0.0305752195417881,-0.0643797889351844,-0.0129104722291231
1770453743045,0.0225982666015625,-0.24072265625,-0.9700164794921876,-0.0038690404035151,-0.0214051567018032,-0.0134862475097179
1770453743055,0.0257720947265625,-0.248199462890625,-0.973541259765625,0.0167731214314699,0.0033643713686615,-0.0023371900897473
1770453743065,0.0262298583984375,-0.255157470703125,-0.9672393798828124,0.0114633105695247,0.0590561293065547,0.0109104383736848
1770453743075,0.024871826171875,-0.254852294921875,-0.95416259765625,-0.0082355588674545,0.0959813892841339,0.0186431929469108
1770453743086,0.0164337158203125,-0.2494049072265625,-0.93682861328125,-0.0382986515760421,0.1118074879050254,0.0148596400395035
1770453743096,0.009796142578125,-0.2402191162109375,-0.92901611328125,-0.0722691342234611,0.1251344829797744,0.0123386913910508
1770453743106,0.01959228515625,-0.230712890625,-0.93048095703125,-0.1036270558834075,0.1215818226337432,0.0195979364216327
1770453743116,0.0235748291015625,-0.2321014404296875,-0.9357757568359376,-0.1248519197106361,0.102492019534111,0.0189965944737195
1770453743126,0.0204620361328125,-0.2421112060546875,-0.947998046875,-0.1315127462148666,0.0941720381379127,0.0183209497481584
1770453743136,0.023284912109375,-0.2433929443359375,-0.9594268798828124,-0.1274956464767456,0.1000219359993934,0.0211124755442142
1770453743146,0.032684326171875,-0.250518798828125,-0.9668121337890624,-0.1201077625155448,0.0934111699461937,0.0386754907667636
1770453743156,0.0496673583984375,-0.26239013671875,-0.969512939453125,-0.1063812971115112,0.0756284445524215,0.0561290495097637
1770453743166,0.0525970458984375,-0.2471160888671875,-0.968902587890625,-0.0924369916319847,0.054163634777069,0.0641531497240066
1770453743176,0.0433197021484375,-0.223968505859375,-0.9619140625,-0.0968237444758415,0.032418392598629,0.0665065869688987
1770453743186,0.0208740234375,-0.217315673828125,-0.9521636962890624,-0.1093049198389053,0.0107578393071889,0.0650466457009315
1770453743196,0.0035858154296875,-0.2338714599609375,-0.9562835693359376,-0.1067626625299453,-0.0138913141563534,0.0656224191188812
1770453743206,-0.004058837890625,-0.2167816162109375,-0.9757080078125,-0.0875239893794059,-0.0701945349574089,0.0468463338911533
1770453743216,-0.0004730224609375,-0.22125244140625,-0.9857330322265624,-0.0699788182973861,-0.1366350799798965,0.0489441081881523
1770453743226,0.020050048828125,-0.258514404296875,-0.98931884765625,-0.0554896257817745,-0.188917726278305,0.0817289501428604
1770453743236,0.0505218505859375,-0.2707672119140625,-0.9830322265625,-0.0408662073314189,-0.2137466371059417,0.1189032196998596
1770453743246,0.0609588623046875,-0.2449493408203125,-0.982086181640625,-0.011830560863018,-0.2222085744142532,0.1352670043706894
1770453743256,0.04437255859375,-0.2211761474609375,-0.978546142578125,0.0210746582597494,-0.2349736243486404,0.1193562224507331
1770453743266,0.02569580078125,-0.223663330078125,-0.9629974365234376,0.029018335044384,-0.195830762386322,0.1029364988207817
1770453743276,0.021240234375,-0.2278289794921875,-0.9525299072265624,0.002739327494055,-0.1225578710436821,0.0947576686739921
1770453743287,0.0283660888671875,-0.2353973388671875,-0.949005126953125,-0.0373881198465824,-0.0328562185168266,0.096231997013092
1770453743296,0.0296478271484375,-0.2451324462890625,-0.959442138671875,-0.0575277395546436,0.0183142926543951,0.0939999967813491
1770453743306,0.019134521484375,-0.248870849609375,-0.9814605712890624,-0.0569218732416629,0.0264092367142438,0.0871114656329155
1770453743319,0.0105743408203125,-0.2440643310546875,-0.9925384521484376,-0.0383061096072196,0.0277101900428533,0.0753038078546524
1770453743327,-0.0009765625,-0.2310791015625,-1.0043487548828125,-0.0243269111961126,0.0136614833027124,0.0697026476264
1770453743337,-0.0047149658203125,-0.2303619384765625,-1.0009765625,-0.019871974363923,-0.0271541234105825,0.0756502896547317
1770453743347,-0.0065460205078125,-0.22119140625,-0.980926513671875,-0.0292886458337306,-0.044244959950447,0.1010706946253776
1770453743357,0.0008697509765625,-0.2139739990234375,-0.9644012451171876,-0.0237420815974473,-0.0580979250371456,0.0916199311614036
1770453743367,0.00897216796875,-0.2202301025390625,-0.951416015625,-0.0090717915445566,-0.0508368164300918,0.0518919602036476
1770453743377,0.01495361328125,-0.2199249267578125,-0.945556640625,0.0158189106732606,-0.0181430503726005,0.0028322718571871
1770453743387,0.021728515625,-0.2259979248046875,-0.959228515625,0.0444375053048133,-0.004269313532859,-0.0329060181975364
1770453743397,0.0354766845703125,-0.2432708740234375,-0.9697265625,0.0717887058854103,-0.0257735401391983,-0.0656298771500587
1770453743407,0.0571746826171875,-0.234649658203125,-0.976043701171875,0.0587216354906559,-0.0952751189470291,-0.1344472914934158
1770453743417,0.053009033203125,-0.1815032958984375,-0.9853515625,0.0339518412947654,-0.1419747173786163,-0.0911754518747329
1770453743427,0.010009765625,-0.2857818603515625,-1.040496826171875,0.0777834802865982,-0.0632937476038932,-0.0407053530216217
1770453743437,-0.010772705078125,-0.31182861328125,-1.0436859130859375,0.1010254174470901,-0.0626535266637802,-0.0054291202686727
1770453743447,-0.0325469970703125,-0.24432373046875,-0.94561767578125,0.0657638311386108,-0.0502439960837364,0.004807005636394
1770453743457,-0.0454559326171875,-0.1768341064453125,-0.89459228515625,-0.0222216825932264,0.0235149133950471,0.0069796126335859
1770453743467,-0.0317535400390625,-0.178924560546875,-0.8961639404296875,-0.1164938583970069,0.091920867562294,-0.0157536622136831
1770453743478,-0.0200653076171875,-0.224517822265625,-0.924041748046875,-0.1925257742404937,0.1340922862291336,-0.0334471724927425
1770453743487,0.019775390625,-0.232574462890625,-0.9309539794921876,-0.2244807779788971,0.1453942060470581,-0.033467411994934
1770453743497,0.0245513916015625,-0.229736328125,-0.9491119384765624,-0.20313261449337,0.1350787281990051,-0.0320330336689949
1770453743507,0.01116943359375,-0.2408599853515625,-0.9837188720703124,-0.1449065953493118,0.1133089810609817,-0.0154636446386575
1770453743518,0.032867431640625,-0.2498626708984375,-1.01507568359375,-0.0776998549699783,0.0532863922417163,0.0152948005124926
1770453743527,0.053192138671875,-0.2599639892578125,-1.019317626953125,-0.0348906069993972,-0.0129285817965865,0.0345710255205631
1770453743538,0.0532073974609375,-0.2547607421875,-0.995849609375,-0.0983409509062767,0.0106366649270057,0.0396707132458686
1770453743548,0.0330657958984375,-0.2024688720703125,-1.0163116455078125,-0.0831854343414306,0.0336511693894863,0.0319219790399074
1770453743558,0.01348876953125,-0.220062255859375,-0.9771575927734376,-0.0791123956441879,0.084468275308609,0.015084677375853
1770453743568,0.02862548828125,-0.2421722412109375,-0.9358978271484376,-0.1140069961547851,0.1596927195787429,0.0506304204463958
1770453743578,0.029022216796875,-0.226837158203125,-0.94842529296875,-0.130510076880455,0.1401381939649582,0.0591876879334449
1770453743588,0.0192108154296875,-0.2209625244140625,-0.943603515625,-0.1285241544246673,0.1578586101531982,0.0595445521175861
1770453743598,0.0230560302734375,-0.217193603515625,-0.9659271240234376,-0.121047593653202,0.1684571951627731,0.0515300370752811
1770453743608,0.028076171875,-0.21826171875,-0.974212646484375,-0.1076209992170333,0.1420090645551681,0.047516118735075
1770453743618,0.031585693359375,-0.21923828125,-0.9800872802734376,-0.0940511301159858,0.1099616512656211,0.0473573952913284
1770453743628,0.031524658203125,-0.2218170166015625,-0.98724365234375,-0.0808088257908821,0.108643390238285,0.0457224808633327
1770453743638,0.0318450927734375,-0.216888427734375,-0.988433837890625,-0.0763062238693237,0.1217101886868476,0.0379119627177715
1770453743648,0.031707763671875,-0.20953369140625,-0.9849853515625,-0.0871439576148986,0.1481868028640747,0.0311536584049463
1770453743658,0.0214691162109375,-0.2065277099609375,-0.98138427734375,-0.1049530506134033,0.151018813252449,0.0322820395231246
1770453743668,0.016510009765625,-0.2080535888671875,-0.97943115234375,-0.1059908792376518,0.1349455714225769,0.0334170795977115
1770453743678,0.011383056640625,-0.208465576171875,-0.9895172119140624,-0.0848696157336235,0.1215075254440307,0.0198357570916414
1770453743688,0.0028076171875,-0.2072906494140625,-1.00067138671875,-0.0592079311609268,0.103931725025177,0.0057862498797476
1770453743698,0.00872802734375,-0.213134765625,-1.00286865234375,-0.0533814653754234,0.0961971059441566,0.0008679241873323
1770453743708,0.0313873291015625,-0.2222442626953125,-0.995361328125,-0.059642557054758,0.090042807161808,-0.0031862058676779
1770453743720,0.0477752685546875,-0.207611083984375,-0.98089599609375,-0.0611309967935085,0.1080353930592536,-0.013922207057476
1770453743728,0.0458831787109375,-0.201629638671875,-0.9654541015625,-0.0760340467095375,0.150407612323761,-0.0330349169671535
1770453743739,0.0386962890625,-0.203704833984375,-0.9505615234375,-0.1012605726718902,0.1901619583368301,-0.0212629437446594
1770453743748,0.042327880859375,-0.229095458984375,-0.9430389404296876,-0.1084798723459243,0.2382751554250717,0.0060312608256936
1770453743759,0.0502471923828125,-0.220703125,-0.9481658935546876,-0.1053794175386428,0.2616521120071411,0.0088560758158564
1770453743769,0.044921875,-0.2126312255859375,-0.9516143798828124,-0.1001492366194725,0.2726972997188568,0.0099924467504024
1770453743779,0.0417633056640625,-0.23638916015625,-0.95654296875,-0.102690689265728,0.2629280388355255,0.0269189663231372
1770453743789,0.04302978515625,-0.2401580810546875,-0.9640350341796876,-0.1000642850995063,0.2479805052280426,0.03993995860219
1770453743799,0.0428009033203125,-0.213836669921875,-0.975128173828125,-0.0956303849816322,0.2212551534175872,0.0184820722788572
1770453743809,0.0316925048828125,-0.1722564697265625,-0.9761810302734376,-0.0907890275120735,0.1722026616334915,-0.0253668762743473
1770453743820,0.0164947509765625,-0.165924072265625,-0.9763946533203124,-0.0930961221456527,0.1334201097488403,-0.060287307947874
1770453743829,0.0172119140625,-0.18170166015625,-0.9820404052734376,-0.0989548116922378,0.1207834109663963,-0.0801251977682113
1770453743839,0.0308837890625,-0.1926422119140625,-0.986602783203125,-0.0961808636784553,0.119068332016468,-0.0828394889831543
1770453743849,0.04730224609375,-0.2101287841796875,-0.9964141845703124,-0.0709380879998207,0.1157798618078231,-0.0744249671697616
1770453743859,0.068084716796875,-0.22760009765625,-1.0055389404296875,-0.0336471758782863,0.0810064375400543,-0.0585285574197769
1770453743869,0.082672119140625,-0.2325897216796875,-0.9992218017578124,-0.0007528756395913,0.050880491733551,-0.0309967976063489
1770453743879,0.088592529296875,-0.226318359375,-0.98919677734375,0.0209047496318817,0.0541615039110183,-0.0088840387761592
1770453743889,0.0869903564453125,-0.21917724609375,-0.9772186279296876,0.0264712888747453,0.0698762834072113,0.0081575289368629
1770453743899,0.083038330078125,-0.2071990966796875,-0.971282958984375,0.0312942713499069,0.0886531695723533,0.0124066025018692
1770453743909,0.0746307373046875,-0.193695068359375,-0.9781646728515624,0.041062481701374,0.0895410701632499,-0.0007877630414441
1770453743919,0.07049560546875,-0.1914520263671875,-0.985198974609375,0.0432705096900463,0.0708763003349304,-0.0109330751001834
1770453743929,0.072998046875,-0.186279296875,-0.9809417724609376,0.0343928597867488,0.0407322496175766,-0.0234179738909006
1770453743939,0.0750885009765625,-0.1864166259765625,-0.9777069091796876,0.0291392430663108,0.0161267723888158,-0.029771476984024
1770453743949,0.07586669921875,-0.204254150390625,-0.9755401611328124,0.026157833635807,0.0057705375365912,-0.0215265974402427
1770453743960,0.08355712890625,-0.2208251953125,-0.9712371826171876,0.0236387494951486,0.0067934575490653,0.0012652678415179
1770453743970,0.0858612060546875,-0.2240753173828125,-0.9634857177734376,0.022709572687745,0.0168106723576784,0.0197358876466751
1770453743980,0.076690673828125,-0.2115020751953125,-0.954071044921875,0.0179062969982624,0.0273653119802474,0.0326322466135025
1770453743990,0.063690185546875,-0.2056884765625,-0.94683837890625,0.0082163847982883,0.0368570834398269,0.0363241843879222
1770453744000,0.0525054931640625,-0.2005157470703125,-0.95025634765625,0.0041089910082519,0.0479211881756782,0.0390709713101387
1770453744010,0.0534820556640625,-0.1985626220703125,-0.959320068359375,-0.0111975269392132,0.0372586883604526,0.0303730852901935
1770453744020,0.0560302734375,-0.1962432861328125,-0.95819091796875,-0.0336170829832553,0.0101519702002406,0.0246989540755748
1770453744030,0.0603790283203125,-0.1974945068359375,-0.957977294921875,-0.0549292936921119,0.0115213673561811,0.0178801976144313
1770453744040,0.0647735595703125,-0.199310302734375,-0.9621734619140624,-0.0685795918107032,0.0151936002075672,0.0127797108143568
1770453744053,0.067413330078125,-0.2020721435546875,-0.964996337890625,-0.066628560423851,0.0132361771538853,0.0106153599917888
1770453744060,0.072601318359375,-0.209381103515625,-0.9772491455078124,-0.0517550744116306,-0.0012540825409814,0.0121613247320055
1770453744070,0.076995849609375,-0.215667724609375,-0.98419189453125,-0.037197969853878,-0.0295387171208858,0.0206088721752166
1770453744080,0.080352783203125,-0.2146759033203125,-0.98394775390625,-0.0243495479226112,-0.0467129088938236,0.0262534413486719
1770453744090,0.0811614990234375,-0.2138214111328125,-0.982330322265625,-0.019065037369728,-0.0447586812078952,0.0294156800955533
1770453744101,0.0796051025390625,-0.2115020751953125,-0.975433349609375,-0.0230459310114383,-0.0298590958118438,0.0293381810188293
1770453744110,0.074432373046875,-0.2078704833984375,-0.9704437255859376,-0.0274247005581855,-0.0062014367431402,0.0289493594318628
1770453744121,0.06842041015625,-0.2039947509765625,-0.9745941162109376,-0.031375765800476,0.0075591164641082,0.0320564694702625
1770453744130,0.0626068115234375,-0.203521728515625,-0.9787750244140624,-0.026934677734971,0.0068344702012836,0.0327784530818462
1770453744140,0.05938720703125,-0.20172119140625,-0.9827423095703124,-0.0164010766893625,0.0113751599565148,0.025889653712511
1770453744150,0.0561065673828125,-0.200225830078125,-0.9839324951171876,-0.0081900190562009,0.0114883445203304,0.0161850955337286
1770453744160,0.055511474609375,-0.19970703125,-0.9834747314453124,-0.000605336506851,0.0100465090945363,0.0138340564444661
1770453744170,0.0555572509765625,-0.2020416259765625,-0.982940673828125,0.0095351822674274,0.0012330436147749,0.0160271693021059
1770453744180,0.05517578125,-0.2048797607421875,-0.9814300537109376,0.0188005864620208,0.0012828446924686,0.0143818687647581
1770453744191,0.053253173828125,-0.2024993896484375,-0.978546142578125,0.0228525847196578,-0.0036314863245934,0.0047758468426764
1770453744201,0.057098388671875,-0.1984710693359375,-0.9723358154296876,0.0199279021471738,-0.0001459412305848,-0.005609415937215
1770453744211,0.06103515625,-0.1987762451171875,-0.966156005859375,0.0102169513702392,0.0074198329821228,-0.011136008426547
1770453744221,0.0611724853515625,-0.1981353759765625,-0.961334228515625,0.0025313345249742,0.0212509594857692,-0.0165659263730049
1770453744231,0.0606231689453125,-0.198486328125,-0.9638671875,-0.0026519757229834,0.0282926242798566,-0.0200061984360218
1770453744241,0.061492919921875,-0.200469970703125,-0.96673583984375,-0.0003387540928088,0.0284377671778202,-0.0198679808527231
1770453744252,0.0629425048828125,-0.206787109375,-0.9699249267578124,-0.0028418591246008,0.0159579273313283,-0.0096081523224711
1770453744261,0.069580078125,-0.2266693115234375,-0.9685821533203124,-0.0101868575438857,0.0152942677959799,0.0172327831387519
1770453744271,0.0790863037109375,-0.215850830078125,-0.9694671630859376,-0.0141376564279198,0.0111322794109582,0.0181819330900907
1770453744281,0.0709686279296875,-0.191497802734375,-0.9697723388671876,-0.0156021295115351,0.006369215901941,-0.0043606599792838
1770453744291,0.05694580078125,-0.18560791015625,-0.9720001220703124,-0.0170889720320701,-0.0022703448776155,-0.0124934213235974
1770453744301,0.0567169189453125,-0.2011260986328125,-0.9789581298828124,0.0021563614718616,-0.0063143549486994,-0.0009787116432562
1770453744313,0.0635833740234375,-0.2061920166015625,-0.9886627197265624,0.0318527370691299,-0.0170586127787828,-0.0084664551541209
1770453744321,0.0602874755859375,-0.195098876953125,-0.99114990234375,0.0572965778410434,-0.0167491529136896,-0.0096379797905683
1770453744331,0.062255859375,-0.206756591796875,-0.987396240234375,0.0556938871741294,-0.0127232521772384,0.0039449403993785
1770453744341,0.071746826171875,-0.2153778076171875,-0.976318359375,0.036816868931055,0.0038432078436017,0.0158862881362438
1770453744353,0.079559326171875,-0.2144775390625,-0.969818115234375,0.0163768418133258,0.0257509034126997,0.0108497180044651
1770453744361,0.073516845703125,-0.1844024658203125,-0.962860107421875,-0.0016453008865937,0.0402155965566635,-0.0135357826948165
1770453744371,0.0572509765625,-0.1740875244140625,-0.9564056396484376,-0.01944001019001,0.0613214150071144,-0.0492277331650257
1770453744381,0.044464111328125,-0.18817138671875,-0.95819091796875,-0.0375598929822444,0.0669729113578796,-0.0607522949576377
1770453744392,0.0471038818359375,-0.2021636962890625,-0.966156005859375,-0.0435892902314662,0.0513508059084415,-0.0581764876842498
1770453744402,0.0568695068359375,-0.211456298828125,-0.97979736328125,-0.0338698178529739,0.0178271997720003,-0.0455826632678508
1770453744412,0.0668487548828125,-0.2157440185546875,-0.9950103759765624,-0.0160039998590946,-0.0173033569008111,-0.0332860499620437
1770453744422,0.077056884765625,-0.2219390869140625,-0.9944305419921876,-0.0011286477092653,-0.0370429717004299,-0.017667943611741
1770453744432,0.086273193359375,-0.22503662109375,-0.9893646240234376,0.0063316654413938,-0.0311595164239406,0.00023196132679
1770453744442,0.0904693603515625,-0.2200164794921875,-0.9766998291015624,0.003190200543031,-0.0011912320042029,0.0083231776952743
1770453744452,0.0861358642578125,-0.2127685546875,-0.9670867919921876,0.0017206683987751,0.0280683860182762,0.0100108226761221
1770453744462,0.079925537109375,-0.205108642578125,-0.9637603759765624,0.0010921623324975,0.0478455536067485,0.0064914552494883
1770453744472,0.0730133056640625,-0.1963043212890625,-0.966156005859375,0.0022823291365057,0.0519683919847011,0.0003318298549856
1770453744482,0.0665283203125,-0.1945037841796875,-0.973541259765625,0.008128766901791,0.0407700650393962,-0.0118827586993575
1770453744492,0.060760498046875,-0.194671630859375,-0.9813232421875,0.0111916679888963,0.0178889855742454,-0.0250888410955667
1770453744502,0.056427001953125,-0.198211669921875,-0.9836273193359376,0.0176769979298114,-0.0085194520652294,-0.0303464531898498
1770453744512,0.057037353515625,-0.209259033203125,-0.98193359375,0.0215628165751695,-0.0218690801411867,-0.021744443103671
1770453744522,0.0644683837890625,-0.213958740234375,-0.975830078125,0.0242760442197322,-0.0211305860430002,-0.0191486608237028
1770453744532,0.0672149658203125,-0.204376220703125,-0.967041015625,0.0231282226741313,-0.012018846347928,-0.0223907921463251
1770453744542,0.0610504150390625,-0.1982574462890625,-0.963531494140625,0.0212216656655073,-0.0038759645540267,-0.0282087344676256
1770453744552,0.0537567138671875,-0.195281982421875,-0.9635162353515624,0.0177062936127185,-0.0017859158106148,-0.0396842956542968
1770453744562,0.05133056640625,-0.1954498291015625,-0.9684295654296876,0.018337994813919,-0.0116702383384108,-0.0523028858006
1770453744572,0.054290771484375,-0.1958160400390625,-0.9712982177734376,0.0165997501462698,-0.0429352149367332,-0.0604172721505165
1770453744582,0.0613861083984375,-0.198486328125,-0.9723663330078124,0.0150476591661572,-0.0714909583330154,-0.0723005607724189
1770453744592,0.0618438720703125,-0.2003631591796875,-0.97442626953125,0.0100600905716419,-0.0828360244631767,-0.0722305178642273
1770453744602,0.0692901611328125,-0.2019500732421875,-0.97760009765625,0.0016713999211788,-0.0837486907839775,-0.0556653924286365
1770453744612,0.081451416015625,-0.2040863037109375,-0.9756317138671876,-0.0051566786132752,-0.0630279704928398,-0.0427426695823669
1770453744623,0.0876007080078125,-0.208404541015625,-0.975799560546875,-0.0027574370615184,-0.0260126926004886,-0.0292992983013391
1770453744633,0.08612060546875,-0.2125396728515625,-0.9805755615234376,0.0039795613847672,-0.0034051176626235,-0.0135735990479588
1770453744643,0.0876312255859375,-0.2138671875,-0.9822998046875,0.0114167053252458,-0.0016500946367159,0.0030423952266573
1770453744653,0.0863800048828125,-0.2080841064453125,-0.976531982421875,0.0143792051821947,0.0012852415675297,0.0115285580977797
1770453744663,0.0776214599609375,-0.2046051025390625,-0.974822998046875,0.0162601955235004,0.0118689099326729,0.0076392777264118
1770453744673,0.0704345703125,-0.20526123046875,-0.9711151123046876,0.0154844177886843,0.0093080140650272,0.0055598812177777
1770453744685,0.072113037109375,-0.2037811279296875,-0.9637451171875,0.0022775353863835,0.0051359059289097,0.0060941115953028
1770453744693,0.0721893310546875,-0.2028961181640625,-0.9611968994140624,-0.008847021497786,0.0061279335059225,0.0026538399979472
1770453744703,0.0666656494140625,-0.204803466796875,-0.9615478515625,-0.0182098969817161,0.0126486830413341,-0.0011696603614836
1770453744713,0.062713623046875,-0.2018280029296875,-0.964141845703125,-0.0233194380998611,0.0180181488394737,-0.0048576057888567
1770453744723,0.0614013671875,-0.1979217529296875,-0.9655609130859376,-0.0291581507772207,0.0145563054829835,-0.0083980122581124
1770453744733,0.0576934814453125,-0.20013427734375,-0.9700164794921876,-0.0283778458833694,0.018207499757409,-0.0079607209190726
1770453744743,0.0594024658203125,-0.200775146484375,-0.97552490234375,-0.0225937254726886,0.0133299203589558,-0.008460596203804
1770453744753,0.0600128173828125,-0.200592041015625,-0.9757843017578124,-0.0157158467918634,0.0132236601784825,-0.0107541102916002
1770453744763,0.0592041015625,-0.1993408203125,-0.9753875732421876,-0.0128271151334047,0.0146825397387146,-0.0202576015144586
1770453744773,0.058441162109375,-0.200286865234375,-0.9724884033203124,-0.0110265519469976,0.0079359533265233,-0.0219734758138656
1770453744783,0.0633087158203125,-0.202117919921875,-0.9705810546875,-0.0136545598506927,0.0019188075093552,-0.0257426481693983
1770453744793,0.068450927734375,-0.2033233642578125,-0.9687042236328124,-0.0202205833047628,0.0013792511308565,-0.0280838329344987
1770453744804,0.0698699951171875,-0.2031402587890625,-0.9688262939453124,-0.0256102886050939,-0.0048328381963074,-0.0292252637445926
1770453744813,0.07623291015625,-0.212310791015625,-0.9686126708984376,-0.0288809165358543,-0.0114486627280712,-0.0145381959155201
1770453744824,0.0852203369140625,-0.2281951904296875,-0.9687957763671876,-0.0282175224274396,-0.0075082499533891,0.0052762548439204
1770453744835,0.0861053466796875,-0.211456298828125,-0.974945068359375,-0.02079982124269,-0.0061090253293514,0.0023089605383574
1770453744844,0.073455810546875,-0.187042236328125,-0.978851318359375,-0.0100462427362799,-0.0071497885510325,-0.0099626192823052
1770453744854,0.0580291748046875,-0.1834869384765625,-0.9837188720703124,-0.0041774343699216,0.0025888588279485,-0.0137059586122632
1770453744864,0.053314208984375,-0.20263671875,-0.990142822265625,0.018011225387454,0.0105642275884747,0.0006167881074361
1770453744874,0.060546875,-0.19476318359375,-0.9931640625,0.0371495001018047,0.0052930326201021,-0.0163201168179512
1770453744885,0.0555877685546875,-0.1917877197265625,-0.9867401123046876,0.0459107644855976,-0.0111373392865061,-0.0171757917851209
1770453744894,0.0612335205078125,-0.213531494140625,-0.97686767578125,0.0400914922356605,-0.0222038384526968,0.0015832493081688
1770453744904,0.074310302734375,-0.2215728759765625,-0.9697265625,0.0293283276259899,-0.0184099003672599,0.0169696621596813
1770453744914,0.0809783935546875,-0.21197509765625,-0.9672088623046876,0.01761095225811,-0.0109091065824031,0.0066821374930441
1770453744924,0.069793701171875,-0.18328857421875,-0.9604949951171876,0.0101439803838729,-0.0009771138429641,-0.0244078710675239
1770453744934,0.0492401123046875,-0.1760406494140625,-0.9591217041015624,0.0072733592242002,0.0094584831967949,-0.0450748018920421
1770453744944,0.0507659912109375,-0.1853179931640625,-0.96484375,0.001751561067067,0.010652644559741,-0.0448577515780925
1770453744954,0.0633087158203125,-0.2022552490234375,-0.974273681640625,0.0020090886391699,0.0104108294472098,-0.039126630872488
1770453744964,0.072265625,-0.2186737060546875,-0.9804534912109376,0.0092241242527961,0.0020271982066333,-0.0209793169051408
1770453744974,0.079620361328125,-0.2215576171875,-0.979400634765625,0.0146849360316991,-0.0023230754304677,-0.0035457327030599
1770453744985,0.0767669677734375,-0.2199859619140625,-0.974578857421875,0.0103857954964041,0.0046400255523622,0.0090044140815734
1770453744994,0.0758819580078125,-0.2179107666015625,-0.968414306640625,-0.0056941048242151,0.0049907639622688,0.0219343267381191
1770453745005,0.0795440673828125,-0.214813232421875,-0.9609527587890624,-0.0262526422739028,0.0044927527196705,0.0272763613611459
1770453745014,0.075897216796875,-0.2146759033203125,-0.96044921875,-0.0412939116358757,0.0042205778881907,0.023559121415019
1770453745024,0.072662353515625,-0.2067413330078125,-0.96331787109375,-0.0476367622613906,0.0084675205871462,0.0157486032694578
1770453745034,0.0692291259765625,-0.198699951171875,-0.9660797119140624,-0.0498756803572177,0.0201508086174726,0.0028304075822234
1770453745044,0.05975341796875,-0.1986083984375,-0.9682464599609376,-0.0521135330200195,0.0259016379714012,-0.0136415101587772
1770453745054,0.05474853515625,-0.1988067626953125,-0.9725494384765624,-0.0473198443651199,0.0165582038462162,-0.0188796818256378
1770453745065,0.0565948486328125,-0.20037841796875,-0.979644775390625,-0.0357524044811725,0.0034117756877094,-0.0193063206970691
1770453745075,0.0581512451171875,-0.2088470458984375,-0.9837493896484376,-0.0226086396723985,-0.0020575581584125,-0.012418320402503
1770453745085,0.058837890625,-0.20709228515625,-0.987396240234375,-0.007488542702049,-0.0030940605793148,-0.008469651453197
1770453745095,0.05780029296875,-0.194061279296875,-0.9876861572265624,0.0011824434623122,-0.0125229824334383,-0.0110057797282934
1770453745105,0.055145263671875,-0.190521240234375,-0.9844818115234376,0.0038256309926509,-0.0210767891258001,-0.0193209666758775
1770453745115,0.0539703369140625,-0.1898040771484375,-0.9792022705078124,-0.0024208133108913,-0.014913436025381,-0.0295067597180604
1770453745125,0.0582427978515625,-0.195281982421875,-0.9719696044921876,-0.0167819093912839,-0.0135837197303771,-0.034416563808918
1770453745135,0.0692138671875,-0.2024383544921875,-0.96234130859375,-0.0323155969381332,-0.0189875401556491,-0.0277903527021408
1770453745145,0.0791473388671875,-0.2082672119140625,-0.9571075439453124,-0.0394733734428882,-0.0134526919573545,-0.0211697332561016
1770453745156,0.080078125,-0.212646484375,-0.95947265625,-0.0462465919554233,-0.0002354234457015,-0.011795406229794
1770453745165,0.0811309814453125,-0.2090911865234375,-0.9575042724609376,-0.0519007481634616,0.0130103407427668,0.0016239956021308
1770453745175,0.083953857421875,-0.205352783203125,-0.962554931640625,-0.0548307597637176,0.024812139570713,0.0083727119490504
1770453745185,0.078826904296875,-0.210235595703125,-0.97344970703125,-0.0531327277421951,0.0195851530879735,0.0151142375543713
1770453745195,0.0787506103515625,-0.2064361572265625,-0.97698974609375,-0.0475637912750244,0.0116145778447389,0.0241791065782308
1770453745205,0.0752410888671875,-0.2016754150390625,-0.9794921875,-0.0450327210128307,0.008125570602715,0.0286082085222005
1770453745215,0.06878662109375,-0.1993255615234375,-0.9776458740234376,-0.0404036156833171,0.0163454171270132,0.0267320126295089
1770453745225,0.066162109375,-0.198028564453125,-0.9775848388671876,-0.0396153181791305,0.02368482388556,0.0277168489992618
1770453745236,0.0670013427734375,-0.19476318359375,-0.976318359375,-0.037298634648323,0.0310564525425434,0.0225063748657703
1770453745245,0.06231689453125,-0.1966094970703125,-0.97979736328125,-0.0283631980419158,0.0402789786458015,0.0212935712188482
1770453745255,0.0606842041015625,-0.1952667236328125,-0.98486328125,-0.0176660791039466,0.0343270823359489,0.0199516043066978
1770453745266,0.061431884765625,-0.19573974609375,-0.98797607421875,-0.0103871272876858,0.0195550583302974,0.0174908433109521
1770453745276,0.0613555908203125,-0.198089599609375,-0.9891510009765624,0.000417051021941,0.0073676351457834,0.0149776181206107
1770453745286,0.0638580322265625,-0.1968994140625,-0.9876556396484376,0.0033806166611611,0.0052389702759683,0.0142407212406396
1770453745296,0.063629150390625,-0.1960906982421875,-0.9836883544921876,0.0068975873291492,0.0098355868831276,0.0116025935858488
1770453745306,0.0625152587890625,-0.1968231201171875,-0.9820098876953124,0.0145983835682272,0.0154122458770871,0.0050448258407413
1770453745316,0.0631561279296875,-0.1954498291015625,-0.979827880859375,0.0200141873210668,0.0197188425809144,0.0020969731267541
1770453745326,0.0641632080078125,-0.1951446533203125,-0.980926513671875,0.0274694412946701,0.017060475423932,0.0014935007784515
1770453745336,0.0696563720703125,-0.1964111328125,-0.979766845703125,0.0306111723184585,0.0093391733244061,-0.0030072415247559
1770453745346,0.0679931640625,-0.1989898681640625,-0.9785003662109376,0.0310151744633913,0.014847389422357,-0.0032722260802984
1770453745356,0.0723419189453125,-0.198089599609375,-0.976104736328125,0.0249618086963892,0.0243823044002056,-0.0014679343439638
1770453745366,0.069610595703125,-0.198883056640625,-0.9720306396484376,0.0267804805189371,0.0210956986993551,-0.0077239661477506
1770453745376,0.0639190673828125,-0.20098876953125,-0.971038818359375,0.0246456917375326,0.0052078114822506,-0.0028852687682956
1770453745386,0.0696563720703125,-0.208343505859375,-0.9710693359375,0.0151597782969474,0.0001864212681539,0.0132939675822854
1770453745396,0.0784759521484375,-0.2186279296875,-0.968963623046875,0.0044549359008669,0.0065953182056546,0.0218927823007106
1770453745406,0.07818603515625,-0.19805908203125,-0.965179443359375,-0.0079708406701684,0.0096355834975838,0.0055351140908896
1770453745416,0.0647430419921875,-0.1786041259765625,-0.9597625732421876,-0.0211215298622846,0.0151688326150178,-0.0124694528058171
1770453745426,0.05511474609375,-0.180999755859375,-0.962860107421875,-0.0185776781290769,0.0247817784547805,-0.0122201805934309
1770453745437,0.056671142578125,-0.206207275390625,-0.97625732421875,-0.0037049897946417,0.0174461025744676,-0.00804487708956
1770453745446,0.062286376953125,-0.1922607421875,-0.9808807373046876,0.0102185485884547,-0.0113093797117471,-0.0174655430018901
1770453745457,0.0622711181640625,-0.2001190185546875,-0.97705078125,0.0138273984193801,-0.0389588512480258,-0.0084030721336603
1770453745467,0.0714111328125,-0.2142333984375,-0.970428466796875,0.0026474483311176,-0.0306343417614698,0.0100933806970715
1770453745477,0.0775604248046875,-0.2127685546875,-0.96673583984375,-0.0139014348387718,-0.0114153735339641,0.0104015078395605
1770453745487,0.0737457275390625,-0.1906890869140625,-0.96405029296875,-0.0287070125341415,0.000499875342939,-0.0096901776269078
1770453745497,0.0625152587890625,-0.16552734375,-0.960540771484375,-0.0414233393967151,0.0013595437631011,-0.0418856628239154
1770453745507,0.0481719970703125,-0.1699371337890625,-0.9606781005859376,-0.0491949766874313,0.0118694426491856,-0.0575037710368633
1770453745519,0.051910400390625,-0.186981201171875,-0.970916748046875,-0.0473688468337059,0.0062693473882973,-0.0572308003902435
1770453745527,0.06463623046875,-0.2019195556640625,-0.9800262451171876,-0.0433469414710998,-0.0073870760388672,-0.0441621355712413
1770453745537,0.0757293701171875,-0.2082977294921875,-0.9828643798828124,-0.0376789346337318,-0.0041904840618371,-0.0275203082710504
1770453745547,0.080535888671875,-0.2066497802734375,-0.984771728515625,-0.0262877959758043,0.008707471191883,-0.0142154209315776
1770453745557,0.079132080078125,-0.209197998046875,-0.9883880615234376,-0.020027769729495,0.0144495125859975,0.0004700479330495
1770453745567,0.0853729248046875,-0.204681396484375,-0.9867401123046876,-0.0116047244518995,0.0128878355026245,0.0137307262048125
1770453745577,0.081817626953125,-0.20477294921875,-0.9904937744140624,-0.0003259709046687,0.007056844420731,0.0187686271965503
1770453745587,0.0816497802734375,-0.1999664306640625,-0.9887542724609376,0.0065921223722398,0.0002860235108528,0.0182525068521499
1770453745597,0.0751800537109375,-0.19183349609375,-0.9813079833984376,0.0070784157142043,0.0049974215216934,0.0117088537663221
1770453745607,0.0713043212890625,-0.187286376953125,-0.9750518798828124,0.0061910506337881,0.0115067204460501,0.0012066783383488
1770453745619,0.068115234375,-0.1865081787109375,-0.9758453369140624,0.0102915195748209,0.0147850709035992,-0.008316253311932
1770453745627,0.065338134765625,-0.1905517578125,-0.979095458984375,0.0177888497710227,0.014029799029231,-0.0068584387190639
1770453745637,0.0665740966796875,-0.199859619140625,-0.9793701171875,0.0242006778717041,0.0055004931055009,0.0072211613878607
1770453745647,0.0710296630859375,-0.21246337890625,-0.97967529296875,0.0316854901611804,-0.0004261057765688,0.0199041999876499
1770453745657,0.0716705322265625,-0.20404052734375,-0.97576904296875,0.0331145450472831,-0.0011315771844238,0.0210706647485494
1770453745668,0.0635986328125,-0.1917724609375,-0.970703125,0.0278846286237239,0.0013717942638322,0.0113346800208091
1770453745678,0.0523834228515625,-0.1893310546875,-0.964874267578125,0.0156657788902521,-0.0013480921043083,0.0014658038271591
1770453745688,0.0520172119140625,-0.1875457763671875,-0.9617156982421876,0.0044192494824528,-0.0034330808557569,-0.0062693473882973
1770453745698,0.0541534423828125,-0.1885528564453125,-0.961273193359375,-0.013457485474646,-0.0087711205706,-0.0131285851821303
1770453745708,0.058868408203125,-0.1914215087890625,-0.959930419921875,-0.0333933755755424,-0.0088068069890141,-0.0140878558158874
1770453745718,0.066864013671875,-0.194732666015625,-0.96112060546875,-0.0439890287816524,-0.0006873618694953,-0.0055409730412065
1770453745728,0.0731201171875,-0.19354248046875,-0.966217041015625,-0.0384786836802959,0.0162026714533567,-0.0006426207837648
1770453745738,0.0702362060546875,-0.1949310302734375,-0.98162841796875,-0.021450163796544,0.0266252197325229,0.0029228192288428
1770453745748,0.0698394775390625,-0.19677734375,-0.992218017578125,-0.0048149949871003,0.0152708319947123,0.0095077510923147
1770453745758,0.0732269287109375,-0.19891357421875,-0.9929046630859376,0.0010972223244607,-0.0021318604703992,0.0153808202594518
1770453745768,0.0784454345703125,-0.2015533447265625,-0.9888763427734376,-0.0001976065541384,-0.0117493337020277,0.0186019130051136
1770453745778,0.0800628662109375,-0.2014312744140625,-0.9792938232421876,-0.0038746329955756,-0.0058640143834054,0.0212949030101299
1770453745788,0.08062744140625,-0.198883056640625,-0.97283935546875,-0.0064006415195763,0.0056594833731651,0.0209300499409437
1770453745798,0.0736846923828125,-0.198394775390625,-0.969970703125,-0.0033646377269178,0.012769591063261,0.0178205426782369
1770453745808,0.0726470947265625,-0.197113037109375,-0.9693603515625,-0.0046935551799833,0.0129120703786611,0.0177819263190031
1770453745820,0.07073974609375,-0.1949920654296875,-0.9699554443359376,-0.0070483218878507,0.0139355231076478,0.0146298091858625
1770453745828,0.06768798828125,-0.1959991455078125,-0.9726104736328124,-0.006728742737323,0.0177465062588453,0.0139275332912802
1770453745838,0.064422607421875,-0.1935577392578125,-0.9742584228515624,-0.0010064085945487,0.0186969880014657,0.0135496305301785
1770453745848,0.0604705810546875,-0.1915740966796875,-0.978546142578125,0.007807589136064,0.0227037146687507,0.0160000044852495
1770453745858,0.05633544921875,-0.191925048828125,-0.98370361328125,0.0169076099991798,0.0209537521004676,0.0091064125299453
1770453745869,0.0530242919921875,-0.1926727294921875,-0.9852294921875,0.0232952032238245,0.0071479245088994,0.0032788838725537
1770453745878,0.058380126953125,-0.190032958984375,-0.98211669921875,0.0255650151520967,-0.0061540324240922,-0.0011323761427775
1770453745889,0.06365966796875,-0.1913299560546875,-0.97723388671875,0.0208155326545238,-0.0063449810259044,-0.005795837379992
1770453745899,0.0684661865234375,-0.1954193115234375,-0.9734039306640624,0.0178690124303102,-0.0019273296929895,-0.0068733524531126
1770453745909,0.073760986328125,-0.19970703125,-0.9696502685546876,0.0130926324054598,0.0061375210061669,-0.0056797238066792
1770453745920,0.0735931396484375,-0.201416015625,-0.969329833984375,0.0109051121398806,0.0125906262546777,-0.0062088938429951
1770453745929,0.074493408203125,-0.2008514404296875,-0.9681854248046876,0.0055649415589869,0.0118734370917081,-0.0014234596164897
1770453745939,0.078338623046875,-0.2008209228515625,-0.9674072265625,0.0011510181939229,0.0107122994959354,0.0003209109127055
1770453745949,0.0781402587890625,-0.2006072998046875,-0.9685211181640624,-0.0003952131082769,0.0156591199338436,0.0020687435753643
1770453745959,0.0745086669921875,-0.2028961181640625,-0.97393798828125,0.005118329077959,0.0214411094784736,0.0104688862338662
1770453745969,0.0710601806640625,-0.2147064208984375,-0.9793701171875,0.0101216100156307,0.0155206359922885,0.0276699773967266
1770453745979,0.078399658203125,-0.21746826171875,-0.9796600341796876,0.0146433915942907,0.0035321505274623,0.0319789722561836
1770453745989,0.0729217529296875,-0.1914215087890625,-0.97564697265625,0.0126143284142017,-0.0050714574754238,0.0160697810351848
1770453745999,0.05877685546875,-0.174102783203125,-0.970794677734375,0.0020466393325477,-0.0044195158407092,-0.0087578054517507
1770453746009,0.045867919921875,-0.18267822265625,-0.9704132080078124,0.0032892702147364,0.002739327494055,-0.0115448031574487
1770453746020,0.0539398193359375,-0.20556640625,-0.973785400390625,0.007628624793142,0.004482100252062,-0.0137123502790927
1770453746029,0.067169189453125,-0.1899261474609375,-0.96636962890625,0.0066232816316187,-0.0036634444259107,-0.0237828269600868
1770453746039,0.0694122314453125,-0.20849609375,-0.9562530517578124,-0.0073729613795876,-0.0046458845026791,-0.0083950823172926
1770453746049,0.0779571533203125,-0.223052978515625,-0.9515533447265624,-0.0259658209979534,0.0084552699699997,0.0121879568323493
1770453746059,0.0871734619140625,-0.2158050537109375,-0.95233154296875,-0.0449099503457546,0.0352091193199157,0.0137437749654054
1770453746069,0.0826568603515625,-0.1868133544921875,-0.954193115234375,-0.0529774650931358,0.052959356456995,-0.0087884319946169
1770453746079,0.0572357177734375,-0.167938232421875,-0.962799072265625,-0.0494437143206596,0.0562140047550201,-0.0357579961419105
1770453746089,0.0443572998046875,-0.1780242919921875,-0.9825286865234376,-0.0357366912066936,0.0305413976311683,-0.0463752225041389
1770453746100,0.05584716796875,-0.1910247802734375,-1.0020599365234375,-0.012010590173304,-0.0060277986340224,-0.0431978031992912
1770453746109,0.0719451904296875,-0.2052001953125,-1.0125274658203125,0.0095996307209134,-0.0341830030083656,-0.0360528081655502
1770453746120,0.0824737548828125,-0.214385986328125,-1.008087158203125,0.0277179144322872,-0.0426806174218654,-0.0194967351853847
1770453746130,0.0888519287109375,-0.215423583984375,-0.9936676025390624,0.0354749038815498,-0.0263189561665058,0.0026019082870334
1770453746140,0.08917236328125,-0.213958740234375,-0.979644775390625,0.0348972640931606,0.002233060542494,0.0153070511296391
1770453746150,0.0883941650390625,-0.212158203125,-0.9679412841796876,0.0212767925113439,0.0235585886985063,0.0192764922976493
1770453746160,0.0875244140625,-0.2096405029296875,-0.9612274169921876,0.0062022358179092,0.0260121598839759,0.0182863287627697
1770453746170,0.0818939208984375,-0.2047882080078125,-0.9574127197265624,-0.0080536650493741,0.0216975715011358,0.0109972571954131
1770453746180,0.076904296875,-0.199737548828125,-0.9550323486328124,-0.0174956358969211,0.0200908873230218,-0.0025499768089503
1770453746190,0.07012939453125,-0.196929931640625,-0.9556732177734376,-0.0278369579464197,0.0179928485304117,-0.0113597139716148
1770453746200,0.065704345703125,-0.1947479248046875,-0.956695556640625,-0.0359742455184459,0.0234046578407287,-0.0162170529365539
1770453746210,0.06146240234375,-0.1995086669921875,-0.9615478515625,-0.0382472537457942,0.0307270195335149,-0.0093785878270864
1770453746221,0.0598907470703125,-0.2071380615234375,-0.9694366455078124,-0.0348820835351944,0.0247114710509777,0.0046682548709213
1770453746230,0.0630950927734375,-0.212677001953125,-0.9798736572265624,-0.0246859043836593,0.0123349633067846,0.0158308949321508
1770453746240,0.0623626708984375,-0.2001495361328125,-0.9870758056640624,-0.0140646863728761,-0.0002812298189383,0.015066834166646
1770453746250,0.0579071044921875,-0.18927001953125,-0.98931884765625,-0.007717574480921,-0.0083788372576236,0.0062096924521028
1770453746260,0.0543212890625,-0.1859283447265625,-0.9884033203125,-0.003271959722042,-0.0090377032756805,-0.0042176484130322
1770453746270,0.056060791015625,-0.189788818359375,-0.9878997802734376,-2.9827404432580806e-05,-0.0185529123991727,-0.0172530226409435
1770453746280,0.06622314453125,-0.1981048583984375,-0.981842041015625,-0.0026077672373503,-0.0339739471673965,-0.0254132151603698
1770453746290,0.0793304443359375,-0.2019500732421875,-0.9736480712890624,-0.0074371434748172,-0.0398227795958519,-0.0242190528661012
1770453746301,0.0847015380859375,-0.207794189453125,-0.96466064453125,-0.0124995466321706,-0.0271072518080472,-0.0160660520195961
1770453746311,0.0892181396484375,-0.2120819091796875,-0.9625091552734376,-0.0165419578552246,-0.0098004331812262,-0.0064709489233791
1770453746321,0.0893402099609375,-0.2126617431640625,-0.9644927978515624,-0.0119432117789983,-0.0010029464028775,0.0077918767929077
1770453746331,0.083251953125,-0.2113800048828125,-0.971343994140625,-0.0042139198631048,0.0028245486319065,0.0186317414045333
1770453746341,0.078460693359375,-0.2059478759765625,-0.982269287109375,0.0046485476195812,0.0028173581231385,0.0214578881859779
1770453746353,0.0727996826171875,-0.200439453125,-0.987579345703125,0.0087250480428338,-0.0039310920983552,0.0215002316981554
1770453746361,0.0658416748046875,-0.195892333984375,-0.9878692626953124,0.0109746204689145,-0.0146985184401273,0.0139272669330239
1770453746371,0.06243896484375,-0.195281982421875,-0.9861602783203124,0.0152833489701151,-0.0199630558490753,0.0058030281215906
1770453746381,0.059783935546875,-0.1928253173828125,-0.9819488525390624,0.0173395760357379,-0.022650184109807,-0.0026796725578606
1770453746391,0.0573272705078125,-0.1959686279296875,-0.9732513427734376,0.0174405090510845,-0.0222088992595672,-0.0113013898953795
1770453746401,0.060211181640625,-0.2032470703125,-0.9691314697265624,0.0103226788341999,-0.0193185713142156,-0.0054264571517705
1770453746411,0.06982421875,-0.204864501953125,-0.9620819091796876,-0.0030088394414633,-0.0117964716628193,0.0014194648247212
1770453746421,0.070526123046875,-0.206787109375,-0.9570465087890624,-0.0146116996183991,0.0049569415859878,0.0017792579019442
1770453746431,0.07147216796875,-0.204681396484375,-0.961822509765625,-0.018637865781784,0.0170383714139461,0.0064318003132939
1770453746441,0.0709228515625,-0.2035980224609375,-0.9670257568359376,-0.0177049618214368,0.0255266651511192,0.0072579127736389
1770453746451,0.0725860595703125,-0.20477294921875,-0.972869873046875,-0.0097447726875543,0.0260435845702886,0.0072267539799213
1770453746461,0.0708465576171875,-0.2044677734375,-0.9781494140625,-0.0034426683560013,0.0169033501297235,0.0094960331916809
1770453746471,0.0699615478515625,-0.201812744140625,-0.979736328125,0.0015419702976942,0.0086555397137999,0.0096622146666049
1770453746481,0.0673828125,-0.20037841796875,-0.975250244140625,-0.0040658479556441,0.0036567864008247,0.0122255068272352
1770453746491,0.0684356689453125,-0.199737548828125,-0.9733428955078124,-0.0131746577098965,0.0059899818152189,0.0141794681549072
1770453746502,0.0675048828125,-0.1997222900390625,-0.9738006591796876,-0.0131032848730683,0.0138202076777815,0.0162713807076215
1770453746511,0.0667877197265625,-0.20428466796875,-0.97979736328125,-0.0099205411970615,0.0086057391017675,0.0179973766207695
1770453746522,0.066986083984375,-0.205108642578125,-0.984100341796875,0.0009398295660503,0.0012727247085422,0.0154082514345645
1770453746531,0.065521240234375,-0.2040863037109375,-0.9861297607421876,0.0068155620247125,-0.0105141596868634,0.0131901036947965
1770453746542,0.06689453125,-0.201171875,-0.979461669921875,0.0093700662255287,-0.0148324752226471,0.0055106128565967
1770453746553,0.0623321533203125,-0.209381103515625,-0.972198486328125,0.0068408618681132,-0.0078922780230641,0.0100140180438756
1770453746562,0.072052001953125,-0.2233734130859375,-0.969085693359375,0.0041398839093744,-0.0053604105487465,0.0242171883583068
1770453746572,0.0759429931640625,-0.204925537109375,-0.9660186767578124,0.0018133464036509,-0.0007909588166512,0.0087849693372845
1770453746582,0.0592498779296875,-0.185546875,-0.9652252197265624,0.0001653822982916,0.006359894759953,-0.0122364265844225
1770453746592,0.0456390380859375,-0.1750640869140625,-0.9673614501953124,0.0027670243289321,0.0048261806368827,-0.0265152305364608
1770453746602,0.0418548583984375,-0.196258544921875,-0.9760284423828124,0.018794460222125,0.0032439965289086,-0.0329414382576942
1770453746612,0.0499114990234375,-0.1914215087890625,-0.9801177978515624,0.0267812795937061,-0.0086456863209605,-0.0470727048814296
1770453746622,0.0585174560546875,-0.194305419921875,-0.97467041015625,0.0232216995209455,-0.0210176669061183,-0.0429762303829193
1770453746632,0.0674896240234375,-0.2197418212890625,-0.9683685302734376,0.0127906296402215,-0.0068006482906639,-0.020398749038577
1770453746642,0.079559326171875,-0.2237091064453125,-0.968994140625,0.0041505363769829,0.0103415874764323,-0.0128223216161131
1770453746653,0.0794525146484375,-0.2001800537109375,-0.9674072265625,0.0009611348505131,0.0120332268998026,-0.0357910208404064
1770453746662,0.0612640380859375,-0.1709136962890625,-0.96563720703125,-0.0009555422002449,0.0048269792459905,-0.0701434016227722
1770453746673,0.04901123046875,-0.17474365234375,-0.96661376953125,-0.0091801825910806,-0.0033156354911625,-0.0844496339559555
1770453746682,0.05413818359375,-0.1876220703125,-0.9712677001953124,-0.0164756458252668,-0.0051604071632027,-0.0876350402832031
1770453746692,0.0693817138671875,-0.205078125,-0.97576904296875,-0.0182916559278965,-0.0126092685386538,-0.0683023557066917
1770453746703,0.0853118896484375,-0.2140350341796875,-0.9766693115234376,-0.0120412167161703,-0.0026394589804112,-0.0483816489577293
1770453746712,0.0892333984375,-0.218414306640625,-0.97930908203125,-0.0032043154351413,0.0145243480801582,-0.026398317888379
1770453746723,0.088104248046875,-0.2174072265625,-0.978729248046875,0.0005134574603289,0.0179486405104398,-0.0094214649870991
1770453746732,0.086669921875,-0.2122955322265625,-0.97540283203125,-0.0069527146406471,0.0144977159798145,0.006385994143784
1770453746743,0.0887298583984375,-0.2086944580078125,-0.9698638916015624,-0.0252622123807668,0.0114377439022064,0.0125919580459594
1770453746753,0.088714599609375,-0.20440673828125,-0.9612884521484376,-0.04572194814682,0.0200008731335401,0.0057521616108715
1770453746763,0.08209228515625,-0.2025146484375,-0.9549713134765624,-0.0595607981085777,0.0333382487297058,-0.004850149154663
1770453746773,0.076568603515625,-0.19842529296875,-0.95562744140625,-0.0631558001041412,0.0413546301424503,-0.0098108192905783
1770453746783,0.0712432861328125,-0.1914825439453125,-0.962738037109375,-0.0556339658796787,0.0482511520385742,-0.0206102039664983
1770453746793,0.061309814453125,-0.1945648193359375,-0.9758453369140624,-0.0402821749448776,0.0451411120593547,-0.0208253860473632
1770453746803,0.0637359619140625,-0.2007598876953125,-0.9876708984375,-0.0251868460327386,0.0236781649291515,-0.0120372213423252
1770453746813,0.0693511962890625,-0.208709716796875,-0.9927215576171876,-0.0144343329593539,0.0167259834706783,0.0023699470330029
1770453746823,0.072479248046875,-0.202911376953125,-0.9964752197265624,0.0010447581298649,0.0159235727041959,0.0027278759516775
1770453746833,0.0655364990234375,-0.191680908203125,-0.997222900390625,0.0150141036137938,0.0100417155772447,-0.0068224859423935
1770453746843,0.0560150146484375,-0.18756103515625,-0.9929351806640624,0.0240097288042306,0.0039047268219292,-0.0128271151334047
1770453746853,0.05755615234375,-0.1930999755859375,-0.992919921875,0.0260156206786632,-0.0123141901567578,-0.012893428094685
1770453746863,0.0670318603515625,-0.202850341796875,-0.987823486328125,0.0252137444913387,-0.0258933827280998,-0.0160551331937313
1770453746873,0.0752716064453125,-0.20721435546875,-0.9797515869140624,0.0239655207842588,-0.030404245480895,-0.0182964485138654
1770453746883,0.0803375244140625,-0.206268310546875,-0.9675750732421876,0.0235503334552049,-0.0196067243814468,-0.022333001717925
1770453746893,0.0798187255859375,-0.2019500732421875,-0.96051025390625,0.0245761834084987,0.000491619517561,-0.0259551685303449
1770453746903,0.0767974853515625,-0.1957550048828125,-0.9609527587890624,0.0287442971020936,0.0165438223630189,-0.0238339602947235
1770453746913,0.0773162841796875,-0.1959686279296875,-0.9683837890625,0.0340549051761627,0.0152553860098123,-0.0237380862236022
1770453746923,0.077728271484375,-0.19921875,-0.976837158203125,0.0433730408549308,0.0089498190209269,-0.021360682323575
1770453746933,0.0751800537109375,-0.2006683349609375,-0.9857025146484376,0.0504429340362548,-0.0026948526501655,-0.0176309254020452
1770453746943,0.06982421875,-0.1973724365234375,-0.9861907958984376,0.0527436397969722,-0.0158849563449621,-0.0155059890821576
1770453746953,0.0680999755859375,-0.19464111328125,-0.9781646728515624,0.0450039617717266,-0.0305206254124641,-0.0175931081175804
1770453746963,0.0716552734375,-0.1961517333984375,-0.9713134765625,0.0359809026122093,-0.0283677261322736,-0.0158553961664438
1770453746974,0.0726776123046875,-0.1988372802734375,-0.9643707275390624,0.0242384932935237,-0.0161203797906637,-0.019497001543641
1770453746984,0.076019287109375,-0.2008056640625,-0.9582061767578124,0.0139616215601563,0.001325188903138,-0.0159334260970354
1770453746994,0.077880859375,-0.2029266357421875,-0.95635986328125,0.0050168628804385,0.0092190643772482,-0.0138143487274646
1770453747004,0.0791015625,-0.2012176513671875,-0.9554901123046876,-0.0079508675262331,0.0182562358677387,-0.0111240241676568
1770453747014,0.0825958251953125,-0.197265625,-0.9587554931640624,-0.0150644369423389,0.028700353577733,-0.0111653031781315
1770453747024,0.0788116455078125,-0.1987762451171875,-0.9668121337890624,-0.0133192678913474,0.0321709848940372,-0.0102635566145181
1770453747034,0.075897216796875,-0.198883056640625,-0.9741668701171876,-0.0074813519604504,0.0233013276010751,-0.0084416875615715
1770453747044,0.076202392578125,-0.2026214599609375,-0.9773406982421876,0.0009025452891364,0.0066997143439948,-0.0043484093621373
1770453747054,0.0786590576171875,-0.2038116455078125,-0.9788360595703124,0.0001403485948685,-0.0010634001810103,0.0014439659425988
1770453747065,0.0785064697265625,-0.2040557861328125,-0.975189208984375,-0.0036687706597149,0.0047358991578221,-0.0006165218073874
1770453747074,0.0724334716796875,-0.20513916015625,-0.9709320068359376,-0.0090976245701313,0.003343598684296,-0.0001669802004471
1770453747084,0.0718231201171875,-0.205810546875,-0.9658050537109376,-0.0195071212947368,0.000296143523883,0.002977680414915
1770453747094,0.073486328125,-0.2049407958984375,-0.9628448486328124,-0.0286905001848936,0.0051809134893119,-7.909588020993397e-05
1770453747104,0.0713958740234375,-0.20550537109375,-0.9613800048828124,-0.034262366592884,0.0103074982762336,-0.0004561994865071
1770453747114,0.07275390625,-0.2047271728515625,-0.9639434814453124,-0.0376632213592529,0.0094203995540738,0.0036376116331666
1770453747124,0.0738677978515625,-0.2042694091796875,-0.9652862548828124,-0.0395972095429897,0.011339739896357,0.0050136670470237
1770453747134,0.0724639892578125,-0.20440673828125,-0.9709625244140624,-0.034850925207138,0.0112558500841259,0.0128012830391526
1770453747144,0.07391357421875,-0.2166748046875,-0.974639892578125,-0.0344682298600673,0.0098819257691502,0.0276380199939012
1770453747155,0.0803985595703125,-0.2129364013671875,-0.9754486083984376,-0.0345087088644504,0.0154029242694377,0.0247367713600397
1770453747165,0.071624755859375,-0.1882171630859375,-0.974578857421875,-0.0341462530195713,0.0127011481672525,0.0037766287568956
1770453747175,0.055999755859375,-0.1795806884765625,-0.9752197265625,-0.0309163704514503,0.010407100431621,-0.0178996380418539
1770453747186,0.0510406494140625,-0.1943817138671875,-0.9802093505859376,-0.0151342116296291,0.0094702010974287,-0.0212432369589805
1770453747195,0.0597991943359375,-0.203125,-0.9821624755859376,-0.012794891372323,-0.0061114220879971,-0.0308529864996671
1770453747205,0.0693359375,-0.19525146484375,-0.97552490234375,-0.0181837975978851,-0.0184021759778261,-0.0276364218443632
1770453747215,0.073486328125,-0.2110443115234375,-0.966278076171875,-0.0335276015102863,-2.7430558475316506e-05,-0.0046485476195812
1770453747225,0.0843963623046875,-0.2256011962890625,-0.96746826171875,-0.0431448072195053,0.0262989811599254,0.0204919595271348
1770453747235,0.090606689453125,-0.2148590087890625,-0.97509765625,-0.0351894125342369,0.0381633639335632,0.0201742444187402
1770453747245,0.078094482421875,-0.18463134765625,-0.98583984375,-0.0081838937476277,0.0272092502564191,-0.0072914687916636
1770453747255,0.0574951171875,-0.173858642578125,-0.9978485107421876,0.0160021353513002,0.0066152922809123,-0.0326229259371757
1770453747265,0.054168701171875,-0.18402099609375,-1.0046234130859375,0.023233151063323,-0.0245484858751297,-0.0411085560917854
1770453747275,0.06927490234375,-0.1965179443359375,-0.9971923828125,0.0216685440391302,-0.0454130209982395,-0.0373918451368808
1770453747290,0.08306884765625,-0.210540771484375,-0.9845123291015624,0.0183750130236148,-0.0419485159218311,-0.0198658499866724
1770453747295,0.0905609130859375,-0.219451904296875,-0.973876953125,0.0148423295468091,-0.0117325559258461,-0.0021262678783386
1770453747305,0.089996337890625,-0.22491455078125,-0.967254638671875,0.0076339510269463,0.013874003663659,0.0171880424022674
1770453747315,0.0923614501953125,-0.2228240966796875,-0.9601898193359376,-0.0086699211969971,0.0267613064497709,0.0320064015686512
1770453747325,0.0952301025390625,-0.214752197265625,-0.9568634033203124,-0.0086699211969971,0.0267613064497709,0.0320064015686512
1770453747335,0.089019775390625,-0.206634521484375,-0.9561614990234376,-0.0283879656344652,0.0335462428629398,0.0391569882631301
1770453747345,0.080047607421875,-0.1998138427734375,-0.96185302734375,-0.0463238209486007,0.054883487522602,0.023772707208991
1770453747356,0.0682220458984375,-0.1930694580078125,-0.9711151123046876,-0.0388198345899581,0.0526107475161552,0.0129813123494386
1770453747366,0.0638275146484375,-0.1878509521484375,-0.976837158203125,-0.024066986516118,0.042676355689764,0.0015792545164003
1770453747376,0.058349609375,-0.189666748046875,-0.985076904296875,-0.0112987272441387,0.0306625720113515,-0.0042120553553104
1770453747386,0.0607757568359375,-0.196746826171875,-0.9877777099609376,-0.0010932276491075,0.0166085381060838,-0.0015270565636456
1770453747396,0.0689849853515625,-0.205963134765625,-0.98480224609375,0.0034128408879041,0.0140809314325451,0.0127900969237089
1770453747406,0.076080322265625,-0.2106781005859375,-0.9823150634765624,0.00773381954059,0.0199156515300273,0.0175718031823635
1770453747416,0.0742340087890625,-0.20166015625,-0.977081298828125,0.009600163437426,0.0237093232572078,0.0182333327829837
1770453747426,0.0721282958984375,-0.1920166015625,-0.973663330078125,0.0084611289203166,0.0314490012824535,0.0159741733223199
1770453747436,0.06927490234375,-0.191070556640625,-0.9754486083984376,0.0075239627622067,0.0323094688355922,0.0047343014739453
1770453747446,0.071197509765625,-0.198760986328125,-0.9788818359375,0.0074118436314165,0.0152447326108813,0.0023909860756248
1770453747456,0.07611083984375,-0.2009429931640625,-0.9788055419921876,0.0039598541334271,6.125270738266408e-05,-0.0018213358707726
1770453747466,0.0793914794921875,-0.200714111328125,-0.9726715087890624,-0.0065383268520236,-0.0033878071699291,0.0017449031583964
1770453747476,0.0841827392578125,-0.201812744140625,-0.96728515625,-0.014208230189979,0.0110158994793891,0.0061982409097254
1770453747486,0.0861968994140625,-0.202789306640625,-0.96588134765625,-0.0142649561166763,0.0255338549613952,0.0177382510155439
1770453747496,0.08740234375,-0.2050933837890625,-0.9674530029296876,-0.0050155310891568,0.0402882993221282,0.0276611894369125
1770453747506,0.0823516845703125,-0.207122802734375,-0.976409912109375,0.0038000645581632,0.0312620475888252,0.0331672728061676
1770453747516,0.0814971923828125,-0.2075347900390625,-0.97857666015625,0.0087040094658732,0.0164135936647653,0.0385862737894058
1770453747526,0.0796051025390625,-0.204254150390625,-0.97418212890625,0.0047289752401411,0.0082438150420784,0.0350535921752452
1770453747536,0.0758209228515625,-0.199615478515625,-0.9659881591796876,-0.0086283758282661,0.0150093091651797,0.030630612745881
1770453747546,0.073394775390625,-0.197723388671875,-0.95880126953125,-0.0218799989670515,0.0224099680781364,0.0231924038380384
1770453747557,0.0702056884765625,-0.1985931396484375,-0.9568939208984376,-0.0286098066717386,0.0295853223651647,0.01764184422791
1770453747566,0.07147216796875,-0.1994171142578125,-0.9614105224609376,-0.0333030968904495,0.0356235094368457,0.014632205478847
1770453747576,0.0713348388671875,-0.1988067626953125,-0.9661712646484376,-0.0323720537126064,0.043523509055376,0.0100366547703742
1770453747587,0.071380615234375,-0.198516845703125,-0.971893310546875,-0.0304010491818189,0.0408198684453964,0.006934072356671
1770453747597,0.0713348388671875,-0.19635009765625,-0.9780120849609376,-0.0173430368304252,0.034061562269926,0.0068400627933442
1770453747607,0.0690155029296875,-0.1962738037109375,-0.986083984375,-0.0036602485924959,0.025912556797266,0.0017534252256155
1770453747618,0.0679168701171875,-0.196563720703125,-0.989166259765625,0.0039406795985996,0.0154143758118152,-0.0015510249650105
1770453747627,0.071014404296875,-0.194580078125,-0.9866943359375,0.0069503178820014,0.0053167347796261,-0.008338357321918
1770453747637,0.0720672607421875,-0.1945953369140625,-0.9835205078125,0.0106827383860945,0.0014386395923793,-0.0169446282088756
1770453747647,0.074615478515625,-0.196502685546875,-0.9770660400390624,0.0051321778446435,-0.0028770128265023,-0.0200416184961795
1770453747657,0.0808258056640625,-0.1985626220703125,-0.9683074951171876,-0.00471779005602,0.0041998052038252,-0.0196786299347877
1770453747667,0.083892822265625,-0.202789306640625,-0.962677001953125,-0.0113320164382457,0.0250712651759386,-0.0160825625061988
1770453747677,0.0837249755859375,-0.207000732421875,-0.9638519287109376,-0.0122955488041043,0.0363833084702491,-0.0129629364237189
1770453747688,0.0843658447265625,-0.207244873046875,-0.967498779296875,-0.0130910342559218,0.0324807129800319,-0.0076864156872034
1770453747697,0.0850372314453125,-0.207122802734375,-0.971710205078125,-0.0130468262359499,0.0268358755856752,-0.0079005332663655
1770453747707,0.0820770263671875,-0.204986572265625,-0.976165771484375,-0.0142838647589087,0.0139578934758901,-0.0036754286848008
1770453747717,0.0814666748046875,-0.2068023681640625,-0.9759674072265624,-0.0150463273748755,0.0083050681278109,0.0007566040731035
1770453747727,0.082763671875,-0.220672607421875,-0.97576904296875,-0.0223947875201702,0.0128433601930737,0.0113754263147711
1770453747737,0.0876922607421875,-0.2150115966796875,-0.9733428955078124,-0.0207699928432703,0.0123972808942198,0.0061215418390929
1770453747747,0.080841064453125,-0.19122314453125,-0.9680328369140624,-0.0256877858191728,0.0182322673499584,-0.0148958591744303
1770453747757,0.0625762939453125,-0.180999755859375,-0.9657440185546876,-0.0291227307170629,0.0274539943784475,-0.0365249887108802
1770453747767,0.05706787109375,-0.1937103271484375,-0.9731292724609376,-0.0165675245225429,0.0323073379695415,-0.0383713580667972
1770453747777,0.06671142578125,-0.19635009765625,-0.9842681884765624,0.0020700751338154,0.0253538265824317,-0.0553623251616954
1770453747787,0.06793212890625,-0.18182373046875,-0.98626708984375,0.0176863186061382,0.0045926212333142,-0.0650921836495399
1770453747797,0.0675811767578125,-0.211181640625,-0.9820556640625,0.0143131595104932,-0.0080906832590699,-0.0419229492545127
1770453747808,0.08306884765625,-0.2301788330078125,-0.9803009033203124,0.0095402421429753,-0.0065433867275714,-0.0220831986516714
1770453747818,0.09381103515625,-0.21929931640625,-0.9771881103515624,0.0026349315885454,-0.0064270067960023,-0.0264265481382608
1770453747828,0.0853729248046875,-0.185272216796875,-0.9702606201171876,-0.0009222526568919,-0.0026061693206429,-0.0558158606290817
1770453747844,0.0643157958984375,-0.1799774169921875,-0.9681396484375,-0.0092323804274201,-0.0006050702068023,-0.0768329948186874
1770453747848,0.06744384765625,-0.19482421875,-0.9722137451171876,-0.0206842385232448,-0.0041747712530195,-0.0714574083685875
1770453747858,0.0915985107421875,-0.2079620361328125,-0.9808349609375,-0.026853984221816,-0.0040384172461926,-0.0605030246078968
1770453747868,0.1035919189453125,-0.2183685302734375,-0.9908905029296876,-0.0190330799669027,-0.0024695491883903,-0.0485065504908561
1770453747878,0.1035308837890625,-0.2243194580078125,-0.996185302734375,-0.0034296188969165,-0.0057074204087257,-0.0260073654353618
1770453747888,0.10150146484375,-0.2220306396484375,-0.9939727783203124,-0.0011438276851549,-0.013578925281763,-0.0012788499007001
1770453747898,0.1024169921875,-0.2177886962890625,-0.9850921630859376,-0.0062307314947247,-0.0095469001680612,0.014739797450602
1770453747908,0.103424072265625,-0.21197509765625,-0.975341796875,-0.0213969014585018,-0.008795621804893,0.0194416083395481
1770453747918,0.10003662109375,-0.205047607421875,-0.9639892578125,-0.0325917638838291,0.004087686073035,0.0211087465286254
1770453747928,0.08660888671875,-0.201995849609375,-0.953521728515625,-0.0393684431910514,0.0271264258772134,0.0137722715735435
1770453747938,0.0733642578125,-0.1998748779296875,-0.9533538818359376,-0.0388629771769046,0.0228690970689058,0.0067628310061991
1770453747948,0.0608062744140625,-0.193084716796875,-0.954620361328125,-0.0428902097046375,0.006091714836657,0.0003036003618035
1770453747958,0.060882568359375,-0.18707275390625,-0.959808349609375,-0.0481611378490924,-0.004211523104459,-0.0089221224188804
1770453747968,0.0587615966796875,-0.1923828125,-0.9662933349609376,-0.0555242449045181,-0.0016663399292156,-0.0078390147536993
1770453747978,0.0592498779296875,-0.195770263671875,-0.9749908447265624,-0.0534954480826854,0.0071295485831797,-0.0086816390976309
1770453747988,0.0626220703125,-0.1910400390625,-0.9802398681640624,-0.0323225185275077,0.0124955521896481,-0.0132186003029346
1770453747998,0.0622406005859375,-0.1839752197265625,-0.99554443359375,-0.0021901836153119,-0.0022743395529687,-0.024009995162487
1770453748008,0.058013916015625,-0.1793060302734375,-1.0030975341796875,0.0220067650079727,-0.026910975575447,-0.0373359210789203
1770453748018,0.057342529296875,-0.1732025146484375,-0.9996490478515624,0.0377862602472305,-0.042532280087471,-0.0540283471345901
1770453748028,0.06182861328125,-0.178375244140625,-0.99560546875,0.0420414581894874,-0.0565562210977077,-0.0625113174319267
1770453748039,0.073974609375,-0.18060302734375,-0.9869384765625,0.0385497882962226,-0.0580747537314891,-0.0712848305702209
1770453748049,0.08331298828125,-0.1851654052734375,-0.9769439697265624,0.0340519770979881,-0.0396672524511814,-0.0714339688420295
1770453748059,0.091278076171875,-0.191864013671875,-0.9745635986328124,0.0373582914471626,-0.0232768263667821,-0.0641014873981475
1770453748069,0.0975341796875,-0.198822021484375,-0.9753570556640624,0.047787494957447,-0.0197313595563173,-0.0543226264417171
1770453748079,0.09979248046875,-0.204345703125,-0.9775390625,0.0580380037426948,-0.0255921781063079,-0.0405482240021228
1770453748089,0.0990447998046875,-0.2046051025390625,-0.978546142578125,0.0669654533267021,-0.0348274894058704,-0.0284244511276483
1770453748099,0.09967041015625,-0.2046966552734375,-0.97454833984375,0.0681183338165283,-0.0456175506114959,-0.0201350953429937
1770453748109,0.0980377197265625,-0.203887939453125,-0.966583251953125,0.0638700574636459,-0.0510629191994667,-0.014365623705089
1770453748119,0.093780517578125,-0.20220947265625,-0.9597930908203124,0.0500754192471504,-0.0442851744592189,-0.0053438991308212
1770453748129,0.089813232421875,-0.19891357421875,-0.951446533203125,0.030164560303092,-0.0304338056594133,0.0048208539374172
1770453748139,0.0857696533203125,-0.1942596435546875,-0.9484100341796876,0.0043713124468922,-0.0098497010767459,0.0099184103310108
1770453748149,0.081085205078125,-0.18939208984375,-0.950714111328125,-0.0159478075802326,0.0134979654103517,0.0101668834686279
1770453748159,0.0782012939453125,-0.19024658203125,-0.9552154541015624,-0.0317757725715637,0.019433619454503,0.0080786990001797
1770453748170,0.07550048828125,-0.19244384765625,-0.9654541015625,-0.0361987501382827,0.0141744082793593,0.0089474217966198
1770453748179,0.0752105712890625,-0.1949462890625,-0.9753875732421876,-0.0347859449684619,0.0014586133183911,0.0118446750566363
1770453748189,0.0761871337890625,-0.1978607177734375,-0.9812774658203124,-0.0288092773407697,-0.0090725906193256,0.0164412911981344
1770453748199,0.0764923095703125,-0.198760986328125,-0.9820709228515624,-0.026096049696207,-0.0097090862691402,0.0143709499388933
1770453748210,0.073974609375,-0.2001495361328125,-0.9814910888671876,-0.0177198741585016,-0.0077295587398111,0.0108731538057327
1770453748221,0.0727386474609375,-0.1971588134765625,-0.9776763916015624,-0.0078435419127345,-0.0010274475207552,0.0058224690146744
1770453748230,0.0743408203125,-0.196868896484375,-0.97686767578125,-0.0001957423373823,1.5712650565546937e-05,-0.0022538332268595
1770453748240,0.073699951171875,-0.20001220703125,-0.9772796630859376,0.0106976516544818,-0.0052909022197127,-0.0089106708765029
1770453748250,0.076416015625,-0.19805908203125,-0.9759674072265624,0.0209217928349971,-0.0070954598486423,-0.0115999309346079
1770453748260,0.07537841796875,-0.19696044921875,-0.9776153564453124,0.0332386456429958,0.0047710528597235,-0.0149230230599641
1770453748270,0.0744781494140625,-0.1971893310546875,-0.9835357666015624,0.0523108765482902,0.018605375662446,-0.0141688156872987
1770453748280,0.0708160400390625,-0.1970672607421875,-0.99359130859375,0.076952040195465,0.017437046393752,-0.0209241900593042
1770453748290,0.0686492919921875,-0.1963348388671875,-1.0009002685546875,0.0990466922521591,-0.0027491811197251,-0.0293759983032941
1770453748300,0.0681304931640625,-0.1989898681640625,-0.9974212646484376,0.1006264761090278,-0.0232760272920131,-0.030123546719551
1770453748310,0.0759124755859375,-0.2152099609375,-0.9851837158203124,0.0930740162730217,-0.0375021025538444,-0.0168761853128671
1770453748320,0.0885162353515625,-0.2129364013671875,-0.97247314453125,0.0913594737648963,-0.0307437982410192,-0.0178330596536397
1770453748330,0.080718994140625,-0.1929779052734375,-0.96112060546875,0.0870616659522056,-0.0197795629501342,-0.0309651065617799
1770453748340,0.06573486328125,-0.1878204345703125,-0.952056884765625,0.0719018876552581,-0.015819976106286,-0.0405745916068553
1770453748350,0.0628509521484375,-0.20941162109375,-0.9505157470703124,0.0675928890705108,-4.76705827168189e-05,-0.0304324738681316
1770453748360,0.0728607177734375,-0.2044677734375,-0.95849609375,0.0777603089809417,0.0029393308795988,-0.0450534932315349
1770453748370,0.0677947998046875,-0.1925811767578125,-0.958343505859375,0.0728265345096588,-0.0180543679744005,-0.0464681647717952
1770453748380,0.0731048583984375,-0.2264556884765625,-0.949249267578125,0.0471677780151367,-0.0191880762577056,-0.0144881289452314
1770453748390,0.0948486328125,-0.2383575439453125,-0.9464263916015624,0.0173872467130422,-0.0121501395478844,0.0138327246531844
1770453748400,0.1019744873046875,-0.2266693115234375,-0.9439697265625,-0.0085831014439463,-0.0066326027736067,0.0102787362411618
1770453748410,0.0858612060546875,-0.187408447265625,-0.9364013671875,-0.0260688848793506,0.0054275221191346,-0.0224464535713195
1770453748420,0.0546112060546875,-0.172515869140625,-0.9400787353515624,-0.0467467308044433,0.0223255455493927,-0.0480447560548782
1770453748430,0.0532073974609375,-0.182830810546875,-0.94921875,-0.0653843358159065,0.0246962923556566,-0.0625821575522422
1770453748441,0.065399169921875,-0.200531005859375,-0.9650726318359376,-0.0717423632740974,0.0037409423384815,-0.0585615821182727
1770453748450,0.0766143798828125,-0.2137298583984375,-0.9797515869140624,-0.0728510394692421,-0.0212235301733016,-0.041686724871397
1770453748461,0.0856475830078125,-0.219573974609375,-0.9860687255859376,-0.0715855062007904,-0.0241460818797349,-0.0206075403839349
1770453748471,0.09027099609375,-0.2207489013671875,-0.9847412109375,-0.0665987357497215,-0.0052128713577985,-0.0017374462913721
1770453748481,0.0925750732421875,-0.21630859375,-0.9849090576171876,-0.061357632279396,0.0117096528410911,0.0109722232446074
1770453748492,0.0964813232421875,-0.20916748046875,-0.98187255859375,-0.0529132820665836,0.0183007102459669,0.0163464825600385
1770453748501,0.0905609130859375,-0.203765869140625,-0.977630615234375,-0.0441448241472244,0.0302002467215061,0.0150468600913882
1770453748511,0.0897979736328125,-0.20440673828125,-0.9739837646484376,-0.0356711782515049,0.0539646968245506,0.0144364638254046
1770453748521,0.096221923828125,-0.20794677734375,-0.9695587158203124,-0.0274745021015405,0.0588380172848701,0.0184578374028205
1770453748531,0.0899505615234375,-0.2108154296875,-0.9709014892578124,-0.0161741767078638,0.062472965568304,0.0241958834230899
1770453748541,0.0849151611328125,-0.209930419921875,-0.9747161865234376,-0.0090286489576101,0.0584678389132022,0.0276124533265829
1770453748551,0.080047607421875,-0.2084503173828125,-0.977294921875,-0.0003850930952467,0.0383117012679576,0.0241934861987829
1770453748561,0.0742645263671875,-0.212127685546875,-0.9830322265625,0.0026751453988254,0.029239909723401,0.0294889155775308
1770453748571,0.074432373046875,-0.2098388671875,-0.9921417236328124,0.0040522660128772,0.02061153575778,0.0277277678251266
1770453748581,0.0742645263671875,-0.19677734375,-0.9919891357421876,0.0082877576351165,0.0018719359068199,0.0187164302915334
1770453748591,0.069061279296875,-0.19342041015625,-0.986480712890625,0.0062930495478212,-0.0058046258054673,0.0083886906504631
1770453748601,0.0670166015625,-0.189208984375,-0.976776123046875,0.0050999536179006,0.0045643919147551,-0.0029220203869044
1770453748611,0.0660858154296875,-0.190704345703125,-0.9745025634765624,0.0054408381693065,0.0120555972680449,-0.0165257137268781
1770453748621,0.0683441162109375,-0.191925048828125,-0.970550537109375,0.0054312506690621,0.0129213910549879,-0.0228046476840972
1770453748631,0.0734710693359375,-0.1969146728515625,-0.9660186767578124,0.0019571571610867,0.0130955623462796,-0.0274816919118165
1770453748641,0.0777740478515625,-0.2020111083984375,-0.9626007080078124,-0.0052738580852746,0.0179198775440454,-0.0265032462775707
1770453748652,0.083038330078125,-0.200836181640625,-0.9595489501953124,-0.016813600435853,0.019034145399928,-0.0284188576042652
1770453748662,0.083251953125,-0.202728271484375,-0.9565887451171876,-0.0289272554218769,0.0233388785272836,-0.0297925174236297
1770453748672,0.0844879150390625,-0.2054595947265625,-0.951904296875,-0.0430691726505756,0.0316386185586452,-0.0332125462591648
1770453748682,0.087158203125,-0.205230712890625,-0.9520416259765624,-0.0528802573680877,0.0335579589009285,-0.0282050054520368
1770453748692,0.0864715576171875,-0.207550048828125,-0.952545166015625,-0.056611880660057,0.0442835763096809,-0.0225250162184238
1770453748702,0.085174560546875,-0.205718994140625,-0.96148681640625,-0.0538358017802238,0.0555074661970138,-0.0117306914180517
1770453748712,0.084716796875,-0.2024993896484375,-0.973724365234375,-0.045641254633665,0.0547727011144161,-0.0001845570659497
1770453748722,0.08587646484375,-0.2003021240234375,-0.9872283935546876,-0.0375473760068416,0.0376911871135234,0.0069050439633429
1770453748732,0.0882415771484375,-0.198028564453125,-0.99200439453125,-0.0289413705468177,0.0201113931834697,0.0112116420641541
1770453748742,0.08892822265625,-0.1950836181640625,-0.9924774169921876,-0.0246648658066988,0.0131245907396078,0.0172663386911153
1770453748752,0.095489501953125,-0.198028564453125,-0.9888458251953124,-0.0247407667338848,0.0160697810351848,0.0254720710217952
1770453748762,0.095550537109375,-0.2010498046875,-0.9837799072265624,-0.0220019724220037,0.0264891311526298,0.0284785125404596
1770453748772,0.0944671630859375,-0.2049102783203125,-0.9816741943359376,-0.0145741486921906,0.021049091592431,0.0317059978842735
1770453748782,0.09393310546875,-0.20440673828125,-0.977874755859375,-0.0066009107977151,0.0092475600540637,0.0283858347684144
1770453748792,0.089447021484375,-0.203521728515625,-0.9753875732421876,0.0011241203173995,0.0045697181485593,0.028261998668313
1770453748802,0.0873870849609375,-0.201568603515625,-0.9728851318359376,0.0074579161591827,0.0036277580074965,0.0238925497978925
1770453748812,0.0821533203125,-0.20062255859375,-0.970306396484375,0.0120627880096435,0.011209244839847,0.0164974834769964
1770453748822,0.0787353515625,-0.1987762451171875,-0.9727783203125,0.0189657006412744,0.012598349712789,0.0113099124282598
1770453748832,0.07769775390625,-0.196380615234375,-0.9708251953125,0.0187798123806715,0.0091178650036454,0.0051713259890675
1770453748842,0.0769500732421875,-0.196014404296875,-0.9734649658203124,0.0221404563635587,0.006712497677654,-0.0013555489713326
1770453748852,0.0742950439453125,-0.1945648193359375,-0.9773712158203124,0.0310593824833631,-0.002453037770465,-0.0107115004211664
1770453748862,0.0714111328125,-0.19122314453125,-0.9781036376953124,0.0365337766706943,-0.0138497687876224,-0.0179339926689863
1770453748873,0.0716094970703125,-0.1957550048828125,-0.973419189453125,0.0335361212491989,-0.0225774813443422,-0.0176146794110536
1770453748882,0.077178955078125,-0.2111663818359375,-0.967376708984375,0.0293333884328603,-0.0203739814460277,-0.0127000827342271
1770453748893,0.084564208984375,-0.2061920166015625,-0.965484619140625,0.0321017429232597,-0.0179696790874004,-0.021925538778305
1770453748903,0.0772705078125,-0.1856842041015625,-0.9590301513671876,0.0249583460390567,-0.0121775707229971,-0.0465248897671699
1770453748913,0.0624542236328125,-0.176055908203125,-0.9520416259765624,-0.0019592875614762,0.0008394283941015,-0.0658290833234787
1770453748923,0.064422607421875,-0.200042724609375,-0.9555206298828124,-0.0109290806576609,0.0123826339840888,-0.0610074289143085
1770453748933,0.081207275390625,-0.2012481689453125,-0.968414306640625,-0.0030932615045458,0.003630687482655,-0.0732585042715072
1770453748943,0.08099365234375,-0.191253662109375,-0.9738616943359376,0.0018993664998561,-0.0043052663095295,-0.0683468356728553
1770453748953,0.083221435546875,-0.2235107421875,-0.9747314453125,-0.0070624370127916,-0.0080494042485952,-0.0385034494102001
1770453748963,0.1025238037109375,-0.2317962646484375,-0.97479248046875,-0.0059929112903773,-0.0182098969817161,-0.0032408006954938
1770453748973,0.11175537109375,-0.2264251708984375,-0.9727020263671876,-0.002404834376648,-0.0188810136169195,0.0072038508951663
1770453748983,0.09906005859375,-0.187835693359375,-0.9662628173828124,0.0051569449715316,-0.009221994318068,-0.0233292914927005
1770453748993,0.0724639892578125,-0.1673431396484375,-0.95947265625,-0.0006356965750455,-0.0056610815227031,-0.0523793175816535
1770453749003,0.066436767578125,-0.1743316650390625,-0.9581756591796876,-0.0086068036034703,-0.0081053311005234,-0.0630159825086593
1770453749013,0.07598876953125,-0.1952667236328125,-0.9683380126953124,-0.0079918801784515,-0.0115836849436163,-0.0580736882984638
1770453749023,0.0866546630859375,-0.2122344970703125,-0.9793701171875,-0.0004977448261342,-0.0261322688311338,-0.0423799455165863
1770453749033,0.094757080078125,-0.2198333740234375,-0.97894287109375,0.0067188888788223,-0.0327190645039081,-0.0195816904306411
1770453749043,0.0926055908203125,-0.2200775146484375,-0.9737701416015624,0.0036530580837279,-0.0224999822676181,0.0007984156836755
1770453749053,0.090972900390625,-0.21502685546875,-0.9690704345703124,-0.0050232545472681,-0.0085759116336703,0.012918728403747
1770453749064,0.0895538330078125,-0.20941162109375,-0.9654693603515624,-0.0157374180853366,-0.0016900419723242,0.0146029107272624
1770453749074,0.087615966796875,-0.2037811279296875,-0.9688720703125,-0.0241711158305406,-0.0032977922819554,0.0086635295301675
1770453749083,0.082122802734375,-0.19805908203125,-0.972198486328125,-0.0170136038213968,-0.0089791137725114,-0.0051039480604231
1770453749094,0.073638916015625,-0.195831298828125,-0.9782562255859376,-0.0064690844155848,-0.0154316872358322,-0.0177931115031242
1770453749104,0.0731964111328125,-0.1947784423828125,-0.9811859130859376,0.002608299953863,-0.0213388446718454,-0.0269565172493457
1770453749114,0.0744476318359375,-0.1968841552734375,-0.9809112548828124,0.0125818382948637,-0.0191217623651027,-0.0312516614794731
1770453749124,0.0733184814453125,-0.2006072998046875,-0.9846954345703124,0.0319659225642681,-0.0209225919097661,-0.0302023775875568
1770453749134,0.075653076171875,-0.2096099853515625,-0.990478515625,0.0493289344012737,-0.0362653285264968,-0.0206536129117012
1770453749144,0.080596923828125,-0.222076416015625,-0.993560791015625,0.064900703728199,-0.0508535914123058,-0.0163893587887287
1770453749154,0.079437255859375,-0.2125396728515625,-0.99200439453125,0.0776071771979332,-0.065087653696537,-0.0196293611079454
1770453749164,0.073883056640625,-0.20196533203125,-0.979736328125,0.069724753499031,-0.0715876370668411,-0.0223521776497364
1770453749174,0.07061767578125,-0.1981048583984375,-0.967437744140625,0.0508184395730495,-0.0631981417536735,-0.030460437759757
1770453749184,0.07073974609375,-0.1996002197265625,-0.9620361328125,0.0341848693788051,-0.0392672456800937,-0.0344296135008335
1770453749194,0.077117919921875,-0.20391845703125,-0.9612274169921876,0.0238584615290164,-0.0289847794920206,-0.0316937454044818
1770453749204,0.080841064453125,-0.206329345703125,-0.9664764404296876,0.0253090839833021,-0.0259541030973196,-0.0306348744779825
1770453749214,0.0807342529296875,-0.2069854736328125,-0.97314453125,0.0290806535631418,-0.0295504350215196,-0.0287767872214317
1770453749224,0.0804443359375,-0.209869384765625,-0.97589111328125,0.0316402167081832,-0.038361769169569,-0.0241056028753519
1770453749234,0.0792999267578125,-0.210601806640625,-0.974822998046875,0.0321225151419639,-0.0459925271570682,-0.0278300326317548
1770453749244,0.077972412109375,-0.2110748291015625,-0.970611572265625,0.0252446364611387,-0.0535529740154743,-0.0302551072090864
1770453749254,0.07611083984375,-0.2111358642578125,-0.961822509765625,0.0093306507915258,-0.0543404705822467,-0.036429114639759
1770453749264,0.0724334716796875,-0.2127532958984375,-0.95196533203125,-0.0064365938305854,-0.0500232204794883,-0.0358131229877471
1770453749274,0.0727996826171875,-0.2141876220703125,-0.9438629150390624,-0.0314540639519691,-0.0434052646160125,-0.0347718298435211
1770453749285,0.07464599609375,-0.2138519287109375,-0.9386749267578124,-0.0616852007806301,-0.0153430039063096,-0.0306876040995121
1770453749294,0.0770416259765625,-0.2127227783203125,-0.938720703125,-0.0881037563085556,0.0125986160710453,-0.0249048173427581
1770453749304,0.0797576904296875,-0.20819091796875,-0.945526123046875,-0.1075296550989151,0.0253783278167247,-0.0180090945214033
1770453749314,0.077392578125,-0.2043609619140625,-0.959228515625,-0.1099845543503761,0.0228163655847311,-0.0190900713205337
1770453749325,0.0713958740234375,-0.2005615234375,-0.9743804931640624,-0.099163070321083,0.013081713579595,-0.0200133882462978
1770453749335,0.0704345703125,-0.1990509033203125,-0.9877777099609376,-0.0795017480850219,0.0013385047204792,-0.0230477955192327
1770453749345,0.0703277587890625,-0.198455810546875,-0.9935302734375,-0.0565836504101753,-0.0066099655814468,-0.0226861368864774
1770453749355,0.0652923583984375,-0.2006988525390625,-0.998382568359375,-0.0298692155629396,-0.0135062215849757,-0.0256241373717784
1770453749365,0.0635528564453125,-0.2013702392578125,-0.9961700439453124,-0.0090584764257073,-0.0234520621597766,-0.0274550598114728
1770453749375,0.0628814697265625,-0.1972808837890625,-0.98846435546875,-0.0016160061350092,-0.032164592295885,-0.0335438437759876
1770453749385,0.059173583984375,-0.197235107421875,-0.9825439453125,-0.0040418794378638,-0.0395801663398742,-0.0478106662631034
1770453749395,0.059478759765625,-0.1978759765625,-0.9727630615234376,-0.0155960042029619,-0.0516325682401657,-0.0576534420251846
1770453749405,0.062744140625,-0.2047882080078125,-0.9665679931640624,-0.030484139919281,-0.0551047958433628,-0.0630777701735496
1770453749415,0.06890869140625,-0.211273193359375,-0.961151123046875,-0.0437006093561649,-0.0485142730176448,-0.0562776550650596
1770453749425,0.0761260986328125,-0.2139739990234375,-0.9552154541015624,-0.0579621009528636,-0.0352003313601017,-0.0509894154965877
1770453749435,0.0759124755859375,-0.21246337890625,-0.958984375,-0.0612433850765228,-0.0176556929945945,-0.0375090241432189
1770453749445,0.074066162109375,-0.210174560546875,-0.96539306640625,-0.0644074827432632,-0.010995659045875,-0.0303504485636949
1770453749455,0.0758514404296875,-0.2187347412109375,-0.975067138671875,-0.0613480471074581,-0.013587181456387,-0.0173747297376394
1770453749465,0.0822906494140625,-0.206207275390625,-0.9859466552734376,-0.0457062348723411,-0.0164905600249767,-0.0323374345898628
1770453749475,0.07421875,-0.176361083984375,-0.98883056640625,-0.0325076095759868,-0.0224272776395082,-0.0602684020996093
1770453749485,0.05889892578125,-0.1709747314453125,-0.990325927734375,-0.026770094409585,-0.0171257238835096,-0.0757280513644218
1770453749495,0.058563232421875,-0.201873779296875,-1.0002899169921875,-0.0006751113105565,-0.0071402010507881,-0.0665180385112762
1770453749506,0.0731353759765625,-0.1948394775390625,-1.0073089599609375,0.0361074022948741,-0.0259003061801195,-0.0844869241118431
1770453749515,0.0702056884765625,-0.187591552734375,-0.9974212646484376,0.0454074293375015,-0.0361446887254715,-0.0808154866099357
1770453749526,0.08062744140625,-0.2196807861328125,-0.9795989990234376,0.036909282207489,-0.0083250412717461,-0.0447970330715179
1770453749536,0.09637451171875,-0.23486328125,-0.975128173828125,0.0378131605684757,0.0130851753056049,-0.0171821825206279
1770453749546,0.0923004150390625,-0.2215576171875,-0.9793243408203124,0.0513931512832641,0.0160101260989904,-0.0266196262091398
1770453749556,0.0711669921875,-0.1778564453125,-0.9766082763671876,0.0590819604694843,0.006213953718543,-0.0727506354451179
1770453749566,0.0464019775390625,-0.166046142578125,-0.9647674560546876,0.0450452379882335,0.0007177218794822,-0.1071118041872978
1770453749576,0.04449462890625,-0.1782684326171875,-0.960357666015625,0.0279213804751634,-0.005011270288378,-0.1277204155921936
1770453749586,0.05511474609375,-0.19158935546875,-0.962860107421875,0.0110558466985821,-0.0205177925527095,-0.1259033381938934
1770453749596,0.0732421875,-0.2001495361328125,-0.9642791748046876,0.0008578042034059,-0.0180178824812173,-0.1117851212620735
1770453749606,0.0809783935546875,-0.211029052734375,-0.96612548828125,-0.0031124362722039,0.0031779501587152,-0.0891397297382354
1770453749616,0.08428955078125,-0.2158050537109375,-0.9673004150390624,-0.0064965151250362,0.0281171221286058,-0.0681622773408889
1770453749626,0.0872955322265625,-0.216278076171875,-0.9734954833984376,-0.0147451236844062,0.0205731857568025,-0.0479110665619373
1770453749636,0.091888427734375,-0.2150115966796875,-0.970367431640625,-0.0291741304099559,0.0051686628721654,-0.0337877906858921
1770453749646,0.0929107666015625,-0.2073974609375,-0.9644317626953124,-0.0464982613921165,0.0054259244352579,-0.0329459644854068
1770453749656,0.0854034423828125,-0.1999969482421875,-0.9625244140625,-0.057633202522993,0.0140678817406296,-0.0463206283748149
1770453749666,0.077850341796875,-0.1962890625,-0.959625244140625,-0.0612561665475368,0.0238600596785545,-0.0599115379154682
1770453749676,0.0779571533203125,-0.1973724365234375,-0.959381103515625,-0.0661451965570449,0.0192940700799226,-0.0609091557562351
1770453749688,0.07818603515625,-0.1975250244140625,-0.963897705078125,-0.0607613511383533,0.0158495362848043,-0.053373210132122
1770453749696,0.08416748046875,-0.200592041015625,-0.9755401611328124,-0.0491632856428623,0.0139416484162211,-0.0439421571791172
1770453749706,0.0807952880859375,-0.2050018310546875,-0.984283447265625,-0.0374046303331851,0.0179758053272962,-0.0257714092731475
1770453749716,0.0831298828125,-0.1990814208984375,-0.990264892578125,-0.0124129941686987,0.0287173986434936,-0.0103596961125731
1770453749726,0.0823516845703125,-0.1933135986328125,-1.0049285888671875,0.0195835549384355,0.0191902052611112,-0.0116550577804446
1770453749737,0.0691680908203125,-0.18780517578125,-1.0082855224609375,0.048576857894659,-0.004008057527244,-0.0149390017613768
1770453749747,0.063323974609375,-0.1813507080078125,-1.0081939697265625,0.0651568993926048,-0.0228158328682184,-0.0295456424355506
1770453749757,0.0625762939453125,-0.1855621337890625,-0.9982452392578124,0.0625129118561744,-0.0429828874766826,-0.0363004840910434
1770453749767,0.073699951171875,-0.1917724609375,-0.9820404052734376,0.0488125458359718,-0.0554558001458644,-0.0412539616227149
1770453749777,0.0807342529296875,-0.195404052734375,-0.9641876220703124,0.0323757827281951,-0.0372166112065315,-0.0388248935341835
1770453749787,0.0834808349609375,-0.1994781494140625,-0.9550628662109376,0.0164317041635513,-0.0099282646551728,-0.0335672795772552
1770453749797,0.0874481201171875,-0.202362060546875,-0.94940185546875,0.0061351242475211,0.0145403267815709,-0.0235340874642133
1770453749807,0.08734130859375,-0.2054595947265625,-0.9525146484375,-0.0038725025951862,0.0228640362620353,-0.0103181516751647
1770453749817,0.0910491943359375,-0.2065582275390625,-0.9593048095703124,-0.0075585837475955,0.0246038790792226,9.667274571256712e-05
1770453749827,0.0905609130859375,-0.20574951171875,-0.9688720703125,-0.0093468967825174,0.0238909516483545,0.0061026336625218
1770453749837,0.0860137939453125,-0.2042694091796875,-0.9750823974609376,-0.0072866748087108,0.0178008340299129,0.0085388934239745
1770453749847,0.0834808349609375,-0.203155517578125,-0.9792633056640624,-0.0039396141655743,0.011576228775084,0.0075934710912406
1770453749857,0.07867431640625,-0.2022857666015625,-0.9814910888671876,0.0032096416689455,0.0080304956063628,0.0043183155357837
1770453749867,0.0742645263671875,-0.1996307373046875,-0.979827880859375,0.0071686971932649,0.0039654467254877,-0.0035646411124616
1770453749877,0.0706939697265625,-0.1981353759765625,-0.9786529541015624,0.0068350029177963,0.0031920648179948,-0.0066318036988377
1770453749888,0.0689544677734375,-0.19378662109375,-0.9748687744140624,0.0048136636614799,0.0081953452900052,-0.0135714691132307
1770453749897,0.069244384765625,-0.194366455078125,-0.9766998291015624,0.0016466324450448,0.0116744991391897,-0.0234669763594865
1770453749907,0.0694580078125,-0.1964263916015625,-0.9794158935546876,0.0039105857722461,0.0041627869941294,-0.0325566120445728
1770453749918,0.0696258544921875,-0.20037841796875,-0.9822540283203124,0.0113935358822345,-0.0070437947288155,-0.0298298001289367
1770453749927,0.0733642578125,-0.199310302734375,-0.980010986328125,0.0188402663916349,-0.0146633647382259,-0.0314982719719409
1770453749938,0.0748748779296875,-0.1990814208984375,-0.9794158935546876,0.0271368119865655,-0.0160793680697679,-0.0279165860265493
1770453749947,0.07733154296875,-0.1952362060546875,-0.9778900146484376,0.0361726507544517,-0.0073849456384778,-0.029062544927001
1770453749958,0.07562255859375,-0.193267822265625,-0.9762115478515624,0.0439544096589088,-0.0060853231698274,-0.035353198647499
1770453749968,0.0741424560546875,-0.1915435791015625,-0.9728851318359376,0.0490173436701297,-0.0167928282171487,-0.0388193018734455
1770453749978,0.075225830078125,-0.192626953125,-0.969573974609375,0.0423253513872623,-0.0269400049000978,-0.0399372950196266
1770453749988,0.0780181884765625,-0.194244384765625,-0.9639129638671876,0.0303155612200498,-0.0247218571603298,-0.0392422117292881
1770453749998,0.0802154541015625,-0.197021484375,-0.961273193359375,0.0206501502543687,-0.0119354892522096,-0.040204145014286
1770453750008,0.07769775390625,-0.204071044921875,-0.965667724609375,0.0153714995831251,-0.0116281602531671,-0.0372704081237316
1770453750018,0.0822906494140625,-0.20849609375,-0.968963623046875,0.0098070902749896,-0.0208733230829238,-0.0205849036574363
1770453750028,0.08929443359375,-0.2219696044921875,-0.972259521484375,0.0008380967774428,-0.0163470152765512,0.0075130434706807
1770453750038,0.093170166015625,-0.2098388671875,-0.9724578857421876,-0.000932372699026,-0.0169230569154024,0.0065127601847052
1770453750048,0.07830810546875,-0.1807861328125,-0.97052001953125,-0.0062371231615543,-0.0271184369921684,-0.0058118165470659
1770453750058,0.067901611328125,-0.17327880859375,-0.9710693359375,-0.00952426251024,-0.0152758918702602,-0.0117780957370996
1770453750068,0.0680084228515625,-0.198272705078125,-0.9817352294921876,0.0059343217872083,-0.0015813850332051,-0.0076302229426801
1770453750078,0.0774993896484375,-0.190887451171875,-0.981781005859375,0.0242680553346872,-0.0131890391930937,-0.0219601597636938
1770453750088,0.07794189453125,-0.199676513671875,-0.976318359375,0.0291823856532573,-0.0320873633027076,-0.0097572896629571
1770453750098,0.088104248046875,-0.2248992919921875,-0.9671478271484376,0.0210621412843465,-0.0231210310012102,0.0258270688354969
1770453750108,0.09832763671875,-0.2316131591796875,-0.9642791748046876,0.0097367828711867,-0.0066019762307405,0.0396246425807476
1770453750118,0.096099853515625,-0.20880126953125,-0.9627838134765624,0.0106438556686043,0.0072406022809445,0.0176615510135889
1770453750128,0.06964111328125,-0.1767120361328125,-0.964111328125,0.017454357817769,0.0074222297407686,-0.0105615640059113
1770453750139,0.0503997802734375,-0.1741790771484375,-0.9713592529296876,0.0227639023214578,-0.0008088020258583,-0.0340724810957908
1770453750148,0.049530029296875,-0.1875152587890625,-0.982879638671875,0.030403446406126,-0.0258837956935167,-0.0465914718806743
1770453750159,0.061126708984375,-0.2026519775390625,-0.98822021484375,0.0370150096714496,-0.0535593666136264,-0.0448151417076587
1770453750169,0.072845458984375,-0.214080810546875,-0.982421875,0.0379263423383235,-0.0620961263775825,-0.0324902981519699
1770453750179,0.081268310546875,-0.2167510986328125,-0.9686431884765624,0.0296015683561563,-0.0431328229606151,-0.0096928412094712
1770453750189,0.0852813720703125,-0.216583251953125,-0.959503173828125,0.0179486405104398,-0.0097913779318332,0.0076848175376653
1770453750199,0.08575439453125,-0.2200775146484375,-0.9609375,0.0063841296359896,-0.0054493602365255,0.0258795339614152
1770453750209,0.0911407470703125,-0.2189178466796875,-0.959716796875,-0.0046839676797389,-0.016202937811613,0.0367545522749424
1770453750219,0.0863494873046875,-0.2099761962890625,-0.96099853515625,-0.0110965929925441,-0.0253210682421922,0.0339273400604724
1770453750229,0.0763397216796875,-0.2026214599609375,-0.963165283203125,-0.0181782040745019,-0.0275005996227264,0.0237189121544361
1770453750239,0.0708465576171875,-0.1992034912109375,-0.9618377685546876,-0.0252773929387331,-0.0222073011100292,0.0093690007925033
1770453750249,0.0697021484375,-0.2023468017578125,-0.96527099609375,-0.029577599838376,-0.0220059659332036,0.0055020907893776
1770453750259,0.070587158203125,-0.208343505859375,-0.9693450927734376,-0.0323552750051021,-0.029203426092863,0.0070605725049972
1770453750269,0.074859619140625,-0.2168731689453125,-0.9730682373046876,-0.0306979920715093,-0.0410286597907543,0.0110169649124145
1770453750279,0.0724334716796875,-0.2187347412109375,-0.974090576171875,-0.0283642634749412,-0.0435741096735,0.0192250926047563
1770453750289,0.0722503662109375,-0.2218170166015625,-0.9730224609375,-0.0280657224357128,-0.0449578873813152,0.0289427023380994
1770453750299,0.07000732421875,-0.207366943359375,-0.96990966796875,-0.0290265921503305,-0.0424489229917526,0.0295704081654548
1770453750309,0.059844970703125,-0.197021484375,-0.969207763671875,-0.0344583764672279,-0.0350192375481128,0.0230563171207904
1770453750319,0.0541229248046875,-0.193756103515625,-0.97161865234375,-0.0291070193052291,-0.0312519297003746,0.0189641043543815
1770453750329,0.0512847900390625,-0.1952667236328125,-0.9786376953125,-0.0153709668666124,-0.0375215411186218,0.0127325728535652
1770453750339,0.053924560546875,-0.1986541748046875,-0.986297607421875,-0.0037009948864579,-0.0508027262985706,0.0012817793758586
1770453750349,0.0528106689453125,-0.201171875,-0.9861907958984376,0.0076491311192512,-0.0640498250722885,-0.0088992193341255
1770453750359,0.0566558837890625,-0.1992034912109375,-0.98016357421875,0.0126028768718242,-0.0679870396852493,-0.0173225309699773
1770453750369,0.05743408203125,-0.20123291015625,-0.972503662109375,0.0088994856923818,-0.0635595321655273,-0.0248273182660341
1770453750380,0.0594024658203125,-0.204742431640625,-0.969329833984375,0.0104702180251479,-0.0545671060681343,-0.0271133761852979
1770453750390,0.0631866455078125,-0.20880126953125,-0.9716033935546876,0.0104726143181324,-0.0473616570234298,-0.0259506404399871
1770453750400,0.0663604736328125,-0.212371826171875,-0.979949951171875,0.0155845526605844,-0.0430803596973419,-0.0187654327601194
1770453750410,0.069122314453125,-0.2112274169921875,-0.9859619140625,0.0218344591557979,-0.0449834540486335,-0.0126252472400665
1770453750420,0.0694732666015625,-0.20843505859375,-0.9904327392578124,0.0282337684184312,-0.0416419841349124,-0.0104350643232464
1770453750430,0.0675506591796875,-0.206298828125,-0.991241455078125,0.0410670079290866,-0.0423437282443046,-0.0145528437569737
1770453750440,0.0682373046875,-0.2044219970703125,-0.990570068359375,0.0496248118579387,-0.0599922314286232,-0.0184037741273641
1770453750450,0.0681610107421875,-0.2059326171875,-0.98150634765625,0.0489193387329578,-0.0732563734054565,-0.0205939579755067
1770453750460,0.068695068359375,-0.2099456787109375,-0.96551513671875,0.0330415740609169,-0.0680448338389396,-0.0201015397906303
1770453750470,0.0677032470703125,-0.2168121337890625,-0.953033447265625,0.0072147697210311,-0.0441059432923793,-0.0197268333286046
1770453750480,0.06561279296875,-0.2207489013671875,-0.94659423828125,-0.0239452794194221,-0.0219527035951614,-0.0211710650473833
1770453750490,0.0633697509765625,-0.2186279296875,-0.942840576171875,-0.0506506599485874,-0.0117610516026616,-0.0104068340733647
1770453750500,0.0643157958984375,-0.2143707275390625,-0.9491119384765624,-0.0673801079392433,0.0183502454310655,-0.009370332583785
1770453750510,0.0523223876953125,-0.21978759765625,-0.9717864990234376,-0.0683034211397171,0.021360682323575,-0.0076203690841794
1770453750520,0.0507965087890625,-0.2160491943359375,-0.988037109375,-0.0600391030311584,0.0143634928390383,-0.0050264503806829
1770453750530,0.045928955078125,-0.2041473388671875,-1.0000457763671875,-0.0477078668773174,0.0108254831284284,-0.0139211416244506
1770453750540,0.0440216064453125,-0.1960296630859375,-1.005859375,-0.0317012034356594,-0.0006687197601422,-0.0240134578198194
1770453750550,0.04754638671875,-0.192169189453125,-1.005828857421875,-0.0123962154611945,-0.0062304651364684,-0.0379015766084194
1770453750560,0.05108642578125,-0.1928253173828125,-1.0017242431640625,0.0108646322041749,0.007702394388616,-0.0431147143244743
1770453750571,0.05914306640625,-0.1961822509765625,-1.0018157958984375,0.0400438234210014,0.0014034858904778,-0.0433019325137138
1770453750580,0.063995361328125,-0.2077484130859375,-1.0001678466796875,0.0720859095454216,-0.0091761881485581,-0.0393806956708431
1770453750591,0.063995361328125,-0.2217254638671875,-0.9944915771484376,0.0907605290412902,-0.0158340912312269,-0.0238627213984727
1770453750601,0.075164794921875,-0.23480224609375,-0.9831695556640624,0.0891498476266861,-0.0187334734946489,-0.0108526479452848
1770453750611,0.081268310546875,-0.214691162109375,-0.96966552734375,0.0788024067878723,-0.0125831700861454,-0.0219732094556093
1770453750622,0.0679779052734375,-0.19915771484375,-0.9590606689453124,0.0574555695056915,7.723167072981596e-05,-0.0329187996685504
1770453750631,0.055084228515625,-0.202178955078125,-0.95745849609375,0.0507523939013481,0.0217170137912035,-0.0330639444291591
1770453750641,0.05340576171875,-0.2084503173828125,-0.9647674560546876,0.0482748560607433,0.0327116064727306,-0.0339473150670528
1770453750651,0.0576019287109375,-0.1881866455078125,-0.968475341796875,0.0500162951648235,0.0236251689493656,-0.0473882891237735
1770453750661,0.05462646484375,-0.194793701171875,-0.9721221923828124,0.0471230372786521,0.0168889686465263,-0.0326221249997615
1770453750671,0.061553955078125,-0.2222442626953125,-0.9756622314453124,0.0475352928042411,0.0143738789483904,0.0018916432745754
1770453750681,0.0781402587890625,-0.2310638427734375,-0.9812774658203124,0.0496120266616344,0.0024626250378787,0.0145403267815709
1770453750691,0.07806396484375,-0.2069854736328125,-0.9818267822265624,0.0626652464270591,-0.0165097340941429,-0.0108449244871735
1770453750701,0.058197021484375,-0.1838836669921875,-0.97027587890625,0.0636503472924232,-0.0340317375957965,-0.0427109785377979
1770453750711,0.04656982421875,-0.1847686767578125,-0.95257568359375,0.0433224402368068,-0.0234073214232921,-0.0578627660870552
1770453750722,0.0555877685546875,-0.200469970703125,-0.9419097900390624,0.0113924704492092,0.00351750315167,-0.0565876439213752
1770453750731,0.0683135986328125,-0.2211456298828125,-0.941009521484375,-0.012246279977262,0.0303885322064161,-0.0411040261387825
1770453750741,0.07159423828125,-0.2348480224609375,-0.9532012939453124,-0.0244283769279718,0.0409335829317569,-0.0208094082772731
1770453750751,0.07855224609375,-0.235107421875,-0.96649169921875,-0.030084665864706,0.036007534712553,-0.0029222867451608
1770453750761,0.076202392578125,-0.2307281494140625,-0.973602294921875,-0.0325539484620094,0.0340610295534133,0.0072123729623854
1770453750771,0.068511962890625,-0.220703125,-0.9818115234375,-0.0330077521502971,0.0377417877316474,0.0082488749176263
1770453750781,0.0657196044921875,-0.211273193359375,-0.9852752685546876,-0.0307754892855882,0.0371625497937202,-0.0015259912470355
1770453750791,0.0638885498046875,-0.2081298828125,-0.9858551025390624,-0.0235684420913457,0.0276995375752449,-0.0079197082668542
1770453750801,0.0602874755859375,-0.2060699462890625,-0.982147216796875,-0.0097114834934473,0.0295736044645309,-0.0185933914035558
1770453750812,0.0554962158203125,-0.206695556640625,-0.9798431396484376,0.0036581179592758,0.0341824702918529,-0.0272904764860868
1770453750822,0.0592041015625,-0.2107696533203125,-0.977691650390625,0.0180841945111751,0.0346530526876449,-0.0236560609191656
1770453750832,0.0618896484375,-0.2162017822265625,-0.9763641357421876,0.0265802107751369,0.0398163869976997,-0.0186850037425756
1770453750842,0.06103515625,-0.221038818359375,-0.976531982421875,0.0351438708603382,0.0427429378032684,-0.0069159627892076
1770453750852,0.06146240234375,-0.227813720703125,-0.9777679443359376,0.0425535850226879,0.0359825007617473,0.0061788000166416
1770453750862,0.0639190673828125,-0.225128173828125,-0.97857666015625,0.0491992384195327,0.030943002551794,0.0109519837424159
1770453750872,0.062591552734375,-0.21136474609375,-0.977020263671875,0.0478543415665626,0.0305805467069149,0.0054677361622452
1770453750882,0.0510711669921875,-0.204833984375,-0.974334716796875,0.046878557652235,0.0318828299641609,-0.0034213629551231
1770453750892,0.0449981689453125,-0.2000579833984375,-0.974578857421875,0.0475560687482357,0.0288862437009811,-0.0166330393403768
1770453750902,0.045196533203125,-0.200225830078125,-0.9753265380859376,0.0485872440040111,0.0168207921087741,-0.0234954729676246
1770453750912,0.0487823486328125,-0.2044677734375,-0.9752197265625,0.0505342818796634,-0.0003579288604669,-0.024011593312025
1770453750922,0.0520172119140625,-0.211029052734375,-0.970306396484375,0.0460487194359302,-0.0093112103641033,-0.0194583870470523
1770453750932,0.0571136474609375,-0.2120819091796875,-0.96221923828125,0.0378307364881038,-0.0102635566145181,-0.0118928784504532
1770453750942,0.0585784912109375,-0.2120361328125,-0.95489501953125,0.024461667984724,-0.0030200246255844,-0.0091444961726665
1770453750953,0.0584869384765625,-0.21368408203125,-0.9486541748046876,0.0073955981060862,0.004171042703092,-0.0060347230173647
1770453750962,0.0638427734375,-0.213623046875,-0.9421234130859376,-0.0202530734241008,0.0093729952350258,0.0007582019316032
1770453750973,0.0693511962890625,-0.2165985107421875,-0.9415435791015624,-0.039300799369812,0.0202581342309713,0.0063620256260037
1770453750982,0.0704803466796875,-0.22088623046875,-0.9460296630859376,-0.056705355644226,0.0260622277855873,0.014241786673665
1770453750993,0.0726318359375,-0.2182159423828125,-0.95050048828125,-0.0650431811809539,0.0342144295573234,0.0236621852964162
1770453751002,0.071441650390625,-0.2182159423828125,-0.958984375,-0.0671659857034683,0.0337126888334751,0.0250941682606935
1770453751012,0.0702362060546875,-0.2183990478515625,-0.9677581787109376,-0.0632186532020568,0.0208203271031379,0.0309019889682531
1770453751023,0.069122314453125,-0.2126312255859375,-0.9730377197265624,-0.062163770198822,0.0137128829956054,0.0310263596475124
1770453751033,0.062957763671875,-0.2111968994140625,-0.977447509765625,-0.0540240854024887,0.0162207819521427,0.0293709374964237
1770453751043,0.059814453125,-0.2135009765625,-0.9819183349609376,-0.0456178188323974,0.0084187844768166,0.0321430228650569
1770453751053,0.05999755859375,-0.2119598388671875,-0.9835357666015624,-0.035581961274147,0.0065796058624982,0.0322892293334007
1770453751063,0.0541534423828125,-0.2108612060546875,-0.986175537109375,-0.0276073925197124,0.0054301852360367,0.0280119273811578
1770453751073,0.0526580810546875,-0.21099853515625,-0.9835052490234376,-0.0235189087688922,-0.0054280548356473,0.0287251211702823
1770453751083,0.05633544921875,-0.2095947265625,-0.9800872802734376,-0.0190293509513139,-0.0018226674292236,0.0257405173033475
1770453751093,0.0545806884765625,-0.207489013671875,-0.983612060546875,-0.0120361568406224,0.0036277580074965,0.0150742903351783
1770453751103,0.050689697265625,-0.2102203369140625,-0.9858551025390624,-0.0013315805699676,0.0047593349590897,0.00491379853338
1770453751113,0.048797607421875,-0.210357666015625,-0.9882354736328124,0.0060736052691936,-0.0120084593072533,-0.000205596035812
1770453751123,0.0532989501953125,-0.213226318359375,-0.9837646484375,0.0078680431470274,-0.0268590450286865,-0.0082233091816306
1770453751133,0.0584869384765625,-0.215362548828125,-0.9767303466796876,0.0064227455295622,-0.0362117998301982,-0.0145097002387046
1770453751143,0.0611114501953125,-0.216766357421875,-0.9683990478515624,0.0040059266611933,-0.0322937592864036,-0.0146915940567851
1770453751153,0.0637664794921875,-0.22308349609375,-0.9586181640625,-0.0062195463106036,-0.0210653375834226,-0.0013944311067461
1770453751163,0.072113037109375,-0.23779296875,-0.9537353515625,-0.0186208225786685,-0.0060411146841943,0.0167821757495403
1770453751173,0.077667236328125,-0.222381591796875,-0.9525909423828124,-0.0247189290821552,0.0052536176517605,0.0166151951998472
1770453751183,0.0674591064453125,-0.2011260986328125,-0.954345703125,-0.034143853932619,0.0154082514345645,0.0059348545037209
1770453751193,0.0548553466796875,-0.1934967041015625,-0.960784912109375,-0.0416505075991153,0.0256608892232179,0.0031696942169219
1770453751203,0.054290771484375,-0.208282470703125,-0.97705078125,-0.0257248040288686,0.0360690541565418,-0.0037659760564565
1770453751213,0.0596466064453125,-0.1844635009765625,-0.989837646484375,-0.0054259244352579,0.0158679131418466,-0.0310924053192138
1770453751224,0.046295166015625,-0.1877899169921875,-0.98870849609375,0.009891246445477,-0.0005984122981317,-0.0247229225933551
1770453751233,0.054290771484375,-0.222869873046875,-0.9837799072265624,0.0079572591930627,-0.0108640994876623,0.0115405423566699
1770453751244,0.0789031982421875,-0.241912841796875,-0.9765472412109376,-0.0028993834275752,-0.015717975795269,0.0354634523391723
1770453751254,0.087188720703125,-0.2242279052734375,-0.9686279296875,-0.0152998603880405,-0.0119783654808998,0.0224203541874885
1770453751264,0.0671234130859375,-0.1876068115234375,-0.953033447265625,-0.0284529458731412,0.0151097103953361,-0.0066248793154954
1770453751274,0.043487548828125,-0.18585205078125,-0.947906494140625,-0.0430507957935333,0.0339558348059654,-0.0283184573054313
1770453751284,0.041412353515625,-0.195404052734375,-0.95880126953125,-0.0485241264104843,0.0330868475139141,-0.035740952938795
1770453751294,0.0541534423828125,-0.2054443359375,-0.975006103515625,-0.0374040976166725,0.0179832614958286,-0.0362176597118377
1770453751304,0.0643768310546875,-0.21673583984375,-0.98577880859375,-0.0223649609833955,0.0125094000250101,-0.0278587955981493
1770453751314,0.0659637451171875,-0.219757080078125,-0.988067626953125,-0.0060147494077682,0.0088989529758691,-0.0109333414584398
1770453751324,0.068756103515625,-0.2171630859375,-0.9875640869140624,0.000629837566521,0.006458964664489,0.0005012069013901
1770453751334,0.06964111328125,-0.2149658203125,-0.9811248779296876,-0.0012402341235429,0.0091530187055468,0.0084821684285998
1770453751344,0.0690460205078125,-0.2129974365234375,-0.976226806640625,-0.0017395768081769,0.0207135342061519,0.0078347539529204
1770453751354,0.06640625,-0.21038818359375,-0.9734039306640624,-0.0010618022643029,0.0286617390811443,0.0016660735709592
1770453751364,0.0643157958984375,-0.207366943359375,-0.9744415283203124,0.0009054747642949,0.0259506404399871,-0.0062658851966261
1770453751374,0.062225341796875,-0.208709716796875,-0.9756011962890624,0.0012650014832615,0.0178572945296764,-0.0166130643337965
1770453751384,0.06243896484375,-0.2126922607421875,-0.9724578857421876,-0.0013009541435167,0.0054016895592212,-0.0202083326876163
1770453751394,0.067962646484375,-0.2164154052734375,-0.97052001953125,-0.0044695832766592,-0.0017289242241531,-0.0167432930320501
1770453751404,0.071685791015625,-0.2198638916015625,-0.9686279296875,-0.011969044804573,0.0043348274193704,-0.006679474376142
1770453751414,0.0723876953125,-0.22540283203125,-0.96868896484375,-0.0136167425662279,0.0216395147144794,0.0073218285106122
1770453751425,0.0684814453125,-0.22576904296875,-0.9737548828125,-0.0079665798693895,0.0269914045929908,0.0156990680843591
1770453751434,0.0665283203125,-0.2129058837890625,-0.9788970947265624,0.0012889700010418,0.0176639482378959,0.014806643128395
1770453751445,0.0615234375,-0.203887939453125,-0.9801177978515624,0.0037305559962987,0.0056637446396052,0.0081894863396883
1770453751456,0.0601043701171875,-0.196380615234375,-0.9820098876953124,0.005281048361212,-0.0094651412218809,-0.0019105518003925
1770453751465,0.0557708740234375,-0.2009429931640625,-0.9806365966796876,0.0060911821201443,-0.0084619279950857,-0.0108763501048088
1770453751475,0.0582275390625,-0.204803466796875,-0.97906494140625,0.0048434911295771,-0.0137163447216153,-0.0158237032592296
1770453751485,0.06719970703125,-0.20855712890625,-0.97052001953125,0.0035550536122173,-0.0055822520516812,-0.0100262686610221
1770453751495,0.072296142578125,-0.2130584716796875,-0.9658660888671876,0.0008559399866499,0.0086763128638267,-0.0055292551405727
1770453751505,0.0715789794921875,-0.2146148681640625,-0.9658355712890624,0.0023031015880405,0.0164958853274583,-0.0023193468805402
1770453751515,0.0716552734375,-0.2162017822265625,-0.9686431884765624,0.0021941782906651,0.0115453358739614,0.0037177728954702
1770453751525,0.0719757080078125,-0.2132110595703125,-0.9667816162109376,-0.0011076086666435,0.0123120602220296,-0.000801345158834
1770453751535,0.07171630859375,-0.2127685546875,-0.9668426513671876,-0.01016182359308,0.0095186699181795,-0.0031321437563747
1770453751545,0.0717620849609375,-0.2126312255859375,-0.963775634765625,-0.0187222883105278,0.0200264379382133,0.0004804342461284
1770453751555,0.068939208984375,-0.212890625,-0.9617462158203124,-0.022540995851159,0.0409053564071655,-0.000316117220791
1770453751565,0.0677947998046875,-0.210723876953125,-0.9658355712890624,-0.0213047564029693,0.0395689792931079,-0.0020903151016682
1770453751575,0.0693359375,-0.2108001708984375,-0.9700164794921876,-0.016389625146985,0.0267687626183033,-0.006286125164479
1770453751585,0.06744384765625,-0.2108612060546875,-0.9749755859375,-0.0148306116461753,0.0143075669184327,-0.0103410547599196
1770453751595,0.065216064453125,-0.2088470458984375,-0.9748687744140624,-0.0119000691920518,0.0068491175770759,-0.0065567027777433
1770453751606,0.0677642822265625,-0.20770263671875,-0.9723052978515624,-0.0106188217177987,0.0144465835765004,-0.002773682354018
1770453751615,0.0668792724609375,-0.2105712890625,-0.97601318359375,-0.004464257042855,0.0237404834479093,0.0057889129966497
1770453751625,0.068389892578125,-0.2090606689453125,-0.978424072265625,-0.0008849684381857,0.0252041555941104,0.0072760223411023
1770453751635,0.06939697265625,-0.2077484130859375,-0.9813385009765624,0.0061766696162521,0.0122398883104324,0.0067889303900301
1770453751646,0.06585693359375,-0.2060394287109375,-0.9823455810546876,0.011151454411447,0.0041521345265209,0.0037252297624945
1770453751655,0.0681915283203125,-0.2048187255859375,-0.9797210693359376,0.0144487144425511,-0.0032618397381156,0.0006823018775321
1770453751666,0.0704345703125,-0.2054443359375,-0.972198486328125,0.0118694426491856,-0.0035561190452426,-0.0093391733244061
1770453751676,0.070159912109375,-0.20989990234375,-0.964508056640625,0.006548979319632,-0.0023909860756248,-0.0101897865533828
1770453751686,0.076507568359375,-0.2126312255859375,-0.9553070068359376,-0.0040037962608039,0.0042011365294456,-0.0025441178586333
1770453751696,0.076080322265625,-0.2151947021484375,-0.952545166015625,-0.0148902665823698,0.0154005279764533,-0.0014860439114272
1770453751706,0.0720977783203125,-0.215789794921875,-0.954193115234375,-0.0237234383821487,0.0233343504369258,0.0046474821865558
1770453751716,0.0733795166015625,-0.220672607421875,-0.956298828125,-0.0388667061924934,0.0298098269850015,0.0198104567825794
1770453751726,0.0807037353515625,-0.2297210693359375,-0.96282958984375,-0.0398547388613224,0.0474740415811538,0.0291128773242235
1770453751736,0.0849761962890625,-0.209930419921875,-0.9719390869140624,-0.0282095335423946,0.0429730340838432,0.0175172090530395
1770453751746,0.069305419921875,-0.193267822265625,-0.9796142578125,-0.0231228955090045,0.023953802883625,0.0008309062686748
1770453751758,0.058990478515625,-0.2029571533203125,-0.984527587890625,-0.0247349068522453,0.0196935441344976,0.0034618431236594
1770453751766,0.06939697265625,-0.222137451171875,-0.9909210205078124,0.0006673881434835,0.0109466575086116,0.0007539408979937
1770453751776,0.0699615478515625,-0.1838226318359375,-0.9870758056640624,0.0207284484058618,0.0039526638574898,-0.0215641483664512
1770453751786,0.0599517822265625,-0.2068023681640625,-0.9779815673828124,0.0181065648794174,0.0045412224717438,0.0023017700295895
1770453751796,0.0805206298828125,-0.242401123046875,-0.97027587890625,0.010120278224349,0.0174855161458253,0.0405655354261398
1770453751806,0.0997772216796875,-0.244537353515625,-0.9698028564453124,0.0139562953263521,0.0259189493954181,0.051646415144205
1770453751816,0.090484619140625,-0.20733642578125,-0.9648895263671876,0.0208440292626619,0.0286311116069555,0.0258007049560546
1770453751827,0.05889892578125,-0.1800994873046875,-0.9564361572265624,0.0145592354238033,0.0363588072359561,-0.0087250480428338
1770453751836,0.041595458984375,-0.1878814697265625,-0.95611572265625,-0.0033649040851742,0.0304788127541542,-0.029982665553689
1770453751846,0.0537872314453125,-0.2025299072265625,-0.9624786376953124,-0.0201401561498641,0.006991596892476,-0.0335132181644439
1770453751856,0.071990966796875,-0.2176971435546875,-0.9669342041015624,-0.0295248683542013,-0.0037393444217741,-0.0243868324905633
1770453751866,0.08074951171875,-0.2269439697265625,-0.9661712646484376,-0.0319126583635807,0.0035923379473388,-0.0054893074557185
1770453751877,0.07916259765625,-0.2294464111328125,-0.9649200439453124,-0.034395258873701,0.0230560507625341,0.0169864408671855
1770453751887,0.07861328125,-0.22491455078125,-0.9649505615234376,-0.0419218838214874,0.0366909019649028,0.0223532430827617
1770453751897,0.076995849609375,-0.2163848876953125,-0.96588134765625,-0.0522658675909042,0.0287429653108119,0.0234536603093147
1770453751907,0.0772247314453125,-0.2076416015625,-0.963714599609375,-0.0602577477693557,0.0157051943242549,0.0141850607469677
1770453751917,0.0745391845703125,-0.204742431640625,-0.9622344970703124,-0.064900703728199,0.0149821452796459,-0.0011361044598743
1770453751927,0.07220458984375,-0.2055206298828125,-0.957855224609375,-0.0693228840827941,0.0121237747371196,-0.0067322049289941
1770453751937,0.077392578125,-0.2089691162109375,-0.9549713134765624,-0.0701364800333976,0.0175891127437353,-0.0049617355689406
1770453751947,0.0811309814453125,-0.216461181640625,-0.9566497802734376,-0.0693311393260955,0.0296159498393535,0.0038996667135506
1770453751957,0.0815277099609375,-0.21881103515625,-0.9615325927734376,-0.0655795410275459,0.0313707068562507,0.0125488145276904
1770453751967,0.078582763671875,-0.2168121337890625,-0.9676971435546876,-0.0591751709580421,0.0264033786952495,0.0213345829397439
1770453751977,0.072662353515625,-0.21649169921875,-0.975433349609375,-0.061301440000534,0.0171502251178026,0.0337076298892498
1770453751987,0.074371337890625,-0.2156829833984375,-0.9823150634765624,-0.0571642182767391,0.0115181719884276,0.0385085083544254
1770453751997,0.0724334716796875,-0.2041778564453125,-0.988006591796875,-0.0479384958744049,-0.000680437660776,0.0281485468149185
1770453752007,0.0631256103515625,-0.1994171142578125,-0.9871368408203124,-0.0433077923953533,-0.0087508810684084,0.012393020093441
1770453752017,0.0598907470703125,-0.1960906982421875,-0.982391357421875,-0.0395181141793727,-0.0190850105136632,0.0006383596919476
1770453752027,0.0640411376953125,-0.1979522705078125,-0.976409912109375,-0.0416001752018928,-0.0295296628028154,-0.0020333235152065
1770453752037,0.073516845703125,-0.205291748046875,-0.970367431640625,-0.0434739738702774,-0.0282060708850622,-1.1185276889591478e-05
1770453752047,0.0783843994140625,-0.21099853515625,-0.966033935546875,-0.0476165227591991,-0.0134308543056249,0.0079162465408444
1770453752057,0.0836029052734375,-0.21295166015625,-0.9632720947265624,-0.0471696443855762,0.0009909622604027,0.0149408662691712
1770453752067,0.0822601318359375,-0.21331787109375,-0.967254638671875,-0.0420033745467662,0.0083932187408208,0.0216847881674766
1770453752077,0.0795745849609375,-0.2111968994140625,-0.97247314453125,-0.0365939624607563,0.006785468198359,0.0239306334406137
1770453752088,0.0766143798828125,-0.2098846435546875,-0.9752655029296876,-0.0339952521026134,-0.0013206616276875,0.0205478854477405
1770453752098,0.07275390625,-0.2061309814453125,-0.9767608642578124,-0.0310452673584222,-0.0081383539363741,0.0181944500654935
1770453752108,0.068389892578125,-0.2027130126953125,-0.975128173828125,-0.0278268381953239,-0.0104379933327436,0.0112318815663456
1770453752118,0.0659027099609375,-0.1998138427734375,-0.9683074951171876,-0.0294439084827899,-0.0083404881879687,0.0050693270750343
1770453752128,0.0636749267578125,-0.1985321044921875,-0.965179443359375,-0.0298013053834438,-0.0009195895399898,-0.0042179143056273
1770453752138,0.0595703125,-0.200103759765625,-0.9668426513671876,-0.0342759490013122,0.0001893507578643,-0.0097660776227712
1770453752148,0.0623321533203125,-0.196258544921875,-0.9654693603515624,-0.0416576974093914,0.0022929816041141,-0.01310461666435
1770453752158,0.060455322265625,-0.1959228515625,-0.9698028564453124,-0.0434987396001815,-0.0022431805264204,-0.0171978957951068
1770453752168,0.0616912841796875,-0.1967620849609375,-0.970703125,-0.0412797965109348,-0.0076680397614836,-0.0154671072959899
1770453752178,0.063232421875,-0.194091796875,-0.974212646484375,-0.0387599132955074,-0.0086805736646056,-0.0173704680055379
1770453752188,0.0637054443359375,-0.196441650390625,-0.976776123046875,-0.0368267223238945,-0.0122228441759943,-0.0178351905196905
1770453752198,0.0668487548828125,-0.195465087890625,-0.974151611328125,-0.0406302511692047,-0.0167736541479825,-0.0151749579235911
1770453752208,0.073455810546875,-0.1938629150390625,-0.9702301025390624,-0.0481443591415882,-0.0101367896422743,-0.0115157747641205
1770453752218,0.0764007568359375,-0.1960601806640625,-0.971527099609375,-0.0519321747124195,-0.0018868496408686,-0.0106683569028973
1770453752228,0.0770111083984375,-0.198272705078125,-0.973663330078125,-0.0510892830789089,0.0001624528231332,-0.0084083983674645
1770453752239,0.079925537109375,-0.199493408203125,-0.9777984619140624,-0.0490447729825973,-0.0064491108059883,-0.0024727450218051
1770453752248,0.08282470703125,-0.20111083984375,-0.9777069091796876,-0.0485923029482364,-0.0109977899119257,0.0039840890094637
1770453752258,0.080718994140625,-0.2025604248046875,-0.9801177978515624,-0.0453432463109493,-0.0086805736646056,0.0041041974909603
1770453752268,0.0780487060546875,-0.1991424560546875,-0.9822540283203124,-0.0407727286219596,-0.0093202646821737,0.0084161218255758
1770453752278,0.07568359375,-0.20172119140625,-0.9810791015625,-0.0451991707086563,-0.0042330943979322,0.0202528070658445
1770453752289,0.075347900390625,-0.2192840576171875,-0.982666015625,-0.0434287004172802,0.0049348375760018,0.0353183113038539
1770453752298,0.080963134765625,-0.20477294921875,-0.9868621826171876,-0.0269802194088697,-0.0006916229031048,0.0272686388343572
1770453752309,0.0670013427734375,-0.1783294677734375,-0.985504150390625,-0.0166372992098331,0.0035230957437306,0.0037928740493953
1770453752319,0.048736572265625,-0.1795501708984375,-0.98663330078125,-0.0211750604212284,0.0137349870055913,0.0004950816510245
1770453752329,0.0579376220703125,-0.2021484375,-0.9989471435546876,0.0062264706939458,0.0096177402883768,0.0027992485556751
1770453752339,0.0667572021484375,-0.17724609375,-1.00537109375,0.0411719381809234,-0.0076978672295808,-0.0324857719242572
1770453752349,0.05230712890625,-0.1800384521484375,-0.99957275390625,0.0544962659478187,-0.0171385072171688,-0.0348165705800056
1770453752359,0.0601806640625,-0.21099853515625,-0.988311767578125,0.0492743402719497,-0.0145893292501568,-0.0047343014739453
