timestamp_ms,acc_x,acc_y,acc_z,gyro_x,gyro_y,gyro_z
1770452775291,-0.1241607666015625,-0.1491546630859375,-0.973602294921875,0.0131160682067275,-0.0103144226595759,0.0087724523618817
1770452775299,-0.1224517822265625,-0.150970458984375,-0.9711761474609376,0.0039023298304528,-0.0004785700584761,0.0055806539021432
1770452775309,-0.1219940185546875,-0.1518402099609375,-0.9661865234375,-0.004455734975636,0.0086909597739577,0.0010532801970839
1770452775319,-0.1193695068359375,-0.153411865234375,-0.966949462890625,-0.0112145710736513,0.0088158622384071,-0.0016239956021308
1770452775329,-0.120361328125,-0.1526031494140625,-0.9721221923828124,-0.0135341845452785,0.0018431737553328,-0.0007105313707143
1770452775340,-0.119232177734375,-0.1508636474609375,-0.97369384765625,-0.0213375128805637,0.0023409186396747,0.0016077503096312
1770452775350,-0.1153106689453125,-0.153411865234375,-0.974395751953125,-0.0185774117708206,0.0097580887377262,0.0053628073073923
1770452775359,-0.1139984130859375,-0.1551055908203125,-0.981109619140625,-0.0126963537186384,0.0146479187533259,0.0070187607780098
1770452775370,-0.1179351806640625,-0.152984619140625,-0.9876556396484376,-0.0022205437999218,0.0093716634437441,0.0106393285095691
1770452775380,-0.118194580078125,-0.1539459228515625,-0.98883056640625,0.006434463430196,0.0061100902967154,0.016219450160861
1770452775390,-0.115203857421875,-0.1544036865234375,-0.9864349365234376,0.0129205919802188,0.0072232917882502,0.0159382205456495
1770452775400,-0.115997314453125,-0.152099609375,-0.98712158203125,0.0207252521067857,0.0057686730287969,0.0175214689224958
1770452775410,-0.119049072265625,-0.1515960693359375,-0.9872894287109376,0.0306942630559206,0.0096329199150204,0.0140646863728761
1770452775420,-0.1224517822265625,-0.149627685546875,-0.9888763427734376,0.0428201667964458,-0.002616822021082,0.0130494888871908
1770452775430,-0.12017822265625,-0.1542205810546875,-0.9920654296875,0.0497425235807895,-0.0229098424315452,0.015501994639635
1770452775440,-0.1181488037109375,-0.1550140380859375,-0.9854736328125,0.0441932938992977,-0.0245343707501888,0.0110851414501667
1770452775450,-0.1204376220703125,-0.1526947021484375,-0.9757080078125,0.0346876718103885,-0.0142239434644579,0.0058440407738089
1770452775460,-0.120880126953125,-0.156219482421875,-0.9685211181640624,0.0255916453897953,-0.0019030949333682,0.0051090084016323
1770452775470,-0.117584228515625,-0.156402587890625,-0.963470458984375,0.0120143182575702,0.003999535460025,0.0046576024033129
1770452775480,-0.1209716796875,-0.153594970703125,-0.9636993408203124,0.0024740765802562,0.0086976177990436,0.0078656459227204
1770452775490,-0.1227264404296875,-0.1518096923828125,-0.9671478271484376,-0.0025105618406087,0.0115165738388895,0.0089756520465016
1770452775501,-0.1228179931640625,-0.1535186767578125,-0.96826171875,-0.009465673007071,0.0167504847049713,0.0111455954611301
1770452775510,-0.1216888427734375,-0.1563720703125,-0.9702911376953124,-0.0159763023257255,0.0181859284639358,0.0143472477793693
1770452775520,-0.116241455078125,-0.15997314453125,-0.9730072021484376,-0.0186336059123277,0.0237431470304727,0.014045245014131
1770452775530,-0.1167449951171875,-0.1564483642578125,-0.9781951904296876,-0.0136838546022772,0.0263109654188156,0.0189148355275392
1770452775540,-0.11688232421875,-0.1544647216796875,-0.9844818115234376,-0.0078009315766394,0.0209313798695802,0.0196392145007848
1770452775550,-0.118560791015625,-0.15460205078125,-0.991119384765625,0.0037191044539213,0.0100132189691066,0.0239146538078784
1770452775560,-0.115234375,-0.157867431640625,-0.99267578125,0.0145254135131835,0.000101466437627,0.0322085358202457
1770452775571,-0.115325927734375,-0.16094970703125,-0.992584228515625,0.024730646982789,0.0009566074586473,0.0362355038523674
1770452775580,-0.1177520751953125,-0.15399169921875,-0.989715576171875,0.0309270229190588,0.011666509322822,0.03152596950531
1770452775591,-0.12286376953125,-0.1490020751953125,-0.9869384765625,0.0422356054186821,0.0130444290116429,0.0291136763989925
1770452775601,-0.122711181640625,-0.1446380615234375,-0.9842987060546876,0.0508919432759285,0.0137773314490914,0.0173579510301351
1770452775611,-0.1298828125,-0.149261474609375,-0.98443603515625,0.0488996319472789,-0.0044741104356944,0.0084712486714124
1770452775621,-0.1249542236328125,-0.16400146484375,-0.982574462890625,0.035555861890316,-0.0285498853772878,0.0100853908807039
1770452775631,-0.120086669921875,-0.1793975830078125,-0.970672607421875,0.0160958785563707,-0.0149086415767669,0.0212525576353073
1770452775641,-0.1196136474609375,-0.17388916015625,-0.9629364013671876,-0.0020511667244136,0.015010374598205,0.0198687799274921
1770452775651,-0.1179656982421875,-0.1574554443359375,-0.9619903564453124,-0.0123014077544212,0.0282180551439523,0.0152351455762982
1770452775661,-0.1165008544921875,-0.1513519287109375,-0.9657745361328124,-0.0127347037196159,0.0337166860699653,0.0079447422176599
1770452775671,-0.118927001953125,-0.14935302734375,-0.9671630859375,-0.0076983994804322,0.0179073605686426,0.0025758093688637
1770452775681,-0.1230316162109375,-0.1499176025390625,-0.9752197265625,-0.00407250598073,0.007832889445126,0.0036610474344342
1770452775691,-0.124053955078125,-0.154571533203125,-0.9818878173828124,0.0008452873444184,-0.0061753378249704,0.0088843051344156
1770452775701,-0.11895751953125,-0.1610260009765625,-0.9827423095703124,-0.0001035969689837,-0.0015542207984253,0.0154215665534138
1770452775711,-0.1150970458984375,-0.1623382568359375,-0.9788360595703124,-0.0021193434949964,0.017504958435893,0.0149033153429627
1770452775721,-0.11468505859375,-0.1603546142578125,-0.978729248046875,-0.0057929079048335,0.030253242701292,0.0144212832674384
1770452775731,-0.1147308349609375,-0.158447265625,-0.9778289794921876,-0.0068099689669907,0.045433260500431,0.0134881120175123
1770452775741,-0.114471435546875,-0.1600189208984375,-0.98138427734375,-0.0064208814874291,0.0355659835040569,0.0175789929926395
1770452775751,-0.1170196533203125,-0.1604461669921875,-0.982421875,-0.0059487028047442,0.0281890276819467,0.0149768190458416
1770452775761,-0.1244964599609375,-0.15679931640625,-0.9782867431640624,-0.0071146348491311,0.0263051073998212,0.0164839010685682
1770452775772,-0.1232452392578125,-0.155670166015625,-0.9762725830078124,-0.0066581689752638,0.025455292314291,0.0135919749736785
1770452775781,-0.12713623046875,-0.1551513671875,-0.9769744873046876,0.0001486043911427,0.0175781939178705,0.0119288312271237
1770452775792,-0.125732421875,-0.154754638671875,-0.9779510498046876,0.0048874332569539,0.0057923751883208,0.0072448635473847
1770452775802,-0.12725830078125,-0.1578826904296875,-0.9792938232421876,0.0051383031532168,-0.0098473047837615,0.0076866815797984
1770452775812,-0.1228179931640625,-0.1559295654296875,-0.97576904296875,0.0043340283446013,-0.0148500520735979,0.0043271039612591
1770452775822,-0.123077392578125,-0.15704345703125,-0.975189208984375,0.0069463229738175,-0.0084432857111096,0.0004820321628358
1770452775832,-0.12322998046875,-0.156951904296875,-0.9768218994140624,0.0039904806762933,-0.0042421491816639,-0.0018679412314668
1770452775842,-0.1191864013671875,-0.1591796875,-0.9734649658203124,0.0011821772204712,0.0090331761166453,-0.003049319377169
1770452775852,-0.1177520751953125,-0.159881591796875,-0.974212646484375,-0.0026205505710095,0.0141829308122396,-0.0019965718965977
1770452775862,-0.1152191162109375,-0.1618499755859375,-0.9761199951171876,-0.0061343251727521,0.0171097442507743,-0.0042320294305682
1770452775872,-0.117156982421875,-0.159576416015625,-0.97930908203125,-0.0077508641406893,0.0143025061115622,-0.0072155687958002
1770452775882,-0.121490478515625,-0.1514434814453125,-0.97991943359375,-0.0019563580863177,0.0155912097543478,-0.0109743541106581
1770452775892,-0.1211700439453125,-0.15972900390625,-0.97821044921875,0.0022138857748359,0.0026525084394961,-0.0024706146214157
1770452775902,-0.115447998046875,-0.16351318359375,-0.9811248779296876,0.0054858452640473,-0.0062435148283839,-0.0057521616108715
1770452775912,-0.121368408203125,-0.15570068359375,-0.98480224609375,0.0073098447173833,-0.0109413312748074,-0.0084297033026814
1770452775922,-0.1250762939453125,-0.1583099365234375,-0.97979736328125,0.008985505439341,-0.0070635019801557,-0.0088451569899916
1770452775932,-0.1161346435546875,-0.1610107421875,-0.9750823974609376,0.0058363173156976,-0.0044147223234176,-0.0121868913993239
1770452775942,-0.1161346435546875,-0.162872314453125,-0.9756011962890624,0.0031579763162881,0.0010929612908512,-0.0109921973198652
1770452775952,-0.1180267333984375,-0.1602935791015625,-0.9743194580078124,-0.0004841626796405,0.0061782673001289,-0.0100760702043771
1770452775962,-0.115966796875,-0.160491943359375,-0.9723968505859376,-0.0065447185188531,0.0039254995062947,-0.0063617592677474
1770452775972,-0.1139984130859375,-0.16241455078125,-0.97161865234375,-0.0150892045348882,0.0056946375407278,-0.0043113916181027
1770452775984,-0.1177825927734375,-0.1606292724609375,-0.9681243896484376,-0.0214198045432567,0.0125064710155129,-0.0052682650275528
1770452775992,-0.118865966796875,-0.1576080322265625,-0.96978759765625,-0.0259130895137786,0.0185904614627361,-0.0086150597780942
1770452776003,-0.115203857421875,-0.1595001220703125,-0.9720458984375,-0.0261841993778944,0.0225724205374717,-0.0064341970719397
1770452776013,-0.115264892578125,-0.1617279052734375,-0.9768524169921876,-0.021197697147727,0.0116760972887277,-0.0052341767586767
1770452776023,-0.1210784912109375,-0.1627655029296875,-0.9840545654296876,-0.0116345519199967,-0.0097985686734318,-0.0011470235185697
1770452776033,-0.12127685546875,-0.1607208251953125,-0.98907470703125,-0.0068616345524787,-0.0118649154901504,-0.0024322650860995
1770452776043,-0.1201171875,-0.161712646484375,-0.98052978515625,-0.0082595273852348,-0.0083447489887475,-0.0050829090178012
1770452776053,-0.1137542724609375,-0.1624603271484375,-0.97430419921875,-0.0053201969712972,0.0010524812387302,-0.0036727653350681
1770452776063,-0.112762451171875,-0.1538543701171875,-0.9824676513671876,0.0070376694202423,0.0123333651572465,-0.0079191755503416
1770452776073,-0.1231536865234375,-0.1560516357421875,-0.992706298828125,0.0219132881611585,-0.0129948947578668,-0.0055665392428636
1770452776083,-0.114959716796875,-0.16650390625,-0.9943389892578124,0.0261493120342493,-0.026510702446103,-0.0048749162815511
1770452776093,-0.1152801513671875,-0.167938232421875,-0.98162841796875,0.0146559076383709,-0.0172218643128871,-0.0078267641365528
1770452776103,-0.1146697998046875,-0.1638946533203125,-0.9669036865234376,0.0015169365797191,0.0046176551841199,-0.0088648647069931
1770452776113,-0.1146392822265625,-0.1603546142578125,-0.9651336669921876,-0.0031952606514096,0.0255650151520967,-0.0132654719054698
1770452776123,-0.124481201171875,-0.1540069580078125,-0.975982666015625,-0.004349741153419,0.0155107825994491,-0.007104514632374
1770452776133,-0.1212005615234375,-0.143096923828125,-0.977752685546875,-0.0045793056488037,0.0192969981580972,-0.0127275129780173
1770452776143,-0.1230316162109375,-0.1544647216796875,-0.975067138671875,-0.0076187714003026,0.0223178230226039,-0.0132998265326023
1770452776153,-0.1089019775390625,-0.1709136962890625,-0.9754486083984376,-0.0130316456779837,0.0164743140339851,-0.013284645974636
1770452776163,-0.108612060546875,-0.1685028076171875,-0.9742279052734376,-0.0211718641221523,0.0270079150795936,-0.0094579504802823
1770452776173,-0.1128387451171875,-0.163238525390625,-0.9726104736328124,-0.0175789929926395,0.0364144667983055,-0.008216917514801
1770452776183,-0.11737060546875,-0.1605987548828125,-0.984588623046875,-0.0118209728971123,0.0073348782025277,-0.0065479143522679
1770452776193,-0.12200927734375,-0.1594696044921875,-0.9821624755859376,-0.0159717760980129,-0.0097796600311994,-0.0013853764394298
1770452776203,-0.1174163818359375,-0.1585693359375,-0.9673004150390624,-0.0257839262485504,0.0014460964594036,0.0003629888524301
1770452776213,-0.111053466796875,-0.159515380859375,-0.9608001708984376,-0.0371100828051567,0.0101541001349687,-0.0004370247188489
1770452776223,-0.1127166748046875,-0.1627197265625,-0.9640960693359376,-0.0434332266449928,0.0102084288373589,-0.0030764837283641
1770452776234,-0.1178131103515625,-0.16192626953125,-0.9681854248046876,-0.0496370606124401,0.0085705853998661,-0.0021443772129714
1770452776244,-0.12176513671875,-0.155792236328125,-0.969085693359375,-0.058533351868391,0.0081074610352516,-0.0061433799564838
1770452776254,-0.123382568359375,-0.1501007080078125,-0.967559814453125,-0.0620127692818641,0.0063985106535255,-0.0070861391723155
1770452776264,-0.120147705078125,-0.1520843505859375,-0.9735565185546876,-0.0624346137046813,0.0039350870065391,-0.0085812378674745
1770452776274,-0.1159515380859375,-0.1580657958984375,-0.9769287109375,-0.0621227584779262,0.0090981572866439,-0.0087287770584225
1770452776284,-0.1129913330078125,-0.1582489013671875,-0.9795379638671876,-0.0550968088209629,0.015630891546607,-0.0065721487626433
1770452776294,-0.11456298828125,-0.15478515625,-0.987030029296875,-0.0433956757187843,0.0122614596039056,-0.0011771172285079
1770452776304,-0.117706298828125,-0.152191162109375,-0.99078369140625,-0.0337260067462921,0.0008503473363816,0.0001994707708945
1770452776315,-0.11566162109375,-0.1558074951171875,-0.9876708984375,-0.0286841094493865,-0.0046823699958622,0.0024245418608188
1770452776324,-0.1130828857421875,-0.1575775146484375,-0.9860687255859376,-0.0264105685055255,-0.0005009406013414,0.0005360943032428
1770452776334,-0.116241455078125,-0.155609130859375,-0.98529052734375,-0.0200570654124021,0.0056075518950819,0.0045076664537191
1770452776344,-0.115936279296875,-0.151519775390625,-0.9876556396484376,-0.0119730392470955,0.0063018379732966,0.0052520199678838
1770452776354,-0.1165618896484375,-0.14971923828125,-0.9887237548828124,-0.0019587550777941,-0.0046706520952284,0.0056789247319102
1770452776364,-0.1166534423828125,-0.15240478515625,-0.9876708984375,0.0019965718965977,-0.0013403689954429,0.0080752372741699
1770452776374,-0.1192474365234375,-0.1536865234375,-0.9823455810546876,0.0069223544560372,-0.0085862977430224,0.0080257020890712
1770452776384,-0.1202545166015625,-0.1596832275390625,-0.9830322265625,0.0080581931397318,-0.0177374519407749,0.0092156026512384
1770452776394,-0.12103271484375,-0.151214599609375,-0.979644775390625,0.0058120829053223,-0.0087484838441014,0.0001936118060257
1770452776404,-0.1255645751953125,-0.147064208984375,-0.976715087890625,0.0067745489068329,-0.0077857514843344,-0.0039436090737581
1770452776414,-0.12237548828125,-0.149688720703125,-0.97845458984375,0.0084747113287448,-0.0108510497957468,-0.0115386778488755
1770452776425,-0.12481689453125,-0.147552490234375,-0.9765625,0.0010668623726814,-0.0171723291277885,-0.0150263532996177
1770452776435,-0.1204071044921875,-0.15972900390625,-0.973785400390625,-0.0122433500364422,-0.0181297361850738,-0.0127317737787961
1770452776445,-0.111846923828125,-0.16900634765625,-0.97210693359375,-0.0258768703788518,-0.0224813409149646,-0.0022506373934447
1770452776455,-0.106689453125,-0.16998291015625,-0.9734039306640624,-0.0263802073895931,-0.0157411452382802,0.0054288539104163
1770452776465,-0.107696533203125,-0.153839111328125,-0.97918701171875,-0.0157507341355085,-0.0153613789007067,0.0019307917682453
1770452776475,-0.1131439208984375,-0.145599365234375,-0.9866943359375,-0.0023656859993934,-0.0192759595811367,0.0025393241085112
1770452776485,-0.11688232421875,-0.142578125,-0.9869842529296876,0.0093479612842202,-0.022620091214776,-0.0028730181511491
1770452776495,-0.1168365478515625,-0.1432037353515625,-0.9832000732421876,0.0168988220393657,-0.0214222017675638,-0.0036442696582525
1770452776505,-0.116912841796875,-0.1512908935546875,-0.9792938232421876,0.0104811368510127,-0.0241269078105688,-0.0048213866539299
1770452776515,-0.1155853271484375,-0.1564788818359375,-0.97589111328125,0.0008993495139293,-0.0102821988984942,0.0004628573951777
1770452776525,-0.113494873046875,-0.1590118408203125,-0.971038818359375,-0.0139032984152436,0.0062294001691043,-0.0013291836949065
1770452776536,-0.1134490966796875,-0.1540985107421875,-0.970367431640625,-0.0243117306381464,0.0176937766373157,-0.001366734271869
1770452776545,-0.115478515625,-0.151153564453125,-0.9742584228515624,-0.0237404834479093,0.0224059727042913,-0.0045207161456346
1770452776555,-0.1193084716796875,-0.1471710205078125,-0.9843597412109376,-0.0145038412883877,0.0093002915382385,-0.0034112429711967
1770452776565,-0.119415283203125,-0.14776611328125,-0.9883575439453124,-0.004423510748893,-0.0025941852945834,-8.921589324017987e-05
1770452776575,-0.1208953857421875,-0.15185546875,-0.9840087890625,-0.004423510748893,-0.0025941852945834,-8.921589324017987e-05
1770452776585,-0.1187744140625,-0.1500244140625,-0.9807586669921876,0.0058387145400047,-0.0086550069972872,0.000851945253089
1770452776595,-0.116729736328125,-0.1529083251953125,-0.982452392578125,0.0094188014045357,-0.0187097713351249,0.0034983283840119
1770452776605,-0.1182708740234375,-0.1527557373046875,-0.9799041748046876,0.0126508139073848,-0.0243519451469182,0.0064701498486101
1770452776615,-0.1189117431640625,-0.148468017578125,-0.9781036376953124,0.0176421105861663,-0.0270270910114049,0.0078326230868697
1770452776626,-0.1190032958984375,-0.1513824462890625,-0.9759063720703124,0.0125288413837552,-0.0306215584278106,0.0071764201857149
1770452776635,-0.1143341064453125,-0.152496337890625,-0.97216796875,0.005150553304702,-0.0235423445701599,0.0046243127435445
1770452776645,-0.114593505859375,-0.1518096923828125,-0.96929931640625,-0.0055851815268397,-0.0191489271819591,0.0064650899730622
1770452776656,-0.114013671875,-0.15203857421875,-0.9675750732421876,-0.0147400638088583,-0.0123972808942198,0.0097503652796149
1770452776666,-0.11383056640625,-0.15228271484375,-0.9688720703125,-0.0203353650867939,-0.0099450424313545,0.0126404277980327
1770452776676,-0.117523193359375,-0.149993896484375,-0.9722900390625,-0.0261354632675647,-0.0059143481776118,0.01433792617172
1770452776686,-0.1183319091796875,-0.1473388671875,-0.9767303466796876,-0.0223985165357589,0.0032836776226758,0.0127195231616497
1770452776696,-0.1208038330078125,-0.145050048828125,-0.9805145263671876,-0.0161648541688919,-0.0050738546997308,0.013309946283698
1770452776706,-0.12188720703125,-0.156402587890625,-0.9831695556640624,-0.0117200389504432,-0.0200245752930641,0.0181129574775695
1770452776716,-0.118011474609375,-0.1542205810546875,-0.9871368408203124,-0.0118449414148926,-0.0183955188840627,0.0160849597305059
1770452776726,-0.1224212646484375,-0.1526641845703125,-0.981842041015625,-0.0122603941708803,-0.0088789789006114,0.0145786767825484
1770452776736,-0.120330810546875,-0.15484619140625,-0.9815673828125,-0.0086041409522295,-0.0091689974069595,0.0136234005913138
1770452776746,-0.120391845703125,-0.15521240234375,-0.98516845703125,-0.0045667886734008,-0.0156279616057872,0.0139504363760352
1770452776756,-0.12518310546875,-0.152496337890625,-0.9820556640625,-0.0109178954735398,-0.0146798761561512,0.0131642716005444
1770452776766,-0.1254425048828125,-0.15191650390625,-0.9762725830078124,-0.0169925652444362,-0.0092179989442229,0.0146034434437751
1770452776776,-0.122406005859375,-0.1547088623046875,-0.97412109375,-0.0225833393633365,-0.0055708005093038,0.0155528606846928
1770452776786,-0.122650146484375,-0.154632568359375,-0.9729156494140624,-0.0280478801578283,-0.0005984122981317,0.0123405558988451
1770452776796,-0.1268768310546875,-0.1546783447265625,-0.9729766845703124,-0.0346109755337238,0.0002226402721134,0.0077593862079083
1770452776806,-0.126922607421875,-0.1530303955078125,-0.97412109375,-0.0376067645847797,-0.0026059031952172,0.0072565814480185
1770452776816,-0.127349853515625,-0.151214599609375,-0.9777374267578124,-0.035334289073944,-0.0005496764206327,0.0047398940660059
1770452776826,-0.1279754638671875,-0.1538848876953125,-0.9859619140625,-0.0316191799938678,-0.0110734235495328,0.0099189430475234
1770452776836,-0.1237640380859375,-0.15679931640625,-0.9868927001953124,-0.0202589333057403,-0.0132960975170135,0.0142846629023551
1770452776846,-0.1206207275390625,-0.1559295654296875,-0.9878387451171876,-0.0126433568075299,-0.0130098080262541,0.0113948676735162
1770452776857,-0.121917724609375,-0.1549224853515625,-0.9874725341796876,-0.0053417682647705,-0.0114257596433162,0.0146002480760216
1770452776867,-0.1223907470703125,-0.155242919921875,-0.9848480224609376,0.0005914880894124,-0.0128902317956089,0.0158000010997056
1770452776877,-0.124298095703125,-0.1513519287109375,-0.983184814453125,0.0027981833554804,-0.0085314363241195,0.0144867971539497
1770452776887,-0.1262054443359375,-0.146697998046875,-0.9804534912109376,0.0046488139778375,-0.0040277647785842,0.0119847571477293
1770452776897,-0.128021240234375,-0.1496429443359375,-0.9782257080078124,0.0037385455798357,-0.0037276265211403,0.0108406636863946
1770452776907,-0.1248626708984375,-0.1544036865234375,-0.9718170166015624,-0.0040280311368405,0.0041505363769829,0.0103786047548055
1770452776917,-0.1238250732421875,-0.1489105224609375,-0.9706268310546876,-0.0046014096587896,0.0065069012343883,0.0061756041832268
1770452776927,-0.1304931640625,-0.1479034423828125,-0.9774932861328124,-0.0054205982014536,-0.0037169738207012,0.0052280514501035
1770452776937,-0.1292572021484375,-0.1539459228515625,-0.977630615234375,-0.0119714420288801,-0.0084805702790617,0.0032240226864814
1770452776947,-0.125,-0.1573028564453125,-0.9697113037109376,-0.0249162688851356,-0.0030663637444376,0.0022953785955905
1770452776957,-0.125,-0.154205322265625,-0.9680023193359376,-0.0268846116960048,0.0107296099886298,0.0023616913240402
1770452776967,-0.12628173828125,-0.1479949951171875,-0.9767303466796876,-0.0290937032550573,0.0066102319397032,-0.0009685916593298
1770452776977,-0.13323974609375,-0.1431732177734375,-0.9769439697265624,-0.0261615626513957,0.0002410160814179,-0.0007155913626775
1770452776987,-0.1272125244140625,-0.1526947021484375,-0.9819488525390624,-0.0200165845453739,-0.0029851372819393,0.0021763353142887
1770452776997,-0.1214599609375,-0.156341552734375,-0.9818878173828124,-0.0151744252070784,0.005331914871931,-0.0001645833544898
1770452777007,-0.1251373291015625,-0.1523284912109375,-0.9857177734375,-0.0014112089993432,0.0026969832833856,-0.0018000305863097
1770452777017,-0.1266021728515625,-0.1519622802734375,-0.99359130859375,0.0090006850659847,-0.0126907611265778,0.0033955303952097
1770452777027,-0.1263275146484375,-0.147674560546875,-0.9892120361328124,0.0102417189627885,-0.0164860319346189,0.0053569483570754
1770452777037,-0.125152587890625,-0.152252197265625,-0.9787445068359376,0.0033752904273569,-0.0108190914615988,0.0039294939488172
1770452777047,-0.123291015625,-0.1563262939453125,-0.970123291015625,-0.0033433323260396,0.0030333404429256,0.002934803487733
1770452777057,-0.122528076171875,-0.1535186767578125,-0.9676666259765624,-0.0077053238637745,0.0088022798299789,0.0005363606614992
1770452777068,-0.1266937255859375,-0.150115966796875,-0.9722747802734376,-0.0108055099844932,0.0046930224634706,0.0001579254458192
1770452777077,-0.1270904541015625,-0.150634765625,-0.97314453125,-0.0119301630184054,-0.0023664848413318,0.0039691752754151
1770452777088,-0.1261444091796875,-0.1492919921875,-0.974456787109375,-0.0106790093705058,-0.0093460977077484,0.0034037861041724
1770452777098,-0.1297454833984375,-0.143585205078125,-0.976226806640625,-0.0058975704014301,-0.0126268453896045,0.0016639430541545
1770452777108,-0.13092041015625,-0.1461334228515625,-0.9780120849609376,-0.0008189220097847,-0.0139270005747675,-0.0016711335629224
1770452777118,-0.1274261474609375,-0.148956298828125,-0.98004150390625,0.0018405106384307,-0.0124540068209171,-0.002575276652351
1770452777128,-0.1250457763671875,-0.150390625,-0.980926513671875,0.0016229304019361,-0.012051336467266,-0.0016077503096312
1770452777138,-0.121063232421875,-0.155303955078125,-0.982177734375,0.0056943711824715,-0.0106768794357776,0.0058376491069793
1770452777148,-0.1205596923828125,-0.1559600830078125,-0.9838104248046876,0.0079133166000247,-0.011028416454792,0.005395564250648
1770452777158,-0.1228485107421875,-0.14971923828125,-0.98590087890625,0.009288040921092,-0.0123637253418564,0.0052541503682732
1770452777168,-0.1264495849609375,-0.1486053466796875,-0.9797515869140624,0.0030820763204246,-0.0044868937693536,0.0102976448833942
1770452777178,-0.123809814453125,-0.1498260498046875,-0.9745941162109376,-0.0008287757518701,0.0045827673748135,0.0120681142434477
1770452777188,-0.1226348876953125,-0.15472412109375,-0.9766693115234376,8.202536264434457e-05,-0.0023784691002219,0.0157709736377
1770452777198,-0.1221923828125,-0.1507568359375,-0.979644775390625,0.0024402544368058,0.0092150699347257,0.0102542350068688
1770452777208,-0.1285400390625,-0.1386871337890625,-0.979461669921875,0.0028937908355146,0.017691645771265,0.0069673620164394
1770452777218,-0.1280517578125,-0.14813232421875,-0.97894287109375,0.0090835094451904,0.0055505600757896,0.0076267607510089
1770452777228,-0.123504638671875,-0.1490478515625,-0.977569580078125,0.0081745730713009,0.0107628991827368,0.0067455205135047
1770452777238,-0.1246337890625,-0.156768798828125,-0.9771575927734376,0.0032224250026047,0.0111325457692146,0.0145488493144512
1770452777249,-0.1214447021484375,-0.1588134765625,-0.978118896484375,0.0040173786692321,0.0045984801836311,0.0185217522084712
1770452777258,-0.12274169921875,-0.153564453125,-0.97918701171875,0.0113370763137936,0.0003073287953156,0.0192386750131845
1770452777269,-0.122283935546875,-0.1493072509765625,-0.9810943603515624,0.0195545256137847,-0.0004556668573059,0.0179374553263187
1770452777278,-0.12481689453125,-0.141998291015625,-0.9788665771484376,0.0214341860264539,0.0020138823892921,0.0104979146271944
1770452777289,-0.131378173828125,-0.1395111083984375,-0.9713897705078124,0.0197643842548131,0.0096771279349923,-0.000981907476671
1770452777299,-0.13153076171875,-0.1433563232421875,-0.96685791015625,0.0101847266778349,0.0037792918737977,-0.0055478969588875
1770452777309,-0.1286468505859375,-0.1490631103515625,-0.9697265625,-0.0054986285977065,-0.008151669986546,-0.004259193316102
1770452777319,-0.1271820068359375,-0.154449462890625,-0.9684906005859376,-0.0196256320923566,-0.0023212111555039,-0.0026604980230331
1770452777329,-0.1259918212890625,-0.152252197265625,-0.96844482421875,-0.0301267430186271,0.0113935358822345,0.0024269386194646
1770452777339,-0.12249755859375,-0.1480712890625,-0.972503662109375,-0.0278774369508028,0.0243769790977239,1.810949470382184e-05
1770452777349,-0.1216888427734375,-0.1479339599609375,-0.9858551025390624,-0.0198559965938329,0.0231223627924919,0.0006250438746064
1770452777359,-0.1219482421875,-0.1473236083984375,-0.990020751953125,-0.0066467174328863,0.0167355705052614,-0.0007661914569325
1770452777369,-0.1248931884765625,-0.1471099853515625,-0.9897003173828124,0.0049649314023554,0.0077844196930527,0.0024644893128424
1770452777379,-0.125213623046875,-0.147064208984375,-0.98846435546875,0.0108462562784552,0.003623496973887,0.0086584696546196
1770452777389,-0.1227264404296875,-0.14825439453125,-0.9841766357421876,0.0174692720174789,0.0123336315155029,0.0110595757141709
1770452777399,-0.1246185302734375,-0.151580810546875,-0.98492431640625,0.0253692716360092,0.00656602345407,0.0138401817530393
1770452777409,-0.1246490478515625,-0.153778076171875,-0.982696533203125,0.0270401388406753,-0.004806206561625,0.0140550984069705
1770452777419,-0.1252899169921875,-0.154205322265625,-0.9784393310546876,0.021205686032772,-0.0053335125558078,0.0159549973905086
1770452777429,-0.12432861328125,-0.1514434814453125,-0.9710693359375,0.0162729788571596,0.0068144965916872,0.0095820538699626
1770452777439,-0.1294403076171875,-0.1476593017578125,-0.969482421875,0.0104720816016197,0.0064312675967812,0.0076587186194956
1770452777449,-0.13067626953125,-0.1506805419921875,-0.97308349609375,0.0026016421616077,-0.0039766319096088,0.0077956048771739
1770452777459,-0.128509521484375,-0.15264892578125,-0.968505859375,-0.0084286388009786,0.0038802255876362,0.0044946167618036
1770452777469,-0.1302337646484375,-0.149658203125,-0.962554931640625,-0.0206256490200757,0.0158253014087677,0.0005507417372427
1770452777479,-0.1289520263671875,-0.14862060546875,-0.968353271484375,-0.0249982941895723,0.0199939478188753,-0.0033190976828336
1770452777490,-0.1294097900390625,-0.1507415771484375,-0.9757843017578124,-0.0276404153555631,0.0186136309057474,-0.00565921748057
1770452777502,-0.1264495849609375,-0.1497344970703125,-0.9786224365234376,-0.0184916593134403,0.0090273171663284,0.0015723302494734
1770452777510,-0.1236724853515625,-0.155670166015625,-0.982391357421875,-0.0114907408133149,0.0001890844287117,0.0052054147236049
1770452777520,-0.1226348876953125,-0.147125244140625,-0.9896240234375,-0.0003936151915695,0.0019792614039033,0.0030394657514989
1770452777530,-0.125640869140625,-0.1492767333984375,-0.9897003173828124,0.0055843824520707,0.0030091057997196,0.0034559841733425
1770452777540,-0.1197357177734375,-0.1575469970703125,-0.984405517578125,0.0069063757546246,0.0020248014479875,0.0033744913525879
1770452777550,-0.11871337890625,-0.156646728515625,-0.979644775390625,0.008797219954431,0.011087005957961,0.0079085230827331
1770452777560,-0.1235809326171875,-0.1514129638671875,-0.9807891845703124,0.0154609819874167,0.0173952355980873,0.005420065484941
1770452777570,-0.127777099609375,-0.14947509765625,-0.983642578125,0.018712168559432,0.0045361621305346,0.0087412940338253
1770452777580,-0.1277008056640625,-0.153961181640625,-0.9795989990234376,0.0138606885448098,-0.0021651498973369,0.0078225033357739
1770452777590,-0.1260528564453125,-0.15533447265625,-0.9709320068359376,0.0034823494497686,0.0052416333928704,0.0030623688362538
1770452777600,-0.128692626953125,-0.1519775390625,-0.966278076171875,-0.0066531090997159,0.0224206205457448,0.0002647181972861
1770452777610,-0.1293487548828125,-0.152740478515625,-0.969512939453125,-0.0127698574215173,0.0122635904699563,-0.0008402272942475
1770452777620,-0.1280517578125,-0.157135009765625,-0.9774169921875,-0.015140070579946,0.0063409865833818,-0.0006170544074848
1770452777630,-0.12847900390625,-0.1532440185546875,-0.9800872802734376,-0.015933159738779,0.0026730147656053,-0.0016237293602898
1770452777641,-0.126190185546875,-0.15386962890625,-0.9813995361328124,-0.0149773517623543,-0.0062432484701275,-0.0016586167039349
1770452777650,-0.12335205078125,-0.157073974609375,-0.97991943359375,-0.017208281904459,-0.0025012409314513,0.0014266553334891
1770452777660,-0.1220855712890625,-0.1529388427734375,-0.97576904296875,-0.0205108672380447,0.0124630611389875,0.0017640779260545
1770452777670,-0.121002197265625,-0.151092529296875,-0.975677490234375,-0.0185374654829502,0.0227593742311,0.003580620046705
1770452777680,-0.117828369140625,-0.151153564453125,-0.9810791015625,-0.0081777684390544,0.0261519756168127,0.0052365735173225
1770452777690,-0.1200714111328125,-0.1492462158203125,-0.9889068603515624,0.0086709856986999,0.0174961686134338,0.0071777515113353
1770452777701,-0.1259307861328125,-0.15155029296875,-0.994537353515625,0.0234512630850076,0.003490338800475,0.0098220044746994
1770452777711,-0.1229248046875,-0.1522369384765625,-0.9947052001953124,0.0374048948287963,-0.007333546411246,0.0122361602261662
1770452777721,-0.121734619140625,-0.1538238525390625,-0.9931182861328124,0.0436180494725704,-0.0163283739238977,0.0104417223483324
1770452777731,-0.1254119873046875,-0.15533447265625,-0.9860687255859376,0.0480743199586868,-0.0170343779027462,0.0098286624997854
1770452777741,-0.1205902099609375,-0.154388427734375,-0.9871673583984376,0.0485816523432731,-0.0169060137122869,0.0090331761166453
1770452777751,-0.1225738525390625,-0.1560211181640625,-0.9807586669921876,0.0468892119824886,-0.0057500312104821,0.0109501192346215
1770452777761,-0.124420166015625,-0.1568603515625,-0.975799560546875,0.047663927078247,-0.0022623552940785,0.0100941797718405
1770452777771,-0.1245574951171875,-0.1602935791015625,-0.97589111328125,0.0397066660225391,-0.0063271382823586,0.0138974394649267
1770452777781,-0.12579345703125,-0.158538818359375,-0.96978759765625,0.0269152373075485,0.0007992146420292,0.0072669675573706
1770452777791,-0.1315460205078125,-0.1545562744140625,-0.9644622802734376,0.0168130677193403,0.0102696819230914,0.0017475662752985
1770452777801,-0.1333465576171875,-0.1547698974609375,-0.9656524658203124,0.012834838591516,0.0163145251572132,0.0028344022575765
1770452777811,-0.1305084228515625,-0.1542510986328125,-0.97039794921875,0.0102638229727745,0.0136156771332025,0.003262638580054
1770452777821,-0.1288604736328125,-0.1545867919921875,-0.9734649658203124,0.009975136257708,0.005838181823492,0.0002125202590832
1770452777831,-0.1272125244140625,-0.1574859619140625,-0.9740447998046876,0.0058259312063455,0.0036330842413008,2.9827404432580806e-05
1770452777841,-0.1231536865234375,-0.15863037109375,-0.9698333740234376,0.0034282873384654,0.0138164795935153,0.0006213154993019
1770452777851,-0.12261962890625,-0.15850830078125,-0.973358154296875,0.0062730759382247,0.0158431455492973,0.0023252058308571
1770452777861,-0.1244049072265625,-0.159332275390625,-0.9806060791015624,0.0115693043917417,0.0104166883975267,0.0024541029706597
1770452777871,-0.125396728515625,-0.1584320068359375,-0.98321533203125,0.0148159638047218,0.0066022425889968,0.0072115738876163
1770452777881,-0.121734619140625,-0.160003662109375,-0.9834747314453124,0.0178399831056594,0.002944124629721,0.0060786651447415
1770452777892,-0.122344970703125,-0.1586151123046875,-0.978363037109375,0.0157547276467084,0.0048642638139426,0.0055375108495354
1770452777901,-0.1198272705078125,-0.1565704345703125,-0.9754486083984376,0.0122193815186619,0.0200496073812246,0.0049542784690856
1770452777912,-0.1226348876953125,-0.157470703125,-0.97027587890625,0.0065460498444736,0.0286582764238119,0.0046336338855326
1770452777923,-0.1232452392578125,-0.158599853515625,-0.968170166015625,-0.0012319782981649,0.0297605581581592,0.0064373929053545
1770452777932,-0.1251678466796875,-0.1568145751953125,-0.9718170166015624,0.0002399508084636,0.029394106939435,0.0047627971507608
1770452777942,-0.1276702880859375,-0.1590118408203125,-0.9789581298828124,0.0015084143960848,0.011722968891263,0.0079860212281346
1770452777952,-0.1250152587890625,-0.1629486083984375,-0.9837646484375,0.004038683604449,0.0029459886718541,0.0125490808859467
1770452777962,-0.1260986328125,-0.1579132080078125,-0.9849395751953124,0.0063559003174304,-0.0004724447790067,0.009386577643454
1770452777972,-0.12493896484375,-0.1567535400390625,-0.9796295166015624,0.0042365565896034,0.0045585329644382,0.0091887041926383
1770452777982,-0.123199462890625,-0.1607513427734375,-0.97662353515625,0.0037233654875308,0.0131826475262641,0.0103586316108703
1770452777992,-0.1233367919921875,-0.1618804931640625,-0.9810333251953124,0.00715351710096,0.0068395300768315,0.0115165738388895
1770452778002,-0.1271820068359375,-0.16357421875,-0.9815521240234376,0.0101778022944927,0.0164471492171287,0.0094262585043907
1770452778012,-0.130035400390625,-0.15240478515625,-0.9790802001953124,0.0124902250245213,0.0298819988965988,0.0005605954211205
1770452778022,-0.13055419921875,-0.155792236328125,-0.9781341552734376,0.0172239933162927,0.0262137614190578,-0.0058573563583195
1770452778032,-0.1300201416015625,-0.148284912109375,-0.9747161865234376,0.0185385309159755,0.0225934591144323,-0.0186660960316658
1770452778042,-0.1305389404296875,-0.1579437255859375,-0.9755401611328124,0.0077780280262231,0.0109642343595623,-0.0159025341272354
1770452778052,-0.124603271484375,-0.170501708984375,-0.9732818603515624,-0.0057774614542722,0.0009563411585986,-0.0061873220838606
1770452778062,-0.11846923828125,-0.1751251220703125,-0.970489501953125,-0.0125706531107425,0.0033680999185889,0.0046099317260086
1770452778072,-0.1189422607421875,-0.1642303466796875,-0.97320556640625,-0.0117298932746052,0.0126556074246764,0.0050669303163886
1770452778082,-0.1169586181640625,-0.1567840576171875,-0.9770965576171876,-0.0064869276247918,0.0236880183219909,0.0018727348651736
1770452778092,-0.117767333984375,-0.154541015625,-0.977783203125,-0.0030929953791201,0.0272220335900783,-0.0029310751706361
1770452778102,-0.1210479736328125,-0.1525115966796875,-0.97772216796875,0.0049518817104399,0.0264896638691425,-0.0063630905933678
1770452778112,-0.1214752197265625,-0.1522674560546875,-0.98077392578125,0.0068381987512111,0.0172018893063068,-0.0048719868063926
1770452778123,-0.1227569580078125,-0.158477783203125,-0.98028564453125,-0.0025044367648661,0.0166165269911289,-0.0017739315517246
1770452778133,-0.121337890625,-0.1622467041015625,-0.975372314453125,-0.0099724726751446,0.0319283716380596,0.0014319816837087
1770452778143,-0.118438720703125,-0.162445068359375,-0.9742279052734376,-0.0145935900509357,0.041505366563797,-0.0041966093704104
1770452778153,-0.118804931640625,-0.16094970703125,-0.9776763916015624,-0.0154897440224885,0.0413988381624221,-0.0089104045182466
1770452778163,-0.1186065673828125,-0.1589508056640625,-0.9827728271484376,-0.012671853415668,0.038683746010065,-0.0068499166518449
1770452778173,-0.121612548828125,-0.15667724609375,-0.986602783203125,-0.0051753208972513,0.02855627797544,-0.0019185412675142
1770452778183,-0.12054443359375,-0.1560211181640625,-0.987396240234375,0.0093165365979075,0.0136763975024223,-0.0001454086013836
1770452778193,-0.1251983642578125,-0.1549530029296875,-0.9945220947265624,0.0239000059664249,0.0012365056900307,-0.0011901666875928
1770452778203,-0.123382568359375,-0.157135009765625,-0.99169921875,0.0305504519492387,0.0006356965750455,0.0006673881434835
1770452778213,-0.1201629638671875,-0.15887451171875,-0.9807281494140624,0.0350485295057296,0.0099455751478672,0.0002109223569277
1770452778223,-0.116119384765625,-0.15972900390625,-0.97894287109375,0.0389987975358963,0.0084747113287448,0.000361124635674
1770452778233,-0.1137542724609375,-0.1632080078125,-0.980255126953125,0.0333379842340946,0.0061170146800577,0.0019845876377075
1770452778243,-0.1138458251953125,-0.1614227294921875,-0.969940185546875,0.0267929974943399,0.0169627387076616,0.0045382929965853
1770452778253,-0.11370849609375,-0.1594696044921875,-0.9687652587890624,0.0186000503599643,0.0172578170895576,0.0013598100049421
1770452778263,-0.115386962890625,-0.159912109375,-0.9666595458984376,0.005373460240662,0.0265722218900918,0.0040669133886694
1770452778273,-0.115325927734375,-0.15899658203125,-0.9620513916015624,-0.0094571514055132,0.0231093131005764,0.0035478631034493
1770452778284,-0.116455078125,-0.1592254638671875,-0.9617919921875,-0.0197398830205202,0.0224656276404857,0.0012136024888604
1770452778294,-0.120819091796875,-0.150848388671875,-0.965576171875,-0.0231077168136835,0.0234869495034217,-0.003458114573732
1770452778305,-0.1195068359375,-0.15167236328125,-0.9747467041015624,-0.0155454035848379,0.0136143453419208,-0.0047753141261637
1770452778313,-0.1193389892578125,-0.1533203125,-0.9818267822265624,-0.0101461112499237,0.0001786981010809,0.0015203986549749
1770452778323,-0.1144561767578125,-0.1639251708984375,-0.9846649169921876,-0.0029071066528558,-0.0022519689518958,0.0070416643284261
1770452778333,-0.11114501953125,-0.161224365234375,-0.9863739013671876,0.0059782639145851,0.0059455069713294,0.0072943982668221
1770452778344,-0.1109619140625,-0.1605377197265625,-0.987884521484375,0.0128476219251751,0.0042205778881907,0.0126875657588243
1770452778354,-0.1096649169921875,-0.1661224365234375,-0.98785400390625,0.0180322639644145,-0.0003320961841382,0.017152888700366
1770452778364,-0.110137939453125,-0.1652069091796875,-0.98248291015625,0.0187108367681503,0.0076757627539336,0.0198842249810695
1770452778374,-0.1132049560546875,-0.16192626953125,-0.977874755859375,0.018181400373578,0.0137333888560533,0.0201747771352529
1770452778384,-0.1170501708984375,-0.1604461669921875,-0.97650146484375,0.0149845425039529,0.0131086111068725,0.020648818463087
1770452778394,-0.118255615234375,-0.1596221923828125,-0.9762420654296876,0.0143155558034777,0.0129701271653175,0.0192479975521564
1770452778404,-0.1190185546875,-0.1593475341796875,-0.9749908447265624,0.0100875217467546,0.0155994659289717,0.0159408841282129
1770452778414,-0.119293212890625,-0.1593170166015625,-0.9753265380859376,0.0125088673084974,0.013040967285633,0.0142415203154087
1770452778424,-0.1199493408203125,-0.160369873046875,-0.9799346923828124,0.0156039930880069,0.0027816717047244,0.0101133538410067
1770452778435,-0.1224517822265625,-0.1630401611328125,-0.97991943359375,0.0162865612655878,-0.0016000272007659,0.0134287234395742
1770452778444,-0.1191253662109375,-0.1632080078125,-0.9789886474609376,0.0164791084825992,-0.0020628846250474,0.0135490978136658
1770452778454,-0.11846923828125,-0.1656646728515625,-0.9838104248046876,0.0236067920923233,-0.0098254662007093,0.0115866148844361
1770452778464,-0.1196441650390625,-0.167633056640625,-0.985321044921875,0.0253045577555894,-0.0067716194316744,0.0163238458335399
1770452778474,-0.1168212890625,-0.1660308837890625,-0.9808502197265624,0.0261953845620155,0.0001094559193006,0.0150175653398036
1770452778484,-0.1149444580078125,-0.1651153564453125,-0.9778900146484376,0.0259583629667758,0.0057444386184215,0.0155757637694478
1770452778494,-0.1137847900390625,-0.16473388671875,-0.97393798828125,0.0249090772122144,0.0136747993528842,0.0140580283477902
1770452778504,-0.116668701171875,-0.1631622314453125,-0.9759979248046876,0.027279557660222,0.0117895472794771,0.0135917086154222
1770452778514,-0.1188507080078125,-0.1624298095703125,-0.9777984619140624,0.0269008558243513,0.0020407803822308,0.0137480366975069
1770452778524,-0.1175537109375,-0.1643524169921875,-0.9733428955078124,0.0248797833919525,-0.0030032468494027,0.0119088571518659
1770452778536,-0.1209564208984375,-0.162567138671875,-0.971923828125,0.0232262257486581,-0.0087112002074718,0.0062025021761655
1770452778544,-0.1209716796875,-0.1633453369140625,-0.97247314453125,0.0168306455016136,-0.0155288921669125,0.0051633366383612
1770452778554,-0.121551513671875,-0.1643829345703125,-0.9683685302734376,0.0066648270003497,-0.0150580452755093,0.0029241507872939
1770452778565,-0.1211395263671875,-0.1634674072265625,-0.965484619140625,-0.0044743767939507,-0.0049106026999652,-0.0028956551104784
1770452778575,-0.1218414306640625,-0.16424560546875,-0.96258544921875,-0.0158684458583593,0.002969158347696,-0.0019033611752092
1770452778585,-0.113922119140625,-0.1671600341796875,-0.96551513671875,-0.0190298836678266,0.0110686300322413,-0.0002617887221276
1770452778595,-0.117095947265625,-0.1661834716796875,-0.974212646484375,-0.0167970899492502,0.0027225494850426,0.0003430151555221
1770452778606,-0.1192779541015625,-0.1644744873046875,-0.980499267578125,-0.0122065991163253,-0.0006285060080699,0.0059827915392816
1770452778615,-0.1183013916015625,-0.1661529541015625,-0.981170654296875,-0.0047036749310791,-0.0040815607644617,0.0087953554466366
1770452778625,-0.1165313720703125,-0.163665771484375,-0.9829559326171876,0.000242880283622,0.0010863033821806,0.0068296766839921
1770452778635,-0.1191864013671875,-0.1653594970703125,-0.9845733642578124,0.0093008233234286,-0.0046954192221164,0.0052786516025662
1770452778645,-0.1180877685546875,-0.16851806640625,-0.9856719970703124,0.0115946047008037,-0.0139267342165112,0.0072158346883952
1770452778655,-0.1179351806640625,-0.1679534912109375,-0.978271484375,0.0077306241728365,-0.0057497648522257,0.0062491074204444
1770452778665,-0.118988037109375,-0.1628265380859375,-0.9721527099609376,0.0091756554320454,0.0073900055140256,0.0035539884120225
1770452778675,-0.119354248046875,-0.161712646484375,-0.9757080078125,0.0120454775169491,0.0018309232546016,0.0063524381257593
1770452778685,-0.12103271484375,-0.165802001953125,-0.9801788330078124,0.0101437140256166,-0.0100451773032546,0.001343032112345
1770452778695,-0.1244049072265625,-0.167083740234375,-0.9749298095703124,0.0086267776787281,-0.0161608606576919,0.0051702610217034
1770452778705,-0.1175384521484375,-0.16607666015625,-0.9708251953125,0.0056221992708742,-0.0129389679059386,0.003394465195015
1770452778715,-0.1209869384765625,-0.163970947265625,-0.9705047607421876,-0.0031228226143866,-0.0081466101109981,0.0010668623726814
1770452778725,-0.1234893798828125,-0.1636505126953125,-0.964263916015625,-0.0136311240494251,0.0005025385180488,-0.0004452805442269
1770452778736,-0.119232177734375,-0.1693267822265625,-0.9591217041015624,-0.0293594859540462,0.0026802052743732,-0.0016684704460203
1770452778745,-0.113525390625,-0.173065185546875,-0.962249755859375,-0.0392549932003021,0.0052741239778697,0.0021939121652394
1770452778756,-0.1177978515625,-0.169403076171875,-0.968048095703125,-0.0419250801205635,0.0003400856803636,0.0063196811825037
1770452778765,-0.1221771240234375,-0.162628173828125,-0.975616455078125,-0.0393806956708431,-0.0124526750296354,0.0097812581807374
1770452778775,-0.1219482421875,-0.1553955078125,-0.9794921875,-0.0308846794068813,-0.0070310113951563,0.0097618168219923
1770452778786,-0.12091064453125,-0.1604461669921875,-0.9823760986328124,-0.0197888854891061,-0.0139677468687295,0.0083143888041377
1770452778796,-0.1150360107421875,-0.17041015625,-0.9886474609375,-0.0106246806681156,-0.0187044460326433,0.0160306319594383
1770452778806,-0.112518310546875,-0.1759796142578125,-0.986114501953125,-0.0055170045234262,-0.0134625453501939,0.0213175397366285
1770452778816,-0.1212615966796875,-0.1681976318359375,-0.983306884765625,0.0017731325933709,0.000437557377154,0.0129024824127554
1770452778826,-0.126678466796875,-0.159332275390625,-0.98577880859375,0.0098137483000755,-0.0055215316824615,0.0129845077171921
1770452778836,-0.1240386962890625,-0.15667724609375,-0.9799652099609376,0.0159254372119903,0.0037827540654689,0.0019006980583071
1770452778846,-0.131134033203125,-0.1548309326171875,-0.9760894775390624,0.018156100064516,0.0008484831196255,-0.0088369008153676
1770452778856,-0.1300048828125,-0.16552734375,-0.9797515869140624,0.0143432533368468,-0.0251362454146146,-0.0060485713183879
1770452778866,-0.122222900390625,-0.1845245361328125,-0.9760589599609376,0.0060160807333886,-0.039922647178173,0.0083849625661969
1770452778876,-0.1160125732421875,-0.1845855712890625,-0.9735870361328124,-0.0022948458790779,-0.0340423882007598,0.0113189667463302
1770452778886,-0.119537353515625,-0.1650543212890625,-0.97320556640625,-0.0084827002137899,-0.0284348372370004,0.0084842983633279
1770452778896,-0.1216888427734375,-0.1582794189453125,-0.967864990234375,-0.0161773711442947,-0.0084358286112546,0.000138750692713
1770452778906,-0.121917724609375,-0.1571044921875,-0.961029052734375,-0.0196133814752101,0.0158237032592296,-0.009492571465671
1770452778916,-0.1219940185546875,-0.1596527099609375,-0.9666595458984376,-0.0185545086860656,0.0170804504305124,-0.0144375283271074
1770452778926,-0.124359130859375,-0.16156005859375,-0.976470947265625,-0.0157006662338972,-0.0081439465284347,-0.0089258505031466
1770452778936,-0.1239776611328125,-0.1675872802734375,-0.9840087890625,-0.0185129642486572,-0.020906614139676,-0.0011073424248024
1770452778946,-0.12237548828125,-0.165008544921875,-0.978515625,-0.0200259052217006,-0.0119402827695012,0.0016317188274115
1770452778956,-0.1192626953125,-0.1630859375,-0.9749755859375,-0.0170005541294813,0.0059977052733302,0.0008287757518701
1770452778968,-0.115081787109375,-0.164947509765625,-0.983367919921875,-0.0110406670719385,0.0097458381205797,0.0017715347930788
1770452778976,-0.1202850341796875,-0.16619873046875,-0.988677978515625,-0.0048709213733673,0.0085325017571449,0.0003350256592966
1770452778987,-0.1250457763671875,-0.1647186279296875,-0.9864349365234376,0.0022778017446398,0.0030075078830122,0.0053090117871761
1770452778997,-0.1235504150390625,-0.1654052734375,-0.9871826171875,0.0119874207302927,-0.0043521379120647,0.0033111080992966
1770452779007,-0.1286468505859375,-0.1639556884765625,-0.98748779296875,0.0169230569154024,-0.0103969806805253,0.0027779433876276
1770452779017,-0.12933349609375,-0.1636962890625,-0.9773101806640624,0.014935540035367,-0.0024748756550252,0.0040815607644617
1770452779027,-0.1261138916015625,-0.164703369140625,-0.9730987548828124,0.0164431557059288,-0.0050232545472681,0.0006735134520567
1770452779037,-0.12762451171875,-0.16485595703125,-0.9776763916015624,0.01465670671314,-0.0108454572036862,-0.0027443873696029
1770452779047,-0.1295318603515625,-0.1651611328125,-0.9722442626953124,0.0083908215165138,-0.006687996443361,-0.0070078419521451
1770452779057,-0.1255950927734375,-0.1658477783203125,-0.965362548828125,-0.0014692660188302,0.0048059406690299,-0.006909305229783
1770452779067,-0.124603271484375,-0.165802001953125,-0.9667205810546876,-0.0081213098019361,0.0044765076600015,-0.0093916375190019
1770452779077,-0.1269683837890625,-0.1652679443359375,-0.969146728515625,-0.0161960143595933,-0.0025750105269253,-0.0104696853086352
1770452779087,-0.1275177001953125,-0.1669921875,-0.9701995849609376,-0.018286595121026,-0.0092672677710652,-0.0035886096302419
1770452779097,-0.12200927734375,-0.16748046875,-0.9737091064453124,-0.0174658093601465,-0.0070432620123028,-0.0052703958936035
1770452779107,-0.1240081787109375,-0.162322998046875,-0.97918701171875,-0.0137874512001872,-0.0078731030225753,-0.0101594273000955
1770452779117,-0.1262969970703125,-0.15667724609375,-0.9803009033203124,-0.0062099588103592,-0.0064626927487552,-0.0084328996017575
1770452779127,-0.123809814453125,-0.1681976318359375,-0.980682373046875,-0.0026019082870334,-0.0186882000416517,0.000916393706575
1770452779137,-0.11907958984375,-0.16754150390625,-0.9828643798828124,-0.0002934803487733,-0.0299222134053707,0.0013771206140518
1770452779147,-0.121826171875,-0.16668701171875,-0.9794769287109376,0.0015563513152301,-0.0242693871259689,0.0034408040810376
1770452779157,-0.1216278076171875,-0.164581298828125,-0.97430419921875,-0.0020085561554878,-0.0100371874868869,0.0035665053874254
1770452779167,-0.1202239990234375,-0.163848876953125,-0.972808837890625,-0.0071316789835691,0.0006223807577043,-7.56337758502923e-05
1770452779177,-0.121612548828125,-0.1641387939453125,-0.97119140625,-0.011634019203484,0.0102936504408717,0.0002327602705918
1770452779187,-0.1231689453125,-0.1618804931640625,-0.97119140625,-0.0149528505280613,0.0052943644113838,0.002665557898581
1770452779197,-0.12750244140625,-0.16162109375,-0.9725799560546876,-0.0224674921482801,0.0042496062815189,0.0016546220285817
1770452779207,-0.1301727294921875,-0.162139892578125,-0.9690093994140624,-0.0314846895635128,0.0175283942371606,-0.0016820525052025
1770452779218,-0.1288299560546875,-0.16192626953125,-0.9685211181640624,-0.0333076231181621,0.0264071058481931,-0.0052474923431873
1770452779228,-0.126495361328125,-0.162628173828125,-0.976165771484375,-0.0293464362621307,0.020561734214425,-0.0052312472835183
1770452779238,-0.1246337890625,-0.1674957275390625,-0.982635498046875,-0.0260334648191928,0.0058104847557842,-0.0026306705549359
1770452779248,-0.1256103515625,-0.1678466796875,-0.9842681884765624,-0.0212634764611721,-0.0036639769095927,0.0004657868703361
1770452779258,-0.1249847412109375,-0.16717529296875,-0.9838409423828124,-0.0131142036989331,-0.0107141630724072,0.0013206616276875
1770452779268,-0.123565673828125,-0.1677398681640625,-0.9834747314453124,-0.0117511982098221,-0.0100262686610221,-0.0013603427214547
1770452779278,-0.12396240234375,-0.1660003662109375,-0.9754486083984376,-0.0066738817840814,0.0054405718110501,-0.001800563186407
1770452779288,-0.12677001953125,-0.1606597900390625,-0.9744720458984376,0.001701493631117,0.0058594867587089,-0.0036277580074965
1770452779298,-0.12506103515625,-0.1639862060546875,-0.9776611328125,0.0086443545296788,-0.0025292041245847,-0.0001808286324376
1770452779308,-0.1219329833984375,-0.166259765625,-0.971282958984375,0.0114870127290487,-0.0066315373405814,0.0024927188642323
1770452779318,-0.121917724609375,-0.1640777587890625,-0.964141845703125,0.0144311375916004,-0.0036615801509469,0.0058906460180878
1770452779328,-0.1206512451171875,-0.1574859619140625,-0.95867919921875,0.0202844981104135,0.0012783173006027,0.0100544979795813
1770452779338,-0.120086669921875,-0.160064697265625,-0.9532012939453124,0.0211518909782171,0.0124611966311931,0.0128225879743695
1770452779348,-0.1155242919921875,-0.1633148193359375,-0.94134521484375,0.0240182504057884,0.0375372543931007,0.0114145744591951
1770452779358,-0.1162261962890625,-0.1597900390625,-0.9355316162109376,0.0268968623131513,0.0502083078026771,0.0114537235349416
1770452779368,-0.121307373046875,-0.15771484375,-0.93670654296875,0.0249476935714483,0.041062481701374,0.0089964242652058
1770452779378,-0.1255950927734375,-0.1534271240234375,-0.9380035400390624,0.0127477534115314,0.0341859348118305,0.0042219092138111
1770452779388,-0.1334381103515625,-0.14892578125,-0.9386444091796876,-0.0049433596432209,0.0268614422529935,-0.0062230085022747
1770452779398,-0.139434814453125,-0.1494903564453125,-0.9427032470703124,-0.0335771329700946,0.0009949569357559,-0.0168410316109657
1770452779409,-0.1406402587890625,-0.1542816162109375,-0.94805908203125,-0.0777291506528854,-0.0148351388052105,-0.0264422595500946
1770452779419,-0.1433868408203125,-0.1577606201171875,-0.9554443359375,-0.1243863999843597,-0.0275301616638898,-0.0344043113291263
1770452779429,-0.1402587890625,-0.1601715087890625,-0.9704742431640624,-0.1623561531305313,-0.0415908545255661,-0.0392014645040035
1770452779438,-0.139434814453125,-0.1596527099609375,-0.9907379150390624,-0.1982318609952926,-0.0560659319162368,-0.0353566594421863
1770452779449,-0.135986328125,-0.16143798828125,-1.0023956298828125,-0.2235313653945922,-0.0487731322646141,-0.0224714875221252
1770452779459,-0.1265716552734375,-0.1612396240234375,-1.01593017578125,-0.2365941703319549,-0.0182170867919921,-0.0035571842454373
1770452779469,-0.1195220947265625,-0.1639862060546875,-1.0287017822265625,-0.2313064634799957,0.0054336474277079,0.0163366291671991
1770452779479,-0.112579345703125,-0.1642913818359375,-1.0391998291015625,-0.214415892958641,0.0300849322229623,0.0344794131815433
1770452779489,-0.1075439453125,-0.163330078125,-1.04632568359375,-0.1778195351362228,0.0531825274229049,0.0498455874621868
1770452779499,-0.1048126220703125,-0.1593017578125,-1.0513916015625,-0.1296107172966003,0.0672003403306007,0.0614854656159877
1770452779509,-0.1083526611328125,-0.1569366455078125,-1.0538787841796875,-0.0649638175964355,0.0745013952255249,0.0745037943124771
1770452779519,-0.1119537353515625,-0.1531982421875,-1.0559844970703125,0.0096656763926148,0.0648631528019905,0.080086313188076
1770452779529,-0.1175689697265625,-0.1533966064453125,-1.0516357421875,0.0715367645025253,0.058703526854515,0.0806162804365158
1770452779539,-0.123870849609375,-0.156585693359375,-1.036376953125,0.1224907636642456,0.0611815974116325,0.073525883257389
1770452779549,-0.1271514892578125,-0.1617279052734375,-1.0182952880859375,0.156509444117546,0.049303900450468,0.0648192092776298
1770452779559,-0.1279449462890625,-0.163726806640625,-1.001251220703125,0.1725446134805679,0.0430995337665081,0.0454479083418846
1770452779569,-0.132965087890625,-0.160980224609375,-0.9840240478515624,0.1840167045593261,0.0337726101279258,0.0262830033898353
1770452779579,-0.135101318359375,-0.15936279296875,-0.973175048828125,0.1872428655624389,0.0165422242134809,0.0106313386932015
1770452779589,-0.1376495361328125,-0.1584930419921875,-0.957275390625,0.1796147674322128,0.0071971928700804,-0.0031430625822395
1770452779599,-0.1406707763671875,-0.15826416015625,-0.9495086669921876,0.1678273528814315,-0.026396719738841,-0.015123825520277
1770452779609,-0.13665771484375,-0.1622314453125,-0.94195556640625,0.1491695046424865,-0.0502418652176857,-0.0238491408526897
1770452779619,-0.1360626220703125,-0.1514129638671875,-0.9340362548828124,0.1187474206089973,-0.0450604185461998,-0.0454777367413044
1770452779629,-0.13812255859375,-0.152923583984375,-0.9226226806640624,0.0837590768933296,-0.0383974574506282,-0.0496983155608177
1770452779640,-0.12469482421875,-0.156036376953125,-0.9134368896484376,0.0389521941542625,-0.0192173700779676,-0.0595709197223186
1770452779649,-0.1236724853515625,-0.1618499755859375,-0.915740966796875,-0.0061106230132281,-0.002919090911746,-0.0594809018075466
1770452779660,-0.1168670654296875,-0.1673126220703125,-0.9248199462890624,-0.0474964119493961,-0.0047753141261637,-0.0490245334804058
1770452779670,-0.108856201171875,-0.16961669921875,-0.9363555908203124,-0.0775573775172233,-0.000794953550212,-0.0395932160317897
1770452779680,-0.112060546875,-0.1645965576171875,-0.9456024169921876,-0.0975987315177917,0.0212312527000904,-0.0298042353242635
1770452779690,-0.108123779296875,-0.1536102294921875,-0.9528961181640624,-0.1051956638693809,0.0528983697295188,-0.0247988235205411
1770452779702,-0.108367919921875,-0.14666748046875,-0.969818115234375,-0.1019018664956092,0.0640713945031166,-0.0203441530466079
1770452779710,-0.1107025146484375,-0.145172119140625,-0.9823760986328124,-0.0918329805135726,0.0633115917444229,-0.0144242132082581
1770452779720,-0.11334228515625,-0.145538330078125,-0.991424560546875,-0.0793904289603233,0.0547529943287372,-0.0056000952608883
1770452779730,-0.1139373779296875,-0.1558380126953125,-0.999542236328125,-0.0721082836389541,0.0396251752972602,0.007931426167488
1770452779740,-0.1108245849609375,-0.1620635986328125,-0.996124267578125,-0.0679753199219703,0.053710900247097,0.0165824387222528
1770452779750,-0.1107635498046875,-0.157745361328125,-0.9984893798828124,-0.0563277192413806,0.0687787979841232,0.0203753132373094
1770452779760,-0.1131134033203125,-0.153106689453125,-1.0015411376953125,-0.0385916009545326,0.0744779631495475,0.0141557659953832
1770452779770,-0.1193084716796875,-0.151123046875,-1.0019989013671875,-0.0184370633214712,0.0777336731553077,0.0084978807717561
1770452779780,-0.1261749267578125,-0.1496124267578125,-1.0020904541015625,0.0010815097484737,0.0614260770380497,0.0007909588166512
1770452779790,-0.1307525634765625,-0.147216796875,-1.004241943359375,0.0211766585707664,0.0341574363410472,-0.0056126117706298
1770452779802,-0.13458251953125,-0.1502838134765625,-1.000946044921875,0.026022545993328,0.0110265519469976,-0.0122880917042493
1770452779810,-0.132598876953125,-0.154632568359375,-0.9842071533203124,0.021011009812355,0.0114665059372782,-0.0179212093353271
1770452779820,-0.126434326171875,-0.15692138671875,-0.9765777587890624,0.0157957412302494,0.0090182619169354,-0.0226025134325027
1770452779830,-0.1208648681640625,-0.159393310546875,-0.975860595703125,0.011340538971126,0.0152612449601292,-0.0232643093913793
1770452779841,-0.11859130859375,-0.15863037109375,-0.97412109375,0.0077980021014809,0.0136023610830307,-0.0252435710281133
1770452779850,-0.1161346435546875,-0.1598968505859375,-0.9763336181640624,0.002085521351546,-0.0008056062506511,-0.0194932743906974
1770452779861,-0.1137847900390625,-0.1620025634765625,-0.97332763671875,-0.0065503111109137,0.0021883193403482,-0.0168897677212953
1770452779871,-0.1136627197265625,-0.160675048828125,-0.9712677001953124,-0.0127522805705666,0.0066581689752638,-0.0112153701484203
1770452779881,-0.110198974609375,-0.16180419921875,-0.9723968505859376,-0.0136574888601899,0.0092233261093497,-0.01008858717978
1770452779891,-0.113128662109375,-0.1606292724609375,-0.976837158203125,-0.0104563692584633,0.0130060799419879,-0.0074059846810996
1770452779902,-0.11053466796875,-0.1587677001953125,-0.9801788330078124,-0.0086193205788731,0.0235631167888641,-0.0050722565501928
1770452779911,-0.110015869140625,-0.1562652587890625,-0.9806060791015624,0.0041065942496061,0.0222709514200687,-0.0044826325029134
1770452779921,-0.1105499267578125,-0.1600189208984375,-0.9810333251953124,0.018812570720911,0.0080776335671544,0.0018583538476377
1770452779931,-0.1065216064453125,-0.161712646484375,-0.9833526611328124,0.0282849017530679,0.0108888670802116,-0.0014082795241847
1770452779941,-0.1089630126953125,-0.1577911376953125,-0.980865478515625,0.0279466789215803,0.0115802232176065,-0.0035617116373032
1770452779951,-0.110260009765625,-0.1615447998046875,-0.970550537109375,0.0257754046469926,0.0176112186163663,-0.0031875374261289
1770452779961,-0.108642578125,-0.1599884033203125,-0.96807861328125,0.0273629147559404,0.0189057812094688,-0.0077122482471168
1770452779971,-0.114593505859375,-0.157196044921875,-0.9715423583984376,0.0201718471944332,0.0117075219750404,-0.007940481416881
1770452779981,-0.112579345703125,-0.160400390625,-0.966217041015625,0.0107064405456185,0.0234685745090246,-0.0058014299720525
1770452779991,-0.1143646240234375,-0.1572113037109375,-0.963775634765625,0.0035409389529377,0.0243143942207098,-0.0079759014770388
1770452780001,-0.115509033203125,-0.1536865234375,-0.9690399169921876,-0.0054131411015987,0.0117671769112348,-0.0133674703538417
1770452780011,-0.1194610595703125,-0.155059814453125,-0.9711456298828124,-0.0147238187491893,0.0077007967047393,-0.0165928248316049
1770452780021,-0.1158294677734375,-0.154266357421875,-0.9714813232421876,-0.0203521437942981,0.0075833513401448,-0.0155749646946787
1770452780031,-0.112548828125,-0.157379150390625,-0.9781494140625,-0.0224232841283082,0.003566239029169,-0.0140937147662043
1770452780041,-0.1082000732421875,-0.16094970703125,-0.9832916259765624,-0.0224435236304998,0.0097772628068923,-0.0114148408174514
1770452780051,-0.1054229736328125,-0.1605377197265625,-0.98382568359375,-0.0194189716130495,0.0193739645183086,-0.0070741549134254
1770452780062,-0.103973388671875,-0.1598358154296875,-0.986175537109375,-0.0144497789442539,0.0273634474724531,-0.0007997472421266
1770452780072,-0.103118896484375,-0.1583099365234375,-0.988311767578125,-0.0088731199502944,0.0326807163655757,0.0030152308754622
1770452780082,-0.107086181640625,-0.1575469970703125,-0.9857025146484376,-0.0023704797495156,0.0328924357891082,0.0051974253728985
1770452780092,-0.1096954345703125,-0.15740966796875,-0.9837646484375,0.0024551681708544,0.0365843772888183,0.006990797817707
1770452780102,-0.1099853515625,-0.1560821533203125,-0.98321533203125,0.0084379594773054,0.0289245918393135,0.0058861183933913
1770452780112,-0.11212158203125,-0.1546478271484375,-0.9808197021484376,0.0098124165087938,0.0296873208135366,0.0016815199051052
1770452780122,-0.1136474609375,-0.156829833984375,-0.975738525390625,0.0092150699347257,0.0286809131503105,-0.0005363606614992
1770452780132,-0.11181640625,-0.1590728759765625,-0.9765472412109376,0.0058597531169652,0.0211995616555213,-0.0057463026605546
1770452780142,-0.1138763427734375,-0.15899658203125,-0.9720611572265624,-0.0023816649336367,0.021393172442913,-0.0082446141168475
1770452780152,-0.1116180419921875,-0.1591033935546875,-0.9704742431640624,-0.0054086139425635,0.0220906548202037,-0.0114563861861824
1770452780162,-0.1106109619140625,-0.160675048828125,-0.972869873046875,-0.0117695741355419,0.0133126098662614,-0.0129762524738907
1770452780172,-0.10760498046875,-0.1637725830078125,-0.9716644287109376,-0.0187433268874883,0.0083218459039926,-0.0092970952391624
1770452780182,-0.1060943603515625,-0.160675048828125,-0.968963623046875,-0.0220270045101642,0.0195558574050664,-0.0085135931149125
1770452780192,-0.1096954345703125,-0.1550140380859375,-0.9727325439453124,-0.0198123212903738,0.0232874788343906,-0.0095136100426316
1770452780202,-0.1103973388671875,-0.156341552734375,-0.9803009033203124,-0.012057994492352,0.0164839010685682,-0.0076517942361533
1770452780212,-0.1069488525390625,-0.1601409912109375,-0.9828033447265624,-0.0058786617591977,0.0048549426719546,-0.0069473884068429
1770452780222,-0.1051025390625,-0.1626129150390625,-0.9801788330078124,-0.0053039514459669,0.0080869551748037,-0.0039590550586581
1770452780232,-0.104736328125,-0.1619873046875,-0.974151611328125,-0.0091354418545961,0.0183052383363246,-0.0047034085728228
1770452780243,-0.1061248779296875,-0.160491943359375,-0.973541259765625,-0.0138705419376492,0.0223891958594322,-0.0035619779955595
1770452780252,-0.1089019775390625,-0.15582275390625,-0.971466064453125,-0.0154572529718279,0.0264939256012439,-0.0027369307354092
1770452780263,-0.112060546875,-0.15850830078125,-0.9765625,-0.0119602559134364,0.0100265350192785,-0.0057263290509581
1770452780273,-0.1093597412109375,-0.160888671875,-0.984344482421875,-0.0094294548034667,-0.0068765482865273,-0.0017893778858706
1770452780283,-0.1086883544921875,-0.1584625244140625,-0.98248291015625,-0.0074328826740384,-0.0094712655991315,-0.0012588762911036
1770452780293,-0.1093292236328125,-0.155059814453125,-0.980926513671875,-0.0087772458791732,-0.0066131614148616,-0.0036416065413504
1770452780303,-0.1097259521484375,-0.1529693603515625,-0.977630615234375,-0.0133530898019671,0.0008367652189917,-0.0056035569868981
1770452780313,-0.1087493896484375,-0.1545257568359375,-0.97357177734375,-0.0186027120798826,0.00281229801476,-0.0089990878477692
1770452780323,-0.10809326171875,-0.1605987548828125,-0.9772491455078124,-0.0201803687959909,-0.0047196540981531,-0.0050679952837526
1770452780334,-0.1041259765625,-0.163604736328125,-0.98236083984375,-0.0204267110675573,-0.0048733185976743,0.001865011639893
1770452780343,-0.102569580078125,-0.1619110107421875,-0.983123779296875,-0.0187550447881221,-0.0006215817993506,0.0035963326226919
1770452780353,-0.10430908203125,-0.1589813232421875,-0.983612060546875,-0.0157653801143169,0.0061697452329099,0.0014844459947198
1770452780363,-0.106414794921875,-0.1571502685546875,-0.97979736328125,-0.0171065479516983,0.0084406230598688,0.0040690437890589
1770452780373,-0.1058502197265625,-0.15631103515625,-0.9784088134765624,-0.0153017248958349,0.0004146541759837,0.0060943779535591
1770452780383,-0.1098785400390625,-0.1598663330078125,-0.9806671142578124,-0.0106236161664128,-0.0160029344260692,0.0121346935629844
1770452780393,-0.108978271484375,-0.1544036865234375,-0.981170654296875,-0.0030503845773637,0.004259992390871,0.0037196371704339
1770452780403,-0.1150970458984375,-0.1448211669921875,-0.982391357421875,0.0074528562836349,0.0055734636262059,-0.0018852517241612
1770452780413,-0.1109771728515625,-0.156036376953125,-0.9846649169921876,0.0198578611016273,-0.0065881279297173,-0.0052802492864429
1770452780423,-0.112457275390625,-0.1573638916015625,-0.986053466796875,0.0189318787306547,-0.0158942770212888,-0.0090741887688636
1770452780433,-0.1111602783203125,-0.16455078125,-0.9831695556640624,0.0101786013692617,-0.0158966742455959,-0.0014287859667092
1770452780443,-0.106597900390625,-0.1680145263671875,-0.978057861328125,0.009329586289823,-0.0158045291900634,-0.0002300971100339
1770452780453,-0.1074371337890625,-0.1665496826171875,-0.9808197021484376,0.0133855799213051,-0.0195239000022411,0.0074872109107673
1770452780463,-0.1024627685546875,-0.16278076171875,-0.9828338623046876,0.0159957446157932,-0.0174847170710563,0.0073577812872827
1770452780473,-0.1081390380859375,-0.1533660888671875,-0.9822540283203124,0.021231785416603,-0.0143491122871637,0.0022639532107859
1770452780484,-0.1110687255859375,-0.1494293212890625,-0.9804840087890624,0.0281698517501354,-0.0147544452920556,-0.0030221552588045
1770452780494,-0.1137237548828125,-0.1498260498046875,-0.980560302734375,0.0266369376331567,-0.0164048057049512,-0.009786850772798
1770452780504,-0.1143798828125,-0.156707763671875,-0.977020263671875,0.0198040641844272,-0.0274191070348024,-0.0087005468085408
1770452780514,-0.1058807373046875,-0.1630859375,-0.9744110107421876,0.0042368229478597,-0.0306926649063825,-0.0027867318131029
1770452780524,-0.10565185546875,-0.1634368896484375,-0.96722412109375,-0.0130766537040472,-0.0069194249808788,0.0004721784498542
1770452780536,-0.104736328125,-0.157958984375,-0.9654693603515624,-0.022357502952218,0.0229556486010551,-0.0004407531523611
1770452780544,-0.1085205078125,-0.1539154052734375,-0.9732666015625,-0.0203771777451038,0.0235641822218894,-0.0009403621661476
1770452780554,-0.1076812744140625,-0.155517578125,-0.9825439453125,-0.0144596332684159,0.0205113999545574,0.0008133294177241
1770452780564,-0.110260009765625,-0.155670166015625,-0.9842681884765624,-0.0080547304823994,0.014738998375833,0.0026892600581049
1770452780574,-0.1101837158203125,-0.15692138671875,-0.984893798828125,0.00323121342808,0.0106473183259367,0.0038309572264552
1770452780584,-0.112884521484375,-0.1578826904296875,-0.987762451171875,0.0142907882109284,0.0011400992516428,0.0035265579354017
1770452780594,-0.1143035888671875,-0.155731201171875,-0.986358642578125,0.0177246686071157,-0.0082507394254207,0.0054019559174776
1770452780604,-0.1102294921875,-0.158966064453125,-0.9795989990234376,0.0149075770750641,-0.0073609771206974,0.0090510193258523
1770452780614,-0.1114349365234375,-0.15802001953125,-0.9769287109375,0.0138002345338463,-0.0028189560398459,0.0059625511057674
1770452780624,-0.11285400390625,-0.1583251953125,-0.975189208984375,0.0083093289285898,0.0012849752092733,0.0022309301421046
1770452780636,-0.11309814453125,-0.1579742431640625,-0.9720458984375,0.0013701963471248,0.0048384312540292,0.00054035539506
1770452780644,-0.1121063232421875,-0.1595001220703125,-0.971466064453125,-0.0061622885987162,0.0018852517241612,0.0012096078135073
1770452780654,-0.1123504638671875,-0.158203125,-0.9713592529296876,-0.0120934145525097,0.0009353021741844,-6.0986389144090936e-05
1770452780664,-0.1151123046875,-0.15899658203125,-0.9736480712890624,-0.0184879302978515,-0.000429834210081,0.0017030915478244
1770452780674,-0.110260009765625,-0.158294677734375,-0.97369384765625,-0.0216789301484823,0.0028599686920642,0.0046922233887016
1770452780684,-0.110198974609375,-0.1580657958984375,-0.975738525390625,-0.0197417475283145,0.0086968187242746,0.0047665257006883
1770452780694,-0.1127777099609375,-0.1560211181640625,-0.98248291015625,-0.0121224429458379,-0.0040384172461926,0.0072379391640424
1770452780705,-0.110504150390625,-0.1641693115234375,-0.9858551025390624,-0.0050807786174118,-0.0155728347599506,0.0128460237756371
1770452780715,-0.1116790771484375,-0.1598663330078125,-0.9864654541015624,0.004555070772767,-0.0093508912250399,0.0088749844580888
1770452780725,-0.1134796142578125,-0.1541748046875,-0.9883880615234376,0.0112369414418935,-0.0222022403031587,0.0079836240038275
1770452780735,-0.1115570068359375,-0.16265869140625,-0.985076904296875,0.0110174976289272,-0.0260742101818323,0.0082760397344827
1770452780745,-0.110992431640625,-0.161041259765625,-0.9775848388671876,0.0079617863520979,-0.0112547846511006,0.0065966499969363
1770452780755,-0.111663818359375,-0.157928466796875,-0.9738616943359376,0.0093199983239173,0.0009403621661476,0.0030722226947546
1770452780765,-0.1124420166015625,-0.1599578857421875,-0.974700927734375,0.00670424150303,0.0015334481140598,0.0044751758687198
1770452780775,-0.1133880615234375,-0.1602783203125,-0.9774627685546876,0.0020746025256812,-0.0025044367648661,0.0065194182097911
1770452780785,-0.1145782470703125,-0.1607513427734375,-0.9761810302734376,-0.0034045851789414,-0.0052719935774803,0.0061817294918
1770452780795,-0.1152496337890625,-0.16107177734375,-0.9735870361328124,-0.0094425035640597,-0.0072632390074431,0.0026304041966795
1770452780805,-0.1178436279296875,-0.1597747802734375,-0.9747161865234376,-0.0097833881154656,-0.0040573258884251,0.0008127967594191
1770452780815,-0.1161041259765625,-0.1606597900390625,-0.977935791015625,-0.0094289220869541,-0.0118904812261462,-0.0002929477195721
1770452780825,-0.1185302734375,-0.162445068359375,-0.9799957275390624,-0.0114582506939768,-0.0106936572119593,-0.0009339706157334
1770452780837,-0.1179962158203125,-0.1595916748046875,-0.9807281494140624,-0.004702609963715,-0.0059404470957815,0.0013510215794667
1770452780845,-0.114105224609375,-0.1592254638671875,-0.9902496337890624,0.0076251626014709,-0.0170780532062053,-4.793690095539205e-06
1770452780855,-0.1143646240234375,-0.1632080078125,-0.9940338134765624,0.0172764584422111,-0.0275107193738222,0.0060352557338774
1770452780865,-0.110748291015625,-0.16357421875,-0.990936279296875,0.0222030393779277,-0.0290990285575389,0.0100987069308757
1770452780875,-0.1084136962890625,-0.1645965576171875,-0.9839935302734376,0.022271217778325,-0.0107067069038748,0.0083415526896715
1770452780885,-0.1097259521484375,-0.15985107421875,-0.9776611328125,0.0238344930112361,0.0087362332269549,0.0085593992844223
1770452780895,-0.109619140625,-0.160736083984375,-0.978607177734375,0.0263727512210607,0.0092912362888455,0.0085929557681083
1770452780906,-0.1114501953125,-0.161651611328125,-0.9783172607421876,0.0209380388259887,0.0034495925065129,0.0073175677098333
1770452780915,-0.115875244140625,-0.161041259765625,-0.9722747802734376,0.0125855663791298,-0.0012373046483844,0.0061766696162521
1770452780926,-0.115966796875,-0.1586456298828125,-0.9698944091796876,0.0058251321315765,-0.0028559740167111,0.0069692260585725
1770452780936,-0.1159820556640625,-0.1564178466796875,-0.969024658203125,-5.299690383253619e-05,0.0082363579422235,0.0029041771776974
1770452780946,-0.1209259033203125,-0.158599853515625,-0.97064208984375,-0.0058094197884202,0.0155070545151829,5.406216951087117e-05
1770452780956,-0.1178741455078125,-0.1645355224609375,-0.971221923828125,-0.010456102900207,0.019228022545576,0.0003190466959495
1770452780966,-0.1129913330078125,-0.1658172607421875,-0.97430419921875,-0.0097703393548727,0.0201465468853712,-0.0010626012226566
1770452780976,-0.1148529052734375,-0.1630706787109375,-0.9802703857421876,-0.0049667954444885,0.002707635750994,-0.0016580841038376
1770452780986,-0.1160736083984375,-0.1644134521484375,-0.9842071533203124,-0.001799231627956,-0.0098568918183445,4.873584839515388e-05
1770452780996,-0.11761474609375,-0.161041259765625,-0.9793701171875,-9.82706405920908e-05,-0.0034296188969165,-0.0002412823960185
1770452781006,-0.1151580810546875,-0.157379150390625,-0.9791412353515624,0.0098965726792812,-0.0026983148418366,-0.0018471685471013
1770452781016,-0.1179656982421875,-0.157623291015625,-0.9836273193359376,0.0170077458024024,-0.0091950958594679,-0.0027417242527008
1770452781026,-0.1143341064453125,-0.161773681640625,-0.9811553955078124,0.0161523390561342,-0.0104494448751211,-0.0010897654574364
1770452781036,-0.1101226806640625,-0.1659698486328125,-0.975555419921875,0.0114358803257346,-0.0014034858904778,-0.0030458574183285
1770452781046,-0.1103057861328125,-0.165618896484375,-0.9686126708984376,0.003556385403499,0.0072267539799213,-0.0027739484794437
1770452781056,-0.1106719970703125,-0.1622314453125,-0.968505859375,-0.0060403156094253,0.0155302239581942,-0.002536660991609
1770452781067,-0.1129150390625,-0.1608123779296875,-0.9700164794921876,-0.0083207804709672,0.0128737203776836,-0.0004074636381119
1770452781076,-0.1142730712890625,-0.159210205078125,-0.975067138671875,-0.0104768760502338,0.0021944446489214,0.0013827132061123
1770452781086,-0.113983154296875,-0.15948486328125,-0.9731597900390624,-0.014378672465682,0.0025244103744626,0.0028772791847586
1770452781096,-0.1147003173828125,-0.15814208984375,-0.9720916748046876,-0.0195790268480777,0.0071761538274586,0.0045848982408642
1770452781106,-0.111297607421875,-0.1576690673828125,-0.9754180908203124,-0.0154138440266251,0.0126335034146904,0.0041468082927167
1770452781116,-0.1143341064453125,-0.160247802734375,-0.979156494140625,-0.0124377608299255,0.0076467343606054,0.0018130800453945
1770452781126,-0.1111907958984375,-0.1647491455078125,-0.98284912109375,-0.0128936944529414,0.0087309069931507,0.0083106607198715
1770452781137,-0.1092681884765625,-0.1646728515625,-0.9806976318359376,-0.0104694189503788,0.0163555368781089,0.0073026539757847
1770452781146,-0.1147308349609375,-0.1618804931640625,-0.9819488525390624,-0.0069947927258908,0.0124217821285128,0.0075367456302046
1770452781157,-0.1131439208984375,-0.1632232666015625,-0.983917236328125,-0.0011435613268986,0.0140463104471564,0.0088933603838086
1770452781167,-0.1115570068359375,-0.1592559814453125,-0.9869842529296876,0.0026423884555697,0.0147139653563499,0.0096640791743993
1770452781177,-0.115875244140625,-0.16119384765625,-0.9841156005859376,0.0018769958987832,0.0090371705591678,0.0108976550400257
1770452781187,-0.112579345703125,-0.166534423828125,-0.977325439453125,0.0011158644920215,0.0074177025817334,0.0143491122871637
1770452781197,-0.1118316650390625,-0.1603851318359375,-0.9767303466796876,0.0029726203065365,0.0159922819584608,0.0039622508920729
1770452781207,-0.1242218017578125,-0.1534271240234375,-0.9748077392578124,8.096009696600959e-05,0.0067343353293836,0.000720917712897
1770452781217,-0.1201324462890625,-0.153350830078125,-0.967041015625,-0.0050501525402069,0.0035635759122669,-0.0114965997636318
1770452781227,-0.123626708984375,-0.1532440185546875,-0.961334228515625,-0.0181861948221921,0.0066816047765314,-0.0190953966230154
1770452781237,-0.1208648681640625,-0.1598052978515625,-0.962066650390625,-0.034249048680067,-0.0019060244085267,-0.0166066735982894
1770452781247,-0.1126708984375,-0.1787261962890625,-0.96527099609375,-0.0476191826164722,-0.0191214960068464,-0.0016588830621913
1770452781257,-0.105987548828125,-0.1744537353515625,-0.9696807861328124,-0.0516088642179966,-0.0047835698351264,-0.0007720504072494
1770452781267,-0.1100311279296875,-0.157470703125,-0.9791107177734376,-0.047806404531002,-0.0027110979426652,0.0005667206714861
1770452781277,-0.1087646484375,-0.15618896484375,-0.9796905517578124,-0.0492050983011722,0.0090976245701313,-0.0020397149492055
1770452781288,-0.106597900390625,-0.156585693359375,-0.970794677734375,-0.0468186363577842,0.0225151628255844,-0.0083956150338053
1770452781297,-0.10723876953125,-0.15191650390625,-0.9760894775390624,-0.0350799560546875,0.0270563848316669,-0.0123221799731254
1770452781307,-0.1169281005859375,-0.1542510986328125,-0.988189697265625,-0.0228491239249706,0.0084217144176363,-0.0080123860388994
1770452781317,-0.1171112060546875,-0.1613616943359375,-0.9967041015625,-0.0150729594752192,-0.0181108266115188,0.0009166600648313
1770452781327,-0.1108245849609375,-0.162628173828125,-0.99102783203125,-0.0139123536646366,-0.0116513296961784,0.0091639375314116
1770452781338,-0.1063232421875,-0.1538848876953125,-0.9861907958984376,-0.0136135471984744,0.0222326014190912,0.0025137576740235
1770452781347,-0.113555908203125,-0.1460723876953125,-0.9875640869140624,-0.0001544633414596,0.0294995680451393,0.0007086671539582
1770452781358,-0.108917236328125,-0.1602020263671875,-0.9955902099609376,0.009490973316133,0.0182796716690063,0.0032565132714807
1770452781368,-0.103607177734375,-0.168731689453125,-0.9934234619140624,0.0122822327539324,0.0181880593299865,0.0049971556290984
1770452781378,-0.1103515625,-0.1605682373046875,-0.985260009765625,0.0160298328846693,0.0166743174195289,0.0080629866570234
1770452781389,-0.1160888671875,-0.1553497314453125,-0.9862060546875,0.0233766958117485,0.0117903463542461,0.0062957126647233
1770452781398,-0.12091064453125,-0.15185546875,-0.9871368408203124,0.0245394315570592,-0.0042045987211167,0.0059353872202336
1770452781408,-0.118072509765625,-0.15643310546875,-0.9771270751953124,0.0172756593674421,0.0051406999118626,0.0022996396292001
1770452781418,-0.11370849609375,-0.1597747802734375,-0.96746826171875,0.0114393420517444,0.0165507476776838,0.0013475595042109
1770452781428,-0.1084136962890625,-0.1577301025390625,-0.9717864990234376,0.00847923848778,0.0143959838896989,-0.0002636529388837
1770452781438,-0.112884521484375,-0.161895751953125,-0.97320556640625,0.0028176244813948,0.009353288449347,0.0017070862231776
1770452781448,-0.1129913330078125,-0.163360595703125,-0.9716644287109376,-0.0002492718631401,0.0016058861510828,0.0016330503858625
1770452781458,-0.114532470703125,-0.1590728759765625,-0.9752655029296876,-0.0008873652550391,-0.0072336778976023,0.0005763080553151
1770452781468,-0.11456298828125,-0.1598968505859375,-0.9799957275390624,-0.0037507959641516,-0.016564330086112,0.0009329052991233
1770452781478,-0.1152191162109375,-0.1614532470703125,-0.9759521484375,-0.0103349294513463,-0.0065314024686813,-0.000613592332229
1770452781488,-0.1142120361328125,-0.157958984375,-0.97174072265625,-0.0103871272876858,0.0035965989809483,-0.0050469567067921
1770452781498,-0.113800048828125,-0.1530609130859375,-0.9749603271484376,-0.0067833373323082,0.0139176798984408,-0.0075774923898279
1770452781508,-0.1143035888671875,-0.160430908203125,-0.98272705078125,0.0032578448299318,0.005038434639573,0.0022815300617367
1770452781518,-0.1053619384765625,-0.166351318359375,-0.9889678955078124,0.0167986880987882,-0.0012809804175049,0.0066224825568497
1770452781528,-0.108001708984375,-0.15911865234375,-0.9945831298828124,0.0286361724138259,-0.005412608385086,0.0094446344301104
1770452781538,-0.110687255859375,-0.16180419921875,-0.9918670654296876,0.0348149724304676,-0.0080443443730473,0.0133094135671854
1770452781548,-0.10760498046875,-0.165557861328125,-0.9854278564453124,0.0354575924575328,-0.0032373385038226,0.0128558771684765
1770452781559,-0.1066131591796875,-0.16400146484375,-0.9792938232421876,0.0322066731750965,0.0049670618027448,0.0123227126896381
1770452781569,-0.1092376708984375,-0.161895751953125,-0.975677490234375,0.0290934368968009,0.0136750657111406,0.0095002949237823
1770452781579,-0.1149749755859375,-0.162322998046875,-0.976287841796875,0.0299754757434129,0.009490973316133,0.0104550374671816
1770452781589,-0.1173858642578125,-0.1603240966796875,-0.9777984619140624,0.0302423238754272,-0.0059614861384034,0.0075617795810103
1770452781599,-0.1204071044921875,-0.1600799560546875,-0.97412109375,0.0224584378302097,-0.0083838971331715,0.0047082025557756
1770452781609,-0.1182708740234375,-0.1610870361328125,-0.9678802490234376,0.0117847537621855,0.0075782909989356,-0.0027710190042853
1770452781619,-0.116424560546875,-0.1629180908203125,-0.966888427734375,0.0036597158759832,0.0122883580625057,-0.0074235615320503
1770452781629,-0.11505126953125,-0.163726806640625,-0.9682464599609376,0.000631701783277,-0.000597613339778,-0.0073191653937101
1770452781639,-0.1116943359375,-0.1659088134765625,-0.9727020263671876,-0.0047444212250411,-0.0140196792781353,-0.0028690234757959
1770452781649,-0.112640380859375,-0.1652374267578125,-0.9743194580078124,-0.0071274181827902,-0.0138511005789041,-0.001890045357868
1770452781659,-0.1123809814453125,-0.1634674072265625,-0.974945068359375,-0.0055540222674608,-0.0124180540442466,-0.0017443705582991
1770452781669,-0.1098480224609375,-0.1651458740234375,-0.977447509765625,-0.0052797170355916,-0.0088185248896479,-0.0001691107318038
1770452781679,-0.1068878173828125,-0.1647796630859375,-0.9815673828125,0.0051393681205809,-0.0072856098413467,0.0050663975998759
1770452781689,-0.10931396484375,-0.1634674072265625,-0.9843902587890624,0.0126657281070947,-0.0132124749943614,0.0076579195447266
1770452781699,-0.1132659912109375,-0.16107177734375,-0.9825286865234376,0.0166492834687232,-0.0127799771726131,0.0119131179526448
1770452781709,-0.108673095703125,-0.1621551513671875,-0.97802734375,0.0161067973822355,-7.989483492565341e-07,0.0093753924593329
1770452781719,-0.111236572265625,-0.162261962890625,-0.976226806640625,0.018126007169485,0.0023875238839536,0.0079820267856121
1770452781729,-0.1099700927734375,-0.166229248046875,-0.9765777587890624,0.0114720985293388,-0.0047098002396523,0.0044549359008669
1770452781739,-0.112457275390625,-0.164825439453125,-0.9713592529296876,0.0011076086666435,-0.0005925533478148,-0.0015747271245345
1770452781749,-0.1172027587890625,-0.1624755859375,-0.9697113037109376,-0.0049345712177455,-0.0019073559669777,-0.0049984869547188
1770452781759,-0.117828369140625,-0.1621246337890625,-0.970550537109375,-0.0101240072399377,-0.0012266519479453,-0.0096917757764458
1770452781770,-0.1189117431640625,-0.161102294921875,-0.9705657958984376,-0.0109764849767088,0.0012048140633851,-0.0093753924593329
1770452781780,-0.11859130859375,-0.160400390625,-0.9779815673828124,-0.006132461130619,-0.0137206055223941,-0.0115586519241333
1770452781790,-0.114227294921875,-0.1650390625,-0.98492431640625,-0.008436094969511,-0.0244749821722507,-0.0062837284058332
1770452781803,-0.1110076904296875,-0.16796875,-0.9787139892578124,-0.014413827098906,-0.0027180220931768,-0.0061492389068007
1770452781810,-0.11004638671875,-0.1666717529296875,-0.9771728515625,-0.0099437106400728,0.0083074644207954,-0.0058325892314314
1770452781820,-0.1099090576171875,-0.16778564453125,-0.981109619140625,-0.0051556136459112,0.0143704172223806,-0.0075135761871933
1770452781830,-0.112152099609375,-0.1694183349609375,-0.984954833984375,-0.0001589907187735,0.0074997278861701,-0.005714344792068
1770452781840,-0.1134796142578125,-0.1669464111328125,-0.98773193359375,0.0020445086993277,-0.0073790866881608,-0.0030676953028887
1770452781850,-0.1165008544921875,-0.1647186279296875,-0.9809112548828124,-0.0015092133544385,-0.01171391364187,-0.0048919604159891
1770452781860,-0.1156463623046875,-0.1633453369140625,-0.974395751953125,-0.005331914871931,-0.0034184334799647,-0.0089330412447452
1770452781870,-0.115234375,-0.162994384765625,-0.9725341796875,-0.0096760634332895,-0.0038815571460872,-0.0078770974650979
1770452781880,-0.11224365234375,-0.1642303466796875,-0.9727630615234376,-0.017211478203535,-0.0041838260367512,-0.0112561164423823
1770452781890,-0.1136322021484375,-0.163116455078125,-0.969818115234375,-0.021367872133851,-0.0002665824140422,-0.0096353171393275
1770452781900,-0.11260986328125,-0.1603240966796875,-0.9694366455078124,-0.0236552618443965,-0.0010804444318637,-0.0094406399875879
1770452781910,-0.1122283935546875,-0.1625823974609375,-0.97430419921875,-0.0226946603506803,0.0010783139150589,-0.008273109793663
1770452781920,-0.113555908203125,-0.1614227294921875,-0.9762115478515624,-0.0193806216120719,0.0068744178861379,-0.0105083007365465
1770452781930,-0.114654541015625,-0.164093017578125,-0.9810638427734376,-0.0186431929469108,0.0013235911028459,-0.0070227556861937
1770452781940,-0.110076904296875,-0.1665496826171875,-0.982879638671875,-0.0158551298081874,0.0033952640369534,-0.0074621774256229
1770452781950,-0.111785888671875,-0.1634521484375,-0.9835968017578124,-0.0125477500259876,0.007809187285602,-0.0082046668976545
1770452781960,-0.113555908203125,-0.1650390625,-0.981781005859375,-0.0055865128524601,0.0096558229997754,-0.0051074102520942
1770452781971,-0.111480712890625,-0.1645355224609375,-0.983306884765625,-0.003917243797332,0.0090068103745579,-0.0041611893102526
1770452781980,-0.1134490966796875,-0.1629486083984375,-0.9831085205078124,-0.0013414341956377,0.0009440905996598,-0.0030929953791201
1770452781991,-0.116943359375,-0.1642913818359375,-0.9784088134765624,0.0014034858904778,-0.0120007367804646,0.0003592604189179
1770452782001,-0.1153411865234375,-0.164825439453125,-0.9758453369140624,-0.0061793327331542,-0.0089783146977424,-0.0044999434612691
1770452782011,-0.1182708740234375,-0.1566619873046875,-0.9727020263671876,-0.0070888022892177,-0.0066712186671793,-0.0070821442641317
1770452782021,-0.118408203125,-0.1583099365234375,-0.971221923828125,-0.0092355767264962,-0.0018498316640034,-0.0169342420995235
1770452782031,-0.122894287109375,-0.1553192138671875,-0.972808837890625,-0.0155547251924872,-0.0044224453158676,-0.0259080305695533
1770452782041,-0.1214752197265625,-0.1647796630859375,-0.9698486328125,-0.0330716669559478,0.0010516822803765,-0.027180753648281
1770452782051,-0.1159210205078125,-0.1781158447265625,-0.9653778076171876,-0.0504458621144294,-0.0026644926983863,-0.0190069805830717
1770452782061,-0.111358642578125,-0.181915283203125,-0.971282958984375,-0.0531995706260204,0.001882588607259,-0.0132409706711769
1770452782071,-0.1107330322265625,-0.1644744873046875,-0.9800262451171876,-0.0421695560216903,0.0098800612613558,-0.0131104756146669
1770452782081,-0.1130523681640625,-0.1567230224609375,-0.986846923828125,-0.029070533812046,0.0009227853151969,-0.0177528988569974
1770452782091,-0.1123809814453125,-0.1590576171875,-0.9845428466796876,-0.0229766890406608,-0.002830940298736,-0.0200951490551233
1770452782102,-0.113861083984375,-0.156829833984375,-0.981170654296875,-0.0141184823587536,-0.0010876349406316,-0.0247721914201974
1770452782111,-0.1190032958984375,-0.1549072265625,-0.97930908203125,-0.0133046200498938,-0.0053894389420747,-0.0234760306775569
1770452782122,-0.117401123046875,-0.1628265380859375,-0.980682373046875,-0.0184905938804149,-0.0082123894244432,-0.0151406032964587
1770452782131,-0.112701416015625,-0.1659698486328125,-0.979248046875,-0.0246925633400678,0.000891892646905,-0.0131067475304007
1770452782141,-0.1088409423828125,-0.1624298095703125,-0.979339599609375,-0.0260017737746238,0.0123967481777071,-0.0159565955400466
1770452782151,-0.111785888671875,-0.15814208984375,-0.9814300537109376,-0.0235287621617317,0.0164008103311061,-0.0201374925673007
1770452782161,-0.1164703369140625,-0.157470703125,-0.984161376953125,-0.0186762157827615,0.0153232961893081,-0.0191569160670042
1770452782171,-0.1143646240234375,-0.158050537109375,-0.986572265625,-0.0092976279556751,0.0086110653355717,-0.0165851023048162
1770452782181,-0.1168212890625,-0.16162109375,-0.989776611328125,0.0006809702608734,-0.0033784860279411,-0.0117764985188841
1770452782192,-0.11663818359375,-0.159637451171875,-0.986328125,0.0052767875604331,-0.0126920929178595,-0.0049761165864765
1770452782202,-0.1124267578125,-0.16168212890625,-0.9814605712890624,0.0100009683519601,-0.0124137923121452,-0.0028810077346861
1770452782211,-0.113525390625,-0.16326904296875,-0.976715087890625,0.0042237732559442,-0.0153368785977363,0.0008671252289786
1770452782222,-0.114013671875,-0.162872314453125,-0.9675445556640624,-0.0079774986952543,-0.0032679650466889,-0.0027664916124194
1770452782232,-0.1149749755859375,-0.1595458984375,-0.9617156982421876,-0.0216986369341611,0.0114281568676233,-0.0044256411492824
1770452782242,-0.115142822265625,-0.1587371826171875,-0.9637451171875,-0.0309496596455574,0.0142473792657256,-0.0091756554320454
1770452782252,-0.1159210205078125,-0.1619720458984375,-0.96795654296875,-0.0376770719885826,0.0094638094305992,-0.0065487129613757
1770452782262,-0.116668701171875,-0.16253662109375,-0.9732666015625,-0.0408880449831485,0.002331863855943,-0.006090116687119
1770452782272,-0.1182403564453125,-0.1617431640625,-0.976806640625,-0.0450963713228702,0.0019662117119878,-0.0041265678592026
1770452782282,-0.1154937744140625,-0.158966064453125,-0.9756622314453124,-0.0515236444771289,0.0070792147889733,-0.0038986015133559
1770452782292,-0.1137542724609375,-0.1588134765625,-0.9818878173828124,-0.0463131703436374,0.0053116749040782,-0.0087045421823859
1770452782302,-0.1177978515625,-0.15374755859375,-0.9839324951171876,-0.0398318357765674,0.0060746702365577,-0.0101319961249828
1770452782312,-0.1156768798828125,-0.1594390869140625,-0.98260498046875,-0.0337904542684555,-0.0044876928441226,-0.0030285466928035
1770452782322,-0.1105194091796875,-0.1611785888671875,-0.9846649169921876,-0.0299062337726354,-0.006008624099195,-0.0083820335566997
1770452782332,-0.1129302978515625,-0.158721923828125,-0.9836273193359376,-0.0231210310012102,-0.0112254898995161,-0.0078022629022598
1770452782342,-0.1129913330078125,-0.1570587158203125,-0.9866790771484376,-0.0156766977161169,-0.0104624945670366,-0.0037476003635674
1770452782352,-0.11279296875,-0.155242919921875,-0.98712158203125,-0.0052610747516155,-0.012395417317748,-0.0049606701359152
1770452782362,-0.111602783203125,-0.156036376953125,-0.9881591796875,0.0038200381677597,-0.0176706071943044,-0.0016090818680822
1770452782372,-0.107330322265625,-0.158203125,-0.9877166748046876,0.0096595510840415,-0.0169997569173574,0.002846652874723
1770452782382,-0.1103668212890625,-0.1570587158203125,-0.9855499267578124,0.0099887186661362,-0.0139317940920591,0.0016474314033985
1770452782392,-0.11541748046875,-0.156005859375,-0.9774017333984376,0.0051023503765463,-0.0046389601193368,-0.0011246529174968
1770452782403,-0.11456298828125,-0.1531829833984375,-0.9730682373046876,-0.0008295746520161,-0.0027832696214318,-0.00061492389068
1770452782412,-0.1136474609375,-0.1554718017578125,-0.972930908203125,-0.0070872041396796,0.0005813680472783,-0.0052312472835183
1770452782423,-0.116729736328125,-0.1550445556640625,-0.974334716796875,-0.0060624200850725,0.0010631339391693,-0.0063878581859171
1770452782433,-0.1138458251953125,-0.1551666259765625,-0.9792022705078124,-0.0068983859382569,0.0024133566766977,-0.0053809168748557
1770452782443,-0.11309814453125,-0.1571807861328125,-0.979949951171875,-0.0059303268790245,-0.0008372978190891,-0.0039406795985996
1770452782452,-0.11090087890625,-0.1575927734375,-0.9829559326171876,-0.0027377295773476,-0.0027859327383339,0.0011944277212023
1770452782463,-0.1107330322265625,-0.158966064453125,-0.9852294921875,-0.0015350460307672,-0.0011566109023988,0.0036237633321434
1770452782473,-0.109527587890625,-0.1587371826171875,-0.9816436767578124,-0.0020061591640114,0.0059143481776118,0.0082081286236643
1770452782483,-0.1061859130859375,-0.15753173828125,-0.9805145263671876,0.0047276434488594,0.0168924313038587,0.0129802469164133
1770452782493,-0.1082611083984375,-0.1555328369140625,-0.9882049560546876,0.0148543138056993,0.0069460566155612,0.0155462026596069
1770452782503,-0.1106414794921875,-0.1567230224609375,-0.9915618896484376,0.0265586394816637,-0.0054381750524044,0.023257652297616
1770452782513,-0.113128662109375,-0.1572265625,-0.98992919921875,0.0320929549634456,-0.0053055495955049,0.0246283803135156
1770452782523,-0.114105224609375,-0.157196044921875,-0.98504638671875,0.0341214835643768,-0.0046810382045805,0.0264891311526298
1770452782533,-0.1105194091796875,-0.156341552734375,-0.9799346923828124,0.0324849709868431,0.0082534020766615,0.0213071536272764
1770452782543,-0.11517333984375,-0.157440185546875,-0.975860595703125,0.0271514598280191,0.013228453695774,0.0177366528660058
1770452782553,-0.1167449951171875,-0.159210205078125,-0.9742584228515624,0.0203183218836784,0.0156852193176746,0.015355254523456
1770452782563,-0.11334228515625,-0.159271240234375,-0.97265625,0.0180546343326568,0.0152663048356771,0.0150455283001065
1770452782573,-0.11785888671875,-0.1575775146484375,-0.975738525390625,0.0209790505468845,0.0060933125205338,0.014216486364603
1770452782583,-0.123016357421875,-0.1570892333984375,-0.9799041748046876,0.0280859638005495,-0.0032535837963223,0.0130108734592795
1770452782593,-0.121002197265625,-0.158660888671875,-0.98284912109375,0.0346517190337181,-0.0196304265409708,0.014725150540471
1770452782603,-0.1157073974609375,-0.160491943359375,-0.981719970703125,0.0366400368511676,-0.021256286650896,0.0157510004937648
1770452782613,-0.11468505859375,-0.1615753173828125,-0.979278564453125,0.0357678495347499,-0.0222890600562095,0.0183475818485021
1770452782623,-0.1126251220703125,-0.1625518798828125,-0.9762115478515624,0.0345776826143264,-0.0215625502169132,0.0205367002636194
1770452782634,-0.1127166748046875,-0.1636505126953125,-0.974090576171875,0.0310023911297321,-0.0148061104118824,0.0232477989047765
1770452782644,-0.112640380859375,-0.1631927490234375,-0.973114013671875,0.0282167233526706,-0.011779960244894,0.0257887206971645
1770452782654,-0.114776611328125,-0.1649932861328125,-0.9742279052734376,0.0263554416596889,-0.0148346060886979,0.0279392227530479
1770452782664,-0.113800048828125,-0.163909912109375,-0.974884033203125,0.0227631032466888,-0.0062347264029085,0.0288795847445726
1770452782674,-0.11859130859375,-0.1591949462890625,-0.973480224609375,0.0211545545607805,0.0050930292345583,0.0307709611952304
1770452782684,-0.1188507080078125,-0.157470703125,-0.972869873046875,0.022168418392539,-0.0008847020799294,0.032037828117609
1770452782694,-0.1166839599609375,-0.160736083984375,-0.976287841796875,0.0184298735111951,-0.0052874400280416,0.0305275488644838
1770452782704,-0.1186981201171875,-0.16290283203125,-0.975616455078125,0.0115855494514107,-0.0115839513018727,0.0246763173490762
1770452782714,-0.1207427978515625,-0.1652374267578125,-0.9675445556640624,0.0002420813398202,-0.0065652248449623,0.0222312696278095
1770452782724,-0.1220245361328125,-0.165130615234375,-0.9662322998046876,-0.0102651547640562,-0.0027987160719931,0.0175523627549409
1770452782734,-0.1256561279296875,-0.1616058349609375,-0.9674072265625,-0.0186115019023418,0.0039697079919278,0.0139413820579648
1770452782744,-0.1266326904296875,-0.1585845947265625,-0.9697265625,-0.0196397472172975,0.0053910370916128,0.0102798016741871
1770452782754,-0.124267578125,-0.160491943359375,-0.975341796875,-0.0208541490137577,-0.0056538907811045,0.0091293165460228
1770452782764,-0.122955322265625,-0.165435791015625,-0.9774017333984376,-0.0161118581891059,-0.0133658731356263,0.0134726651012897
1770452782774,-0.1181182861328125,-0.1694488525390625,-0.9783935546875,-0.0074528562836349,-0.0198197774589061,0.0179129540920257
1770452782784,-0.1197662353515625,-0.1567230224609375,-0.984954833984375,-0.0032932648900896,-0.0088728535920381,0.0104529075324535
1770452782795,-0.1234130859375,-0.1575927734375,-0.9791107177734376,0.000179230744834,-0.0076270271092653,0.0142351286485791
1770452782804,-0.115570068359375,-0.1607513427734375,-0.9745025634765624,0.0106491819024086,-0.0027928571216762,0.0102257393300533
1770452782814,-0.1192474365234375,-0.1657562255859375,-0.9807891845703124,0.0100755374878644,-0.0153800211846828,0.0123173864558339
1770452782824,-0.1168365478515625,-0.1742706298828125,-0.982666015625,0.0045657232403755,-0.0240688510239124,0.0218246057629585
1770452782834,-0.115234375,-0.16937255859375,-0.977447509765625,0.0081343594938516,-0.0118079232051968,0.0205787774175405
1770452782845,-0.120758056640625,-0.1658935546875,-0.9726409912109376,0.0038607846945524,-0.0093535538762807,0.0209657363593578
1770452782855,-0.11724853515625,-0.163238525390625,-0.9666595458984376,-0.0079708406701684,0.0025113609153777,0.0170375723391771
1770452782865,-0.11767578125,-0.1572265625,-0.962127685546875,-0.016978982836008,0.0175473019480705,0.007398793939501
1770452782875,-0.1244964599609375,-0.1534576416015625,-0.9621124267578124,-0.0220435168594121,0.0208232570439577,2.423476507829037e-05
1770452782885,-0.12860107421875,-0.154388427734375,-0.9680938720703124,-0.0262731499969959,0.0101719433441758,-0.0050118030048906
1770452782895,-0.1260833740234375,-0.162261962890625,-0.97509765625,-0.031128890812397,-0.0083689838647842,-0.0022112226579338
1770452782905,-0.1221160888671875,-0.1653900146484375,-0.974761962890625,-0.0372959710657596,-0.0055731972679495,-0.0003403519804123
1770452782915,-0.121856689453125,-0.1609039306640625,-0.97662353515625,-0.0358906239271163,-0.0019379822770133,-0.0017225325573235
1770452782925,-0.116790771484375,-0.1587982177734375,-0.980560302734375,-0.0309579167515039,0.0067465859465301,-0.0055308528244495
1770452782935,-0.118621826171875,-0.1571502685546875,-0.983612060546875,-0.0202043373137712,0.0125112645328044,-0.0084877610206604
1770452782945,-0.11920166015625,-0.1611785888671875,-0.9864959716796876,-0.0093421023339033,0.0102912532165646,-0.0074928035028278
1770452782955,-0.1193084716796875,-0.1607666015625,-0.9859771728515624,0.0022309301421046,0.0061910506337881,-0.0044080642983317
1770452782965,-0.1205291748046875,-0.156982421875,-0.9859771728515624,0.0151472613215446,-0.0035329493694007,-0.0026173547375947
1770452782975,-0.1219482421875,-0.1584320068359375,-0.9862213134765624,0.0278015378862619,-0.0083431508392095,-0.0002103897277265
1770452782985,-0.1208038330078125,-0.1585235595703125,-0.982177734375,0.0331646129488945,-0.0078888153657317,-0.002036252990365
1770452782995,-0.123443603515625,-0.159942626953125,-0.97802734375,0.0316506028175354,-0.009934389963746,-0.0007627293234691
1770452783006,-0.1197357177734375,-0.1613311767578125,-0.9708709716796876,0.0244699232280254,-0.0003890878288075,-0.0042181806638836
1770452783015,-0.120391845703125,-0.162933349609375,-0.966796875,0.0090808467939496,6.151902198325843e-05,-0.0087788440287113
1770452783025,-0.1203155517578125,-0.1628570556640625,-0.9609527587890624,-0.0103165535256266,0.0115826204419136,-0.0082789687439799
1770452783035,-0.1180419921875,-0.1638031005859375,-0.9583587646484376,-0.024920530617237,0.0133688021451234,-0.0095879128202795
1770452783045,-0.120941162109375,-0.1625213623046875,-0.9639129638671876,-0.0369271263480186,0.0021726067643612,-0.0121442805975675
1770452783056,-0.1232757568359375,-0.16082763671875,-0.9664459228515624,-0.0511609204113483,0.0030890004709362,-0.0106750149279832
1770452783066,-0.121307373046875,-0.159698486328125,-0.96636962890625,-0.0580028481781482,0.0154127785935997,-0.01079938467592
1770452783076,-0.1196136474609375,-0.155853271484375,-0.9765472412109376,-0.0527399107813835,0.0088472869247198,-0.0053446977399289
1770452783086,-0.1203155517578125,-0.1613616943359375,-0.982818603515625,-0.0399692542850971,0.0049050101079046,0.0040445425547659
1770452783096,-0.1163482666015625,-0.161865234375,-0.9920806884765624,-0.0229748245328664,-0.0018138790037482,0.0015278555219992
1770452783106,-0.11639404296875,-0.1607666015625,-0.9991455078125,-0.0062680160626769,0.0018349179299548,0.0041508027352392
1770452783116,-0.116668701171875,-0.16241455078125,-0.9971771240234376,0.0080842915922403,0.0004085288965143,0.0066714850254356
1770452783126,-0.119293212890625,-0.1621246337890625,-0.99627685546875,0.0221244767308235,-0.0005568669876083,0.0029696908313781
1770452783136,-0.121673583984375,-0.1611480712890625,-0.9941253662109376,0.0307054482400417,-0.0065737469121813,0.0042253714054822
1770452783146,-0.12353515625,-0.1619720458984375,-0.9869537353515624,0.0297112893313169,-0.0100824618712067,0.0061726747080683
1770452783156,-0.1224517822265625,-0.1619415283203125,-0.97442626953125,0.0224070381373167,2.423476507829037e-05,0.0036661075428128
1770452783166,-0.1219482421875,-0.1612701416015625,-0.968994140625,0.014232731424272,0.0070179621689021,-0.0024040355347096
1770452783176,-0.1278076171875,-0.1598052978515625,-0.9669342041015624,0.000446612102678,0.0072336778976023,-0.0054096789099276
1770452783186,-0.1260223388671875,-0.1614837646484375,-0.964752197265625,-0.0115088503807783,0.0072568478062748,-0.0113498596474528
1770452783196,-0.1242523193359375,-0.1628570556640625,-0.9654388427734376,-0.01973189227283,0.0097775291651487,-0.0104510430246591
1770452783206,-0.1213836669921875,-0.161468505859375,-0.9732818603515624,-0.0203015431761741,0.0032165660522878,-0.0111517207697033
1770452783216,-0.1208343505859375,-0.1643218994140625,-0.977752685546875,-0.0212887767702341,-0.0038008634001016,-0.0073623089119791
1770452783226,-0.1177978515625,-0.164398193359375,-0.976837158203125,-0.0221750773489475,0.0057436395436525,-0.0054070157930254
1770452783236,-0.113250732421875,-0.1600494384765625,-0.977996826171875,-0.0162554029375314,0.0048871668986976,-0.0037079192698001
1770452783246,-0.112396240234375,-0.1611785888671875,-0.981597900390625,-0.0059098205529153,0.0029720878228545,0.0004830974212381
1770452783257,-0.1133270263671875,-0.161590576171875,-0.9875030517578124,0.0069497851654887,-0.006989998742938,0.0071417992003262
1770452783267,-0.1159820556640625,-0.1596832275390625,-0.9867706298828124,0.0146926594898104,-0.007890679873526,0.0123983463272452
1770452783277,-0.117645263671875,-0.1576080322265625,-0.9836578369140624,0.0190719608217477,-0.0065385932102799,0.0127371000126004
1770452783287,-0.116424560546875,-0.1602935791015625,-0.980682373046875,0.0199425481259822,-0.0024671524297446,0.0127658629789948
1770452783297,-0.1149749755859375,-0.1610107421875,-0.9774627685546876,0.0210685338824987,-0.0038208372425287,0.0097338538616895
1770452783307,-0.121307373046875,-0.1587066650390625,-0.975860595703125,0.0139797311276197,-0.0033513219095766,0.0097477016970515
1770452783317,-0.123870849609375,-0.158905029296875,-0.9702606201171876,0.0052432315424084,0.0013358416035771,0.0055074170231819
1770452783327,-0.1236114501953125,-0.1620025634765625,-0.9671783447265624,-0.0066848006099462,0.0089785810559988,0.004905276466161
1770452783337,-0.1180572509765625,-0.1618804931640625,-0.9631500244140624,-0.013882259838283,0.0270563848316669,0.0041593248024582
1770452783347,-0.121124267578125,-0.1580657958984375,-0.96966552734375,-0.0103626260533928,0.0215873178094625,-0.0021078919526189
1770452783357,-0.12457275390625,-0.15948486328125,-0.980499267578125,-0.0077178408391773,0.0023116238880902,6.764429417671636e-05
1770452783367,-0.125274658203125,-0.1619110107421875,-0.98260498046875,-0.0068954564630985,-0.0087950890883803,-0.0019843212794512
1770452783377,-0.122161865234375,-0.16375732421875,-0.9781341552734376,-0.0073300846852362,-0.0064816013909876,0.0032408006954938
1770452783387,-0.1185302734375,-0.1615142822265625,-0.975982666015625,-0.0090305125340819,0.0068869343958795,-0.0018543590558692
1770452783397,-0.1204681396484375,-0.1643218994140625,-0.9739990234375,-0.0068701566196978,0.0077897459268569,0.0016642092959955
1770452783407,-0.11444091796875,-0.16534423828125,-0.9801177978515624,-0.0049598710611462,0.0010610034223645,0.0033103092573583
1770452783417,-0.1180267333984375,-0.163604736328125,-0.982940673828125,0.000966461142525,-0.001171258278191,0.0049124667420983
1770452783427,-0.1207427978515625,-0.1612396240234375,-0.983734130859375,0.0092616751790046,-0.0077750985510647,0.0031358720734715
1770452783437,-0.12091064453125,-0.16156005859375,-0.982635498046875,0.0101828631013631,-0.006647250149399,0.0010620686225593
1770452783447,-0.123382568359375,-0.1589202880859375,-0.9763641357421876,0.0071500549092888,-0.000197872868739,0.0006801713607273
1770452783458,-0.119110107421875,-0.16180419921875,-0.970611572265625,-0.0028738172259181,0.0055737299844622,-0.0028921929188072
1770452783467,-0.118743896484375,-0.161865234375,-0.9654541015625,-0.0154034569859504,0.0145959872752428,-0.0070674968883395
1770452783477,-0.1198272705078125,-0.166290283203125,-0.9642181396484376,-0.0272446703165769,0.0144822699949145,-0.0067937239073216
1770452783488,-0.1197509765625,-0.164825439453125,-0.9644012451171876,-0.0404408983886241,0.0154814878478646,-0.0037244306877255
1770452783498,-0.1209716796875,-0.1622772216796875,-0.9673919677734376,-0.0450412444770336,0.0071111726574599,-0.0003121224872302
1770452783508,-0.1205902099609375,-0.161407470703125,-0.9738616943359376,-0.0436039343476295,0.0042088595218956,0.0002482066047377
1770452783518,-0.12139892578125,-0.156585693359375,-0.9792633056640624,-0.0342021770775318,0.0027704865206032,0.0018636800814419
1770452783528,-0.119293212890625,-0.15899658203125,-0.984619140625,-0.0284766480326652,-0.0047031426802277,0.0042314967140555
1770452783538,-0.1175994873046875,-0.1659698486328125,-0.98663330078125,-0.020052270963788,-0.0133815854787826,0.0122201805934309
1770452783548,-0.1150054931640625,-0.1657257080078125,-0.98828125,-0.0042757051996886,-0.0082227764651179,0.011697668582201
1770452783558,-0.1214447021484375,-0.14910888671875,-0.9904327392578124,0.0042360238730907,0.0139024993404746,0.0004751079250127
1770452783568,-0.12445068359375,-0.155975341796875,-0.9874420166015624,0.0176772642880678,0.0035782232880592,0.0046581351198256
1770452783578,-0.1177978515625,-0.1627197265625,-0.9857330322265624,0.0224978514015674,-0.0017470336752012,0.003859719261527
1770452783588,-0.119964599609375,-0.1664886474609375,-0.9835205078125,0.0097967041656374,0.0021198762115091,0.0065369950607419
1770452783598,-0.12103271484375,-0.171661376953125,-0.9750823974609376,0.00238779024221,-4.5540054998127744e-05,0.011083809658885
1770452783608,-0.118011474609375,-0.16748046875,-0.97174072265625,4.101268132217229e-05,0.0013121394440531,0.0079431440681219
1770452783618,-0.119842529296875,-0.163604736328125,-0.9746246337890624,-0.0032775523141026,0.000557133287657,0.0053020874038338
1770452783628,-0.123779296875,-0.1562347412109375,-0.973724365234375,-0.0064733456820249,0.0022378542926162,-0.0014740596525371
1770452783638,-0.12408447265625,-0.1514892578125,-0.967315673828125,-0.0113040534779429,0.0080584594979882,-0.0111695639789104
1770452783648,-0.12799072265625,-0.1509857177734375,-0.966949462890625,-0.0167534127831459,0.0107069723308086,-0.014813301153481
1770452783658,-0.123748779296875,-0.1556396484375,-0.96942138671875,-0.0211974307894706,0.0056472332216799,-0.0155398109927773
1770452783668,-0.120391845703125,-0.1649932861328125,-0.9756622314453124,-0.0304005164653062,-0.007171360310167,-0.0110425306484103
1770452783678,-0.1159820556640625,-0.1670074462890625,-0.9771575927734376,-0.0365835763514041,-0.002454369328916,-0.0054834485054016
1770452783688,-0.11553955078125,-0.163299560546875,-0.976715087890625,-0.0351830199360847,0.0101578291505575,-0.0057502975687384
1770452783698,-0.1147613525390625,-0.15673828125,-0.9825439453125,-0.0266662314534187,0.0105072353035211,-0.0069103701971471
1770452783709,-0.115966796875,-0.15771484375,-0.9883270263671876,-0.0163382273167371,0.0088526140898466,0.0002543318842072
1770452783718,-0.1170654296875,-0.158660888671875,-0.985382080078125,-0.0091668665409088,0.0076224994845688,-1.3315805517777337e-05
1770452783729,-0.1176605224609375,-0.1596832275390625,-0.981903076171875,-0.0058256648480892,0.0061508365906775,0.0042448122985661
1770452783739,-0.1173095703125,-0.1579742431640625,-0.9770355224609376,-0.0058861183933913,0.0075745629146695,0.0041044638492167
1770452783749,-0.11968994140625,-0.1590728759765625,-0.9735260009765624,-0.0105935223400592,0.0060451091267168,0.0051550809293985
1770452783759,-0.12017822265625,-0.159881591796875,-0.9690399169921876,-0.0196786299347877,0.0051806471310555,0.0064789382740855
1770452783769,-0.1203460693359375,-0.1611480712890625,-0.9617462158203124,-0.034912709146738,0.0126388296484947,0.0051931641064584
1770452783779,-0.12078857421875,-0.1559295654296875,-0.9612884521484376,-0.0408840514719486,0.0224464535713195,0.0025041704066097
1770452783789,-0.1219635009765625,-0.1514892578125,-0.9700164794921876,-0.0368195325136184,0.0216253995895385,0.0005025385180488
1770452783799,-0.1271820068359375,-0.15509033203125,-0.9786834716796876,-0.0314498022198677,0.0026860642246901,0.0008940231637097
1770452783809,-0.1243743896484375,-0.158935546875,-0.983795166015625,-0.0277972761541605,-0.0092600770294666,-0.0019425096688792
1770452783819,-0.122314453125,-0.1579742431640625,-0.9829254150390624,-0.0220680180937051,-0.0096433060243725,-0.0028053738642483
1770452783829,-0.1226654052734375,-0.1569976806640625,-0.9868927001953124,-0.012156531214714,-0.0082896212115883,-0.0060187438502907
1770452783839,-0.1229705810546875,-0.1580810546875,-0.992828369140625,-0.0024202808272093,-0.0071836104616522,-0.0059460396878421
1770452783849,-0.1206207275390625,-0.1544036865234375,-0.9982757568359376,0.0157312918454408,-0.0052767875604331,-0.0040703755803406
1770452783859,-0.1194305419921875,-0.15618896484375,-0.9979705810546876,0.0335097573697567,-0.021131383255124,0.0032802154310047
1770452783869,-0.1161651611328125,-0.162322998046875,-0.9976654052734376,0.0418619625270366,-0.0241556707769632,0.0034695663489401
1770452783879,-0.1178741455078125,-0.157318115234375,-0.988922119140625,0.0414744727313518,-0.0060176788829267,0.0027787422295659
1770452783889,-0.1174774169921875,-0.16015625,-0.979461669921875,0.0388392731547355,0.0029084382113069,0.0042120553553104
1770452783899,-0.11590576171875,-0.164398193359375,-0.97406005859375,0.034344658255577,0.0062525696121156,0.0019515644526109
1770452783910,-0.119659423828125,-0.1611480712890625,-0.973419189453125,0.0270465314388275,0.004163319710642,0.0043457462452352
1770452783920,-0.1217041015625,-0.1593780517578125,-0.970947265625,0.0192535892128944,-0.0003233077586628,0.0046509443782269
1770452783929,-0.1240081787109375,-0.15716552734375,-0.963043212890625,0.008272310718894,0.0007653924985788,0.0028642297256737
1770452783940,-0.1269683837890625,-0.157806396484375,-0.9630126953125,-0.0010098706698045,0.0062552327290177,-0.0014796522445976
1770452783950,-0.1261749267578125,-0.158660888671875,-0.9647674560546876,-0.01265534106642,0.0133118107914924,-0.0080635193735361
1770452783960,-0.127105712890625,-0.1600799560546875,-0.9664154052734376,-0.0192669052630662,0.0105021754279732,-0.0111956624314188
1770452783970,-0.1237335205078125,-0.16265869140625,-0.969818115234375,-0.0233348831534385,0.0066139604896306,-0.0123338978737592
1770452783980,-0.1215667724609375,-0.163360595703125,-0.976165771484375,-0.0200805012136697,0.0010836402652785,-0.0109668970108032
1770452783990,-0.12152099609375,-0.16119384765625,-0.9837493896484376,-0.0114763602614402,-0.0087436903268098,-0.004807005636394
1770452784000,-0.11859130859375,-0.165130615234375,-0.988616943359375,-0.0046922233887016,-0.006286125164479,-0.0016229304019361
1770452784010,-0.11846923828125,-0.163665771484375,-0.986572265625,0.0069298115558922,-0.0046730488538742,-0.0026881948579102
1770452784020,-0.11920166015625,-0.1625518798828125,-0.991241455078125,0.0191177688539028,-0.014765097759664,-0.0024242755025625
1770452784030,-0.1197662353515625,-0.1638946533203125,-0.9905548095703124,0.0224930588155984,-0.0172737948596477,0.000720385054592
1770452784040,-0.1200714111328125,-0.160430908203125,-0.9828338623046876,0.0260246768593788,-0.0062682824209332,0.0005733785801567
1770452784050,-0.12017822265625,-0.1600341796875,-0.980804443359375,0.0299861282110214,-0.0045801042579114,-0.0003749730822164
1770452784060,-0.119537353515625,-0.1604461669921875,-0.9814300537109376,0.0324626006186008,-0.0117892818525433,-0.0008484831196255
1770452784070,-0.121002197265625,-0.161651611328125,-0.97808837890625,0.028239095583558,-0.0118289627134799,0.0003677825443446
1770452784080,-0.119415283203125,-0.162109375,-0.97283935546875,0.0207630693912506,-0.0091109406203031,0.0004636563535314
1770452784090,-0.1220550537109375,-0.1602783203125,-0.9688262939453124,0.0140881221741437,0.0016828514635562,-0.0043180491775274
1770452784100,-0.1251220703125,-0.1575164794921875,-0.970428466796875,0.0112542519345879,-0.004471180960536,-0.0040842238813638
1770452784111,-0.11981201171875,-0.1617584228515625,-0.9719696044921876,0.0060134176164865,-0.0032131038606166,-0.0024170849937945
1770452784121,-0.1199188232421875,-0.1632843017578125,-0.9705810546875,-0.0015006912872195,0.0016690030461177,-0.0029459886718541
1770452784130,-0.120330810546875,-0.163330078125,-0.9709014892578124,-0.0053196642547845,0.0010074737947434,-0.0041484059765934
1770452784141,-0.1184234619140625,-0.162872314453125,-0.9705963134765624,-0.011731756851077,0.0068752164952456,-0.0055351140908896
1770452784151,-0.1204833984375,-0.16265869140625,-0.9707489013671876,-0.0116982012987136,0.0020572920329868,-0.0057340520434081
1770452784161,-0.1235504150390625,-0.160736083984375,-0.973602294921875,-0.0126524120569229,0.002453570254147,-0.0017885789275169
1770452784171,-0.1244964599609375,-0.1597900390625,-0.9751129150390624,-0.0099311936646699,0.0069497851654887,-0.0028133634477853
1770452784181,-0.1231231689453125,-0.1605072021484375,-0.9763641357421876,-0.0059750680811703,0.0093793869018554,-0.007202785462141
1770452784191,-0.12274169921875,-0.161834716796875,-0.9806365966796876,-0.001498028053902,0.0045854309573769,-0.0088856369256973
1770452784201,-0.1243438720703125,-0.16168212890625,-0.98236083984375,0.0048786448314785,-0.0057755974121391,-0.0084518082439899
1770452784211,-0.122100830078125,-0.1644439697265625,-0.9837799072265624,0.0021153488196432,-0.0117876837030053,-0.0044525391422212
1770452784221,-0.1192169189453125,-0.16729736328125,-0.9790191650390624,-0.0024820661637932,0.0023979102261364,-0.002738528419286
1770452784231,-0.1173553466796875,-0.1625823974609375,-0.972564697265625,-0.0009126652730628,0.0154314208775758,-0.0047409594990313
1770452784241,-0.11981201171875,-0.1606903076171875,-0.977630615234375,0.002707103267312,0.0051340418867766,-0.0027662254869937
1770452784251,-0.1206207275390625,-0.1606292724609375,-0.982391357421875,0.0062296665273606,-0.0012924320762977,-0.005454153753817
1770452784261,-0.123870849609375,-0.1614990234375,-0.9813079833984376,0.0034591800067573,-0.0094214649870991,-0.0034357442054897
1770452784271,-0.1185302734375,-0.164337158203125,-0.975921630859375,-0.0048964880406856,-0.0015307849971577,-0.0008402272942475
1770452784281,-0.1175079345703125,-0.1666259765625,-0.9731903076171876,-0.0087777785956859,0.0093402387574315,0.0045982138253748
1770452784291,-0.1177520751953125,-0.1667938232421875,-0.97869873046875,-0.0079766996204853,0.0031547807157039,0.003917243797332
1770452784301,-0.1197052001953125,-0.1656341552734375,-0.9795684814453124,-0.0097184069454669,0.0028338697738945,0.0091644702479243
1770452784312,-0.121490478515625,-0.1651611328125,-0.9748687744140624,-0.0153584498912096,0.0113847469910979,0.0117746340110898
1770452784321,-0.1204376220703125,-0.1731414794921875,-0.9786376953125,-0.0204823724925518,0.0038812910206615,0.0173204001039266
1770452784332,-0.1165924072265625,-0.1779327392578125,-0.978271484375,-0.0241338312625885,-0.0003824299201369,0.0278489422053098
1770452784342,-0.1129913330078125,-0.172027587890625,-0.9773101806640624,-0.022970562800765,0.0188357401639223,0.0206983536481857
1770452784351,-0.1210784912109375,-0.1604766845703125,-0.9765625,-0.0172080155462026,0.0115221664309501,0.0228283498436212
1770452784362,-0.1123199462890625,-0.1728973388671875,-0.9791107177734376,-0.0135363154113292,-0.0028173581231385,0.0264822077006101
1770452784372,-0.1128387451171875,-0.17144775390625,-0.9829254150390624,-0.0157794952392578,-0.0005091963685117,0.032056737691164
1770452784382,-0.11865234375,-0.1738433837890625,-0.9901123046875,-0.0217604227364063,-0.0122691830620169,0.0438004769384861
1770452784392,-0.112457275390625,-0.185272216796875,-0.9904937744140624,-0.0234571229666471,-0.0161419510841369,0.0686989054083824
1770452784402,-0.1120758056640625,-0.17034912109375,-0.99249267578125,-0.0093378415331244,-0.0028237497899681,0.0705114528536796
1770452784412,-0.124603271484375,-0.143707275390625,-1.0000457763671875,0.0134833185002207,-0.0036189695820212,0.0611706785857677
1770452784422,-0.1277923583984375,-0.1423492431640625,-1.001861572265625,0.0359036736190319,-0.0111293504014611,0.047855406999588
1770452784432,-0.1251678466796875,-0.1439208984375,-0.9998779296875,0.0575570352375507,-0.0276332255452871,0.0317733772099018
1770452784442,-0.1256103515625,-0.147491455078125,-0.999176025390625,0.0772271454334259,-0.0540651008486747,0.0277559980750083
1770452784452,-0.1218414306640625,-0.15484619140625,-0.9945526123046876,0.0981617197394371,-0.0661965981125831,0.0361923575401306
1770452784462,-0.1181182861328125,-0.1585693359375,-0.9907073974609376,0.1115718036890029,-0.0665771588683128,0.0431048609316349
1770452784472,-0.114105224609375,-0.1598358154296875,-0.9821319580078124,0.1139563992619514,-0.0575887262821197,0.0442689284682273
1770452784482,-0.111785888671875,-0.1574249267578125,-0.963226318359375,0.1069970205426216,-0.0356631875038147,0.0332461036741733
1770452784492,-0.11566162109375,-0.1546478271484375,-0.94415283203125,0.0871096029877662,0.001620533526875,0.0254270620644092
1770452784502,-0.1193389892578125,-0.153045654296875,-0.9339752197265624,0.0610835924744606,0.0184301398694515,0.0193145759403705
1770452784512,-0.1241302490234375,-0.1555328369140625,-0.935333251953125,0.0406121425330638,0.0231830831617116,0.0166306421160697
1770452784522,-0.1287384033203125,-0.157928466796875,-0.9423675537109376,0.0231082495301961,0.012384763918817,0.0199566632509231
1770452784532,-0.128814697265625,-0.158050537109375,-0.9481964111328124,0.011020160280168,0.000811465200968,0.0217295307666063
1770452784543,-0.1278839111328125,-0.1604156494140625,-0.9536590576171876,-0.0012974920682609,-0.012158129364252,0.020827516913414
1770452784553,-0.127593994140625,-0.1615753173828125,-0.9568634033203124,-0.0133187351748347,-0.0175888463854789,0.0231109112501144
1770452784563,-0.125732421875,-0.1649932861328125,-0.959381103515625,-0.0225521810352802,-0.0232568532228469,0.0223146267235279
1770452784573,-0.126434326171875,-0.1683349609375,-0.962921142578125,-0.0326021499931812,-0.0252608824521303,0.0223175566643476
1770452784583,-0.128448486328125,-0.1684417724609375,-0.968994140625,-0.0375881232321262,-0.0245034787803888,0.0245940256863832
1770452784593,-0.128082275390625,-0.1676788330078125,-0.973297119140625,-0.0387364774942398,-0.0238291658461093,0.0266121700406074
1770452784603,-0.1296539306640625,-0.167572021484375,-0.9734344482421876,-0.0372046269476413,-0.0161304995417594,0.0267815459519624
