timestamp_ms,acc_x,acc_y,acc_z,gyro_x,gyro_y,gyro_z
1768730489421,-0.1117095947265625,-0.10943603515625,-0.9722747802734376,-0.0281325690448284,-0.0336085595190525,-0.0018865832826122
1768730489428,-0.11065673828125,-0.1084136962890625,-0.9777679443359376,-0.0324753858149051,-0.0322101339697837,0.0024873923975974
1768730489439,-0.11328125,-0.10955810546875,-0.9776153564453124,-0.03538728505373,-0.0234272945672273,0.0042037996463477
1768730489449,-0.1138458251953125,-0.1094512939453125,-0.9828948974609376,-0.0294092874974012,-0.016864201053977,0.0072712288238108
1768730489459,-0.113433837890625,-0.108184814453125,-0.9951629638671876,-0.0123520074412226,-0.0123381586745381,0.0098459729924798
1768730489469,-0.11419677734375,-0.1063995361328125,-1.0028533935546875,0.0040131174027919,-0.0104270745068788,0.0141565650701522
1768730489479,-0.1155548095703125,-0.10626220703125,-1.0052032470703125,0.0214219354093074,-0.0098140146583318,0.0124385599046945
1768730489489,-0.122772216796875,-0.109161376953125,-1.0059814453125,0.0308247581124305,-0.0048560081049799,0.0084150563925504
1768730489499,-0.1248626708984375,-0.110107421875,-0.996063232421875,0.0345236212015152,-0.0072485916316509,0.0027694210875779
1768730489509,-0.1301422119140625,-0.11175537109375,-0.98468017578125,0.0297072958201169,-0.0076440712437033,-0.001471662777476
1768730489519,-0.133575439453125,-0.1120758056640625,-0.980560302734375,0.0225684251636266,-0.0107117667794227,-0.0058728028088808
1768730489529,-0.134124755859375,-0.1104583740234375,-0.9785614013671876,0.0200171172618865,-0.0168471578508615,-0.0124920895323157
1768730489539,-0.131317138671875,-0.108978271484375,-0.9783477783203124,0.0176660791039466,-0.0055803875438869,-0.0151243582367897
1768730489549,-0.127838134765625,-0.1076507568359375,-0.981170654296875,0.0201824996620416,-0.0055937035940587,-0.0152852125465869
1768730489559,-0.1284027099609375,-0.106201171875,-0.9825286865234376,0.0217183455824852,-0.0041188448667526,-0.0168788488954305
1768730489569,-0.1260223388671875,-0.105072021484375,-0.980438232421875,0.021956430748105,-0.0105929896235466,-0.0191036537289619
1768730489579,-0.1272735595703125,-0.105133056640625,-0.974212646484375,0.01119140163064,-0.0175318550318479,-0.022570289671421
1768730489589,-0.1260528564453125,-0.1056671142578125,-0.968658447265625,0.0030051108915358,-0.0184738151729106,-0.021175593137741
1768730489599,-0.123992919921875,-0.10784912109375,-0.9743804931640624,-0.004209924954921,-0.019947875291109,-0.0188402663916349
1768730489610,-0.12213134765625,-0.1094207763671875,-0.971923828125,-0.0116223013028502,-0.0243889633566141,-0.0144926561042666
1768730489619,-0.1190032958984375,-0.110992431640625,-0.9720458984375,-0.0191073808819055,-0.0306950621306896,-0.0153480637818574
1768730489630,-0.125152587890625,-0.11004638671875,-0.97137451171875,-0.0299051683396101,-0.0297850593924522,-0.0193566530942916
1768730489640,-0.1263580322265625,-0.109588623046875,-0.9704742431640624,-0.0382312759757041,-0.0362871661782264,-0.0214285925030708
1768730489650,-0.12738037109375,-0.1090240478515625,-0.971221923828125,-0.04673608019948,-0.0448348484933376,-0.0204493477940559
1768730489660,-0.1269989013671875,-0.1049652099609375,-0.975555419921875,-0.0495726130902767,-0.0512312278151512,-0.0179491732269525
1768730489670,-0.1282806396484375,-0.101287841796875,-0.98345947265625,-0.0458852015435695,-0.0610998384654521,-0.0176604855805635
1768730489680,-0.134307861328125,-0.099639892578125,-0.9847869873046876,-0.0493521019816398,-0.0716579407453537,-0.0227417983114719
1768730489690,-0.1340789794921875,-0.1036834716796875,-0.980194091796875,-0.0565650090575218,-0.0711538046598434,-0.0211327150464057
1768730489700,-0.125274658203125,-0.1080474853515625,-0.978363037109375,-0.0563724637031555,-0.0614830665290355,-0.011428689584136
1768730489710,-0.123382568359375,-0.109375,-0.98345947265625,-0.0474833622574806,-0.0420345366001129,-0.0035169704351574
1768730489720,-0.123321533203125,-0.1092987060546875,-0.99053955078125,-0.0465938672423362,-0.0412547625601291,-0.0013238573446869
1768730489730,-0.130462646484375,-0.1032257080078125,-0.9859619140625,-0.0382523126900196,-0.0322900302708148,-0.0083876261487603
1768730489741,-0.1417999267578125,-0.1030731201171875,-0.9913787841796876,-0.0268001891672611,-0.0124484142288565,-0.0174612812697887
1768730489750,-0.138153076171875,-0.1039886474609375,-0.996795654296875,-0.0219037011265754,-0.0091844433918595,-0.0178908500820398
1768730489760,-0.128997802734375,-0.108001708984375,-0.9986724853515624,-0.0176152121275663,-0.0239830967038869,-0.0098110856488347
1768730489770,-0.1241455078125,-0.1041717529296875,-1.0016937255859375,0.0013744573807343,-0.0174090843647718,-0.0009049421059899
1768730489780,-0.1301422119140625,-0.098358154296875,-1.0053253173828125,0.01545219309628,-0.00613166205585,-0.0065220813266932
1768730489790,-0.1408843994140625,-0.100067138671875,-0.9959259033203124,0.0193622466176748,0.0115831531584262,-0.013341904617846
1768730489800,-0.13494873046875,-0.106109619140625,-0.98687744140625,0.0200336296111345,0.0139144835993647,-0.0127480197697877
1768730489810,-0.1214447021484375,-0.1056060791015625,-0.987945556640625,0.0318599268794059,0.0015590144321322,-0.0073524550534784
1768730489820,-0.1209259033203125,-0.100738525390625,-0.9928131103515624,0.0461003817617893,-0.006605704780668,-0.0054107443429529
1768730489831,-0.1335296630859375,-0.0959930419921875,-0.9886474609375,0.0500434599816799,0.0114526581019163,-0.0063021043315529
1768730489841,-0.1425323486328125,-0.0980224609375,-0.9810333251953124,0.0392419435083866,0.0261485129594802,-0.0066070361062884
1768730489851,-0.1407623291015625,-0.1012115478515625,-0.9720611572265624,0.0165986847132444,0.0166151951998472,-0.0064509748481214
1768730489861,-0.13665771484375,-0.104736328125,-0.9640350341796876,-0.0026972496416419,0.0119269667193293,-0.0071708275936543
1768730489871,-0.129302978515625,-0.107421875,-0.9652099609375,-0.015141668729484,0.008364456705749,-0.0017454357584938
1768730489881,-0.1240692138671875,-0.1098480224609375,-0.96710205078125,-0.0232009273022413,0.0010649980977177,0.006637929007411
1768730489891,-0.11968994140625,-0.111541748046875,-0.9713134765625,-0.0237383525818586,0.0052874400280416,0.0121626565232872
1768730489901,-0.1226959228515625,-0.11053466796875,-0.9822540283203124,-0.0158572606742382,0.0032855418976396,0.0112241590395569
1768730489911,-0.130615234375,-0.1066131591796875,-0.989166259765625,-0.0067452541552484,-0.0081098582595586,0.0028245486319065
1768730489921,-0.1390228271484375,-0.1021728515625,-0.990234375,-0.0015558187151327,-0.0123536055907607,-0.0063055665232241
1768730489931,-0.1429290771484375,-0.101654052734375,-0.9921875,0.0070424629375338,-0.0016261261189356,-0.0158423464745283
1768730489941,-0.14501953125,-0.1009521484375,-0.9959564208984376,0.0167206563055515,0.012621252797544,-0.019114039838314
1768730489951,-0.1420135498046875,-0.101470947265625,-0.99334716796875,0.0260004419833421,0.0195723697543144,-0.0168008171021938
1768730489961,-0.1343231201171875,-0.1044921875,-0.99090576171875,0.0316870883107185,0.0228515192866325,-0.0079308934509754
1768730489971,-0.130279541015625,-0.1049957275390625,-0.9852142333984376,0.0300708170980215,0.0264366678893566,-0.0065369950607419
1768730489981,-0.1315460205078125,-0.1085662841796875,-0.978240966796875,0.0289813168346881,0.0341795422136783,-0.0078760329633951
1768730489991,-0.1300811767578125,-0.1118316650390625,-0.9777679443359376,0.0254417099058628,0.0204554740339517,-0.0057335193268954
1768730490001,-0.1292724609375,-0.1115570068359375,-0.9731292724609376,0.0178730059415102,0.0157936103641986,-0.0083958813920617
1768730490011,-0.129730224609375,-0.114288330078125,-0.97442626953125,0.0159616563469171,0.0194916762411594,-0.0138646829873323
1768730490021,-0.130157470703125,-0.1147003173828125,-0.97747802734375,0.0181529056280851,0.023503728210926,-0.0149075770750641
1768730490032,-0.1285247802734375,-0.1163330078125,-0.9841766357421876,0.0242193192243576,0.0191880762577056,-0.0113365435972809
1768730490042,-0.124725341796875,-0.1147613525390625,-0.985137939453125,0.0225516483187675,0.0187278818339109,0.0017939052777364
1768730490052,-0.12579345703125,-0.1123046875,-0.9793853759765624,0.0148535147309303,0.0090781832113862,0.0043124565854668
1768730490062,-0.1328125,-0.11236572265625,-0.97552490234375,-0.0009036105475388,0.0022295983508229,0.0014674017438665
1768730490072,-0.1348114013671875,-0.11090087890625,-0.9726409912109376,-0.0087974863126873,-0.0089777819812297,-0.0023385216481983
1768730490082,-0.1354217529296875,-0.1035614013671875,-0.983154296875,0.0035105790011584,-0.0017933726776391,-0.0099522331729531
1768730490092,-0.143341064453125,-0.0998992919921875,-0.99322509765625,0.0175339858978986,0.0219409856945276,-0.0150468600913882
1768730490102,-0.1371002197265625,-0.102935791015625,-0.9920806884765624,0.0250214636325836,0.0228046476840972,-0.015149125829339
1768730490112,-0.128753662109375,-0.108184814453125,-0.98846435546875,0.0305107720196247,0.0175662096589803,-0.0121112577617168
1768730490122,-0.1208343505859375,-0.110931396484375,-0.993408203125,0.0380973182618618,0.0173363797366619,-0.0030463899020105
1768730490132,-0.1165771484375,-0.111083984375,-0.9935760498046876,0.0408552885055542,0.0135171404108405,0.0023403859231621
1768730490142,-0.1217041015625,-0.1128082275390625,-0.985748291015625,0.0382954590022563,0.0140692135319113,-0.0013930995482951
1768730490152,-0.1298065185546875,-0.1127777099609375,-0.978271484375,0.0335254706442356,0.0242837686091661,-0.0062208781018853
1768730490162,-0.1304168701171875,-0.1147308349609375,-0.9781036376953124,0.0327334441244602,0.0329164043068885,-0.0103666204959154
1768730490172,-0.126708984375,-0.1172943115234375,-0.9795074462890624,0.0311800241470336,0.0374688133597373,-0.0119341574609279
1768730490182,-0.1248626708984375,-0.1158294677734375,-0.979644775390625,0.0272465348243713,0.03238270804286,-0.0105264103040099
1768730490192,-0.1251373291015625,-0.1161041259765625,-0.976654052734375,0.0185505151748657,0.024681644514203,-0.0137344542890787
1768730490202,-0.127838134765625,-0.11492919921875,-0.97027587890625,0.0124635938555002,0.0296433791518211,-0.0140042323619127
1768730490212,-0.1249847412109375,-0.1134490966796875,-0.9786224365234376,0.0172849800437688,0.031561654061079,-0.0094962995499372
1768730490222,-0.1213531494140625,-0.1113128662109375,-0.9857025146484376,0.0225023794919252,0.0321054719388484,-0.0068784123286604
1768730490232,-0.12353515625,-0.1110076904296875,-0.9785003662109376,0.0190927349030971,0.0404254533350467,-0.0054312506690621
1768730490243,-0.124359130859375,-0.112701416015625,-0.9730377197265624,0.0137869184836745,0.0395679138600826,-0.0008221178431995
1768730490253,-0.1206512451171875,-0.1134033203125,-0.9754486083984376,0.0146226184442639,0.0313129164278507,0.003057841444388
1768730490263,-0.117645263671875,-0.112518310546875,-0.9858551025390624,0.0121650537475943,0.0284343045204877,0.0051303133368492
1768730490276,-0.1228790283203125,-0.1114654541015625,-0.98504638671875,0.005012069363147,0.0349281579256057,-0.0031941954512149
1768730490283,-0.1313934326171875,-0.11041259765625,-0.97735595703125,-0.0007843009079806,0.0352418757975101,-0.0081125209107995
1768730490293,-0.1295623779296875,-0.10821533203125,-0.9792938232421876,0.0033870083279907,0.0319930873811244,-0.012499812990427
1768730490303,-0.1223907470703125,-0.1128387451171875,-0.9908447265625,0.0157904140651226,0.0317233093082904,-0.0130926324054598
1768730490313,-0.1149139404296875,-0.1146087646484375,-0.993865966796875,0.0246084071695804,0.0206637326627969,-0.0120729077607393
1768730490323,-0.1113128662109375,-0.114349365234375,-0.9897613525390624,0.0273964703083038,0.0224736165255308,-0.0090081421658396
1768730490333,-0.113128662109375,-0.1177825927734375,-0.9858856201171876,0.0255959071218967,0.0223492477089166,-0.0092853773385286
1768730490343,-0.1199951171875,-0.11676025390625,-0.9774169921875,0.0185835380107164,0.0162388905882835,-0.0073330141603946
1768730490353,-0.1225738525390625,-0.1134490966796875,-0.973968505859375,0.0085562039166688,0.0192386750131845,-0.0035766253713518
1768730490363,-0.121307373046875,-0.1129608154296875,-0.97412109375,-0.0024327975697815,0.0276183113455772,0.0018104169284924
1768730490373,-0.127105712890625,-0.1104888916015625,-0.97332763671875,-0.0058653457090258,0.0326836444437503,0.0001624528231332
1768730490383,-0.1281585693359375,-0.1126251220703125,-0.9846038818359376,0.0047777108848094,0.0571764707565307,0.0019382486352697
1768730490393,-0.1211395263671875,-0.115753173828125,-1.000640869140625,0.0251442361623048,0.0714233145117759,0.0040765004232525
1768730490403,-0.116058349609375,-0.1184234619140625,-1.00494384765625,0.047549407929182,0.0840429738163948,0.0073870760388672
1768730490413,-0.1177215576171875,-0.1219329833984375,-1.0078887939453125,0.0628093257546424,0.0828914195299148,-0.0002647181972861
1768730490423,-0.126007080078125,-0.1217803955078125,-0.9970703125,0.0685606822371482,0.0490889810025692,-0.0173696689307689
1768730490433,-0.131591796875,-0.117767333984375,-0.9920806884765624,0.0865055993199348,0.0269903391599655,-0.0306849423795938
1768730490443,-0.1289825439453125,-0.115020751953125,-1.0066375732421875,0.0964671522378921,0.0133677367120981,-0.0312157105654478
1768730490453,-0.11871337890625,-0.1157379150390625,-0.9991912841796876,0.1009037122130394,-0.0081612570211291,-0.0304670948535203
1768730490463,-0.1151885986328125,-0.1273193359375,-0.9899749755859376,0.0999393835663795,-0.0215582884848117,-0.0197113864123821
1768730490475,-0.1050872802734375,-0.130462646484375,-0.983642578125,0.0976024568080902,-0.0136257968842983,-0.0012799152173101
1768730490484,-0.1071319580078125,-0.1235809326171875,-0.974700927734375,0.090304858982563,0.0125626632943749,0.0048349690623581
1768730490494,-0.1209564208984375,-0.121185302734375,-0.9669952392578124,0.0819396078586578,0.0360339023172855,-0.0003810983616858
1768730490504,-0.12396240234375,-0.1204681396484375,-0.965179443359375,0.074688620865345,0.0464649684727191,-0.000868723145686
1768730490514,-0.113555908203125,-0.1206512451171875,-0.9683380126953124,0.0705894827842712,0.0528008975088596,-0.0021238708868622
1768730490524,-0.1188507080078125,-0.11541748046875,-0.9680023193359376,0.0713705867528915,0.068296767771244,-0.003533215727657
1768730490534,-0.1248321533203125,-0.10772705078125,-0.9730682373046876,0.0715769827365875,0.0884257331490516,-0.0060714744031429
1768730490544,-0.126800537109375,-0.1153411865234375,-0.969940185546875,0.0521071441471576,0.0676725208759307,-0.0088238511234521
1768730490554,-0.1267852783203125,-0.1213836669921875,-0.9550933837890624,0.0172476954758167,0.0233466010540723,-0.0122079299762845
1768730490564,-0.117706298828125,-0.127197265625,-0.94390869140625,-0.0268883388489484,-0.0204501468688249,-0.0196850206702947
1768730490575,-0.1161041259765625,-0.129974365234375,-0.9447174072265624,-0.0543521866202354,-0.0433983393013477,-0.0272393431514501
1768730490584,-0.1091156005859375,-0.1334228515625,-0.9566192626953124,-0.0636285096406936,-0.0481430292129516,-0.0156402122229337
1768730490595,-0.0977783203125,-0.133880615234375,-0.974639892578125,-0.0610929131507873,-0.0738771557807922,0.0011614045361056
1768730490604,-0.098052978515625,-0.1302642822265625,-0.9846038818359376,-0.0523513555526733,-0.0716488882899284,0.0101450458168983
1768730490614,-0.1026763916015625,-0.128204345703125,-0.9951934814453124,-0.0423439964652061,-0.0557056069374084,0.0156058575958013
1768730490624,-0.1155853271484375,-0.1257171630859375,-0.9941864013671876,-0.0327624753117561,-0.0242653917521238,0.0187566429376602
1768730490634,-0.121612548828125,-0.123199462890625,-0.9948577880859376,-0.0166881661862134,0.0151523211970925,0.0257740728557109
1768730490644,-0.1217041015625,-0.122314453125,-1.0053863525390625,0.0095948362722992,0.0431690402328968,0.0312095843255519
1768730490654,-0.1213531494140625,-0.12005615234375,-1.016357421875,0.041433461010456,0.0439253784716129,0.0313805602490901
1768730490664,-0.1244049072265625,-0.11907958984375,-1.0150146484375,0.0611624233424663,0.0332780629396438,0.0227055791765451
1768730490674,-0.1265106201171875,-0.1244049072265625,-1.0014801025390625,0.0702888071537017,0.0534919872879982,0.0120931481942534
1768730490685,-0.123199462890625,-0.1320343017578125,-0.997772216796875,0.0764303281903266,0.0640623420476913,0.0106108328327536
1768730490695,-0.1168060302734375,-0.1347808837890625,-0.9915924072265624,0.0754880979657173,0.062435146421194,0.0139325931668281
1768730490705,-0.1090087890625,-0.138214111328125,-0.978851318359375,0.063228502869606,0.0576630309224128,0.0169299803674221
1768730490715,-0.1106109619140625,-0.13653564453125,-0.9761505126953124,0.0609309934079647,0.0627629831433296,0.0209958292543888
1768730490725,-0.1087493896484375,-0.132568359375,-0.981842041015625,0.066320963203907,0.0496413223445415,0.0362410955131053
1768730490735,-0.1064300537109375,-0.1293487548828125,-0.9804229736328124,0.0629613921046257,0.0150183644145727,0.0324455574154853
1768730490745,-0.1193084716796875,-0.129852294921875,-0.964080810546875,0.0435402877628803,0.0163363628089427,0.0225577726960182
1768730490755,-0.1218414306640625,-0.130584716796875,-0.9535369873046876,0.0238661840558052,0.0255373176187276,0.0220155529677867
1768730490765,-0.114471435546875,-0.1345977783203125,-0.9587249755859376,0.0114076500758528,0.0334026962518692,0.0205641314387321
1768730490775,-0.1098785400390625,-0.1396942138671875,-0.9672393798828124,-0.0004636563535314,0.0105895269662141,0.029051624238491
1768730490785,-0.1023406982421875,-0.13189697265625,-0.9734039306640624,-0.006369215901941,-0.0068696239031851,0.0272971354424953
1768730490795,-0.1167144775390625,-0.130340576171875,-0.9727783203125,-0.009678459726274,0.0218525677919387,0.0146798761561512
1768730490806,-0.12890625,-0.1334228515625,-0.971343994140625,-0.0178921818733215,0.0423860736191272,0.0048123318701982
1768730490815,-0.127349853515625,-0.1322479248046875,-0.9714813232421876,-0.0103964479640126,0.0407796539366245,0.0034882084000855
1768730490825,-0.11474609375,-0.1306304931640625,-0.9893646240234376,0.0033246902748942,0.0214506965130567,0.0107794106006622
1768730490835,-0.1042327880859375,-0.1305694580078125,-1.0015411376953125,0.0217620208859443,0.0156750995665788,0.015461248345673
1768730490845,-0.108154296875,-0.1324920654296875,-1.01025390625,0.0421652980148792,0.0196525305509567,0.0141339283436536
1768730490855,-0.11456298828125,-0.1289520263671875,-1.0092315673828125,0.0630503371357917,0.0459392629563808,0.0027723505627363
1768730490865,-0.1253509521484375,-0.1310577392578125,-1.0005340576171875,0.0765573605895042,0.0813872665166854,-0.0040533309802412
1768730490876,-0.119842529296875,-0.138092041015625,-0.9980621337890624,0.0853380635380745,0.110015720129013,0.0011470235185697
1768730490886,-0.108245849609375,-0.1441650390625,-0.991790771484375,0.0776729583740234,0.1107219830155372,0.0125064710155129
1768730490896,-0.105072021484375,-0.1491546630859375,-0.984405517578125,0.0764790624380111,0.0885884538292884,0.0225058421492576
1768730490906,-0.097381591796875,-0.147613525390625,-0.9877471923828124,0.0811630263924598,0.0661329478025436,0.0331289246678352
1768730490916,-0.100982666015625,-0.1424713134765625,-0.98760986328125,0.0806626230478286,0.0053305830806493,0.0278928838670253
1768730490926,-0.1080169677734375,-0.1378631591796875,-0.981201171875,0.0758558809757232,-0.0046586678363382,0.0145291415974497
1768730490936,-0.11590576171875,-0.136932373046875,-0.9775390625,0.0603767894208431,-0.0170431658625602,-0.0066195530816912
1768730490946,-0.131256103515625,-0.1378936767578125,-0.96173095703125,0.0515707843005657,-0.0112696988508105,-0.0254390463232994
1768730490956,-0.1260986328125,-0.13818359375,-0.9659271240234376,0.0427312180399894,0.0287874396890401,-0.0322149284183979
1768730490966,-0.11761474609375,-0.14324951171875,-0.9682159423828124,0.0242885611951351,0.0451826564967632,-0.0340663567185401
1768730490976,-0.118621826171875,-0.146148681640625,-0.9584503173828124,-0.0055561531335115,0.053942859172821,-0.0294614862650632
1768730490986,-0.1165313720703125,-0.14752197265625,-0.9504547119140624,-0.0320447534322738,0.0737155005335807,-0.0252243969589471
1768730490996,-0.1097259521484375,-0.14764404296875,-0.9560089111328124,-0.0346426665782928,0.0644967034459114,-0.0122500080615282
1768730491007,-0.0956573486328125,-0.1394805908203125,-0.9814453125,-0.0212861131876707,0.0250347796827554,-0.0002111886715283
1768730491016,-0.086212158203125,-0.1364593505859375,-0.995635986328125,-0.0127165941521525,-0.0004591289616655,0.0055018244311213
1768730491026,-0.0905609130859375,-0.1406402587890625,-0.986602783203125,-0.0164253115653991,-0.0119269667193293,0.0090398341417312
1768730491036,-0.0993499755859375,-0.14013671875,-0.974365234375,-0.0197028648108243,-0.0304234195500612,0.0047058057971298
1768730491046,-0.103515625,-0.1408233642578125,-0.975189208984375,-0.0133640086278319,-0.0241040047258138,-0.001489505986683
1768730491056,-0.108734130859375,-0.1418914794921875,-0.9796905517578124,-0.0086065372452139,-0.004236290231347,-0.0014929680619388
1768730491067,-0.1083526611328125,-0.1424560546875,-0.9781646728515624,-0.0077071879059076,0.0347736924886703,-0.0013784521725028
1768730491077,-0.1160888671875,-0.1406402587890625,-0.974761962890625,-0.0124817034229636,0.0349915400147438,-0.0055178035981953
1768730491086,-0.1213226318359375,-0.1348419189453125,-0.9721527099609376,-0.0265804771333932,0.0358317680656909,-0.0149797480553388
1768730491097,-0.1250762939453125,-0.133453369140625,-0.9738311767578124,-0.0371913090348243,0.0265360027551651,-0.0279663875699043
1768730491108,-0.1215057373046875,-0.1362457275390625,-0.9833831787109376,-0.0302116982638835,0.0124148577451705,-0.0330088175833225
1768730491117,-0.1018218994140625,-0.1378631591796875,-0.9980010986328124,-0.0152196995913982,0.0032431974541395,-0.0207601394504308
1768730491128,-0.08721923828125,-0.143463134765625,-1.000030517578125,0.0025731462519615,0.0191422682255506,-0.0030471889767795
1768730491137,-0.0883636474609375,-0.147216796875,-0.9995269775390624,0.022618493065238,0.0197547953575849,7.882956560933962e-05
1768730491147,-0.0960235595703125,-0.140625,-0.9997711181640624,0.0457395240664482,0.0218134205788373,8.468852320220321e-05
1768730491157,-0.0941162109375,-0.13433837890625,-1.0080413818359375,0.0629145205020904,0.0228525847196578,0.009180448949337
1768730491167,-0.1007537841796875,-0.1378936767578125,-0.99493408203125,0.0592968799173831,0.0072712288238108,-0.0017707358347252
1768730491177,-0.112640380859375,-0.1410064697265625,-0.9709930419921876,0.038989745080471,0.0327432975172996,-0.0102816661819815
1768730491187,-0.1067657470703125,-0.147125244140625,-0.971588134765625,0.0526123456656932,0.0325318425893783,-0.0017020262312144
1768730491197,-0.0969696044921875,-0.13958740234375,-0.996337890625,0.078886829316616,0.0020138823892921,0.0014002900570631
1768730491207,-0.1003265380859375,-0.134613037109375,-0.999267578125,0.0821132436394691,0.0005534048541449,-0.0092454301193356
1768730491217,-0.112762451171875,-0.137786865234375,-0.98004150390625,0.0578627660870552,-0.0121770380064845,-0.0222855973988771
1768730491227,-0.1146697998046875,-0.14422607421875,-0.9566497802734376,0.0341851338744163,-0.0014833806781098,-0.0276161804795265
1768730491237,-0.107330322265625,-0.14617919921875,-0.95489501953125,0.0119706429541111,0.0070970579981803,-0.0289419032633304
1768730491247,-0.105194091796875,-0.1419677734375,-0.95263671875,-0.0037420075386762,0.0089444927871227,-0.0167057439684867
1768730491257,-0.0988616943359375,-0.1385345458984375,-0.96453857421875,-0.0068533788435161,0.0162125248461961,-0.0046184537932276
1768730491267,-0.0957183837890625,-0.139190673828125,-0.972991943359375,-0.0199449453502893,0.0311675071716308,0.0038061898667365
1768730491278,-0.0988311767578125,-0.1434326171875,-0.97076416015625,-0.0273991338908672,0.0379846654832363,0.0108909970149397
1768730491288,-0.0972137451171875,-0.1461181640625,-0.9793701171875,-0.018011225387454,0.0397695153951644,0.0180740747600793
1768730491298,-0.09381103515625,-0.1456146240234375,-0.99542236328125,-0.0022793996613472,0.0067942566238343,0.0200570654124021
1768730491308,-0.0973663330078125,-0.1422271728515625,-0.999969482421875,0.0117306914180517,-0.035357192158699,0.0086824381723999
1768730491318,-0.100128173828125,-0.145233154296875,-0.99688720703125,0.0255764666944742,-0.0480540767312049,-0.0025190841406583
1768730491328,-0.104522705078125,-0.148712158203125,-1.0015106201171875,0.0403229221701622,-0.0385311469435691,-0.0128169953823089
1768730491338,-0.108154296875,-0.1503448486328125,-0.9950408935546876,0.0408044196665287,-0.0341225489974021,-0.0188719574362039
1768730491348,-0.11346435546875,-0.152191162109375,-0.9829254150390624,0.0384014509618282,-0.0090576773509383,-0.0206829085946083
1768730491358,-0.11163330078125,-0.1516876220703125,-0.987579345703125,0.0457467138767242,0.0044730454683303,-0.0209859758615493
1768730491368,-0.106719970703125,-0.1499481201171875,-1.00103759765625,0.0614037066698074,0.0112864766269922,-0.017374463379383
1768730491378,-0.1044769287109375,-0.148040771484375,-1.0014801025390625,0.0617336705327034,0.0258190799504518,-0.0082091940566897
1768730491388,-0.1055908203125,-0.1500091552734375,-0.9818878173828124,0.057702712714672,0.0615014433860778,0.0026682210154831
1768730491398,-0.10406494140625,-0.1515960693359375,-0.97564697265625,0.0588611848652362,0.0750739797949791,0.0130521524697542
1768730491408,-0.100433349609375,-0.1480712890625,-0.976776123046875,0.067224845290184,0.0503851436078548,0.0124979484826326
1768730491418,-0.095550537109375,-0.1458740234375,-0.9821624755859376,0.0780753567814827,0.0241777747869491,0.0141347274184226
1768730491428,-0.09228515625,-0.1484222412109375,-0.9801788330078124,0.0773043781518936,0.0014602112350985,0.0085207838565111
1768730491438,-0.0968017578125,-0.150482177734375,-0.970855712890625,0.0679998248815536,0.0136606851592659,0.007627559825778
1768730491448,-0.101837158203125,-0.1536102294921875,-0.965576171875,0.0563013553619384,0.0145698878914117,0.0109341405332088
1768730491458,-0.1038665771484375,-0.1562347412109375,-0.966888427734375,0.0395697802305221,0.0055167381651699,0.0096925748512148
1768730491468,-0.1120452880859375,-0.157073974609375,-0.96173095703125,0.0180200133472681,-0.005699963774532,0.0009350358741357
1768730491478,-0.112884521484375,-0.15899658203125,-0.9611663818359376,-0.0043348274193704,-0.0046402919106185,-0.0072557823732495
1768730491488,-0.1131134033203125,-0.15948486328125,-0.9637603759765624,-0.016897490248084,-0.0042141862213611,-0.0107035106047987
1768730491499,-0.1036529541015625,-0.1601409912109375,-0.9695587158203124,-0.0265988539904356,-0.0031425300985574,-0.0045289718545973
1768730491509,-0.0979156494140625,-0.154266357421875,-0.9672393798828124,-0.0345910005271434,-0.0033454629592597,0.0018796591321006
1768730491519,-0.1039886474609375,-0.1510009765625,-0.9691314697265624,-0.0333134829998016,0.0007603325066156,0.0071220914833247
1768730491529,-0.1039581298828125,-0.1454315185546875,-0.9751434326171876,-0.0300519093871116,-0.0003685815026983,0.0070184948854148
1768730491539,-0.1037445068359375,-0.1458282470703125,-0.9781646728515624,-0.0316868238151073,0.0001206411980092,0.0120316287502646
1768730491549,-0.0999298095703125,-0.1479034423828125,-0.977783203125,-0.0316063947975635,-0.006909305229783,0.0186807438731193
1768730491559,-0.0940093994140625,-0.148529052734375,-0.983978271484375,-0.023395337164402,-0.0081639206036925,0.0238299649208784
1768730491569,-0.09393310546875,-0.1494903564453125,-0.993621826171875,-0.0140340598300099,-0.0177766010165214,0.0214815903455019
1768730491579,-0.099761962890625,-0.1488189697265625,-0.992767333984375,0.0017190704820677,-0.0122382901608943,0.0150591107085347
1768730491589,-0.0985870361328125,-0.1501922607421875,-0.996429443359375,0.0148900002241134,-0.0120769031345844,0.0141661530360579
1768730491599,-0.09564208984375,-0.1552276611328125,-0.9926910400390624,0.0249311830848455,0.0023662187159061,0.0150388702750206
1768730491609,-0.0937957763671875,-0.160308837890625,-0.9866943359375,0.0189654361456632,0.0230049174278974,0.0182961821556091
1768730491619,-0.0978851318359375,-0.16259765625,-0.9722900390625,0.005012069363147,0.0444452278316021,0.0212472323328256
1768730491629,-0.10125732421875,-0.162200927734375,-0.968780517578125,-0.0049718553200364,0.0521737225353717,0.0277381539344787
1768730491641,-0.0981597900390625,-0.15789794921875,-0.9787750244140624,-0.0022687469609081,0.0307962615042924,0.0316205099225044
1768730491649,-0.094512939453125,-0.152923583984375,-0.9864349365234376,-0.0027579695452004,-0.0070352726615965,0.0281048715114593
1768730491659,-0.1019439697265625,-0.15350341796875,-0.9799957275390624,-0.013147760182619,-0.0132356444373726,0.0204032752662897
1768730491669,-0.107147216796875,-0.154083251953125,-0.9774627685546876,-0.0113935358822345,-0.0319411531090736,0.0099556948989629
1768730491680,-0.1071929931640625,-0.150177001953125,-0.979766845703125,-0.0086355656385421,-0.0357332304120063,0.0008229167433455
1768730491690,-0.1026763916015625,-0.1506805419921875,-0.984771728515625,-0.0037707698065787,-0.0206211227923631,0.0012365056900307
1768730491699,-0.0986328125,-0.1548919677734375,-0.9822998046875,-0.00650051003322,-0.0078683095052838,0.0010918960906565
1768730491709,-0.1049957275390625,-0.156524658203125,-0.9740142822265624,-0.011518970131874,0.0124244457110762,0.0001757686259225
1768730491719,-0.106689453125,-0.1517791748046875,-0.97900390625,-0.0047641289420425,0.024851020425558,-0.0018202705541625
1768730491730,-0.104156494140625,-0.1495819091796875,-0.987060546875,-0.0006223807577043,0.0215023625642061,-0.0029622339643538
1768730491740,-0.10247802734375,-0.1489715576171875,-0.9864044189453124,0.003190200543031,0.0129821114242076,-0.0077687073498964
1768730491750,-0.1056365966796875,-0.1500701904296875,-0.9865570068359376,0.0094086816534399,0.0131331123411655,-0.0080193104222416
1768730491760,-0.099273681640625,-0.1508941650390625,-0.9872894287109376,0.0135613484308123,0.0055537559092044,-0.00220935838297
1768730491770,-0.0946197509765625,-0.1517486572265625,-0.9832611083984376,0.0128092719241976,0.0026181535795331,0.0015006912872195
1768730491780,-0.1036834716796875,-0.1501007080078125,-0.974395751953125,0.0068120998330414,0.0007422229973599,-0.0023044333793222
1768730491790,-0.1075286865234375,-0.150634765625,-0.9662628173828124,0.001349956379272,0.0099274655804038,-0.0062219430692493
1768730491800,-0.102874755859375,-0.1505889892578125,-0.9687347412109376,-0.0041995388455688,0.0160157177597284,-0.0054411045275628
1768730491811,-0.1005706787109375,-0.149505615234375,-0.9635162353515624,-0.0255746021866798,0.0052397693507373,-0.0136763975024223
1768730491820,-0.1085662841796875,-0.144805908203125,-0.9525146484375,-0.0407061502337455,0.001186704612337,-0.0279291030019521
1768730491830,-0.11346435546875,-0.1390838623046875,-0.962646484375,-0.0455866605043411,-0.0023545008152723,-0.0361990183591842
1768730491840,-0.1029815673828125,-0.145172119140625,-0.9689788818359376,-0.0450921095907688,-0.0045097968541085,-0.0241508763283491
1768730491850,-0.0824737548828125,-0.150299072265625,-0.981414794921875,-0.0416054986417293,-0.0180658195167779,-0.0080137178301811
1768730491860,-0.0843353271484375,-0.1536407470703125,-0.981597900390625,-0.0447360463440418,-0.0038184402510523,-0.0067215519957244
1768730491870,-0.0984039306640625,-0.153167724609375,-0.97564697265625,-0.0472085252404212,0.0176279954612255,-0.0128375012427568
1768730491880,-0.110137939453125,-0.1520843505859375,-0.9728546142578124,-0.0439541414380073,0.0331350490450859,-0.0208315122872591
1768730491890,-0.1101531982421875,-0.1477508544921875,-0.9845123291015624,-0.0279496088624,0.0582356080412864,-0.0192879438400268
1768730491901,-0.106658935546875,-0.150726318359375,-0.99383544921875,-0.0151371415704488,0.072610817849636,-0.0102742090821266
1768730491911,-0.10302734375,-0.154022216796875,-0.9901123046875,-0.0093586146831512,0.0598444268107414,-0.0021792647894471
1768730491921,-0.0970916748046875,-0.1555023193359375,-0.991851806640625,0.0038730350788682,0.0283695887774229,0.0115796905010938
1768730491931,-0.09564208984375,-0.1467437744140625,-1.001739501953125,0.0218831952661275,-0.0073575149290263,0.0250861775130033
1768730491941,-0.099609375,-0.1455535888671875,-1.003204345703125,0.0321765765547752,-0.0384653657674789,0.0248989574611186
1768730491951,-0.107818603515625,-0.1445159912109375,-0.99951171875,0.0380235500633716,-0.048040498048067,0.021518075838685
1768730491961,-0.108428955078125,-0.15435791015625,-0.9918060302734376,0.0261256098747253,-0.0598588064312934,0.0203449521213769
1768730491971,-0.10992431640625,-0.1574249267578125,-0.972381591796875,0.0169912334531545,-0.0535388588905334,0.0145469848066568
1768730491981,-0.114990234375,-0.154449462890625,-0.970245361328125,0.0259642228484153,-0.0334077589213848,0.0106270778924226
1768730491991,-0.1151123046875,-0.148651123046875,-0.9858856201171876,0.0371303260326385,-0.009637713432312,0.0105064371600747
1768730492001,-0.117401123046875,-0.1463775634765625,-0.9823760986328124,0.0322913601994514,-0.0159930810332298,0.0101003050804138
1768730492011,-0.1151885986328125,-0.147552490234375,-0.9720458984375,0.0140854585915803,-0.0326809808611869,0.0033800839446485
1768730492021,-0.10980224609375,-0.146942138671875,-0.9674835205078124,-0.0045915558002889,-0.0453879870474338,0.000303866690956
1768730492031,-0.101470947265625,-0.1506500244140625,-0.973602294921875,-0.0012684636749327,-0.0609967745840549,0.0044275051914155
1768730492042,-0.0897674560546875,-0.1512451171875,-0.9889068603515624,0.002577407285571,-0.0663313493132591,0.0097644804045557
1768730492051,-0.0895538330078125,-0.156158447265625,-0.98370361328125,0.0011893677292391,-0.0605600178241729,0.0161643233150243
1768730492061,-0.0921783447265625,-0.1590728759765625,-0.97747802734375,-0.0028967203106731,-0.0292705371975898,0.0214791931211948
1768730492071,-0.0953216552734375,-0.1605224609375,-0.974151611328125,-0.013000220991671,-0.0022833943367004,0.0245436932891607
1768730492081,-0.09747314453125,-0.15911865234375,-0.9739837646484376,-0.0153685696423053,0.0039992691017687,0.0261293388903141
1768730492091,-0.100921630859375,-0.155914306640625,-0.9814453125,-0.0093740606680512,-0.016604010015726,0.0164396930485963
1768730492101,-0.10321044921875,-0.1475830078125,-0.9934234619140624,0.0052376389503479,-0.0318127907812595,0.0066717509180307
1768730492112,-0.1008758544921875,-0.1457672119140625,-1.00079345703125,0.027016170322895,-0.0475712455809116,0.0026085663121193
1768730492121,-0.099517822265625,-0.144439697265625,-1.000213623046875,0.0304484535008668,-0.0358112603425979,-0.0049369679763913
1768730492132,-0.107879638671875,-0.148406982421875,-0.9819488525390624,0.0259192157536745,-0.0135901113972067,-0.0131754567846655
1768730492142,-0.11138916015625,-0.151458740234375,-0.976531982421875,0.029545109719038,0.0150580452755093,-0.0206083394587039
1768730492152,-0.108642578125,-0.1544189453125,-0.9813385009765624,0.0300814695656299,0.0534720122814178,-0.0172535553574562
1768730492162,-0.0994415283203125,-0.1584625244140625,-0.9732208251953124,0.0288148708641529,0.0667774304747581,-0.0104443849995732
1768730492172,-0.0916595458984375,-0.1592559814453125,-0.9708251953125,0.0266550462692976,0.0484780520200729,-0.0034599788486957
1768730492182,-0.0897216796875,-0.1576690673828125,-0.968109130859375,0.0198788996785879,0.0302393957972526,-0.0010285128373652
1768730492192,-0.086029052734375,-0.1581878662109375,-0.967498779296875,0.0093000251799821,0.0094116115942597,0.0127006154507398
1768730492202,-0.0884857177734375,-0.158660888671875,-0.9654541015625,0.0002455434587318,-0.013431386090815,0.0076635121367871
1768730492212,-0.100677490234375,-0.157318115234375,-0.9679107666015624,-0.0084281060844659,-0.0160231757909059,0.0079748360440135
1768730492222,-0.10870361328125,-0.156524658203125,-0.9709930419921876,-0.0161752421408891,-0.0033846113365143,0.0022993732709437
1768730492232,-0.1193695068359375,-0.15802001953125,-0.97650146484375,-0.0158474054187536,0.0312655121088027,-0.0054355119355022
1768730492242,-0.125396728515625,-0.1575927734375,-0.9901580810546876,0.0093343798071146,0.0477414242923259,-0.0066595007665455
1768730492252,-0.1201019287109375,-0.1516571044921875,-1.010406494140625,0.0446620099246501,0.0421485193073749,-0.0055636097677052
1768730492262,-0.1172943115234375,-0.1532440185546875,-1.0121612548828125,0.0624617785215377,0.0156213035807013,-0.0010554107138887
1768730492273,-0.110565185546875,-0.155242919921875,-1.0010528564453125,0.0622274205088615,-0.0123442839831113,-0.0053806505165994
1768730492282,-0.1121063232421875,-0.1609649658203125,-0.984771728515625,0.0549066588282585,-0.0232936050742864,-0.0095383776351809
1768730492292,-0.111114501953125,-0.1623992919921875,-0.975372314453125,0.0491084232926368,-0.0256097558885812,-0.0060640177689492
1768730492302,-0.103240966796875,-0.1641693115234375,-0.9710693359375,0.0355729088187217,-0.0268023200333118,0.0002753708686213
1768730492312,-0.1018524169921875,-0.1653594970703125,-0.96307373046875,0.0239332951605319,-0.0250502247363328,0.0053412360139191
1768730492323,-0.1023101806640625,-0.163970947265625,-0.9614715576171876,0.0152154378592967,-0.0271048545837402,0.0045955507084727
1768730492333,-0.103851318359375,-0.158660888671875,-0.9619903564453124,0.0170178655534982,-0.0341880656778812,0.01282818056643
1768730492343,-0.097381591796875,-0.1505279541015625,-0.97955322265625,0.0194200370460748,-0.0426944680511951,0.0194948725402355
1768730492353,-0.1069183349609375,-0.1529388427734375,-0.981597900390625,0.0249479599297046,-0.0461408644914627,0.0170082785189151
1768730492363,-0.119842529296875,-0.1483154296875,-0.9849395751953124,0.0318175852298736,-0.0312569886445999,0.0056445701047778
1768730492373,-0.1278533935546875,-0.1461181640625,-0.9858856201171876,0.0303200893104076,0.0001302285818383,0.0031140341889113
1768730492383,-0.130157470703125,-0.1512908935546875,-0.976593017578125,0.0242344997823238,0.0130566796287894,0.0055324509739875
1768730492393,-0.1275482177734375,-0.1510009765625,-0.97369384765625,0.0229585785418748,0.0057263290509581,0.0012109393719583
1768730492403,-0.1189117431640625,-0.151885986328125,-0.9799652099609376,0.0230222288519144,0.0047838361933827,0.004071706905961
1768730492413,-0.10546875,-0.161163330078125,-0.9787139892578124,0.01653902977705,-0.0140010369941592,0.0115120466798543
1768730492423,-0.09356689453125,-0.16790771484375,-0.97100830078125,0.0011334413429722,-0.0287163332104682,0.0203478820621967
1768730492433,-0.095306396484375,-0.171112060546875,-0.9682464599609376,-0.01156797260046,-0.039772979915142,0.0235434100031852
1768730492443,-0.09906005859375,-0.1744232177734375,-0.9709930419921876,-0.0176232028752565,-0.0277165826410055,0.0223782770335674
1768730492453,-0.0997314453125,-0.178070068359375,-0.9736785888671876,-0.0186751503497362,-0.0209955628961324,0.0260025728493928
1768730492463,-0.101104736328125,-0.175994873046875,-0.98095703125,-0.0086685894057154,-0.0206549447029829,0.0259610265493392
1768730492476,-0.100677490234375,-0.169586181640625,-0.9951629638671876,0.0118310926482081,-0.0173132102936506,0.0276907496154308
1768730492483,-0.097503662109375,-0.1666412353515625,-1.004913330078125,0.0322562083601951,-0.0099991047754883,0.0318263731896877
1768730492494,-0.0994110107421875,-0.163482666015625,-1.004608154296875,0.052927128970623,0.0048243161290884,0.0332863181829452
1768730492503,-0.1046600341796875,-0.16107177734375,-0.99713134765625,0.0656330734491348,0.0262049715965986,0.0323339700698852
1768730492513,-0.1055145263671875,-0.1600494384765625,-0.985260009765625,0.0744009986519813,0.0358847640454769,0.0285932943224906
1768730492523,-0.1070404052734375,-0.1539306640625,-0.974517822265625,0.0786388888955116,0.0320993475615978,0.0224219523370265
1768730492533,-0.110931396484375,-0.1527099609375,-0.9659881591796876,0.0669718459248542,0.0167105365544557,0.0112686334177851
1768730492543,-0.11395263671875,-0.15380859375,-0.9477081298828124,0.0332407765090465,0.0051303133368492,0.003892742563039
1768730492553,-0.11578369140625,-0.155670166015625,-0.930145263671875,-0.0112979281693696,-0.0235564578324556,-0.0069348714314401
1768730492564,-0.1212310791015625,-0.151336669921875,-0.9279022216796876,-0.0487230643630027,-0.049440786242485,-0.0236432775855064
1768730492574,-0.1245269775390625,-0.1485595703125,-0.9392547607421876,-0.0750548020005226,-0.0519918277859687,-0.0358477458357811
1768730492584,-0.1189422607421875,-0.15765380859375,-0.955322265625,-0.088445708155632,-0.0488948374986648,-0.0348844788968563
1768730492594,-0.1054840087890625,-0.167633056640625,-0.970458984375,-0.0966149568557739,-0.0456764064729213,-0.0269322823733091
1768730492604,-0.098785400390625,-0.17474365234375,-0.979034423828125,-0.0880462378263473,-0.0412387810647487,-0.0137352533638477
1768730492614,-0.0987091064453125,-0.1752471923828125,-0.995025634765625,-0.0657260194420814,-0.034166757017374,-0.0039039277471601
1768730492624,-0.09912109375,-0.1736602783203125,-1.007476806640625,-0.036166526377201,-0.0295680128037929,0.006148706190288
1768730492634,-0.1021881103515625,-0.1719818115234375,-1.014129638671875,-0.0012791162589564,-0.0098262652754783,0.0133829172700643
1768730492644,-0.1134033203125,-0.16900634765625,-1.0190582275390625,0.032351016998291,0.0069833411835134,0.012859339825809
1768730492654,-0.1254425048828125,-0.166046142578125,-1.0140228271484375,0.0460071712732315,0.0100323939695954,0.002184324664995
1768730492664,-0.130523681640625,-0.1632537841796875,-0.9925537109375,0.0529332570731639,0.0111935324966907,-0.0041787661612033
1768730492674,-0.1331939697265625,-0.1587066650390625,-0.985137939453125,0.0672024711966514,0.0208357740193605,-0.0112534537911415
1768730492684,-0.1372222900390625,-0.1541290283203125,-0.9854888916015624,0.0750923529267311,0.0236384831368923,-0.0176442414522171
1768730492694,-0.133453369140625,-0.1507415771484375,-0.9757843017578124,0.0662839487195015,0.0248416997492313,-0.0242169220000505
1768730492704,-0.1289520263671875,-0.15997314453125,-0.96197509765625,0.0401175916194915,-0.0003414172388147,-0.0248792506754398
1768730492714,-0.1190338134765625,-0.162139892578125,-0.9460906982421876,0.0141456462442874,-0.0193995311856269,-0.0255029629915952
1768730492724,-0.1128387451171875,-0.1605987548828125,-0.949981689453125,0.0001438106992281,-0.0277354903519153,-0.0242435541003942
1768730492735,-0.111663818359375,-0.1580657958984375,-0.95458984375,-0.0184953864663839,-0.0213942378759384,-0.022251509130001
1768730492744,-0.1139068603515625,-0.158843994140625,-0.9535980224609376,-0.0325241200625896,-0.0028272117488086,-0.012533102184534
1768730492755,-0.107666015625,-0.160247802734375,-0.9604034423828124,-0.0427165701985359,-0.0011800467036664,-0.002182993106544
1768730492765,-0.1011810302734375,-0.159698486328125,-0.9685211181640624,-0.0456782728433609,-0.0143355298787355,0.0044709146022796
1768730492775,-0.1020965576171875,-0.15655517578125,-0.9789276123046876,-0.0363774485886096,-0.0215926431119442,0.0044658547267317
1768730492785,-0.0982208251953125,-0.159149169921875,-0.9893951416015624,-0.0296833273023366,-0.0114084491506218,0.0107306744903326
1768730492795,-0.1016387939453125,-0.164459228515625,-0.9866485595703124,-0.0240629911422729,0.013440441340208,0.0086424900218844
1768730492805,-0.1077728271484375,-0.1681060791015625,-0.9821014404296876,-0.0192109793424606,0.0202514752745628,0.0095239961519837
1768730492815,-0.107940673828125,-0.1667327880859375,-0.9864959716796876,-0.0136569561436772,0.015687882900238,0.0111035173758864
1768730492825,-0.1100311279296875,-0.16632080078125,-0.989105224609375,-0.0066091669723391,0.0077849524095654,0.0055596148595213
1768730492835,-0.111328125,-0.1617584228515625,-0.9962005615234376,0.0058408449403941,0.0035446672700345,0.0029537118971347
1768730492845,-0.11004638671875,-0.1615447998046875,-0.9977264404296876,0.017158480361104,-0.0124465497210621,0.0016706009628251
1768730492855,-0.1125946044921875,-0.16033935546875,-0.9886322021484376,0.0187558438628911,-0.0031475899741053,-0.0006210491410456
1768730492865,-0.1160430908203125,-0.1603546142578125,-0.986663818359375,0.0213950369507074,0.005600893869996,-0.0012125372886657
1768730492875,-0.1157684326171875,-0.1609649658203125,-0.9830780029296876,0.0286135356873273,0.0093245254829525,0.0023193468805402
1768730492885,-0.11090087890625,-0.1617431640625,-0.986541748046875,0.0317352935671806,0.0148782823234796,0.0055542886257171
1768730492895,-0.1121368408203125,-0.162322998046875,-0.9798736572265624,0.0306274183094501,0.0158636514097452,0.0030035129748284
1768730492905,-0.1092987060546875,-0.1644744873046875,-0.9742279052734376,0.0269669033586978,0.0201177857816219,0.0041646515019237
1768730492915,-0.1073150634765625,-0.1685333251953125,-0.9685821533203124,0.0188730228692293,0.0248872395604848,0.0080078588798642
1768730492925,-0.1068878173828125,-0.1719512939453125,-0.9613800048828124,0.0066083678975701,0.0302969198673963,0.0103804692625999
1768730492935,-0.1094970703125,-0.1716156005859375,-0.9566192626953124,-0.0050813113339245,0.0372799932956695,0.0104782069101929
1768730492945,-0.1101531982421875,-0.170440673828125,-0.9577178955078124,-0.0072448635473847,0.0382355377078056,0.0145571045577526
1768730492956,-0.1076202392578125,-0.1662750244140625,-0.972412109375,0.0028447885997593,0.0210943669080734,0.0182588994503021
1768730492966,-0.109130859375,-0.1625518798828125,-0.9832763671875,0.0032924660481512,-0.0080201094970107,0.0152774900197982
1768730492976,-0.117431640625,-0.1583099365234375,-0.9810638427734376,0.0031571774743497,-0.0292220674455165,0.0013547500129789
1768730492986,-0.1269989013671875,-0.1615142822265625,-0.976287841796875,-0.000398941541789,-0.0371726676821708,-0.0078531289473176
1768730492996,-0.1285247802734375,-0.1609649658203125,-0.973724365234375,-0.0041068606078624,-0.0243285093456506,-0.0147978542372584
1768730493006,-0.1275177001953125,-0.1644439697265625,-0.9720916748046876,-0.0070765516720712,-0.0124926222488284,-0.0088659292086958
1768730493016,-0.1171722412109375,-0.16522216796875,-0.97613525390625,-0.0047401604242622,-0.0190703645348548,-0.0004340952436905
1768730493027,-0.1114654541015625,-0.16510009765625,-0.9819793701171876,-0.0062989084981381,-0.0318801701068878,0.0041774343699216
1768730493036,-0.11102294921875,-0.1674957275390625,-0.9780120849609376,-0.0111671667546033,-0.0364352390170097,0.0062187472358345
1768730493046,-0.1080474853515625,-0.170623779296875,-0.9747314453125,-0.0128641333431005,-0.0381489843130111,0.0042141862213611
1768730493056,-0.1075439453125,-0.1720428466796875,-0.9722900390625,-0.0084552699699997,-0.0267011187970638,0.0039545278996229
1768730493066,-0.104248046875,-0.1734771728515625,-0.98089599609375,-0.0023662187159061,-0.0232949368655681,0.0072384718805551
1768730493076,-0.103057861328125,-0.17364501953125,-0.9785308837890624,-0.0032357405871152,-0.0221457816660404,0.0100172143429517
1768730493086,-0.106719970703125,-0.170654296875,-0.981353759765625,-0.0020399813074618,-0.0294484365731477,0.0091511541977524
1768730493096,-0.1105804443359375,-0.16748046875,-0.9835662841796876,-0.0033657029271125,-0.0373540297150611,0.0094587495550513
1768730493106,-0.113006591796875,-0.1662445068359375,-0.9814453125,-0.0047377636656165,-0.0404587425291538,0.0075103803537786
1768730493116,-0.1183624267578125,-0.1643829345703125,-0.979522705078125,0.0004737763665616,-0.0348107106983661,0.0023699470330029
1768730493126,-0.1201934814453125,-0.164093017578125,-0.985443115234375,0.0087812412530183,-0.0265503842383623,-0.0029515814967453
1768730493136,-0.1160430908203125,-0.1698455810546875,-0.9834442138671876,0.014519820921123,-0.0281301718205213,0.0013329121284186
1768730493146,-0.10791015625,-0.1717681884765625,-0.9799041748046876,0.0179571621119976,-0.0173353143036365,0.0123599972575902
1768730493156,-0.1077117919921875,-0.1729736328125,-0.9792633056640624,0.0097034936770796,-0.0296079590916633,0.0183702185750007
1768730493167,-0.1114044189453125,-0.1747283935546875,-0.9678955078125,-0.0024442493449896,-0.0400350354611873,0.0166106689721345
1768730493177,-0.116729736328125,-0.1714935302734375,-0.96502685546875,-0.0076342173852026,-0.041143175214529,0.0138457743450999
1768730493187,-0.11553955078125,-0.1690826416015625,-0.9714813232421876,-0.0057686730287969,-0.0384991876780986,0.015083878301084
1768730493197,-0.116668701171875,-0.16461181640625,-0.9763946533203124,-0.0046658581122756,-0.032957948744297,0.0121024688705801
1768730493207,-0.1238250732421875,-0.1617279052734375,-0.9753875732421876,-0.0052067460492253,-0.0333145484328269,0.0061652180738747
1768730493217,-0.12725830078125,-0.1612396240234375,-0.974273681640625,-0.0111144362017512,-0.0158937461674213,0.0017323862994089
1768730493227,-0.126312255859375,-0.1622314453125,-0.975128173828125,-0.010946923866868,-0.0103554353117942,-0.0020397149492055
1768730493240,-0.123291015625,-0.160858154296875,-0.9777679443359376,-0.0061827949248254,-0.0073263561353087,-0.0002218413137597
1768730493247,-0.1209564208984375,-0.15765380859375,-0.98370361328125,0.0050940946675837,-0.0086624640971422,-0.0025073662400245
1768730493257,-0.121063232421875,-0.158203125,-0.9881439208984376,0.0154356816783547,-0.0057247309014201,-0.0061729410663247
1768730493267,-0.121917724609375,-0.162322998046875,-0.985748291015625,0.0162804368883371,-0.0139994388446211,-0.0107200220227241
1768730493277,-0.1208343505859375,-0.1647186279296875,-0.975982666015625,0.0232376791536808,-0.015713982284069,-0.0121709126979112
1768730493287,-0.1149139404296875,-0.1654205322265625,-0.9796600341796876,0.0293283276259899,-0.0241993460804224,-0.0108973886817693
1768730493297,-0.113922119140625,-0.1687469482421875,-0.9749298095703124,0.0131227262318134,-0.0414265356957912,-0.00952426251024
1768730493307,-0.122802734375,-0.1667938232421875,-0.9571533203125,-0.0057601509615778,-0.0398107953369617,-0.015590145252645
1768730493317,-0.1328887939453125,-0.1624603271484375,-0.95953369140625,-0.0126359006389975,-0.0283586699515581,-0.0222310032695531
1768730493327,-0.1337890625,-0.16009521484375,-0.967254638671875,-0.0170152019709348,-0.0179771352559328,-0.0189606416970491
1768730493337,-0.131072998046875,-0.1627349853515625,-0.9678802490234376,-0.0239117238670587,-0.0333313234150409,-0.0165677908807992
1768730493347,-0.1247711181640625,-0.16412353515625,-0.9644622802734376,-0.0290484298020601,-0.0393306277692317,-0.0159139856696128
1768730493357,-0.1149444580078125,-0.1666107177734375,-0.970672607421875,-0.0295296628028154,-0.0391761660575866,-0.0089013492688536
1768730493367,-0.1135101318359375,-0.168060302734375,-0.975128173828125,-0.0313478037714958,-0.032740369439125,-0.0034751589410007
1768730493378,-0.117279052734375,-0.1675872802734375,-0.9763946533203124,-0.025086710229516,-0.0176373161375522,-0.0014945659786462
1768730493388,-0.12139892578125,-0.163604736328125,-0.9873809814453124,-0.0042602587491273,0.0021382521372288,0.00108071079012
1768730493398,-0.12225341796875,-0.164520263671875,-0.9945068359375,0.0087396958842873,0.0089500853791832,0.0006101301987655
1768730493410,-0.1144256591796875,-0.17010498046875,-0.9896087646484376,0.0108625013381242,-0.0119629194959998,0.0063428506255149
1768730493418,-0.112701416015625,-0.1668701171875,-0.985748291015625,0.0179800651967525,-0.0506232306361198,0.0048195226117968
1768730493428,-0.1233367919921875,-0.1601409912109375,-0.9888763427734376,0.0268489252775907,-0.0478572696447372,-0.0032855418976396
1768730493438,-0.1333465576171875,-0.161041259765625,-0.9876556396484376,0.0260598305612802,-0.0258015040308237,-0.0156711041927337
1768730493448,-0.1362762451171875,-0.1662750244140625,-0.97467041015625,0.0146002480760216,-0.0040788976475596,-0.0184357333928346
1768730493458,-0.12628173828125,-0.170318603515625,-0.96697998046875,0.0076059880666434,-0.0057873153127729,-0.0138337900862097
1768730493468,-0.1164093017578125,-0.167236328125,-0.9703826904296876,0.0073133064433932,-0.013040967285633,-0.0115732988342642
1768730493478,-0.120147705078125,-0.1592559814453125,-0.973297119140625,0.0150354085490107,-0.0066248793154954,-0.0153307532891631
1768730493488,-0.12445068359375,-0.1560211181640625,-0.9785003662109376,0.018825352191925,0.0018053569365292,-0.0123589318245649
1768730493498,-0.1224822998046875,-0.1593017578125,-0.9739532470703124,0.0077066556550562,-0.0076549900695681,-0.0076302229426801
1768730493508,-0.123016357421875,-0.161529541015625,-0.963623046875,-0.0077159767970442,-0.0010407633380964,-0.0076456689275801
1768730493518,-0.1249237060546875,-0.1674957275390625,-0.9652862548828124,-0.0156695079058408,0.0040203081443905,-0.0085269091650843
1768730493528,-0.1222991943359375,-0.168304443359375,-0.9735107421875,-0.0078866854310035,0.0116982012987136,-0.0065798722207546
1768730493540,-0.118560791015625,-0.172576904296875,-0.98382568359375,0.0006990797701291,0.0260449163615703,-0.0040658479556441
1768730493548,-0.1173858642578125,-0.1734619140625,-0.9841461181640624,0.0078022629022598,0.0308897383511066,0.0015811186749488
1768730493559,-0.119140625,-0.17388916015625,-0.9826202392578124,0.0154109140858054,0.0364749208092689,0.0013962953817099
1768730493569,-0.1210479736328125,-0.1706390380859375,-0.98681640625,0.0189140364527702,0.0355193763971328,-0.000155528599862
1768730493578,-0.125579833984375,-0.1660614013671875,-0.98193359375,0.0212821196764707,0.0196256320923566,-0.0050956923514604
1768730493588,-0.1311492919921875,-0.164306640625,-0.9811553955078124,0.0249982941895723,0.0168540813028812,-0.0099224057048559
1768730493599,-0.130859375,-0.16229248046875,-0.987274169921875,0.038477350026369,0.0218661502003669,-0.0122561333701014
1768730493609,-0.1292572021484375,-0.1638946533203125,-0.986297607421875,0.0431733019649982,0.0244094692170619,-0.0144178215414285
1768730493619,-0.129180908203125,-0.1664886474609375,-0.975555419921875,0.0397026725113391,0.0235431436449289,-0.0131962290033698
1768730493629,-0.12451171875,-0.1677703857421875,-0.970184326171875,0.0264230854809284,0.013708621263504,-0.0063119581900537
1768730493639,-0.11944580078125,-0.1686553955078125,-0.963714599609375,0.0138468397781252,0.0007861651247367,-0.0047398940660059
1768730493649,-0.1207733154296875,-0.168487548828125,-0.9610443115234376,0.0027510453946888,-0.0109525164589285,-0.0059186089783906
1768730493659,-0.121856689453125,-0.1674957275390625,-0.961883544921875,0.0012791162589564,-0.0057969028130173,-0.0052054147236049
1768730493669,-0.118499755859375,-0.168701171875,-0.96990966796875,0.0073141055181622,-0.003223223844543,0.000966461142525
1768730493679,-0.1156158447265625,-0.16888427734375,-0.9759674072265624,0.0154220992699265,-0.0043191146105527,0.0068411282263696
1768730493689,-0.1210784912109375,-0.1683197021484375,-0.9804229736328124,0.0187925957143306,-0.0024844629224389,0.0058062239550054
1768730493699,-0.1280670166015625,-0.1700286865234375,-0.9773406982421876,0.0200354941189289,0.0067873322404921,0.0003368898760527
1768730493709,-0.1326904296875,-0.170867919921875,-0.972198486328125,0.0195603854954242,0.0061870557256042,-0.0031739552505314
1768730493719,-0.127655029296875,-0.171539306640625,-0.97723388671875,0.0206333734095096,0.0068797441199421,-0.005845105741173
1768730493729,-0.125701904296875,-0.1707763671875,-0.9777984619140624,0.0233412757515907,-0.003826962551102,-0.0076691047288477
1768730493739,-0.1302947998046875,-0.1668243408203125,-0.9703826904296876,0.0198538657277822,0.017330253496766,-0.0102774044498801
1768730493749,-0.13604736328125,-0.1669464111328125,-0.9651336669921876,0.0112201636657118,0.0313667096197605,-0.014885738492012
1768730493759,-0.136566162109375,-0.1685943603515625,-0.958587646484375,0.0044520064257085,0.0247692614793777,-0.0176522303372621
1768730493769,-0.126617431640625,-0.167022705078125,-0.96673583984375,0.0045175203122198,0.0021363878622651,-0.0145818721503019
1768730493780,-0.1160430908203125,-0.167510986328125,-0.9757537841796876,0.0035334820859134,-0.0177427772432565,-0.0109682288020849
1768730493789,-0.1135406494140625,-0.1726531982421875,-0.9678955078125,-0.005920473486185,-0.0182210821658372,-0.0024490428622812
1768730493800,-0.11444091796875,-0.17694091796875,-0.9622955322265624,-0.0195420105010271,-0.0067764134146273,0.0027340012602508
1768730493810,-0.1187744140625,-0.18017578125,-0.9569091796875,-0.0369170047342777,0.0015235944883897,0.0081215761601924
1768730493820,-0.1191864013671875,-0.179962158203125,-0.9588165283203124,-0.0395820289850235,-0.0069050439633429,0.0121267037466168
1768730493830,-0.1162261962890625,-0.17352294921875,-0.9750518798828124,-0.031400267034769,-0.0122153870761394,0.0128076737746596
1768730493840,-0.1168212890625,-0.171112060546875,-0.9865570068359376,-0.0238760374486446,-0.0272633116692304,0.0113450661301612
1768730493850,-0.119293212890625,-0.1718292236328125,-0.981903076171875,-0.0275874193757772,-0.0374552309513092,0.0037212348543107
1768730493860,-0.1307830810546875,-0.172210693359375,-0.9713287353515624,-0.0312010627239942,-0.0342317409813404,-0.0085237128660082
1768730493870,-0.1318817138671875,-0.172332763671875,-0.9774322509765624,-0.0203089993447065,-0.0183276087045669,-0.0100326603278517
1768730493880,-0.121978759765625,-0.173553466796875,-0.9897003173828124,-0.0050416300073266,-0.0184794086962938,0.0002071939379675
1768730493890,-0.11334228515625,-0.1738739013671875,-0.993133544921875,0.0051087420433759,-0.0180543679744005,0.0084283724427223
1768730493900,-0.119598388671875,-0.1717987060546875,-0.9886932373046876,0.0103716803714632,-0.0133621441200375,0.0056887785904109
1768730493910,-0.1281585693359375,-0.1699371337890625,-0.98309326171875,0.0127733191475272,0.0034730283077806,-0.0045678536407649
1768730493920,-0.134368896484375,-0.1730804443359375,-0.9764862060546876,0.0096795251592993,0.0240773726254701,-0.0128204571083188
1768730493930,-0.1336669921875,-0.174713134765625,-0.972381591796875,0.010022540576756,0.0477976165711879,-0.0141957141458988
1768730493940,-0.125335693359375,-0.1734466552734375,-0.9734954833984376,0.0116790262982249,0.0608910471200943,-0.0096345180645585
1768730493950,-0.1211090087890625,-0.1716461181640625,-0.97607421875,0.0139232724905014,0.053957775235176,-0.0044738440774381
1768730493960,-0.120574951171875,-0.1703033447265625,-0.9746246337890624,0.0173696689307689,0.0368333831429481,-0.0022162825334817
1768730493970,-0.12066650390625,-0.1699066162109375,-0.979156494140625,0.0191294867545366,0.0201058015227317,-0.0047137951478362
1768730493980,-0.121246337890625,-0.168975830078125,-0.97955322265625,0.0226243529468774,0.001857554889284,-0.0074829501099884
1768730493990,-0.1247711181640625,-0.1676788330078125,-0.97821044921875,0.0231929365545511,-0.0122353611513972,-0.012386362068355
1768730494000,-0.1312103271484375,-0.1650390625,-0.973419189453125,0.0219511054456233,-0.0128873027861118,-0.0188884697854518
1768730494011,-0.1348114013671875,-0.168548583984375,-0.9672698974609376,0.0163376946002244,-0.0061636199243366,-0.0211529564112424
1768730494020,-0.1322479248046875,-0.1719970703125,-0.96484375,0.0085660573095083,0.0180788692086935,-0.0252680722624063
1768730494031,-0.135162353515625,-0.1715240478515625,-0.9620361328125,-0.0017539578257128,0.0254726037383079,-0.0238877553492784
1768730494041,-0.1339874267578125,-0.171844482421875,-0.9601898193359376,-0.015084677375853,0.0180825982242822,-0.0249554179608821
1768730494051,-0.1291656494140625,-0.1762237548828125,-0.95782470703125,-0.0276364218443632,0.0022778017446398,-0.019057048484683
1768730494061,-0.119415283203125,-0.1782684326171875,-0.961212158203125,-0.0362123325467109,-0.0035073831677436,-0.0136420428752899
1768730494072,-0.1169891357421875,-0.17840576171875,-0.9699859619140624,-0.0326026827096939,-0.004792624618858,-0.00842144805938
1768730494081,-0.1155853271484375,-0.1759490966796875,-0.979888916015625,-0.0199388209730386,-0.0076565882191061,-0.0046855653636157
1768730494091,-0.1162567138671875,-0.1718597412109375,-0.9889678955078124,-0.0079394159838557,-0.0098238689824938,-0.0031688953749835
1768730494101,-0.125946044921875,-0.1699066162109375,-0.991424560546875,0.005772934295237,0.0084075992926955,-0.0085149249061942
1768730494111,-0.13372802734375,-0.1733856201171875,-0.9932403564453124,0.0162759087979793,0.0107573065906763,-0.0194495972245931
1768730494121,-0.135284423828125,-0.17315673828125,-0.989898681640625,0.020478643476963,0.002331863855943,-0.0247040148824453
1768730494131,-0.125244140625,-0.1776580810546875,-0.9863739013671876,0.0238813646137714,-0.0060554957017302,-0.0235889498144388
1768730494141,-0.1243438720703125,-0.1740875244140625,-0.9826202392578124,0.031827438622713,0.0013696637470275,-0.0282175224274396
1768730494151,-0.1275177001953125,-0.1761322021484375,-0.9789886474609376,0.0291855819523334,0.0143845323473215,-0.0281517431139946
1768730494161,-0.1216278076171875,-0.17919921875,-0.9716796875,0.0201303027570247,0.0083005400374531,-0.0255021639168262
1768730494172,-0.1103668212890625,-0.18109130859375,-0.96630859375,0.0120790330693125,-0.0001813612616388,-0.0181523729115724
1768730494181,-0.10858154296875,-0.1743927001953125,-0.96856689453125,0.0147736193612217,-0.0064176856540143,-0.0144058372825384
1768730494191,-0.1184234619140625,-0.166961669921875,-0.975433349609375,0.0281394924968481,0.0041156490333378,-0.0148519165813922
1768730494201,-0.130859375,-0.1607513427734375,-0.978607177734375,0.0327960290014743,0.016146745532751,-0.0212083496153354
1768730494212,-0.135986328125,-0.1621551513671875,-0.966339111328125,0.0148660317063331,0.0193499960005283,-0.0220863930881023
1768730494222,-0.130645751953125,-0.17138671875,-0.9538116455078124,-0.0092134717851877,0.0099509013816714,-0.0234696399420499
1768730494232,-0.12298583984375,-0.175811767578125,-0.9513397216796876,-0.0304894652217626,-0.000974716967903,-0.0219375230371952
1768730494242,-0.115692138671875,-0.1755218505859375,-0.955596923828125,-0.041064079850912,-0.0063148876652121,-0.0144889280200004
1768730494252,-0.111968994140625,-0.177764892578125,-0.963836669921875,-0.0425373390316963,-0.00566694047302,-0.0130771864205598
1768730494262,-0.112762451171875,-0.1764068603515625,-0.9682464599609376,-0.0405610091984272,-0.0140002379193902,-0.0104387924075126
1768730494272,-0.115234375,-0.1747589111328125,-0.9688720703125,-0.0411104187369346,-0.0260553024709224,-0.0142665542662143
1768730494282,-0.1187591552734375,-0.17388916015625,-0.9718017578125,-0.0400542095303535,-0.0263759475201368,-0.0199800990521907
1768730494292,-0.1214752197265625,-0.17132568359375,-0.979949951171875,-0.0315129198133945,-0.0251421052962541,-0.0221061017364263
1768730494302,-0.12548828125,-0.17071533203125,-0.9900054931640624,-0.0171978957951068,-0.0202584005892276,-0.0259098932147026
1768730494312,-0.130096435546875,-0.169403076171875,-0.9910888671875,-0.0117314904928207,-0.0068690911866724,-0.0310212988406419
1768730494322,-0.1351318359375,-0.171417236328125,-0.9803466796875,-0.0064632254652678,0.0142039693892002,-0.0369771942496299
1768730494332,-0.131378173828125,-0.173095703125,-0.983306884765625,0.0056128781288862,0.0247855074703693,-0.0356032662093639
1768730494342,-0.123687744140625,-0.1713714599609375,-0.9847259521484376,0.0149429971352219,0.0256212074309587,-0.0290572177618742
1768730494352,-0.1171417236328125,-0.1735382080078125,-0.9830322265625,0.0209537521004676,0.0252888444811105,-0.0241833664476871
1768730494362,-0.11865234375,-0.1725921630859375,-0.9744415283203124,0.0164258442819118,0.0290774572640657,-0.0241498108953237
1768730494372,-0.1198272705078125,-0.1738433837890625,-0.96844482421875,0.0145477838814258,0.020446952432394,-0.0193747635930776
1768730494382,-0.1150970458984375,-0.173583984375,-0.9759521484375,0.0216666795313358,0.0145613653585314,-0.0162748433649539
1768730494393,-0.1123046875,-0.1717071533203125,-0.9822540283203124,0.026159431785345,0.0069148978218436,-0.0138574922457337
1768730494402,-0.1183929443359375,-0.172821044921875,-0.973236083984375,0.0233021266758441,0.0023928501177579,-0.0156412776559591
1768730494413,-0.12237548828125,-0.174224853515625,-0.9683990478515624,0.0213207341730594,0.004798483569175,-0.0147595051676034
1768730494423,-0.1219024658203125,-0.1751251220703125,-0.96923828125,0.0102869924157857,-0.0063732108101248,-0.0129690617322921
1768730494433,-0.120025634765625,-0.1787261962890625,-0.9652862548828124,-0.0034493261482566,-0.0088443579152226,-0.0149477906525135
1768730494443,-0.1170196533203125,-0.17877197265625,-0.96588134765625,-0.0077692396007478,-0.0208080764859914,-0.0119621204212307
1768730494453,-0.1180877685546875,-0.1701812744140625,-0.9700469970703124,-0.002657035831362,-0.0166562087833881,-0.012345615774393
1768730494463,-0.123931884765625,-0.1687469482421875,-0.975738525390625,0.001513474388048,-0.0016570187872275,-0.0143328662961721
1768730494473,-0.1244659423828125,-0.1705474853515625,-0.9719390869140624,-0.0019228023011237,0.0089679285883903,-0.012238822877407
1768730494483,-0.118896484375,-0.1750640869140625,-0.969757080078125,-0.0043140547350049,0.0108984541147947,-0.0066903932020068
1768730494493,-0.1140899658203125,-0.1757354736328125,-0.974212646484375,-0.0057724015787243,0.0133440345525741,-0.0015472965314984
1768730494503,-0.1124725341796875,-0.17730712890625,-0.9744415283203124,-0.0027265443932265,0.0152042526751756,0.0047127297148108
1768730494513,-0.11474609375,-0.176483154296875,-0.9796142578125,0.0053036850877106,0.0127187250182032,0.003018426708877
1768730494523,-0.1210784912109375,-0.1751556396484375,-0.9788360595703124,0.011258247308433,0.0102164186537265,-0.0012471582740545
1768730494533,-0.1221923828125,-0.175384521484375,-0.9779815673828124,0.0187071077525615,0.0082222437486052,-0.0032237565610557
1768730494543,-0.1184844970703125,-0.17919921875,-0.9777679443359376,0.0194613151252269,-0.0023100259713828,-0.0016468988033011
1768730494553,-0.1157989501953125,-0.1799468994140625,-0.9714508056640624,0.0116143114864826,-0.0102350609377026,-0.0036258937325328
1768730494563,-0.12005615234375,-0.1811065673828125,-0.9647979736328124,-0.0021236045286059,-0.0109871374443173,-0.0054858452640473
1768730494573,-0.126739501953125,-0.181671142578125,-0.9621734619140624,-0.010473147034645,-0.0063473782502114,-0.0080155823379755
1768730494583,-0.1263427734375,-0.1803741455078125,-0.97021484375,-0.0093793869018554,0.0005691175465472,-0.0127674601972103
1768730494593,-0.12640380859375,-0.178619384765625,-0.980438232421875,-0.0015419702976942,0.0022698121611028,-0.0189427975565195
1768730494603,-0.125762939453125,-0.17724609375,-0.9817047119140624,0.0025244103744626,0.0027286747936159,-0.0191478617489337
1768730494613,-0.121490478515625,-0.1772308349609375,-0.9795684814453124,0.0123967481777071,0.0048669269308447,-0.0143882604315876
1768730494624,-0.1159210205078125,-0.177032470703125,-0.99078369140625,0.0254670102149248,0.0028298748657107,-0.0096347844228148
1768730494634,-0.11395263671875,-0.177825927734375,-0.989654541015625,0.0311635117977857,0.0055673383176326,-0.0066528427414596
1768730494644,-0.122406005859375,-0.1761932373046875,-0.981719970703125,0.0332857854664325,0.0250757914036512,-0.0101077612489461
1768730494654,-0.126800537109375,-0.1745452880859375,-0.9814300537109376,0.0401636660099029,0.0313800275325775,-0.0113349463790655
1768730494664,-0.119537353515625,-0.17626953125,-0.98309326171875,0.0472841598093509,0.0323046781122684,-0.0019904465880244
1768730494674,-0.114288330078125,-0.177520751953125,-0.982177734375,0.0500879362225532,0.023829698562622,0.002732136985287
1768730494684,-0.11395263671875,-0.1777801513671875,-0.9776763916015624,0.0476620607078075,0.0159395523369312,0.002274605911225
1768730494694,-0.117950439453125,-0.1786956787109375,-0.969146728515625,0.0444633364677429,0.0210142042487859,-0.0021017666440457
1768730494704,-0.123992919921875,-0.175628662109375,-0.9652099609375,0.0466942675411701,0.0197231043130159,-0.0084568681195378
1768730494714,-0.1230621337890625,-0.17669677734375,-0.9646148681640624,0.0382480546832084,0.0335004366934299,-0.0124556040391325
1768730494724,-0.1240386962890625,-0.1790618896484375,-0.9529266357421876,0.0271117780357599,0.0285975560545921,-0.0150814810767769
1768730494734,-0.126007080078125,-0.1775360107421875,-0.946685791015625,0.0033899378031492,0.0103506417945027,-0.0222078338265419
1768730494744,-0.12890625,-0.17340087890625,-0.9458770751953124,-0.0126124648377299,-0.0033675672020763,-0.0286580100655555
1768730494754,-0.1251220703125,-0.17462158203125,-0.95635986328125,-0.027247067540884,-0.0164862982928752,-0.0256180111318826
1768730494764,-0.11712646484375,-0.1808929443359375,-0.9562530517578124,-0.0439272448420524,-0.0204618647694587,-0.0099192094057798
1768730494774,-0.1070404052734375,-0.1872711181640625,-0.9622039794921876,-0.0464055798947811,-0.0309344809502363,0.0036485306918621
1768730494784,-0.1082305908203125,-0.1871795654296875,-0.9700927734375,-0.0462918654084205,-0.0358623936772346,0.0120228407904505
1768730494794,-0.112762451171875,-0.183929443359375,-0.97296142578125,-0.0428683720529079,-0.0248214602470397,0.0127418944612145
1768730494804,-0.1193695068359375,-0.18243408203125,-0.9801483154296876,-0.0309187676757574,-0.0261282734572887,0.0057921088300645
1768730494814,-0.1273651123046875,-0.17437744140625,-0.98748779296875,-0.0114731639623641,-0.0127384318038821,-0.0011438276851549
1768730494825,-0.1275482177734375,-0.1782684326171875,-0.9952392578125,0.0052448292262852,0.0024455809034407,-0.0020578245166689
1768730494835,-0.1240081787109375,-0.180023193359375,-0.99346923828125,0.0123999444767832,-0.0014439659425988,-0.0033156354911625
1768730494844,-0.1211700439453125,-0.1856689453125,-0.986724853515625,0.0188487879931926,-0.0067620323970913,0.0015502260066568
1768730494855,-0.1192169189453125,-0.1787109375,-0.98736572265625,0.0258129555732011,-0.0002364887041039,0.0071487231180071
1768730494865,-0.125244140625,-0.1763458251953125,-0.97894287109375,0.0156295597553253,0.0006988134700804,0.0011267834343016
1768730494875,-0.132110595703125,-0.1751251220703125,-0.967803955078125,0.0060898503288626,0.010483001358807,-0.0088864360004663
1768730494885,-0.1256103515625,-0.177154541015625,-0.9711761474609376,0.001005875878036,0.0062938486225903,-0.0105162905529141
1768730494895,-0.1124725341796875,-0.1776123046875,-0.973907470703125,0.0056541571393609,0.0020991035271435,-0.0064573665149509
1768730494905,-0.109588623046875,-0.1765594482421875,-0.981048583984375,0.0159443449229002,0.0003797667741309,-0.0046834349632263
1768730494915,-0.1157684326171875,-0.1750030517578125,-0.977386474609375,0.0164791084825992,0.007022222969681,-0.0037388119380921
1768730494925,-0.120941162109375,-0.175048828125,-0.9732208251953124,0.0114268250763416,0.0019933760631829,-0.0083633912727236
1768730494935,-0.120269775390625,-0.1791839599609375,-0.964813232421875,0.000328367750626,-0.001269262516871,-0.009425725787878
1768730494945,-0.117095947265625,-0.183563232421875,-0.9627685546875,-0.0115727661177515,0.0011387676931917,-0.006793191190809
1768730494955,-0.11090087890625,-0.1869049072265625,-0.9630889892578124,-0.0175038930028677,0.00650823302567,0.0042392197065055
1768730494965,-0.1071319580078125,-0.1887969970703125,-0.9676055908203124,-0.0157267656177282,0.0067351344041526,0.0127192568033933
1768730494975,-0.10638427734375,-0.187713623046875,-0.97406005859375,-0.0174748636782169,0.0009627327090129,0.0199026018381118
1768730494985,-0.11468505859375,-0.1861114501953125,-0.971893310546875,-0.0188314784318208,0.0006138586322776,0.0172138735651969
1768730494995,-0.1238250732421875,-0.18408203125,-0.971771240234375,-0.0211052857339382,-0.0137059586122632,0.0093804523348808
1768730495005,-0.1313934326171875,-0.1804351806640625,-0.9731903076171876,-0.0196245685219764,-0.0178072266280651,-0.0023571639321744
1768730495015,-0.13226318359375,-0.17987060546875,-0.974853515625,-0.0171595457941293,-0.0135490978136658,-0.0071732243523001
1768730495026,-0.1302490234375,-0.1820068359375,-0.9766387939453124,-0.0111591778695583,-0.0018405106384307,-0.0054980958811938
1768730495036,-0.1257476806640625,-0.179290771484375,-0.9831390380859376,0.0041236383840441,0.0056219329126179,-0.0012551478575915
1768730495046,-0.123626708984375,-0.1790771484375,-0.987823486328125,0.0120169818401336,-0.0019765980541706,-0.0014271880500018
1768730495055,-0.1280364990234375,-0.17987060546875,-0.98095703125,0.0121975438669323,-0.0069364691153168,-0.0082672508433461
1768730495066,-0.1292877197265625,-0.181060791015625,-0.9748687744140624,0.0150412674993276,0.0003177151083946,-0.0123235117644071
1768730495076,-0.1231689453125,-0.184112548828125,-0.9736175537109376,0.0169110726565122,0.0001350222592009,-0.0049510826356709
1768730495086,-0.114349365234375,-0.184051513671875,-0.9718780517578124,0.0166737847030162,-0.0064499098807573,0.001612277701497
1768730495096,-0.1157989501953125,-0.1848907470703125,-0.968292236328125,0.0141413854435086,-0.0101330615580081,0.0029909962322562
1768730495106,-0.120208740234375,-0.18316650390625,-0.96612548828125,0.0125767784193158,-0.0148641671985387,0.0003901530872099
1768730495116,-0.124481201171875,-0.1801300048828125,-0.9644622802734376,0.0034075146540999,-0.014233530499041,-0.003532683243975
1768730495126,-0.1295928955078125,-0.182373046875,-0.95733642578125,-0.0095514273270964,-0.0125261778011918,-0.0069553777575492
1768730495136,-0.1328125,-0.1829681396484375,-0.95062255859375,-0.0231710989028215,0.001938514993526,-0.0093311835080385
1768730495146,-0.1283111572265625,-0.183837890625,-0.9605560302734376,-0.0323137305676937,0.0057249972596764,-0.011012171395123
1768730495156,-0.1217498779296875,-0.1834564208984375,-0.9684600830078124,-0.0290132761001586,-0.0102062989026308,-0.0061582936905324
1768730495166,-0.1155853271484375,-0.1785430908203125,-0.98162841796875,-0.0163400918245315,-0.015606390312314,-0.0050799795426428
1768730495176,-0.1236724853515625,-0.1755523681640625,-0.985107421875,-0.007547931279987,-0.0128723885864019,-0.0081066619604825
1768730495186,-0.13525390625,-0.1751556396484375,-0.9781951904296876,-0.0016594156622886,0.0015283881220966,-0.0124683873727917
1768730495196,-0.1354217529296875,-0.17596435546875,-0.9784698486328124,0.003155313199386,-0.0059873186983168,-0.0149051798507571
1768730495206,-0.1266326904296875,-0.1779327392578125,-0.9743804931640624,0.0024599619209766,-0.0096209356561303,-0.0089793801307678
1768730495216,-0.1162567138671875,-0.1793975830078125,-0.9728546142578124,0.0010777813149616,-0.0191446654498577,-0.001659682020545
1768730495227,-0.1195220947265625,-0.1795196533203125,-0.9680633544921876,-0.0065234131179749,-0.0192155055701732,0.0031654331833124
1768730495236,-0.1251373291015625,-0.1790008544921875,-0.96435546875,-0.0135352499783039,-0.0140857249498367,3.621898940764368e-05
1768730495246,-0.1288299560546875,-0.1797027587890625,-0.9638824462890624,-0.0200951490551233,-0.0083194486796855,0.0005896238726563
1768730495256,-0.1233978271484375,-0.181854248046875,-0.9655914306640624,-0.0241189189255237,-0.0190043170005083,-0.0010050770360976
1768730495267,-0.12420654296875,-0.180755615234375,-0.9674224853515624,-0.026448119431734,-0.0327976271510124,-0.0057385796681046
1768730495277,-0.122283935546875,-0.181060791015625,-0.970855712890625,-0.026202043518424,-0.0289317835122346,-0.0065705510787665
1768730495287,-0.1186370849609375,-0.18426513671875,-0.9748077392578124,-0.0208110064268112,-0.0259043015539646,-0.0053178002126514
1768730495297,-0.1182098388671875,-0.1860504150390625,-0.9756622314453124,-0.0177707411348819,-0.0182535722851753,-0.0042543997988104
1768730495308,-0.1195220947265625,-0.1843719482421875,-0.978485107421875,-0.0124068688601255,-0.0058722700923681,-0.0001001348573481
1768730495317,-0.1209716796875,-0.184173583984375,-0.9825439453125,-0.0055375108495354,-0.0076576531864702,0.0036730316933244
1768730495327,-0.120819091796875,-0.182830810546875,-0.9840850830078124,0.0034669029992073,-0.0120574617758393,0.0084193171933293
1768730495337,-0.1210174560546875,-0.1825714111328125,-0.986602783203125,0.0023414511233568,-0.0193699691444635,0.0111820809543132
1768730495347,-0.1267547607421875,-0.181671142578125,-0.9781951904296876,-0.0001304948964389,-0.0156090529635548,0.007529288996011
1768730495357,-0.12860107421875,-0.179046630859375,-0.978271484375,0.0068744178861379,-0.0153198344632983,0.0072291507385671
1768730495367,-0.1244049072265625,-0.1773681640625,-0.98236083984375,0.0126303080469369,-0.0174977667629718,0.0031081752385944
1768730495377,-0.1256561279296875,-0.1779327392578125,-0.9784088134765624,0.0135981002822518,-0.0146790770813822,0.0013688647886738
1768730495387,-0.1259002685546875,-0.1804656982421875,-0.9737396240234376,0.0130359074100852,-0.0039262985810637,0.0010660634143278
1768730495397,-0.124176025390625,-0.1820068359375,-0.969573974609375,0.0041550640016794,-0.0052205948159098,0.0008820389630272
1768730495408,-0.1246185302734375,-0.1803131103515625,-0.9633941650390624,-0.0049462891183793,0.0020738034509122,-0.0038349519018083
1768730495417,-0.1278839111328125,-0.1817779541015625,-0.9636688232421876,-0.0101319961249828,0.0043731769546866,-0.0057044909335672
1768730495428,-0.1243133544921875,-0.1806488037109375,-0.9688873291015624,-0.006769489031285,0.0037284255959093,-0.0070853400975465
1768730495437,-0.1202545166015625,-0.179931640625,-0.9738616943359376,-0.0054197991266846,-0.0054552191868424,-0.0032245554029941
1768730495447,-0.118194580078125,-0.18218994140625,-0.9716644287109376,-0.0031766186002641,-0.0068456553854048,-0.0019971043802797
1768730495457,-0.121246337890625,-0.18170166015625,-0.9708404541015624,-0.0026591662317514,-0.0161499418318271,-0.0037305559962987
1768730495467,-0.1256561279296875,-0.1803741455078125,-0.9683380126953124,-0.0004743089957628,-0.017504159361124,-0.0066192867234349
1768730495478,-0.124176025390625,-0.177947998046875,-0.971588134765625,0.0020077570807188,-0.0235351528972387,-0.008167915046215
1768730495488,-0.1332244873046875,-0.172119140625,-0.9716796875,0.0017757958266884,-0.0292883794754743,-0.0147709567099809
1768730495498,-0.143096923828125,-0.1711578369140625,-0.9683685302734376,-0.0013723268639296,-0.0162761751562356,-0.0191846136003732
1768730495508,-0.1424713134765625,-0.176300048828125,-0.9663543701171876,-0.0096891121938824,-0.0060293967835605,-0.0152399390935897
1768730495518,-0.1308746337890625,-0.1832275390625,-0.96514892578125,-0.0139235388487577,-0.0113352127373218,-0.0059590893797576
1768730495528,-0.1223907470703125,-0.1861724853515625,-0.9680023193359376,-0.0178636852651834,-0.0250286534428596,0.0014242585748434
1768730495538,-0.12628173828125,-0.1851654052734375,-0.96832275390625,-0.0203593336045742,-0.0348136387765407,-0.002029062481597
1768730495548,-0.1293182373046875,-0.1832427978515625,-0.97344970703125,-0.0185446552932262,-0.035551868379116,-0.0080145169049501
1768730495558,-0.1319580078125,-0.18280029296875,-0.97576904296875,-0.0148111702874302,-0.0236222390085458,-0.0066877300851047
1768730495568,-0.1321868896484375,-0.18463134765625,-0.974456787109375,-0.0204091351479291,-0.0370746627449989,-0.006116481963545
1768730495578,-0.13262939453125,-0.1827850341796875,-0.9692840576171876,-0.0260648895055055,-0.0526051558554172,-0.0077926754020154
1768730495588,-0.123321533203125,-0.1812591552734375,-0.9800262451171876,-0.0133384419605135,-0.0647057592868805,-0.0041095237247645
1768730495598,-0.1262664794921875,-0.1744842529296875,-0.987701416015625,0.0031103058718144,-0.0535921230912208,-0.0022085595410317
1768730495608,-0.1365966796875,-0.172698974609375,-0.9862213134765624,0.0065345983020961,-0.0371026284992694,-0.0124164558947086
1768730495618,-0.1469268798828125,-0.1721954345703125,-0.975677490234375,-0.0016223976854234,-0.0161667186766862,-0.0227942615747451
1768730495629,-0.1433563232421875,-0.1776123046875,-0.9691162109375,-0.0006902913446538,-0.0127171268686652,-0.0243980176746845
1768730495638,-0.1278839111328125,-0.1757049560546875,-0.97662353515625,0.0106356004253029,-0.0170703306794166,-0.0191574487835168
1768730495648,-0.121612548828125,-0.1729888916015625,-0.9839324951171876,0.0238249059766531,-0.0146050415933132,-0.0186626333743333
1768730495659,-0.12872314453125,-0.1739959716796875,-0.979156494140625,0.0230925362557172,-0.0134300552308559,-0.0228760205209255
1768730495669,-0.1350860595703125,-0.1741943359375,-0.964324951171875,0.010563694871962,-0.0038626487366855,-0.0250694006681442
1768730495678,-0.131683349609375,-0.1781005859375,-0.960601806640625,-0.0018788601737469,0.0073844129219651,-0.0174735318869352
1768730495688,-0.1217041015625,-0.1815032958984375,-0.959808349609375,-0.013014068827033,0.0039851544424891,-0.0045460159890353
1768730495699,-0.1168670654296875,-0.1819610595703125,-0.9620513916015624,-0.0160237066447734,-0.0017395768081769,0.0050179283134639
1768730495709,-0.1185302734375,-0.1815338134765625,-0.971343994140625,-0.0142484446987509,-0.0044384240172803,0.0098390486091375
1768730495719,-0.122344970703125,-0.1800537109375,-0.9761199951171876,-0.0103032374754548,-0.0145826712250709,0.0146958557888865
1768730495729,-0.127960205078125,-0.181121826171875,-0.9766693115234376,-0.0090656662359833,-0.0233942717313766,0.0128385666757822
1768730495739,-0.133026123046875,-0.18096923828125,-0.9744110107421876,-0.0083221122622489,-0.0287078116089105,0.0113682355731725
1768730495749,-0.13446044921875,-0.1807861328125,-0.9761505126953124,-0.0075346152298152,-0.0321225151419639,0.0060842577368021
1768730495759,-0.1400909423828125,-0.1786956787109375,-0.976043701171875,-0.0073295519687235,-0.024494158104062,0.0029398635961115
1768730495769,-0.139923095703125,-0.1785430908203125,-0.9793701171875,-0.0009459548164159,-0.0186405293643474,-0.0011675298446789
1768730495779,-0.1396942138671875,-0.178680419921875,-0.9801177978515624,0.0109602389857172,-0.0061686797998845,0.000205596035812
1768730495789,-0.134979248046875,-0.1793670654296875,-0.980987548828125,0.0190149694681167,0.0030834078788757,0.003238403936848
1768730495799,-0.1327667236328125,-0.18035888671875,-0.9774017333984376,0.0225620344281196,0.0086944214999675,0.0094845816493034
1768730495809,-0.129486083984375,-0.1795654296875,-0.973297119140625,0.022776685655117,0.007431817241013,0.0148657653480768
1768730495819,-0.131317138671875,-0.1782989501953125,-0.96990966796875,0.0195553246885538,0.0021875204984098,0.0166636649519205
1768730495829,-0.1328277587890625,-0.178680419921875,-0.967376708984375,0.0217622872442007,-0.0046283076517283,0.0120159164071083
1768730495839,-0.13238525390625,-0.1786346435546875,-0.970611572265625,0.0245849713683128,-0.0090789822861552,0.0118153803050518
1768730495849,-0.133636474609375,-0.1805267333984375,-0.9671630859375,0.0190248228609561,-0.0158103890717029,0.0100172143429517
1768730495859,-0.133697509765625,-0.1850738525390625,-0.9570770263671876,0.0048552090302109,-0.0252590179443359,0.0097895134240388
1768730495869,-0.1358642578125,-0.1894989013671875,-0.9473724365234376,-0.0136830555275082,-0.0102438488975167,0.009631055407226
1768730495880,-0.1342620849609375,-0.190460205078125,-0.9503021240234376,-0.0238129217177629,-0.0054560182616114,0.0113269565626978
1768730495890,-0.133636474609375,-0.1886749267578125,-0.9576416015625,-0.0297349914908409,-0.0220602955669164,0.0109176291152834
1768730495900,-0.1358642578125,-0.183380126953125,-0.9662017822265624,-0.0247524846345186,-0.0314133167266845,0.0121687818318605
1768730495910,-0.13165283203125,-0.178466796875,-0.98193359375,-0.0087223853915929,-0.043993555009365,0.0127789117395877
1768730495920,-0.1435089111328125,-0.1720123291015625,-0.992523193359375,0.0055172708816826,-0.0319741778075695,0.0073561836034059
1768730495930,-0.152099609375,-0.1764678955078125,-0.9893951416015624,0.012418320402503,-0.0121866250410676,0.0011558119440451
1768730495940,-0.1507415771484375,-0.1822509765625,-0.9813385009765624,0.0113490605726838,0.0003864246828015,0.0047460193745791
1768730495950,-0.14361572265625,-0.1839447021484375,-0.975006103515625,0.0107618337497115,0.0008607336785644,0.0081117218360304
1768730495960,-0.139739990234375,-0.1829833984375,-0.9725799560546876,0.0091455616056919,-0.0032879386562854,0.0043896883726119
1768730495970,-0.138031005859375,-0.183868408203125,-0.96484375,0.0048195226117968,-0.0059236693195998,0.0037838192656636
1768730495980,-0.1377105712890625,-0.185760498046875,-0.963043212890625,0.0025276062078773,-0.015776565298438,-0.0022740731947124
1768730495990,-0.13232421875,-0.182586669921875,-0.9649200439453124,-0.0013763216556981,-0.0209976937621831,-0.0039694416336715
1768730496000,-0.128509521484375,-0.186370849609375,-0.9631195068359376,-0.0050235209055244,-0.0222150236368179,0.0008894957718439
1768730496010,-0.12841796875,-0.1879119873046875,-0.966552734375,-0.0047159255482256,-0.0148282144218683,0.0035545211285352
1768730496020,-0.1317596435546875,-0.1878662109375,-0.97210693359375,-0.0034623756073415,-0.0148263499140739,0.0043010050430893
1768730496030,-0.136962890625,-0.1849822998046875,-0.9777069091796876,0.0077711041085422,-0.0141581632196903,-0.0010950918076559
1768730496041,-0.1378631591796875,-0.1826171875,-0.986907958984375,0.0226129014045,-0.0123307025060057,0.0011824434623122
1768730496050,-0.1384735107421875,-0.1814727783203125,-0.983612060546875,0.0298873241990804,-0.0097074881196022,0.0025670209433883
1768730496061,-0.1378326416015625,-0.1852569580078125,-0.9763946533203124,0.0278936829417943,-0.0017451694002375,0.0062887887470424
1768730496070,-0.1424560546875,-0.18768310546875,-0.9672393798828124,0.0195888821035623,-0.0052791843190789,0.0017331852577626
1768730496080,-0.1475372314453125,-0.1861572265625,-0.9613800048828124,0.0150199625641107,-0.0035236284602433,-5.645901546813547e-05
1768730496091,-0.1429443359375,-0.1844329833984375,-0.961639404296875,0.0091141359880566,-0.0120161827653646,-0.0026351979468017
1768730496101,-0.1410675048828125,-0.18475341796875,-0.959503173828125,0.0003592604189179,-0.0261591654270887,-0.00580515852198
1768730496111,-0.1402435302734375,-0.1824188232421875,-0.9589385986328124,-0.00323121342808,-0.0230877418071031,-0.0038482677191495
1768730496121,-0.136260986328125,-0.184295654296875,-0.964447021484375,-0.0030391993932425,-0.0313589870929718,-0.0021646174136549
1768730496131,-0.1354217529296875,-0.1830291748046875,-0.965789794921875,-0.0020687435753643,-0.0319568663835525,-0.0008127967594191
1768730496141,-0.137054443359375,-0.18353271484375,-0.971038818359375,-0.0035222969017922,-0.0271631777286529,3.5420041967881843e-05
1768730496151,-0.1372833251953125,-0.1845855712890625,-0.96759033203125,-0.008059523999691,-0.030147248879075,0.0038618498947471
1768730496161,-0.1401214599609375,-0.183258056640625,-0.9665985107421876,-0.0089804455637931,-0.0257245376706123,0.0016945693641901
1768730496171,-0.1431884765625,-0.18389892578125,-0.9690704345703124,-0.0140854585915803,-0.0190221611410379,-0.0014708638191223
1768730496181,-0.1438751220703125,-0.1853790283203125,-0.9658966064453124,-0.0132622756063938,-0.0099256010726094,0.0015651397407054
1768730496191,-0.1400299072265625,-0.1845703125,-0.9709625244140624,-0.0106411930173635,-0.0167949590831995,0.0020722055342048
1768730496201,-0.1437225341796875,-0.1841583251953125,-0.9712371826171876,-0.0081412829458713,-0.0206887666136026,-0.0019289276096969
1768730496211,-0.1456451416015625,-0.1835174560546875,-0.9700469970703124,-0.0051353736780583,-0.0174572877585887,-0.0078129153698682
1768730496221,-0.144073486328125,-0.182769775390625,-0.975006103515625,0.0008151935762725,-0.0109567772597074,-0.011682222597301
1768730496231,-0.1413421630859375,-0.1864471435546875,-0.9722137451171876,-0.0011558119440451,-0.0037894118577241,-0.0069252839311957
1768730496241,-0.1395263671875,-0.183868408203125,-0.9709625244140624,-0.005919674411416,-0.0118595892563462,-0.0046189865097403
1768730496251,-0.1448211669921875,-0.1789703369140625,-0.96771240234375,-0.0075271585956215,-0.0165464859455823,-0.0117631824687123
1768730496261,-0.14837646484375,-0.1777191162109375,-0.971343994140625,-0.0009097357979044,-0.0066760121844708,-0.0108534470200538
1768730496271,-0.1423492431640625,-0.1806488037109375,-0.9764862060546876,0.0016567525453865,-0.0106875319033861,-0.0041412152349948
1768730496281,-0.1348419189453125,-0.184112548828125,-0.9703521728515624,-0.0020775320008397,-0.0078624505549669,0.0040621194057166
1768730496292,-0.133453369140625,-0.1870269775390625,-0.96588134765625,-0.0099197421222925,-0.0140143521130085,0.0100947124883532
1768730496302,-0.1368865966796875,-0.1859283447265625,-0.9603729248046876,-0.0183097645640373,-0.0153864128515124,0.015409049578011
1768730496312,-0.13934326171875,-0.1844482421875,-0.9658050537109376,-0.0226642992347478,-0.0202546715736389,0.0144021091982722
1768730496322,-0.143402099609375,-0.185028076171875,-0.9686431884765624,-0.0206655971705913,-0.005617672111839,0.012001534923911
1768730496332,-0.142913818359375,-0.1884613037109375,-0.972686767578125,-0.0185257475823164,-0.0036655748263001,0.0087088029831647
1768730496342,-0.13897705078125,-0.1889495849609375,-0.9699249267578124,-0.0208506863564252,-0.0114460000768303,0.0127371000126004
1768730496352,-0.135284423828125,-0.1890106201171875,-0.9718170166015624,-0.012180233374238,-0.0295789316296577,0.0143523076549172
1768730496362,-0.13958740234375,-0.1829071044921875,-0.9788055419921876,0.0018953717080876,-0.0257365219295024,0.0188373364508152
1768730496374,-0.145477294921875,-0.1778106689453125,-0.9840087890625,0.0130596095696091,-0.0178897846490144,0.0108633004128932
1768730496382,-0.15252685546875,-0.1793060302734375,-0.9813232421875,0.0138878524303436,-0.009623066522181,0.0058448393829166
1768730496392,-0.1528472900390625,-0.1827239990234375,-0.9691162109375,0.0038091193418949,-0.010227071121335,0.0057127466425299
1768730496402,-0.1500091552734375,-0.1834716796875,-0.9599456787109376,-0.0006450176006183,-0.0089932288974523,0.0016977651976048
1768730496412,-0.151153564453125,-0.1779327392578125,-0.96484375,0.0027446537278592,-0.0067630973644554,0.0006085322820581
1768730496422,-0.1549072265625,-0.1727142333984375,-0.966278076171875,-0.0011635350529104,-0.0087783113121986,-0.0088885659351944
1768730496432,-0.1551666259765625,-0.173919677734375,-0.95831298828125,-0.0155930742621421,-0.008176171220839,-0.0114012584090232
1768730496442,-0.1470794677734375,-0.1754302978515625,-0.9535675048828124,-0.0230600461363792,-0.0084699178114533,-0.0110558466985821
1768730496452,-0.1343231201171875,-0.1788787841796875,-0.9583892822265624,-0.0288734603673219,-0.0176184084266424,-0.0021491709630936
1768730496462,-0.1281585693359375,-0.1812286376953125,-0.959259033203125,-0.0339486449956893,-0.0212522912770509,0.0040376186370849
1768730496472,-0.129302978515625,-0.1834716796875,-0.9554901123046876,-0.0429432056844234,-0.0242262445390224,0.0082147866487503
1768730496482,-0.1344146728515625,-0.1819305419921875,-0.9526824951171876,-0.0560385026037693,-0.0212445687502622,0.0072656362317502
1768730496492,-0.1418914794921875,-0.18231201171875,-0.95501708984375,-0.0607736036181449,-0.0152364773675799,0.0075628450140357
1768730496502,-0.14312744140625,-0.1832275390625,-0.9665374755859376,-0.0642285197973251,-0.0128145981580019,0.0134694697335362
1768730496513,-0.1448516845703125,-0.182037353515625,-0.9730072021484376,-0.0630761682987213,-0.0228605754673481,0.0113687682896852
1768730496523,-0.15350341796875,-0.1786041259765625,-0.9770965576171876,-0.0589133836328983,-0.0170788522809743,0.0032988577149808
1768730496533,-0.15667724609375,-0.1784210205078125,-0.9860382080078124,-0.0459227487444877,-0.0024586303625255,0.0006285060080699
1768730496543,-0.1552276611328125,-0.17919921875,-0.9904022216796876,-0.0337563641369342,0.0023031015880405,0.0016152071766555
1768730496553,-0.151275634765625,-0.17962646484375,-0.9906005859375,-0.0186716876924037,0.0088536785915493,0.0059276637621223
1768730496563,-0.1446075439453125,-0.180084228515625,-0.9924468994140624,-0.0012381036067381,0.0044085970148444,0.0101767377927899
1768730496573,-0.1447601318359375,-0.1800689697265625,-0.9888153076171876,0.0131421675905585,-0.0007430219557136,0.0059058261103928
1768730496583,-0.1465911865234375,-0.1791839599609375,-0.985076904296875,0.0275069922208786,-8.735168376006186e-05,0.0018029600614681
1768730496593,-0.1455230712890625,-0.1805877685546875,-0.980377197265625,0.0279834307730197,-0.002879676176235,0.0018516959389671
1768730496603,-0.1486968994140625,-0.184814453125,-0.9649810791015624,0.0136180743575096,-0.0074235615320503,-0.00145728175994
1768730496613,-0.15106201171875,-0.1879730224609375,-0.952880859375,0.0032354744616895,0.0107527794316411,0.0018053569365292
1768730496623,-0.1482696533203125,-0.187103271484375,-0.9604644775390624,-0.0039798277430236,0.0100664822384715,0.004994492046535
1768730496633,-0.14288330078125,-0.1847076416015625,-0.9614410400390624,-0.0039422772824764,0.0043169842101633,0.0137568246573209
1768730496643,-0.1393890380859375,-0.1815643310546875,-0.9683837890625,-0.0045505431480705,-0.0024237427860498,0.0177917797118425
1768730496653,-0.1450347900390625,-0.1773223876953125,-0.9685821533203124,-0.0094928378239274,-0.0235649812966585,0.0127568077296018
1768730496663,-0.1526947021484375,-0.17474365234375,-0.9662933349609376,-0.0074414047412574,-0.0213241968303918,0.0081519363448023
1768730496674,-0.1498260498046875,-0.1718292236328125,-0.9740447998046876,0.0020871192682534,-0.0172282550483942,0.0118007333949208
1768730496683,-0.1466522216796875,-0.171539306640625,-0.97515869140625,0.0075095817446708,-0.004300738684833,0.0111394701525568
1768730496693,-0.151947021484375,-0.173187255859375,-0.9692230224609376,0.0029079054947942,-0.0017366473330184,0.0066792080178856
1768730496703,-0.1529083251953125,-0.172088623046875,-0.963653564453125,0.0009267800487577,-0.0049588060937821,0.0033617082517594
1768730496714,-0.1479339599609375,-0.174835205078125,-0.9643096923828124,-0.0045761098153889,-0.0125485491007566,0.0017044231062754
1768730496724,-0.144378662109375,-0.1782073974609375,-0.9598541259765624,-0.0146132977679371,-0.0122638568282127,0.0045657232403755
1768730496734,-0.14324951171875,-0.18341064453125,-0.9552459716796876,-0.0298063643276691,-0.0119823608547449,0.0077535272575914
1768730496744,-0.1434783935546875,-0.18511962890625,-0.952911376953125,-0.0451829247176647,-0.014993330463767,0.0063926517032086
1768730496754,-0.1475982666015625,-0.1825103759765625,-0.95367431640625,-0.0520608052611351,-0.0170658025890588,-0.0007099987124092
1768730496764,-0.148101806640625,-0.18145751953125,-0.9617156982421876,-0.0544962659478187,-0.0176469050347805,-0.0043068639934062
1768730496774,-0.1468658447265625,-0.1787109375,-0.96856689453125,-0.0497521087527275,-0.0188397336751222,0.0003944141499232
1768730496784,-0.144561767578125,-0.1802215576171875,-0.97760009765625,-0.0448361821472644,-0.0188549142330884,0.0050959587097167
1768730496794,-0.1478729248046875,-0.180694580078125,-0.979827880859375,-0.043283823877573,-0.0134984981268644,0.0056381784379482
1768730496804,-0.1516265869140625,-0.1802520751953125,-0.9778594970703124,-0.0358658544719219,-0.0006591323763132,0.0069431271404027
1768730496814,-0.15118408203125,-0.18011474609375,-0.984375,-0.0187465231865644,0.0031425300985574,0.0118422787636518
1768730496824,-0.1463775634765625,-0.1800079345703125,-0.9893341064453124,-0.0020751350093632,-0.0036123117897659,0.0189193617552518
1768730496834,-0.147064208984375,-0.1811676025390625,-0.98675537109375,0.0036277580074965,-0.0166370328515768,0.0169084090739488
1768730496844,-0.1564178466796875,-0.179779052734375,-0.9778594970703124,0.0031393342651426,-0.0212794560939073,0.0073652383871376
1768730496854,-0.1614837646484375,-0.1802215576171875,-0.969696044921875,0.0003507383225951,-0.0203524101525545,0.0055377772077918
1768730496864,-0.15966796875,-0.17926025390625,-0.96697998046875,-0.0019765980541706,-0.0171986948698759,0.0043436158448457
1768730496874,-0.1545867919921875,-0.1761627197265625,-0.9696807861328124,-0.0072411349974572,-0.0194298904389143,0.0068672271445393
1768730496884,-0.1572265625,-0.1743011474609375,-0.9625244140625,-0.0123453494161367,-0.0190682336688041,0.0007494135061278
1768730496894,-0.15814208984375,-0.172149658203125,-0.960235595703125,-0.0195601191371679,-0.0174064207822084,-0.0039760996587574
1768730496904,-0.1536712646484375,-0.172271728515625,-0.962310791015625,-0.0258129555732011,-0.0169238559901714,-0.0021353224292397
1768730496914,-0.1475830078125,-0.1736907958984375,-0.9650421142578124,-0.0245998855680227,-0.0106063056737184,-0.0015257250051945
1768730496925,-0.143310546875,-0.1761322021484375,-0.9683837890625,-0.0252475664019584,-0.0022024342324584,0.0047516119666397
1768730496935,-0.1418914794921875,-0.1759185791015625,-0.96978759765625,-0.0224126316606998,0.00103064335417,0.0110145676881074
1768730496945,-0.1410980224609375,-0.17437744140625,-0.9684600830078124,-0.0217665489763021,-0.0050568100996315,0.0120627880096435
1768730496955,-0.146881103515625,-0.17388916015625,-0.97161865234375,-0.0180921852588653,-0.0132915703579783,0.0078619178384542
1768730496965,-0.1499786376953125,-0.1727752685546875,-0.9735260009765624,-0.0140963774174451,-0.0107735516503453,0.0063902549445629
1768730496975,-0.1431732177734375,-0.17718505859375,-0.977935791015625,-0.0239735096693038,-0.0314567275345325,0.0134737305343151
1768730496985,-0.14306640625,-0.1806488037109375,-0.96478271484375,-0.0347406715154647,-0.0237021334469318,0.0093905720859766
1768730496995,-0.15887451171875,-0.17669677734375,-0.9612579345703124,-0.0391876175999641,-0.0032921996898949,0.0024730113800615
1768730497005,-0.1602325439453125,-0.1739959716796875,-0.969207763671875,-0.0319768413901329,-0.0063308663666248,-0.001284708851017
1768730497015,-0.1536865234375,-0.1670684814453125,-0.982147216796875,-0.0155161088332533,0.0001906823308672,0.0028091021813452
1768730497025,-0.1495819091796875,-0.166961669921875,-0.991943359375,-0.0013792511308565,0.0080723073333501,0.0090483557432889
1768730497035,-0.150604248046875,-0.1716766357421875,-0.9892730712890624,0.0063593625091016,0.0066951867192983,0.0147624341771006
1768730497045,-0.1512908935546875,-0.1753997802734375,-0.981781005859375,0.0139650842174887,0.0037454697303473,0.0146532449871301
1768730497055,-0.148651123046875,-0.174072265625,-0.9832000732421876,0.0261588990688323,0.001096157124266,0.0163121279329061
1768730497065,-0.1473388671875,-0.1744537353515625,-0.981048583984375,0.0302127636969089,-0.0022117553744465,0.0166333056986331
1768730497075,-0.1524810791015625,-0.1750335693359375,-0.9720306396484376,0.0195625163614749,-0.009703760035336,0.0111181652173399
1768730497085,-0.1616363525390625,-0.17620849609375,-0.9639739990234376,0.0135733326897025,-0.0042714439332485,0.0038392129354178
1768730497095,-0.161346435546875,-0.1795806884765625,-0.9689788818359376,0.0132641401141881,0.0054387073032557,0.0002378202771069
1768730497106,-0.15228271484375,-0.18096923828125,-0.9742889404296876,0.0104113621637225,0.0041675809770822,0.0029699571896344
1768730497115,-0.1438140869140625,-0.1808319091796875,-0.9774169921875,0.0169382374733686,-0.0063409865833818,0.0094193341210484
1768730497125,-0.147735595703125,-0.17193603515625,-0.9813232421875,0.0319486111402511,-0.0039790291339159,0.0093378415331244
1768730497136,-0.1626434326171875,-0.168060302734375,-0.9807281494140624,0.0410811230540275,0.0083900224417448,-0.0016453008865937
1768730497145,-0.1695709228515625,-0.16632080078125,-0.9723663330078124,0.0361263118684291,0.0112241590395569,-0.0137720052152872
1768730497156,-0.163116455078125,-0.1727447509765625,-0.96197509765625,0.0286476239562034,0.010522948578,-0.0140202110633254
1768730497166,-0.1481170654296875,-0.1751861572265625,-0.9597015380859376,0.0255716722458601,-0.0011406318517401,-0.0076635121367871
1768730497176,-0.1445770263671875,-0.1726837158203125,-0.96441650390625,0.0271442700177431,-0.0085793733596801,-0.0043609263375401
1768730497186,-0.1531524658203125,-0.1682891845703125,-0.9653167724609376,0.0227713584899902,-0.0045433528721332,-0.006223274860531
1768730497196,-0.16070556640625,-0.1685638427734375,-0.958740234375,0.0080858897417783,-0.0020655477419495,-0.0081532672047615
1768730497206,-0.1619720458984375,-0.1708831787109375,-0.9519500732421876,-0.0091056143864989,-0.0035353463608771,-0.0066818711347877
1768730497216,-0.156524658203125,-0.1737518310546875,-0.95452880859375,-0.0170093439519405,-0.0069572417996823,-0.0047185886651277
1768730497226,-0.1486663818359375,-0.17535400390625,-0.9632415771484376,-0.0146247493103146,-0.009852098301053,-0.0031526500824838
1768730497236,-0.148101806640625,-0.1775360107421875,-0.967803955078125,-0.01333524659276,-0.0170258544385433,-0.0054062171839177
1768730497246,-0.1513824462890625,-0.1798248291015625,-0.9620361328125,-0.0194045901298522,-0.0137312589213252,-0.006222475785762
1768730497256,-0.1543426513671875,-0.1838531494140625,-0.9635772705078124,-0.0207185950130224,-0.0127650639042258,-0.0060459082014858
1768730497266,-0.1529083251953125,-0.1837158203125,-0.967987060546875,-0.0246203914284706,-0.0217353887856006,-0.0006801713607273
1768730497276,-0.153717041015625,-0.1815032958984375,-0.9705963134765624,-0.022776685655117,-0.0276393499225378,0.0054536210373044
1768730497286,-0.157318115234375,-0.1803741455078125,-0.981109619140625,-0.016521718353033,-0.0359430871903896,2.663161103555467e-05
1768730497296,-0.166839599609375,-0.1739349365234375,-0.984771728515625,-0.0097109507769346,-0.0341726168990135,-0.0095484973862767
1768730497306,-0.168792724609375,-0.1710357666015625,-0.986968994140625,0.0045159221626818,-0.0165587365627288,-0.0175688732415437
1768730497316,-0.169677734375,-0.171295166015625,-0.992950439453125,0.0260347966104745,-0.0028221518732607,-0.0207300465553998
1768730497326,-0.164581298828125,-0.1719512939453125,-0.9923553466796876,0.0433224402368068,0.0074941352941095,-0.0238906852900981
1768730497336,-0.1597900390625,-0.1738739013671875,-0.9849700927734376,0.0492274686694145,0.0094720646739006,-0.025696575641632
1768730497347,-0.155609130859375,-0.174468994140625,-0.97528076171875,0.0504101775586605,0.0071825454942882,-0.0257972422987222
1768730497357,-0.1491546630859375,-0.17730712890625,-0.9656524658203124,0.0463235564529895,0.005822202656418,-0.0257900524884462
1768730497367,-0.14434814453125,-0.17987060546875,-0.957366943359375,0.0354333594441413,-0.0024333302862942,-0.0195499993860721
1768730497377,-0.14306640625,-0.1819915771484375,-0.9510498046875,0.0201113931834697,-0.0145541755482554,-0.0164024084806442
1768730497387,-0.1459503173828125,-0.1826629638671875,-0.949310302734375,0.0076813553459942,-0.0032192291691899,-0.0121599938720464
1768730497397,-0.147369384765625,-0.183319091796875,-0.9503173828125,-0.0092459628358483,0.0039209718815982,-0.0058405785821378
1768730497408,-0.148590087890625,-0.182647705078125,-0.950225830078125,-0.0142146218568086,0.0052043492905795,0.0016668725293129
1768730497417,-0.1502685546875,-0.180084228515625,-0.9608612060546876,-0.0198408160358667,-0.0038093857001513,-0.0038791603874415
1768730497427,-0.157623291015625,-0.176483154296875,-0.9639892578125,-0.0268918015062809,-0.0106116319075226,-0.0097929760813713
1768730497437,-0.15948486328125,-0.1746826171875,-0.9595489501953124,-0.0288180653005838,-0.0112350778654217,-0.0094156060367822
1768730497447,-0.1566009521484375,-0.174530029296875,-0.966278076171875,-0.0230643060058355,-0.006934072356671,-0.0023366576060652
1768730497457,-0.1519622802734375,-0.174041748046875,-0.9741058349609376,-0.0216054264456033,-0.0150292832404375,0.0037412086967378
1768730497467,-0.150299072265625,-0.17327880859375,-0.97100830078125,-0.0236275643110275,-0.0189153682440519,0.0052181975916028
1768730497477,-0.1545562744140625,-0.17431640625,-0.9696502685546876,-0.0247836429625749,-0.0149816125631332,0.0045878277160227
1768730497487,-0.1546630859375,-0.17620849609375,-0.9729766845703124,-0.0222682878375053,-0.0105692874640226,0.0063457801006734
1768730497497,-0.148651123046875,-0.1793670654296875,-0.977447509765625,-0.0144841345027089,-0.0033611755352467,0.0129943620413541
1768730497508,-0.147857666015625,-0.1827850341796875,-0.97998046875,-0.0062251389026641,0.0006008091149851,0.0171848461031913
1768730497517,-0.1497039794921875,-0.1834259033203125,-0.98236083984375,0.0001422127970727,0.0076477997936308,0.014478275552392
1768730497528,-0.15716552734375,-0.1832733154296875,-0.9791107177734376,0.0073998593725264,0.0031656995415687,0.0079998699948191
1768730497537,-0.1614837646484375,-0.180206298828125,-0.979888916015625,0.0172682031989097,0.0094033554196357,0.0023023027461022
1768730497548,-0.1598052978515625,-0.180206298828125,-0.9841156005859376,0.0264063067734241,0.0031049794051796,-0.003500459017232
1768730497557,-0.160858154296875,-0.1801300048828125,-0.975982666015625,0.0261296052485704,0.0005238438025116,-0.0048307077959179
1768730497568,-0.161041259765625,-0.18109130859375,-0.9709930419921876,0.0232872124761343,-0.0032109732273966,-0.0042083272710442
1768730497578,-0.1603240966796875,-0.1808013916015625,-0.9651641845703124,0.0183100309222936,0.0010436928132548,-0.0058224690146744
1768730497588,-0.1603546142578125,-0.1809234619140625,-0.9628143310546876,0.0083098616451025,0.0011395666515454,-0.0068882661871612
1768730497598,-0.1582489013671875,-0.181732177734375,-0.9554290771484376,-0.0020431771408766,0.0111149689182639,-0.0047526773996651
1768730497608,-0.1541900634765625,-0.181396484375,-0.9520263671875,-0.0142535045742988,0.0153461992740631,-0.0036578518338501
1768730497618,-0.155364990234375,-0.181732177734375,-0.9521636962890624,-0.0203127283602952,0.0183129608631134,-0.0026474483311176
1768730497628,-0.153839111328125,-0.178253173828125,-0.9580535888671876,-0.0212573520839214,0.0197023320943117,-0.0040669133886694
1768730497638,-0.150848388671875,-0.178314208984375,-0.96014404296875,-0.0219236742705106,0.014935540035367,-0.000364320439985
1768730497648,-0.15130615234375,-0.177642822265625,-0.9667816162109376,-0.0220909211784601,0.0117173762992024,0.0002162486780434
1768730497658,-0.1529998779296875,-0.176422119140625,-0.9706268310546876,-0.0212152730673551,0.0095290569588541,-0.0006700513185933
1768730497668,-0.157379150390625,-0.1767120361328125,-0.9686737060546876,-0.0172919053584337,0.0130348419770598,-0.0006242449744604
1768730497678,-0.1578216552734375,-0.176910400390625,-0.9772796630859376,-0.0082235746085643,0.0083431508392095,0.0006122607155703
1768730497688,-0.1594696044921875,-0.1765899658203125,-0.979461669921875,-0.009035306982696,-0.0114840827882289,-0.0031206922139972
1768730497698,-0.16363525390625,-0.1779632568359375,-0.9720001220703124,-0.0086632631719112,-0.0061447117477655,-0.0137240681797266
1768730497708,-0.164642333984375,-0.1795806884765625,-0.9759368896484376,-0.0021707424893975,-0.0014958975370973,-0.018156100064516
1768730497718,-0.160675048828125,-0.1794281005859375,-0.9795074462890624,0.0096422405913472,0.0016114787431433,-0.0176064241677522
1768730497728,-0.15826416015625,-0.179534912109375,-0.97991943359375,0.0164359640330076,0.0066701532341539,-0.0183374620974063
1768730497738,-0.1547393798828125,-0.179840087890625,-0.97711181640625,0.019750801846385,0.0078358184546232,-0.0126526784151792
1768730497748,-0.1546173095703125,-0.178619384765625,-0.969635009765625,0.0149896023795008,0.013080914504826,-0.0138641502708196
1768730497759,-0.160186767578125,-0.1744842529296875,-0.9666595458984376,0.0115357488393783,0.0208663996309041,-0.0173270590603351
1768730497769,-0.1678009033203125,-0.1739349365234375,-0.9665679931640624,0.0090720579028129,0.0234715044498443,-0.0150974597781896
1768730497779,-0.163238525390625,-0.176910400390625,-0.96807861328125,0.0053185988217592,0.0228954628109931,-0.0104619618505239
1768730497789,-0.1554718017578125,-0.180633544921875,-0.9697113037109376,7.004113285802305e-05,0.0133008919656276,-0.0081700459122657
1768730497799,-0.1539154052734375,-0.18243408203125,-0.962493896484375,-0.0030210898257791,0.0137352533638477,-0.0046264436095952
1768730497809,-0.1527557373046875,-0.183258056640625,-0.9630126953125,-0.0089314430952072,0.0082810996100306,-0.0070270169526338
1768730497819,-0.151641845703125,-0.182342529296875,-0.9642333984375,-0.0055329832248389,0.0037673076149076,-0.0076826871372759
1768730497829,-0.1512908935546875,-0.1822662353515625,-0.974090576171875,0.0073295519687235,0.0090819122269749,-0.0084363613277673
1768730497839,-0.154510498046875,-0.18231201171875,-0.9736328125,0.0069559104740619,0.0082318307831883,-0.015288408845663
1768730497849,-0.1544647216796875,-0.183563232421875,-0.9659576416015624,3.2490566809428856e-05,-0.0096291918307542,-0.0154585847631096
1768730497859,-0.1512451171875,-0.1838226318359375,-0.959442138671875,0.0044408212415874,-0.0176216047257184,-0.0104193510487675
1768730497869,-0.151763916015625,-0.177825927734375,-0.970794677734375,0.0135405762121081,-0.0002974750823341,-0.0118111195042729
1768730497879,-0.1579742431640625,-0.1771240234375,-0.9680938720703124,0.0093160038813948,0.0122097944840788,-0.0125456191599369
1768730497889,-0.158477783203125,-0.1804351806640625,-0.9599609375,-0.0025390577502548,0.0021614215802401,-0.0117187080904841
1768730497899,-0.15057373046875,-0.1835479736328125,-0.9573516845703124,-0.0079500684514641,-0.0034871431998908,-0.0089330412447452
1768730497910,-0.1446990966796875,-0.1810455322265625,-0.9651336669921876,-0.0062967780977487,-0.0121570639312267,-0.0031076427549123
1768730497919,-0.154571533203125,-0.175018310546875,-0.9689483642578124,0.000769120932091,-0.001080977031961,-0.0128345722332596
1768730497929,-0.1678466796875,-0.1706695556640625,-0.9699859619140624,-0.0051745218224823,0.0118366852402687,-0.0204738490283489
1768730497939,-0.1680450439453125,-0.1743011474609375,-0.95928955078125,-0.0139661496505141,0.0200394876301288,-0.0197755694389343
1768730497949,-0.157684326171875,-0.1788177490234375,-0.9581451416015624,-0.0259120240807533,0.0157688427716493,-0.0099221393465995
1768730497960,-0.1483154296875,-0.1822509765625,-0.9637451171875,-0.030335534363985,0.0012961605098098,-0.0034538535401225
1768730497969,-0.1492919921875,-0.1814422607421875,-0.966827392578125,-0.0350434705615043,0.0022815300617367,-0.0058387145400047
1768730497980,-0.1534881591796875,-0.1817474365234375,-0.967926025390625,-0.0394222401082515,0.0052642705850303,-0.0071748220361769
1768730497990,-0.1582183837890625,-0.1817626953125,-0.9645233154296876,-0.0405069477856159,0.0055739963427186,-0.0098302597180008
1768730498000,-0.156951904296875,-0.1834259033203125,-0.971038818359375,-0.0404395684599876,0.0038940741214901,-0.0135661428794264
1768730498010,-0.1536102294921875,-0.1824951171875,-0.9779815673828124,-0.0348916724324226,-0.0036565200425684,-0.009745305404067
1768730498020,-0.153228759765625,-0.180328369140625,-0.9827117919921876,-0.0259951148182153,-0.0048980857245624,-0.0080480724573135
1768730498030,-0.1546478271484375,-0.176544189453125,-0.9901275634765624,-0.0108790127560496,-0.0109570436179637,-0.0100768692791461
1768730498042,-0.1611480712890625,-0.17510986328125,-0.99267578125,0.0059004998765885,-0.0002814961189869,-0.0200155191123485
1768730498050,-0.163787841796875,-0.1744232177734375,-0.994049072265625,0.0214850511401891,0.0160833615809679,-0.0220557674765586
1768730498060,-0.162628173828125,-0.176513671875,-0.98577880859375,0.0316471420228481,0.0360235162079334,-0.024786839261651
1768730498070,-0.159820556640625,-0.17730712890625,-0.979400634765625,0.0422276146709919,0.0495393238961696,-0.0214392449706792
1768730498080,-0.1533050537109375,-0.177154541015625,-0.9745025634765624,0.0491912476718425,0.0509225688874721,-0.0171891059726476
1768730498090,-0.1455078125,-0.1798858642578125,-0.969757080078125,0.0497236140072345,0.0413849912583828,-0.0092395711690187
1768730498100,-0.1442718505859375,-0.1789398193359375,-0.9623260498046876,0.0423903353512287,0.0240307673811912,-0.0108617022633552
1768730498110,-0.1511383056640625,-0.1810302734375,-0.9468841552734376,0.0177427772432565,0.0117642479017376,-0.0191790200769901
1768730498120,-0.15655517578125,-0.1829071044921875,-0.9297943115234376,-0.0102068306878209,0.0170122720301151,-0.0229133050888776
1768730498130,-0.1525115966796875,-0.186553955078125,-0.931488037109375,-0.0309390071779489,0.0143339317291975,-0.0134068857878446
1768730498141,-0.145782470703125,-0.18560791015625,-0.937286376953125,-0.043842289596796,0.0081639206036925,-0.0072541842237114
1768730498150,-0.144256591796875,-0.185882568359375,-0.9469146728515624,-0.0642351806163787,-0.0072882729582488,-0.0048285773955285
1768730498160,-0.1473846435546875,-0.1883392333984375,-0.9466400146484376,-0.0810421183705329,-0.0217657499015331,-0.0045694517903029
1768730498171,-0.14630126953125,-0.1826171875,-0.957977294921875,-0.0762337818741798,-0.0249753911048173,-0.0015219965716823
1768730498181,-0.1522369384765625,-0.175872802734375,-0.97796630859375,-0.0574478469789028,-0.0159219745546579,0.001186704612337
1768730498191,-0.1571044921875,-0.1729736328125,-0.990325927734375,-0.03405437245965,-0.0077559240162372,0.0032354744616895
1768730498201,-0.1610260009765625,-0.1726531982421875,-0.9934234619140624,-0.0204810407012701,-0.0048695900477468,-0.0017073525814339
1768730498211,-0.1602935791015625,-0.1734771728515625,-0.99395751953125,-0.0024431839119642,-0.0060365870594978,-0.0027031085919588
1768730498221,-0.1576080322265625,-0.1748199462890625,-0.9951324462890624,0.0101767377927899,-0.0147211551666259,-0.0058757322840392
1768730498231,-0.156890869140625,-0.1773834228515625,-0.98858642578125,0.0149147668853402,-0.0115048559382557,-0.0075676385313272
1768730498241,-0.15240478515625,-0.1786346435546875,-0.9828948974609376,0.0240744426846504,0.0025238776579499,-0.0044352286495268
1768730498251,-0.1477508544921875,-0.1796417236328125,-0.9827117919921876,0.027982098981738,0.008338357321918,0.0029931266326457
1768730498261,-0.14727783203125,-0.1815643310546875,-0.9748382568359376,0.026626817882061,0.0159765686839818,0.0060059609822928
1768730498271,-0.146728515625,-0.1826019287109375,-0.9698638916015624,0.0189822129905223,0.0112611763179302,0.0045918221585452
1768730498281,-0.151336669921875,-0.18017578125,-0.9609222412109376,0.0074272900819778,0.0035465315449982,-0.0007406250806525
1768730498291,-0.154693603515625,-0.180084228515625,-0.957366943359375,-0.0061772023327648,0.0045284391380846,-0.0054917042143642
1768730498301,-0.153900146484375,-0.1798248291015625,-0.959625244140625,-0.0096052233129739,0.0090938964858651,-0.0063375243917107
1768730498311,-0.1512603759765625,-0.1801300048828125,-0.96661376953125,-0.0074547203257679,0.0050307111814618,-0.0062264706939458
1768730498321,-0.1501312255859375,-0.1775054931640625,-0.9716644287109376,-0.0011912320042029,0.0079015986993908,-0.0025979136116802
1768730498331,-0.14837646484375,-0.1755828857421875,-0.97857666015625,0.0080067934468388,0.0062078284099698,0.0023744744248688
1768730498341,-0.144805908203125,-0.17523193359375,-0.980560302734375,0.0126028768718242,-0.0061348578892648,-0.0009222526568919
1768730498351,-0.1528778076171875,-0.1732330322265625,-0.970489501953125,0.0094741955399513,0.0058823903091251,-0.0085663236677646
1768730498361,-0.1627655029296875,-0.1757965087890625,-0.9638214111328124,0.0046016760170459,0.0145816057920455,-0.0179507713764905
1768730498371,-0.160736083984375,-0.176116943359375,-0.9599456787109376,0.0062355254776775,0.0235314257442951,-0.0194088518619537
1768730498382,-0.1529693603515625,-0.1763458251953125,-0.9655914306640624,0.0090547474101185,0.023403326049447,-0.0167829748243093
1768730498391,-0.145660400390625,-0.177337646484375,-0.9706878662109376,0.0146306082606315,0.0183318685740232,-0.0115389442071318
1768730498402,-0.1467437744140625,-0.1778106689453125,-0.967376708984375,0.0083785708993673,0.0127038108184933,-0.0107570402324199
1768730498412,-0.14947509765625,-0.180511474609375,-0.9607086181640624,0.0001398159511154,0.0081519363448023,-0.0095937717705965
1768730498422,-0.1504974365234375,-0.1819305419921875,-0.958221435546875,-0.0097024282440543,0.0069918632507324,-0.0097130807116627
1768730498432,-0.1474761962890625,-0.1833343505859375,-0.9611968994140624,-0.0181177519261837,0.0119855562224984,-0.0047542750835418
1768730498442,-0.14617919921875,-0.1827850341796875,-0.9651947021484376,-0.0167523492127656,0.0092337122187018,0.0045356294140219
1768730498452,-0.14605712890625,-0.1781005859375,-0.9702911376953124,-0.0114734303206205,0.0036554548423737,0.0028778119012713
1768730498462,-0.1502532958984375,-0.1740264892578125,-0.9739837646484376,-0.0035838158801198,-0.0103631587699055,0.0021174794528633
1768730498472,-0.1528472900390625,-0.1744537353515625,-0.9722137451171876,-0.0027944548055529,-0.0015318501973524,-0.0020418455824255
1768730498482,-0.153533935546875,-0.175140380859375,-0.97418212890625,0.0023065637797117,-0.0003070624661631,-0.0024868599139153
1768730498492,-0.1575469970703125,-0.1704559326171875,-0.9745025634765624,0.0060118199326097,-0.0021283982787281,-0.0056794574484229
1768730498502,-0.158203125,-0.1687164306640625,-0.9746246337890624,0.0036408074665814,-0.0095556881278753,-0.0123077984899282
1768730498512,-0.160003662109375,-0.17449951171875,-0.96429443359375,-0.0120225744321942,-0.0102094942703843,-0.0156386140733957
1768730498522,-0.1529998779296875,-0.1824951171875,-0.9535064697265624,-0.0233609825372695,0.0011627360945567,-0.0125381620600819
1768730498532,-0.145233154296875,-0.1876373291015625,-0.959014892578125,-0.0226105041801929,0.0049319081008434,-0.005019792355597
1768730498542,-0.141265869140625,-0.186767578125,-0.9674072265625,-0.0220152866095304,0.0152300857007503,-0.0015672702575102
1768730498552,-0.144500732421875,-0.1820831298828125,-0.9710540771484376,-0.01668550260365,0.0125765120610594,-0.0016154735349118
1768730498562,-0.150787353515625,-0.17431640625,-0.9802398681640624,0.0043156524188816,0.0167792458087205,-0.0049814428202807
1768730498572,-0.1552276611328125,-0.1752471923828125,-0.9935302734375,0.0205414947122335,0.0206570755690336,-0.0113594476133584
1768730498582,-0.1575469970703125,-0.1773681640625,-0.9898223876953124,0.0275788977742195,0.0124228475615382,-0.0137056922540068
1768730498593,-0.152435302734375,-0.1826171875,-0.98175048828125,0.0401399619877338,0.0044906223192811,-0.0105128278955817
1768730498603,-0.146270751953125,-0.1791229248046875,-0.98529052734375,0.0608487017452716,0.0060448427684605,-0.0078190406784415
1768730498613,-0.1484832763671875,-0.178497314453125,-0.9857940673828124,0.0660836771130561,0.0138630848377943,-0.005706887692213
1768730498623,-0.1513671875,-0.1781158447265625,-0.9719085693359376,0.0582854114472866,0.016472715884447,-0.0059622852131724
1768730498633,-0.1507110595703125,-0.1840972900390625,-0.9581756591796876,0.0443139337003231,0.0135288583114743,-0.0054261907935142
1768730498643,-0.1469879150390625,-0.1806182861328125,-0.953460693359375,0.0376104936003685,0.0083157205954194,0.0001603222917765
1768730498653,-0.1469573974609375,-0.174041748046875,-0.9566650390625,0.0363135337829589,0.0116076534613966,0.0040735709480941
1768730498663,-0.1488037109375,-0.1713104248046875,-0.958953857421875,0.033321738243103,0.0096869822591543,0.0080720409750938
1768730498673,-0.15087890625,-0.1709136962890625,-0.9546966552734376,0.0129147330299019,0.0024045680183917,0.0094539551064372
1768730498683,-0.1515655517578125,-0.17724609375,-0.9465179443359376,-0.0112814167514443,-0.0101237408816814,0.0077181071974337
1768730498693,-0.1500396728515625,-0.1811981201171875,-0.944976806640625,-0.028970930725336,-0.0164072029292583,0.0116441389545798
1768730498703,-0.1423797607421875,-0.18499755859375,-0.95477294921875,-0.0380280762910842,-0.0193388108164072,0.0126401614397764
1768730498713,-0.144073486328125,-0.1856536865234375,-0.961669921875,-0.0377913191914558,-0.0103956488892436,0.0146369999274611
1768730498723,-0.1439971923828125,-0.185516357421875,-0.9694366455078124,-0.0324314422905445,-0.001661013578996,0.019482621923089
1768730498733,-0.1421661376953125,-0.1889190673828125,-0.9759063720703124,-0.0213620141148567,0.0035715652629733,0.0248840451240539
