timestamp_ms,acc_x,acc_y,acc_z,gyro_x,gyro_y,gyro_z
1770454135401,-0.15020751953125,-0.981475830078125,0.099273681640625,0.000353401468601,0.0130936978384852,-0.0076166405342519
1770454135412,-0.1501007080078125,-0.9705810546875,0.0945587158203125,0.0070733558386564,0.0069103701971471,-0.0130561469122767
1770454135421,-0.1577606201171875,-0.9697723388671876,0.093048095703125,0.0175062883645296,-0.0078717712312936,-0.0183635614812374
1770454135431,-0.1608123779296875,-0.971649169921875,0.092315673828125,0.0221212804317474,-0.0121117904782295,-0.018304705619812
1770454135440,-0.1577911376953125,-0.971221923828125,0.0965728759765625,0.0209833122789859,-0.0234179738909006,-0.0183776747435331
1770454135451,-0.1536407470703125,-0.978912353515625,0.1004638671875,0.011674765497446,-0.0079434104263782,-0.014527809806168
1770454135461,-0.1510772705078125,-0.983673095703125,0.1029510498046875,-4.101268132217229e-05,-0.0039348206482827,-0.0091876396909356
1770454135471,-0.1484375,-0.9878082275390624,0.1056671142578125,-0.0113983293995261,-0.0001057274930644,-0.0024903218727558
1770454135481,-0.15057373046875,-0.9884033203125,0.10302734375,-0.0228701625019311,0.0081378212198615,0.0022594258189201
1770454135491,-0.1505584716796875,-0.9883575439453124,0.1021270751953125,-0.029527798295021,0.0104957837611436,0.0098723378032445
1770454135501,-0.151214599609375,-0.9882049560546876,0.0965423583984375,-0.026346119120717,0.0088081387802958,0.011109909042716
1770454135511,-0.155029296875,-0.9879913330078124,0.0942535400390625,-0.0200301669538021,0.0050464239902794,0.012076636776328
1770454135521,-0.1576690673828125,-0.9868621826171876,0.0925140380859375,-0.0128513500094413,0.0022128205746412,0.0080491378903388
1770454135531,-0.1599578857421875,-0.9851837158203124,0.0923919677734375,-0.0033979271538555,-0.0033151030074805,0.0016743293963372
1770454135541,-0.1591339111328125,-0.9819488525390624,0.0941009521484375,0.002756371628493,-0.0066853333264589,-0.0032240226864814
1770454135551,-0.1549530029296875,-0.9817657470703124,0.0959014892578125,0.0068970546126365,-0.0059947757981717,-0.0026644926983863
1770454135561,-0.152130126953125,-0.9817962646484376,0.09747314453125,0.008330900222063,-0.0039460058324038,-0.002641323255375
1770454135572,-0.148223876953125,-0.981475830078125,0.0999755859375,0.0084523409605026,-0.001137968734838,-0.0025390577502548
1770454135581,-0.1479949951171875,-0.98077392578125,0.1016387939453125,0.0076808226294815,0.000327036192175,-0.0012729909503832
1770454135591,-0.1510772705078125,-0.9777984619140624,0.1007080078125,0.0070584421046078,-0.0005880259559489,0.0002189118386013
1770454135602,-0.1550750732421875,-0.9740447998046876,0.09619140625,0.0127240512520074,-0.0062288674525916,0.000958737975452
1770454135612,-0.154205322265625,-0.9774322509765624,0.09576416015625,0.013725665397942,-0.0066698868758976,0.0020303940400481
1770454135622,-0.1526947021484375,-0.9920196533203124,0.097686767578125,0.0091005535796284,0.0023345269728451,0.0020173445809632
1770454135632,-0.1515045166015625,-0.992706298828125,0.098358154296875,0.0055660065263509,0.0071543157100677,0.0032394691370427
1770454135642,-0.152862548828125,-0.9859161376953124,0.0960693359375,0.0026519757229834,0.0049401638098061,0.0024828650057315
1770454135652,-0.1550750732421875,-0.9801483154296876,0.096649169921875,0.0039039277471601,0.0034434671979397,0.0016365124611184
1770454135662,-0.1592254638671875,-0.978912353515625,0.097747802734375,0.0036701022181659,0.0020495688077062,0.0028602350503206
1770454135673,-0.155609130859375,-0.97552490234375,0.1012725830078125,0.0017273263074457,0.0009299758239649,0.0012223909143358
1770454135682,-0.1533203125,-0.9778900146484376,0.103302001953125,0.0015267902053892,0.0037207023706287,-0.0004556668573059
1770454135692,-0.153411865234375,-0.9815521240234376,0.101470947265625,0.0017465010751038,0.0007166566210798,-0.0012093414552509
1770454135702,-0.153961181640625,-0.9780120849609376,0.0997772216796875,0.0023299995809793,0.0023081616964191,-0.0043012714013457
1770454135712,-0.1560211181640625,-0.9765167236328124,0.0973358154296875,0.0024652881547808,-0.0006095975404605,-0.0053622745908796
1770454135722,-0.1568603515625,-0.978363037109375,0.099578857421875,0.0010490191634744,-0.0035390746779739,-0.005886651109904
1770454135732,-0.154541015625,-0.9815216064453124,0.0995635986328125,-0.0023595606908202,-0.0009864348685368,-0.0039737024344503
1770454135742,-0.1513214111328125,-0.9886474609375,0.0998077392578125,-0.0078131817281246,0.0047750477679073,-0.0023782027419656
1770454135752,-0.1519317626953125,-0.990203857421875,0.098907470703125,-0.0081045320257544,0.0049319081008434,0.0014295848086476
1770454135762,-0.1510467529296875,-0.98773193359375,0.096588134765625,-0.0070163640193641,0.0055505600757896,0.0034698324743658
1770454135774,-0.1516876220703125,-0.9830322265625,0.0984039306640625,-0.0051199272274971,0.0060797305777668,0.0037017939612269
1770454135782,-0.15386962890625,-0.979888916015625,0.098541259765625,-0.0024431839119642,0.0058493670076131,0.0014522217679768
1770454135792,-0.1560821533203125,-0.9802398681640624,0.0991363525390625,0.0001480717619415,0.0057777278125286,0.0029715551063418
1770454135802,-0.1560516357421875,-0.9800872802734376,0.099090576171875,0.0016524913953617,0.0106084356084465,0.0023031015880405
1770454135813,-0.1569671630859375,-0.975433349609375,0.0987396240234375,0.0063164853490889,0.0051039480604231,0.0004668521287385
1770454135823,-0.1572113037109375,-0.973663330078125,0.09967041015625,0.0108965896070003,-0.0034051176626235,-0.0025859293527901
1770454135833,-0.1585845947265625,-0.97784423828125,0.09814453125,0.0135014280676841,-0.005346295889467,0.0001342233153991
1770454135843,-0.15350341796875,-0.9788055419921876,0.1008453369140625,0.0125666577368974,-0.000901480030734,-0.0016772588714957
1770454135853,-0.151611328125,-0.97955322265625,0.102264404296875,0.0080326264724135,0.0022003035992383,0.0003299656673334
1770454135863,-0.1515960693359375,-0.9798736572265624,0.102630615234375,0.0050000851042568,0.0037795582320541,-0.0022655511274933
1770454135875,-0.152862548828125,-0.9813995361328124,0.1029815673828125,0.0023819312918931,0.0019102854421362,-0.0050589409656822
1770454135883,-0.1564483642578125,-0.9784698486328124,0.1031036376953125,0.0022543659433722,-0.0027177559677511,-0.0057870489545166
1770454135893,-0.1549530029296875,-0.977294921875,0.104034423828125,-0.0032245554029941,-0.0048094023950397,-0.0061846589669585
1770454135903,-0.1515350341796875,-0.9792327880859376,0.106903076171875,-0.0075695025734603,-0.000557665945962,-0.0044599957764148
1770454135913,-0.1543731689453125,-0.97833251953125,0.1048431396484375,-0.0097447726875543,0.0026551715563982,-0.0023377228062599
1770454135923,-0.1556396484375,-0.976654052734375,0.1009368896484375,-0.0085370289161801,0.0035390746779739,-0.0048773130401968
1770454135933,-0.1585540771484375,-0.9755096435546876,0.10150146484375,-0.011779161170125,0.0025901903863996,-0.0053609432652592
1770454135943,-0.157562255859375,-0.9767303466796876,0.1031951904296875,-0.0144172888249158,0.0001390170073136,-0.0038759645540267
1770454135953,-0.154541015625,-0.9814453125,0.105010986328125,-0.0209745243191719,0.0024876587558537,-0.0024509071372449
1770454135963,-0.1498565673828125,-0.9841766357421876,0.10711669921875,-0.0267791505903005,0.0043835630640387,0.0010396981379017
1770454135974,-0.14935302734375,-0.987213134765625,0.103546142578125,-0.0295168794691562,0.0063420515507459,0.0018503642641007
1770454135983,-0.1515960693359375,-0.9861602783203124,0.0991973876953125,-0.0277551990002393,0.0072059812955558,0.0009475527331233
1770454135993,-0.1538848876953125,-0.9817352294921876,0.0953369140625,-0.025506692007184,0.0035840822383761,0.0012298477813601
1770454136003,-0.1551055908203125,-0.976318359375,0.0957183837890625,-0.0203486811369657,-0.0043944818899035,-0.0001494033349445
1770454136013,-0.1580657958984375,-0.9750823974609376,0.0935516357421875,-0.0153501937165856,-0.0092965625226497,-0.0029329392127692
1770454136023,-0.157257080078125,-0.975799560546875,0.09368896484375,-0.0127943586558103,-0.0082712452858686,-0.0061673484742641
1770454136034,-0.1564483642578125,-0.979156494140625,0.0957183837890625,-0.0105895269662141,-0.0064341970719397,-0.0065122279338538
1770454136044,-0.1530609130859375,-0.987060546875,0.09686279296875,-0.0118923457339406,-0.0057447045110166,-0.0039422772824764
1770454136054,-0.1486968994140625,-0.987762451171875,0.0968170166015625,-0.0067569720558822,-0.0114119118079543,-0.0024019049014896
1770454136064,-0.1514434814453125,-0.9855804443359376,0.0962982177734375,0.0010804444318637,-0.017247961834073,-0.0061439126729965
1770454136074,-0.1527252197265625,-0.976531982421875,0.0994720458984375,0.0082299662753939,-0.0051905009895563,-0.0137621508911252
1770454136084,-0.159820556640625,-0.9787139892578124,0.0940704345703125,0.0143781406804919,-0.0020652813836932,-0.0144958524033427
1770454136094,-0.154876708984375,-0.9853973388671876,0.0911712646484375,0.0219686813652515,0.0002700445184018,-0.0137261981144547
1770454136104,-0.1492156982421875,-0.978912353515625,0.0924072265625,0.025922143831849,0.0123978136107325,-0.0107660945504903
1770454136114,-0.15350341796875,-0.9752197265625,0.0958251953125,0.0282918252050876,0.0133395073935389,-0.0201742444187402
1770454136124,-0.15655517578125,-0.970855712890625,0.09686279296875,0.0382597707211971,0.0068714884109795,-0.0241562016308307
1770454136134,-0.1565093994140625,-0.97076416015625,0.094879150390625,0.0462425947189331,-0.0041534658521413,-0.0279368255287408
1770454136144,-0.1545867919921875,-0.9690093994140624,0.0958099365234375,0.0499332062900066,-0.003384344978258,-0.0267061796039342
1770454136154,-0.155181884765625,-0.9725494384765624,0.0992584228515625,0.0498610325157642,-0.0090933637693524,-0.0272129792720079
1770454136164,-0.15460205078125,-0.982757568359375,0.103851318359375,0.0495145544409751,-0.0099791307002305,-0.0220661535859107
1770454136174,-0.1504364013671875,-0.98870849609375,0.1073455810546875,0.0345446616411209,-0.0014756575692445,-0.0156034603714942
1770454136184,-0.1459197998046875,-0.988189697265625,0.1103363037109375,0.0230635069310665,0.0022540995851159,-0.0052027516067028
1770454136194,-0.1468658447265625,-0.987152099609375,0.109954833984375,0.0128904981538653,0.0042061964049935,-0.0039209718815982
1770454136204,-0.15045166015625,-0.98663330078125,0.103851318359375,0.0072981268167495,0.0001462075451854,0.0006484797340817
1770454136214,-0.1531982421875,-0.98577880859375,0.1022186279296875,0.007350324653089,-0.0077444724738597,0.0042456113733351
1770454136224,-0.152069091796875,-0.9886322021484376,0.1060943603515625,0.0018532937392592,-0.0037313550710678,0.0039356192573904
1770454136234,-0.15167236328125,-0.9889068603515624,0.1087493896484375,-0.0002029328752541,-0.0016394419362768,0.0015430354978889
1770454136244,-0.1524505615234375,-0.98724365234375,0.1058502197265625,-0.0041004689410328,-0.0033585124183446,-0.0010777813149616
1770454136254,-0.150604248046875,-0.984405517578125,0.1082916259765625,-0.0034961977507919,-0.0035537220537662,-0.0065132929012179
1770454136265,-0.150390625,-0.9813232421875,0.106597900390625,-0.0012314456980675,-0.0061305966228246,-0.0072211613878607
1770454136275,-0.1482391357421875,-0.9781494140625,0.10565185546875,-0.0013534184545278,0.0011933625210076,-0.0069902651011943
1770454136285,-0.148223876953125,-0.9771270751953124,0.1056365966796875,-0.0023473100736737,0.0037979339249432,-0.0054509579204022
1770454136295,-0.1467742919921875,-0.97747802734375,0.106048583984375,0.0015867113834246,0.0010705908061936,-0.0020655477419495
1770454136305,-0.14813232421875,-0.976409912109375,0.1046295166015625,0.0066392603330314,-0.0015448997728526,-0.0031830100342631
1770454136315,-0.15167236328125,-0.973297119140625,0.1052398681640625,0.0091522196307778,-0.0080912159755826,-0.005092762876302
1770454136325,-0.1519927978515625,-0.978546142578125,0.1060791015625,0.0088733863085508,-0.0082526039332151,-0.003189668059349
1770454136335,-0.1533966064453125,-0.9925537109375,0.1062164306640625,0.0047564054839313,-0.001676726154983,-0.0046581351198256
1770454136345,-0.1473541259765625,-0.9932708740234376,0.10504150390625,-0.0031055121216923,0.0024130903184413,-0.0017963021527975
1770454136355,-0.1460418701171875,-0.9792327880859376,0.10699462890625,-0.0082480758428573,0.0087876329198479,0.0006314354832284
1770454136365,-0.153106689453125,-0.97674560546875,0.1063690185546875,-0.0129368379712104,0.0078051923774182,-0.0038477350026369
1770454136375,-0.1552581787109375,-0.9761199951171876,0.1067962646484375,-0.0169864408671855,0.0079276980832219,-0.0058626825921237
1770454136385,-0.1523590087890625,-0.97357177734375,0.108734130859375,-0.0210573486983776,0.0069939936511218,-0.0036980654112994
1770454136395,-0.1499786376953125,-0.97882080078125,0.104583740234375,-0.0198269672691822,0.0075668394565582,-0.0044280379079282
1770454136406,-0.14990234375,-0.9815826416015624,0.1004486083984375,-0.0159355569630861,0.0039675775915384,-0.0028469192329794
1770454136415,-0.1506500244140625,-0.977508544921875,0.0989837646484375,-0.0093253245577216,0.0002005360292969,-0.0039055256638675
1770454136426,-0.150787353515625,-0.97650146484375,0.100311279296875,-0.0075636436231434,0.0014969628537073,-0.0063439160585403
1770454136435,-0.152374267578125,-0.9807586669921876,0.1026153564453125,-0.0098747350275516,0.0027430558111518,-0.00758015550673
1770454136445,-0.151885986328125,-0.983673095703125,0.10443115234375,-0.0100877881050109,0.0008599347202107,-0.0059748017229139
1770454136455,-0.1497650146484375,-0.989288330078125,0.1033477783203125,-0.0095287906005978,0.002518018707633,-0.0053814495913684
1770454136466,-0.1485595703125,-0.98992919921875,0.10162353515625,-0.00778388697654,0.0049303099513053,-0.0019267969764769
1770454136476,-0.14703369140625,-0.9839630126953124,0.1006011962890625,-0.0067798756062984,0.0078323567286133,-0.0028306739404797
1770454136486,-0.1490936279296875,-0.981597900390625,0.10040283203125,-0.0072555160149931,0.0094739291816949,-0.0011896340874955
1770454136496,-0.152313232421875,-0.981048583984375,0.0999755859375,-0.0036338833160698,0.0080861561000347,-0.0024788703303784
1770454136507,-0.1520843505859375,-0.9814605712890624,0.0990753173828125,0.0012040151050314,0.004390487447381,-0.0012136024888604
1770454136516,-0.15087890625,-0.9765777587890624,0.10174560546875,0.0042733084410429,0.0044149882160127,7.004113285802305e-05
1770454136526,-0.1510009765625,-0.9784393310546876,0.103515625,0.0063822655938565,0.0037715686485171,-0.001498028053902
1770454136536,-0.15081787109375,-0.982574462890625,0.10516357421875,0.0070011839270591,0.0032197616528719,-0.0031081752385944
1770454136546,-0.1508941650390625,-0.982177734375,0.106048583984375,0.0068160942755639,0.0040868869982659,-0.0035135084763169
1770454136556,-0.150909423828125,-0.97796630859375,0.1045379638671875,0.0034469293896108,0.0069700251333415,-0.002566754585132
1770454136566,-0.1498870849609375,-0.9779205322265624,0.103759765625,0.00281229801476,0.004669586662203,-0.0038967372383922
1770454136576,-0.149932861328125,-0.9792327880859376,0.1037750244140625,0.0043920851312577,0.0025539714843034,-0.0016234630020335
1770454136586,-0.150299072265625,-0.979156494140625,0.1031646728515625,0.0049918289296329,0.0028977855108678,-0.0049004824832081
1770454136596,-0.15167236328125,-0.9796905517578124,0.1031494140625,0.0060139503329992,0.0004253068182151,-0.0056115468032658
1770454136608,-0.15087890625,-0.97998046875,0.1049041748046875,0.005427788477391,-0.0013938985066488,-0.0063654878176748
1770454136616,-0.1508941650390625,-0.9820098876953124,0.106475830078125,0.0027995149139314,-0.0002780340146273,-0.0050480216741561
1770454136626,-0.1504974365234375,-0.9817352294921876,0.1089019775390625,-0.0023880566004663,0.0028905950020998,-0.0057883807457983
1770454136636,-0.1514892578125,-0.9808807373046876,0.1104583740234375,-0.0062344600446522,0.0031161648221313,-0.0075173047371208
1770454136646,-0.1519927978515625,-0.9762115478515624,0.1113433837890625,-0.0095426384359598,0.0060616210103034,-0.0043247072026133
1770454136656,-0.1513214111328125,-0.978240966796875,0.1114501953125,-0.0146833388134837,0.005911152344197,-0.0036519928835332
1770454136666,-0.1492919921875,-0.9837799072265624,0.107666015625,-0.0162713807076215,0.0049833068624138,-1.5446334145963192e-05
1770454136677,-0.1481781005859375,-0.9832916259765624,0.103790283203125,-0.0166679266840219,0.0045169875957071,-0.000364320439985
1770454136687,-0.1484375,-0.9823455810546876,0.10064697265625,-0.0144841345027089,0.0024066986516118,-0.0016351809026673
1770454136697,-0.1524810791015625,-0.983184814453125,0.1004180908203125,-0.0169329103082418,0.0019686087034642,-0.0017078851815313
1770454136707,-0.1488800048828125,-0.98443603515625,0.1041107177734375,-0.0184130948036909,0.002429335610941,0.0039047268219292
1770454136717,-0.1458282470703125,-0.9849853515625,0.104583740234375,-0.0180567651987075,0.0052011534571647,0.0051502874121069
1770454136727,-0.1480712890625,-0.978668212890625,0.1042938232421875,-0.0169630050659179,0.0054546864703297,0.0021726067643612
1770454136737,-0.1534576416015625,-0.9741058349609376,0.1029052734375,-0.0130987577140331,0.0026431872975081,-0.0032746228389441
1770454136747,-0.155364990234375,-0.9776458740234376,0.1002960205078125,-0.0077221016399562,0.0041729072108864,-0.0042631882242858
1770454136757,-0.1523590087890625,-0.985809326171875,0.098358154296875,-0.0114260260015726,0.0045374939218163,-0.0041926144622266
1770454136767,-0.1461944580078125,-0.9887237548828124,0.1007843017578125,-0.0119706429541111,0.0084486119449138,0.0029055087361484
1770454136777,-0.1445159912109375,-0.9864501953125,0.100372314453125,-0.0136241996660828,0.0101892538368701,0.003695135936141
1770454136787,-0.148956298828125,-0.984619140625,0.0991668701171875,-0.0092672677710652,0.0102097606286406,-0.0027033747173845
1770454136797,-0.1505889892578125,-0.9744720458984376,0.101837158203125,-0.0056235310621559,0.0051923650316894,-0.006311425473541
1770454136807,-0.151123046875,-0.983795166015625,0.1053009033203125,-0.0035470642615109,0.0097985686734318,-0.0069327410310506
1770454136817,-0.1482086181640625,-0.9844970703125,0.105224609375,-0.0034634410403668,0.0183403920382261,-0.008126369677484
1770454136827,-0.1491241455078125,-0.97406005859375,0.1016693115234375,0.0013126720441505,0.0180756729096174,-0.0107245491817593
1770454136837,-0.1551055908203125,-0.9709014892578124,0.09759521484375,0.0101663507521152,0.0101311970502138,-0.0154050551354885
1770454136847,-0.1563720703125,-0.9668426513671876,0.09869384765625,0.0208837110549211,-0.0011038802331313,-0.0196216385811567
1770454136857,-0.155517578125,-0.9683685302734376,0.0995025634765625,0.0289078149944543,-0.0075553879141807,-0.0234667100012302
1770454136867,-0.1535186767578125,-0.9712982177734376,0.101776123046875,0.0298681501299142,-0.0059449742548167,-0.0212962329387664
1770454136877,-0.150970458984375,-0.9771881103515624,0.1080322265625,0.0213204678148031,0.0023766048252582,-0.0183321349322795
1770454136887,-0.148406982421875,-0.984954833984375,0.1089935302734375,0.0136122154071927,0.0051556136459112,-0.0152135742828249
1770454136898,-0.14892578125,-0.9876861572265624,0.1094512939453125,0.0052416333928704,0.0058174091391265,-0.0103927198797464
1770454136908,-0.1453704833984375,-0.986663818359375,0.1087188720703125,-0.0045886263251304,0.0073599121533334,-0.0054102116264402
1770454136918,-0.14337158203125,-0.987152099609375,0.1078338623046875,-0.0098899146541953,0.0024940504226833,-0.0014919028617441
1770454136928,-0.1441650390625,-0.9871978759765624,0.10382080078125,-0.0158284977078437,-0.0018530274974182,0.0019555592443794
1770454136938,-0.1467132568359375,-0.9871978759765624,0.10516357421875,-0.0205151289701461,-0.0039353528991341,0.0041694450192153
1770454136948,-0.1515350341796875,-0.985748291015625,0.105682373046875,-0.0252819210290908,-0.0016096145845949,0.0012058793799951
1770454136958,-0.1529693603515625,-0.9857330322265624,0.1073150634765625,-0.0277765039354562,-0.0043476102873682,0.0019526296528056
1770454136968,-0.15093994140625,-0.984710693359375,0.108428955078125,-0.0287597421556711,-0.004006459377706,-0.0013185309944674
1770454136978,-0.148345947265625,-0.9843902587890624,0.1075286865234375,-0.0306865405291318,0.0008447546861134,-0.0019347865600138
1770454136988,-0.1477508544921875,-0.983551025390625,0.104522705078125,-0.0275456067174673,0.0013065468519926,-0.0030123014003038
1770454136998,-0.147216796875,-0.980194091796875,0.1036529541015625,-0.0223465841263532,0.00286236545071,0.0007938882918097
1770454137008,-0.1476287841796875,-0.97998046875,0.1004486083984375,-0.0160191804170608,0.0005414206534624,0.0019467707024887
1770454137018,-0.146087646484375,-0.98077392578125,0.1002960205078125,-0.0121685154736042,0.0025808694772422,0.0033260218333452
1770454137028,-0.1435699462890625,-0.976806640625,0.101593017578125,-0.009746104478836,0.0031103058718144,0.0064155547879636
1770454137038,-0.1444244384765625,-0.9759368896484376,0.102783203125,-0.0040477383881807,0.0015648734988644,0.0073404707945883
1770454137048,-0.149993896484375,-0.9860992431640624,0.0987548828125,-0.0026391926221549,0.0001446096430299,0.0026192190125584
1770454137058,-0.150482177734375,-0.9963836669921876,0.097808837890625,-0.0008053398923948,0.0068206219002604,0.0017667410429567
1770454137068,-0.144622802734375,-0.991119384765625,0.0997467041015625,-0.0069761504419147,0.0061484398320317,0.0025004418566823
1770454137078,-0.14495849609375,-0.978424072265625,0.1003570556640625,-0.0104395914822816,0.0060206083580851,0.0032708945218473
1770454137088,-0.151885986328125,-0.9795379638671876,0.1038970947265625,-0.0124313691630959,0.0050118030048906,0.0017044231062754
1770454137098,-0.1519012451171875,-0.980010986328125,0.1042938232421875,-0.0161193143576383,0.0080235712230205,0.0009795106016099
1770454137109,-0.147308349609375,-0.976898193359375,0.105072021484375,-0.0208778511732816,0.0141624240204691,0.0016706009628251
1770454137119,-0.1465606689453125,-0.9792022705078124,0.1054840087890625,-0.0238102581351995,0.015156315639615,0.0018759306985884
1770454137129,-0.1479949951171875,-0.9792327880859376,0.1029205322265625,-0.022602779790759,0.0143051696941256,0.000482564792037
1770454137139,-0.1482086181640625,-0.9773712158203124,0.1031341552734375,-0.0189925990998744,0.0172745939344167,0.0022343921009451
1770454137149,-0.1501617431640625,-0.9796295166015624,0.09930419921875,-0.0177766010165214,0.0173393096774816,0.0005195827106945
1770454137159,-0.1500244140625,-0.982879638671875,0.0984649658203125,-0.0154798896983265,0.0138295292854309,0.0015219965716823
1770454137169,-0.149810791015625,-0.9851531982421876,0.0966796875,-0.0119959423318505,0.0047825048677623,0.0040115197189152
1770454137179,-0.1473236083984375,-0.9878082275390624,0.099884033203125,-0.0157592557370662,0.0058578890748322,0.0050288471393287
1770454137189,-0.14471435546875,-0.988250732421875,0.1033935546875,-0.0227223560214042,0.0124902250245213,0.0073852119967341
1770454137199,-0.14581298828125,-0.98651123046875,0.106201171875,-0.0267029833048582,0.0134268589317798,0.0094449007883667
1770454137210,-0.1481781005859375,-0.98419189453125,0.104034423828125,-0.0281275082379579,0.0125080682337284,0.0064254086464643
1770454137219,-0.150543212890625,-0.981231689453125,0.10137939453125,-0.0267996564507484,0.009893643669784,0.0064070327207446
1770454137229,-0.1513824462890625,-0.9821014404296876,0.09814453125,-0.0192474648356437,0.0107866013422608,0.0071828118525445
1770454137239,-0.1511993408203125,-0.9794464111328124,0.0945281982421875,-0.0146777462214231,0.0033899378031492,0.0080291647464036
1770454137249,-0.15142822265625,-0.974945068359375,0.097747802734375,-0.0133650740608572,0.0023952471092343,0.009336776100099
1770454137259,-0.15338134765625,-0.9770660400390624,0.10198974609375,-0.0107812751084566,0.0050512175075709,0.0056791910901665
1770454137269,-0.152496337890625,-0.9795379638671876,0.103790283203125,-0.0106952544301748,0.0064642908982932,0.0056903762742877
1770454137279,-0.1525726318359375,-0.9799652099609376,0.0997772216796875,-0.0098497010767459,0.0100912498310208,0.0040527987293899
1770454137289,-0.1530609130859375,-0.9806976318359376,0.0969696044921875,-0.0057196710258722,0.0063780043274164,0.0034559841733425
1770454137299,-0.1510772705078125,-0.9812164306640624,0.0948638916015625,-0.0007105313707143,5.086637611384503e-05,0.0007997472421266
1770454137310,-0.1494140625,-0.9814910888671876,0.09344482421875,0.0036125779151916,0.0053782537579536,0.0021696772892028
1770454137320,-0.1491851806640625,-0.983489990234375,0.094268798828125,0.0028455876745283,0.005878129042685,-0.0006556702428497
1770454137330,-0.149505615234375,-0.9830474853515624,0.0990142822265625,0.0023880566004663,0.0018714033067226,0.002322010230273
1770454137340,-0.1485443115234375,-0.983428955078125,0.1019287109375,-0.0005355617031455,0.003695135936141,0.0032751555554568
1770454137350,-0.149810791015625,-0.9813995361328124,0.102264404296875,-0.0055582835339009,0.0084898909553885,0.0038986015133559
1770454137360,-0.1483154296875,-0.97808837890625,0.1042022705078125,-0.0086922915652394,0.0135845178738236,0.0049079395830631
1770454137370,-0.15069580078125,-0.9785003662109376,0.1053924560546875,-0.0133387083187699,0.0203992817550897,0.0070744212716817
1770454137380,-0.1527252197265625,-0.978668212890625,0.1028289794921875,-0.0158644504845142,0.0157968066632747,0.0059542953968048
1770454137392,-0.152587890625,-0.9807891845703124,0.0994110107421875,-0.0132164694368839,0.0073228939436376,0.005642439238727
1770454137400,-0.1514892578125,-0.979522705078125,0.0984954833984375,-0.0105999140068888,0.0035550536122173,0.0053942329250276
1770454137410,-0.151031494140625,-0.9803619384765624,0.0943145751953125,-0.0067894626408815,-0.0024527714122086,0.0029843382071703
1770454137420,-0.1508026123046875,-0.985260009765625,0.095245361328125,-0.0029222867451608,-0.0020815266761928,0.0015763250412419
1770454137430,-0.14947509765625,-0.9891357421875,0.095947265625,-0.0026250779628753,0.0008394283941015,0.0007616640650667
1770454137440,-0.1475830078125,-0.9853057861328124,0.097747802734375,-0.0026533072814345,0.0039547942578792,0.0027105652261525
1770454137450,-0.149169921875,-0.9803466796875,0.09814453125,-0.0020487697329372,0.0010916297324001,-0.0002516687090974
1770454137460,-0.1524658203125,-0.9751129150390624,0.099517822265625,-0.0026178872212767,0.0009193231817334,0.0014647386269643
1770454137470,-0.15234375,-0.9742584228515624,0.1015167236328125,-0.0015438344562426,0.0025859293527901,0.0006599313346669
1770454137480,-0.1521759033203125,-0.9818878173828124,0.101043701171875,-0.004897819366306,0.0052554821595549,0.0026740799658
1770454137491,-0.1473846435546875,-0.986846923828125,0.0991668701171875,-0.0055351140908896,0.0074866781942546,0.006009423173964
1770454137500,-0.1446990966796875,-0.9844512939453124,0.0968017578125,-0.0040213731117546,0.0062853265553712,0.0095261270180344
1770454137510,-0.1489105224609375,-0.9937896728515624,0.0952911376953125,-0.0028224179986864,0.008150071837008,0.0072403359226882
1770454137520,-0.1487884521484375,-0.9836578369140624,0.1000518798828125,5.219795639277436e-05,0.0115826204419136,0.0039294939488172
1770454137530,-0.1483917236328125,-0.9662628173828124,0.102508544921875,0.0038823562208563,0.0082376897335052,-0.003654389642179
1770454137541,-0.156646728515625,-0.9822845458984376,0.1015472412109375,0.0071508539840579,0.0091801825910806,-0.0093077477067708
1770454137551,-0.1540374755859375,-0.981719970703125,0.1020050048828125,0.011149856261909,0.0159808304160833,-0.0082041341811418
1770454137561,-0.1510162353515625,-0.9759063720703124,0.09881591796875,0.0177531652152538,0.0127727864310145,-0.0108103035017848
1770454137571,-0.155364990234375,-0.9688873291015624,0.0954742431640625,0.0237849578261375,0.0069684274494647,-0.0158109217882156
1770454137581,-0.1581878662109375,-0.9674530029296876,0.097503662109375,0.0287613403052091,-0.0047393613494932,-0.0182453170418739
1770454137591,-0.154266357421875,-0.9677734375,0.1018524169921875,0.0291642770171165,-0.0090475566685199,-0.0190940666943788
1770454137601,-0.1495208740234375,-0.9734344482421876,0.1042327880859375,0.0234310235828161,-0.0054355119355022,-0.0178679469972848
1770454137611,-0.14849853515625,-0.979736328125,0.1072998046875,0.0110803479328751,0.0045886263251304,-0.0117456056177616
1770454137621,-0.149200439453125,-0.9836273193359376,0.1057891845703125,0.0002532666258048,0.0065148910507559,-0.0082336952909827
1770454137631,-0.1478424072265625,-0.98516845703125,0.103240966796875,-0.0083748428151011,0.0074355457909405,-0.0010258496040478
1770454137642,-0.1479949951171875,-0.9886474609375,0.10272216796875,-0.0164356976747512,0.0023662187159061,0.0040682447142899
1770454137651,-0.148773193359375,-0.990936279296875,0.1022796630859375,-0.0188567787408828,0.0014527543680742,0.0085551384836435
1770454137661,-0.1483306884765625,-0.9898223876953124,0.100830078125,-0.0205220524221658,-0.0011496866354718,0.0105517106130719
1770454137671,-0.1519927978515625,-0.9915618896484376,0.1015472412109375,-0.0226917304098606,-0.0005539375124499,0.0088555430993437
1770454137681,-0.153594970703125,-0.9909515380859376,0.0994873046875,-0.0185265466570854,0.0002713761059567,0.0055393748916685
1770454137691,-0.1546630859375,-0.986968994140625,0.10125732421875,-0.0176008306443691,-0.0029451898299157,0.001937449676916
1770454137701,-0.1494598388671875,-0.984588623046875,0.1018218994140625,-0.014512363821268,-0.0063313990831375,-0.00077870831592
1770454137711,-0.1474761962890625,-0.9820404052734376,0.1042938232421875,-0.0151094440370798,-0.0011094729416072,0.0019275959348306
1770454137721,-0.1461639404296875,-0.977691650390625,0.10284423828125,-0.0125645278021693,0.0050051449798047,0.0034261567052453
1770454137731,-0.1486968994140625,-0.9780426025390624,0.1001129150390625,-0.0106872655451297,0.0034189661964774,0.0025446503423154
1770454137742,-0.1472320556640625,-0.9763336181640624,0.100372314453125,-0.0073990602977573,0.003435211488977,0.0073212962597608
1770454137751,-0.147186279296875,-0.975250244140625,0.1014556884765625,-0.0064006415195763,0.0017454357584938,0.0072581791318953
1770454137762,-0.1479644775390625,-0.9746856689453124,0.1002044677734375,0.0001328917423961,-0.0036027242895215,0.005371862091124
1770454137772,-0.1516265869140625,-0.9826202392578124,0.0984649658203125,0.0065929214470088,-0.0051438957452774,0.0027648939285427
1770454137782,-0.1530303955078125,-0.9938507080078124,0.0966033935546875,0.006344448775053,-0.0002751045394688,0.0007432882557623
1770454137792,-0.149078369140625,-0.9905548095703124,0.095184326171875,0.003858387703076,0.0030637003947049,0.0025481125339865
1770454137802,-0.1483612060546875,-0.9825286865234376,0.09637451171875,0.0017523600254207,-0.0003789678157772,0.0038812910206615
1770454137812,-0.15130615234375,-0.9801177978515624,0.098388671875,-0.0034645062405616,0.002568086143583,0.006418218370527
1770454137822,-0.151947021484375,-0.978302001953125,0.105072021484375,-0.0075607141479849,0.0039553269743919,0.0059055597521364
1770454137832,-0.150146484375,-0.9780120849609376,0.1078033447265625,-0.0131557490676641,0.0101378550752997,0.0043201800435781
1770454137842,-0.1503143310546875,-0.9777374267578124,0.104248046875,-0.0134620126336812,0.0086600668728351,0.0027425233274698
1770454137852,-0.1505889892578125,-0.978485107421875,0.1008758544921875,-0.0096110822632908,0.0034216293133795,0.0015984292840585
1770454137862,-0.1503448486328125,-0.977691650390625,0.099151611328125,-0.0076786922290921,0.0072637717239558,0.0031457259319722
1770454137872,-0.1512908935546875,-0.9773712158203124,0.0992584228515625,-0.0086472835391759,0.007660849019885,0.0020474381744861
1770454137882,-0.1519927978515625,-0.98309326171875,0.098846435546875,-0.0103623596951365,0.008593488484621,0.0033065807074308
1770454137892,-0.14874267578125,-0.9851837158203124,0.0971221923828125,-0.0110119050368666,0.0104318680241703,0.0029555761720985
1770454137902,-0.1492767333984375,-0.98626708984375,0.098388671875,-0.0117298932746052,0.0094710001721978,0.0057026268914341
1770454137912,-0.148162841796875,-0.985382080078125,0.1001129150390625,-0.0147624341771006,0.0139704104512929,0.0081021348014473
1770454137922,-0.148773193359375,-0.9839324951171876,0.09893798828125,-0.0106233498081564,0.0087649952620267,0.004219246096909
1770454137932,-0.1526641845703125,-0.98260498046875,0.0968780517578125,-0.0038264298345893,0.0049441587179899,0.0027931232471019
1770454137942,-0.1539764404296875,-0.98358154296875,0.096588134765625,1.757686368364375e-05,0.0026818031910806,0.0022136194165796
1770454137952,-0.1547088623046875,-0.983001708984375,0.09814453125,0.0039758333005011,0.0020900487434118,0.0028613002505153
1770454137963,-0.1523590087890625,-0.9805450439453124,0.1006317138671875,0.0065162223763763,-0.000328367750626,0.0026178872212767
1770454137972,-0.1531219482421875,-0.979156494140625,0.1024322509765625,0.0066866646520793,-0.0001949433935806,0.0015542207984253
1770454137983,-0.1517333984375,-0.97784423828125,0.1037750244140625,0.003589142113924,0.0020762004423886,0.0042027346789836
1770454137993,-0.1489410400390625,-0.978363037109375,0.1061248779296875,-0.0014341122005134,0.0094129424542188,0.0066323364153504
1770454138003,-0.1504058837890625,-0.9812774658203124,0.10345458984375,-0.0011411645682528,0.0090701943263411,0.0046884948387742
1770454138013,-0.1512451171875,-0.978179931640625,0.100006103515625,-0.0020450414158403,0.0060003683902323,0.0054160705767571
1770454138022,-0.1504058837890625,-0.9769287109375,0.1004486083984375,-0.0022431805264204,0.0031284152064472,0.0046304380521178
1770454138033,-0.1519622802734375,-0.9808197021484376,0.10076904296875,-0.0008372978190891,0.002901780186221,0.0037401434965431
1770454138043,-0.153076171875,-0.9821014404296876,0.0997467041015625,-0.001137968734838,0.0020413128659129,0.003778759157285
1770454138053,-0.1528167724609375,-0.981201171875,0.0999755859375,-0.0027688886038959,0.0054384414106607,0.0030591732356697
1770454138063,-0.1517181396484375,-0.981109619140625,0.101593017578125,-0.0053628073073923,0.0039952741935849,0.0017212009988725
1770454138073,-0.152496337890625,-0.9794464111328124,0.103271484375,-0.0039899479597806,0.0024825986474752,0.0002173139364458
1770454138083,-0.154388427734375,-0.9747467041015624,0.1029205322265625,-0.0073042516596615,0.0030895331874489,-0.0024802018888294
1770454138093,-0.154144287109375,-0.9728546142578124,0.1024932861328125,-0.0092435656115412,0.0034756914246827,-0.0018658105982467
1770454138103,-0.153045654296875,-0.9750518798828124,0.1005859375,-0.0088302427902817,0.0042445459403097,0.0008956210804171
1770454138113,-0.152130126953125,-0.9821014404296876,0.102294921875,-0.0099093560129404,0.0077426079660654,0.0028458540327847
1770454138123,-0.149932861328125,-0.9856109619140624,0.1028900146484375,-0.0114095145836472,0.0046581351198256,0.0018261295044794
1770454138133,-0.1537017822265625,-0.9874114990234376,0.1007537841796875,-0.0119309611618518,0.0010258496040478,0.0014082795241847
1770454138143,-0.1504058837890625,-0.9884490966796876,0.0980224609375,-0.0125645278021693,0.0026160231791436,0.0012881710426881
1770454138153,-0.148468017578125,-0.9866485595703124,0.097869873046875,-0.0095700696110725,0.004791825544089,0.0024634238798171
1770454138163,-0.1503753662109375,-0.9813385009765624,0.0961151123046875,-0.0079162465408444,0.0041324268095195,0.0058198058977723
1770454138174,-0.148834228515625,-0.9769439697265624,0.096649169921875,-0.0043518715538084,0.0049902312457561,0.0059495018795132
1770454138183,-0.15411376953125,-0.9793853759765624,0.09893798828125,-0.0003432814555708,0.0038663772866129,0.0064826668240129
1770454138194,-0.1559295654296875,-0.97900390625,0.0981597900390625,-0.002110022585839,-6.0453756304923445e-05,0.0037899445742368
1770454138204,-0.153839111328125,-0.981475830078125,0.0985870361328125,-0.0026634274981915,-0.0024604944046586,0.0027361316606402
1770454138214,-0.14862060546875,-0.9832916259765624,0.099151611328125,-0.0030703584197908,0.0030186930671334,0.0065191518515348
1770454138225,-0.1483917236328125,-0.98931884765625,0.09808349609375,-0.0027092336677014,0.0043995422311127,0.0038237667176872
1770454138234,-0.15106201171875,-0.9950408935546876,0.099700927734375,-0.0022261363919824,0.0074975974857807,0.0036956686526536
1770454138244,-0.1498260498046875,-0.9722442626953124,0.1031341552734375,0.0019534286111593,0.0058546932414174,-0.0017294568242505
1770454138254,-0.15594482421875,-0.9696044921875,0.1025848388671875,0.0071623055264353,0.0026229473296552,-0.0118918130174279
1770454138264,-0.1581878662109375,-0.9806060791015624,0.1002960205078125,0.010816428810358,0.0041025998070836,-0.0076680397614836
1770454138274,-0.1501312255859375,-0.97857666015625,0.0976715087890625,0.0129751870408654,0.0118220383301377,-0.0081303641200065
1770454138284,-0.1505279541015625,-0.973297119140625,0.096832275390625,0.0167614035308361,0.0106286760419607,-0.0078241005539894
1770454138294,-0.154876708984375,-0.9711456298828124,0.0982513427734375,0.0222025066614151,0.0012506204657256,-0.0148556446656584
1770454138304,-0.1582489013671875,-0.9724578857421876,0.0995635986328125,0.0269202981144189,-0.0081468764692544,-0.0170828457921743
1770454138314,-0.1536712646484375,-0.97119140625,0.1029815673828125,0.0241516754031181,-0.0043563987128436,-0.0159699115902185
1770454138324,-0.1485748291015625,-0.9745330810546876,0.1079864501953125,0.0143467150628566,-0.0002894856152124,-0.0146319391205906
1770454138334,-0.1524200439453125,-0.98370361328125,0.1090850830078125,0.0049377670511603,9.960222087102012e-05,-0.0134297888725996
1770454138344,-0.1532745361328125,-0.9850616455078124,0.108245849609375,-0.0059676114469766,0.0024647556710988,-0.0078824236989021
1770454138354,-0.1498260498046875,-0.9877166748046876,0.1036529541015625,-0.0108289457857608,0.002386991167441,-0.0001038632835843
1770454138364,-0.1483612060546875,-0.99102783203125,0.10211181640625,-0.0153115782886743,0.0003635214816313,0.0076579195447266
1770454138374,-0.1446533203125,-0.99346923828125,0.102447509765625,-0.0199010036885738,0.0041412152349948,0.0139496373012661
1770454138384,-0.1474151611328125,-0.9966278076171876,0.1040496826171875,-0.0190005898475646,0.0040879524312913,0.0131403030827641
1770454138395,-0.1534271240234375,-0.9930877685546876,0.102203369140625,-0.0193614475429058,-0.0007219829712994,0.0122907543554902
1770454138405,-0.156097412109375,-0.9915924072265624,0.1009368896484375,-0.0187633018940687,-0.0024098944850265,0.0099013661965727
1770454138415,-0.1522979736328125,-0.986968994140625,0.10137939453125,-0.0189577117562294,-0.0036661075428128,0.0091032171621918
1770454138425,-0.1476287841796875,-0.985015869140625,0.102691650390625,-0.018100706860423,-0.0010178601369261,0.0098555600270628
1770454138435,-0.1465301513671875,-0.984283447265625,0.1014404296875,-0.0176658127456903,0.0007006776868365,0.01087262108922
1770454138445,-0.146484375,-0.9832305908203124,0.1000518798828125,-0.0127269802615046,0.0009422263829037,0.010539193637669
1770454138455,-0.149169921875,-0.9786529541015624,0.097442626953125,-0.0103836646303534,-0.000474841624964,0.0098363850265741
1770454138465,-0.1484375,-0.97418212890625,0.0972137451171875,-0.0082512721419334,0.003286340739578,0.0142577653750777
1770454138475,-0.1501007080078125,-0.973876953125,0.09674072265625,-0.0054602790623903,0.0020037624053657,0.013414341956377
1770454138485,-0.15618896484375,-0.974822998046875,0.0982513427734375,0.0017291904659941,-0.0019811254460364,0.0102193476632237
1770454138495,-0.157989501953125,-0.9774169921875,0.09674072265625,0.0088699245825409,-0.0033023196738213,0.0061689461581408
1770454138505,-0.155609130859375,-0.981781005859375,0.09320068359375,0.0101493066176772,0.0073671024292707,0.0037987329997122
1770454138515,-0.1525115966796875,-0.9835968017578124,0.095672607421875,0.0088712554425001,0.0084563354030251,0.0022136194165796
1770454138525,-0.15216064453125,-0.9803924560546876,0.09710693359375,0.0068171597085893,0.0080302292481064,0.0020708739757537
1770454138535,-0.157012939453125,-0.9764251708984376,0.0994110107421875,0.0069625684991478,0.0067473850212991,0.0009566074586473
1770454138546,-0.1572418212890625,-0.9747161865234376,0.1017303466796875,0.0091064125299453,0.0042480081319808,1.917476038215682e-05
1770454138555,-0.1537628173828125,-0.9744110107421876,0.102935791015625,0.0135914422571659,0.0022082931827753,-0.0005446164286695
1770454138565,-0.153106689453125,-0.975494384765625,0.098876953125,0.014231932349503,-0.002518018707633,-0.0005451490869745
1770454138575,-0.1529693603515625,-0.9762725830078124,0.100067138671875,0.0180298667401075,-0.0056855827569961,0.0007185208378359
1770454138586,-0.1526947021484375,-0.9781494140625,0.1020660400390625,0.0209883730858564,0.0004655205411836,-0.0019504991360008
1770454138595,-0.1507415771484375,-0.9808502197265624,0.1033172607421875,0.0211193989962339,0.001915079075843,-0.0008900284301489
1770454138605,-0.151611328125,-0.98345947265625,0.1048736572265625,0.0160868242383003,0.0052546830847859,-0.0016085492679849
1770454138615,-0.1513824462890625,-0.98736572265625,0.10687255859375,0.0133653404191136,0.0082036014646291,0.0032559807877987
1770454138625,-0.14886474609375,-0.988067626953125,0.10369873046875,0.0148617699742317,0.0061007691547274,0.0037920749746263
1770454138636,-0.149383544921875,-0.984283447265625,0.1054534912109375,0.0119738383218646,0.0081239724531769,0.0055859801359474
1770454138646,-0.153533935546875,-0.9799652099609376,0.1061248779296875,0.0105165569111704,0.0039329561404883,0.0050051449798047
1770454138656,-0.1551055908203125,-0.977447509765625,0.106689453125,0.0061961105093359,0.0050805122591555,0.0058674765750765
1770454138666,-0.1552886962890625,-0.9755096435546876,0.11004638671875,-0.000222906586714,0.0066365972161293,0.0050589409656822
1770454138676,-0.1536407470703125,-0.9744873046875,0.1105194091796875,-0.0061961105093359,0.0079322252422571,0.0055798552930355
1770454138686,-0.1548004150390625,-0.976470947265625,0.1090087890625,-0.0111959287896752,0.0089261168614029,0.0047076698392629
1770454138696,-0.153106689453125,-0.97637939453125,0.1069183349609375,-0.0130667993798851,0.0085804387927055,0.0055929045192897
1770454138706,-0.1547393798828125,-0.9747314453125,0.106201171875,-0.0165912266820669,0.0054746600799262,0.0030748858116567
1770454138716,-0.1539764404296875,-0.98028564453125,0.1045684814453125,-0.0180604923516511,0.0027126958593726,0.0045990129001438
1770454138726,-0.15118408203125,-0.9852142333984376,0.1050872802734375,-0.0216933116316795,0.0004564658156596,0.0068587050773203
1770454138736,-0.1497039794921875,-0.983062744140625,0.103790283203125,-0.0268755555152893,-0.0005142564186826,0.0071157002821564
1770454138746,-0.15252685546875,-0.97869873046875,0.1019134521484375,-0.0274920780211687,0.0026053704787045,0.0061433799564838
1770454138756,-0.15618896484375,-0.9796905517578124,0.1008148193359375,-0.0255591552704572,0.000487092154799,0.0019526296528056
1770454138766,-0.154327392578125,-0.98345947265625,0.0999908447265625,-0.0198983401060104,-0.0003683151735458,0.0035428032279014
1770454138776,-0.1515960693359375,-0.9850311279296876,0.0978546142578125,-0.0147573743015527,0.0011427623685449,0.0074193002656102
1770454138786,-0.15081787109375,-0.9830169677734376,0.1007080078125,-0.0125109981745481,0.0067335362546145,0.0067322049289941
1770454138796,-0.1551055908203125,-0.9818267822265624,0.1007080078125,-0.0074243606068193,0.0050813113339245,0.0076629798859357
1770454138807,-0.1576995849609375,-0.977508544921875,0.1012420654296875,-0.0035907400306314,0.0038059235084801,0.0068264808505773
1770454138816,-0.157806396484375,-0.9766082763671876,0.10321044921875,-0.0016423714114353,0.0024983114562928,0.0054799863137304
1770454138826,-0.1560516357421875,-0.9808197021484376,0.1019744873046875,0.0007198524544946,0.0044860946945846,0.0070573766715824
1770454138836,-0.15374755859375,-0.981414794921875,0.1011810302734375,0.0051052798517048,0.003214701777324,0.0026075011119246
1770454138847,-0.15435791015625,-0.97894287109375,0.0999755859375,0.0054765245877206,0.005397162400186,0.0040815607644617
1770454138857,-0.15509033203125,-0.978424072265625,0.09942626953125,0.0045990129001438,0.0053172674961388,0.0014165353495627
1770454138867,-0.1558990478515625,-0.9776611328125,0.098785400390625,0.0057260626927018,0.0065638930536806,0.0016114787431433
1770454138877,-0.1548919677734375,-0.9757080078125,0.0992431640625,0.0024631577543914,0.0073708309791982,0.000255663471762
1770454138887,-0.155517578125,-0.9747161865234376,0.101531982421875,0.0019835224375128,0.0008735168376006,-0.0007238471880555
1770454138897,-0.1571807861328125,-0.97393798828125,0.10205078125,0.0042789010331034,-0.0013640711549669,-0.0040661143139004
1770454138908,-0.1566619873046875,-0.973388671875,0.1000518798828125,0.000638626050204,-0.0029129656031727,-0.0019835224375128
1770454138917,-0.1572418212890625,-0.9775543212890624,0.101409912109375,-0.0031361384317278,-0.0074981302022933,-0.0002806971897371
1770454138927,-0.155303955078125,-0.9877471923828124,0.0999908447265625,-0.0035619779955595,-0.0043867588974535,0.0019433086272329
1770454138937,-0.14874267578125,-0.99072265625,0.1025543212890625,-0.0029502499382942,-0.0047854343429207,0.0075103803537786
1770454138947,-0.1485748291015625,-1.0000457763671875,0.1063385009765625,-0.0034477282315492,0.0007318366551771,0.0071439296007156
1770454138957,-0.1474151611328125,-0.9919891357421876,0.109405517578125,-0.0046389601193368,0.0063034361228346,0.006843258626759
1770454138967,-0.1488494873046875,-0.9712982177734376,0.107940673828125,-0.0034613104071468,0.0083026709035038,0.0034269557800143
1770454138978,-0.1578369140625,-0.9771575927734376,0.1046905517578125,0.0027188211679458,0.0093471631407737,-0.0026285399217158
1770454138987,-0.158447265625,-0.9788665771484376,0.1041107177734375,0.0100912498310208,0.0081386202946305,-0.0031334753148257
1770454138997,-0.15374755859375,-0.975830078125,0.101959228515625,0.0136550916358828,0.012784237973392,-0.0057990332134068
1770454139007,-0.154083251953125,-0.9694976806640624,0.1015472412109375,0.020182766020298,0.0122124580666422,-0.0111197624355554
1770454139017,-0.15850830078125,-0.969207763671875,0.102081298828125,0.026640398427844,0.0021821942646056,-0.0162729788571596
1770454139027,-0.1621551513671875,-0.967987060546875,0.101715087890625,0.0282167233526706,-0.0068318070843815,-0.0150226252153515
1770454139037,-0.159515380859375,-0.9655914306640624,0.103973388671875,0.0228912010788917,-0.0064477794803678,-0.0140734743326902
1770454139048,-0.1591949462890625,-0.96954345703125,0.106781005859375,0.0153709668666124,-0.0040147150866687,-0.011274492368102
1770454139058,-0.1570587158203125,-0.9775238037109376,0.1081085205078125,0.0051367050036787,-0.0003930825623683,-0.0112699652090668
1770454139068,-0.1542205810546875,-0.9849090576171876,0.1089630126953125,-0.0051806471310555,-0.0006711165769957,-0.007889880798757
1770454139078,-0.151092529296875,-0.9906005859375,0.10589599609375,-0.014027401804924,-0.001177383470349,-0.0044157872907817
1770454139088,-0.1500091552734375,-0.9925384521484376,0.1029052734375,-0.014217285439372,-0.0067513794638216,-0.0007651261985301
1770454139098,-0.1514129638671875,-0.9956207275390624,0.101715087890625,-0.0139488391578197,-0.0110257528722286,0.0035310853272676
1770454139108,-0.1517181396484375,-0.9897003173828124,0.1039886474609375,-0.0133008919656276,-0.0087490165606141,0.0037324202712625
1770454139118,-0.1521759033203125,-0.9891510009765624,0.1069488525390625,-0.0148601727560162,-0.009532518684864,0.0045817024074494
1770454139128,-0.1523284912109375,-0.9901580810546876,0.1088409423828125,-0.0182676874101161,-0.0064166202209889,0.0090598072856664
1770454139138,-0.1524810791015625,-0.9842681884765624,0.106903076171875,-0.0188493207097053,-0.0014178669080138,0.0058815912343561
1770454139148,-0.1513671875,-0.981658935546875,0.10626220703125,-0.0173763278871774,0.001334510045126,0.0047476170584559
1770454139158,-0.14910888671875,-0.97991943359375,0.103790283203125,-0.0138817271217703,0.0049532135017216,0.0058477688580751
1770454139168,-0.150787353515625,-0.976776123046875,0.105926513671875,-0.0136891808360815,0.0072917351499199,0.0076744314283132
1770454139178,-0.1526336669921875,-0.97674560546875,0.103790283203125,-0.0101743405684828,0.0076816217042505,0.0091761881485581
1770454139188,-0.15191650390625,-0.9761505126953124,0.101837158203125,-0.0103543698787689,0.0104947192594408,0.0128750521689653
1770454139198,-0.15228271484375,-0.97540283203125,0.1026611328125,-0.0060357884503901,0.0162807032465934,0.0128159299492836
1770454139208,-0.157470703125,-0.979278564453125,0.1033477783203125,-0.0051462925039231,0.0204117987304925,0.0082640554755926
1770454139218,-0.1590728759765625,-0.9854583740234376,0.096527099609375,-0.0014610101934522,0.0255554281175136,0.0015329155139625
1770454139228,-0.1582489013671875,-0.991546630859375,0.09423828125,0.0030810111202299,0.0141323301941156,-0.002037584548816
1770454139238,-0.1566314697265625,-0.9927825927734376,0.0946044921875,0.0034232272300869,0.005314071662724,0.00126899627503
1770454139248,-0.15386962890625,-0.9857025146484376,0.096893310546875,0.0011124024167656,0.0070451265200972,0.0066267438232898
1770454139258,-0.1525421142578125,-0.9821319580078124,0.1005096435546875,0.0006207828409969,0.0037159086205065,0.0105032408609986
1770454139268,-0.149871826171875,-0.9825286865234376,0.1048583984375,0.0011837751371785,0.0039950078353285,0.0109898000955581
1770454139279,-0.15216064453125,-0.977325439453125,0.1077423095703125,0.0013965616235509,0.0040594562888145,0.0103458482772111
1770454139289,-0.1548004150390625,-0.9758453369140624,0.1048126220703125,0.0046570696868002,0.0024141555186361,0.0053300503641366
1770454139299,-0.1584320068359375,-0.97314453125,0.1022796630859375,0.0063804010860621,0.0024663533549755,0.0046711843460798
1770454139309,-0.1557769775390625,-0.973297119140625,0.105133056640625,0.0022319953422993,0.007006776984781,0.0074643078260123
1770454139319,-0.1525726318359375,-0.9806060791015624,0.10693359375,-0.0012293151812627,0.0162817686796188,0.0060088904574513
1770454139329,-0.1541900634765625,-0.984100341796875,0.1022796630859375,-0.0008607336785644,0.0209199283272027,0.0058182082138955
1770454139339,-0.1563720703125,-0.983551025390625,0.0968475341796875,0.004104730207473,0.010774084366858,0.004302336834371
1770454139349,-0.1559295654296875,-0.9797821044921876,0.0948944091796875,0.0091026844456791,0.00595109956339,0.0025337315164506
1770454139359,-0.157501220703125,-0.973876953125,0.10052490234375,0.0084416875615715,0.0049034119583666,0.0028003137558698
1770454139369,-0.15997314453125,-0.9793853759765624,0.103363037109375,0.0085719162598252,0.0029627666808664,-0.000810399884358
1770454139379,-0.158233642578125,-0.9804534912109376,0.105865478515625,0.0094321174547076,0.0014868428697809,0.0016000272007659
1770454139389,-0.1539306640625,-0.9779205322265624,0.1068115234375,0.0131325796246528,0.0021739383228123,0.0012072109384462
1770454139399,-0.15478515625,-0.978271484375,0.104736328125,0.0144899934530258,0.0028269453905522,0.0034304177388548
1770454139409,-0.1568450927734375,-0.97894287109375,0.1056060791015625,0.0179148185998201,-0.0016133430181071,0.0021057615522295
1770454139419,-0.1573638916015625,-0.980224609375,0.1092681884765625,0.0185862015932798,-0.0020983046852052,-0.0004482100193854
1770454139429,-0.155853271484375,-0.9807891845703124,0.10986328125,0.0172402393072843,0.001390436431393,0.0015720640076324
1770454139439,-0.155792236328125,-0.98095703125,0.1103973388671875,0.0120305642485618,0.0009571401169523,0.003842675127089
1770454139449,-0.1530303955078125,-0.980255126953125,0.110076904296875,0.0068105016835033,0.001422660658136,0.0041553303599357
1770454139460,-0.153350830078125,-0.9788970947265624,0.108123779296875,0.0055082160979509,0.0055407066829502,0.0031289479229599
1770454139469,-0.1565093994140625,-0.9771270751953124,0.1044921875,0.0063108927570283,0.0021614215802401,0.001816009520553
1770454139480,-0.15606689453125,-0.9749298095703124,0.105804443359375,0.0064467140473425,-0.0022056300658732,-0.0020764668006449
1770454139489,-0.1572265625,-0.977996826171875,0.105987548828125,0.0083295684307813,-0.0036466664168983,-0.0014897723449394
1770454139500,-0.155792236328125,-0.9824371337890624,0.1051025390625,0.0081191789358854,-0.0039001994300633,-0.0011361044598743
1770454139509,-0.1559295654296875,-0.9785003662109376,0.10546875,0.0064560351893305,-0.003287672298029,-0.0022413162514567
1770454139520,-0.1550445556640625,-0.9759521484375,0.1077117919921875,0.0044301683083176,0.0001004011719487,-0.0011427623685449
1770454139530,-0.157135009765625,-0.9754486083984376,0.1116485595703125,0.0011310444679111,0.0026836674660444,-0.0012101404136046
1770454139540,-0.1562957763671875,-0.980712890625,0.111541748046875,-0.0018722022650763,0.0049377670511603,-0.0016117451013997
1770454139550,-0.153717041015625,-0.9796142578125,0.109130859375,-0.0022391858510673,0.0055417716503143,-0.0012476909905672
1770454139560,-0.15399169921875,-0.9813995361328124,0.105804443359375,-0.0015201322967186,0.0017076188232749,0.00149643025361
1770454139570,-0.1544952392578125,-0.985443115234375,0.1052093505859375,-0.0016586167039349,-0.0017616810509935,0.0032471923623234
1770454139580,-0.154083251953125,-0.984344482421875,0.1060333251953125,-0.0040613207966089,0.0027638284955173,0.00408022897318
1770454139590,-0.1558380126953125,-0.9769439697265624,0.104461669921875,-0.0026565031148493,-0.000532632227987,0.0033350766170769
1770454139600,-0.158203125,-0.9697265625,0.1055450439453125,-0.004179298877716,-0.0007912251749075,0.0011715245200321
1770454139610,-0.1592559814453125,-0.97174072265625,0.1057586669921875,-0.0044706487096846,0.0013688647886738,-0.0017124125733971
1770454139620,-0.157806396484375,-0.972259521484375,0.1060028076171875,-0.0024458470288664,-0.0003760383406188,-0.0030008498579263
1770454139630,-0.15826416015625,-0.9817047119140624,0.106414794921875,-0.0054914383217692,-0.005133509170264,-0.0028181569650769
1770454139640,-0.1545867919921875,-0.9904022216796876,0.106475830078125,-0.0035007251426577,-0.0042155175469815,-0.0015241270884871
1770454139650,-0.1506805419921875,-0.9922332763671876,0.1080322265625,-0.0028277444653213,-0.0019363843603059,0.0007874967413954
1770454139660,-0.1519317626953125,-0.994537353515625,0.1089935302734375,-0.0015544871566817,0.0070472569204866,-0.0006223807577043
1770454139670,-0.151153564453125,-0.96783447265625,0.1107330322265625,-0.0011888351291418,0.0064893243834376,-0.0039017973467707
1770454139680,-0.1587371826171875,-0.967987060546875,0.1113739013671875,0.0046389601193368,0.0048751826398074,-0.0085167894139885
1770454139691,-0.1616363525390625,-0.9759979248046876,0.10809326171875,0.0107346698641777,0.0060943779535591,-0.0103120263665914
1770454139701,-0.1560821533203125,-0.97607421875,0.10723876953125,0.0127075389027595,0.0092928344383835,-0.0107407951727509
1770454139711,-0.1545562744140625,-0.9743194580078124,0.104949951171875,0.016563531011343,0.007521831896156,-0.0114244287833571
1770454139721,-0.15692138671875,-0.966156005859375,0.1019287109375,0.0263245478272438,0.0001177117228507,-0.0149059789255261
1770454139731,-0.16064453125,-0.9667816162109376,0.1043548583984375,0.0291557554155588,-0.0086028091609478,-0.0191047191619873
1770454139741,-0.1605224609375,-0.9708099365234376,0.110565185546875,0.0241732466965913,-0.0135192712768912,-0.0196136478334665
1770454139751,-0.1562652587890625,-0.9768524169921876,0.1151123046875,0.0157547276467084,-0.0094757936894893,-0.0166567414999008
1770454139761,-0.15362548828125,-0.9857177734375,0.11468505859375,0.0039215045981109,-0.0039081890136003,-0.012598349712789
1770454139771,-0.1539154052734375,-0.9885101318359376,0.1126556396484375,-0.0050027482211589,-0.0046666571870446,-0.0111256213858723
1770454139781,-0.15252685546875,-0.989227294921875,0.110748291015625,-0.0155978677794337,-0.0017763284267857,-0.0034192325547337
1770454139791,-0.149993896484375,-0.9880218505859376,0.111083984375,-0.0267991237342357,0.0058134142309427,0.0044488105922937
1770454139801,-0.1501312255859375,-0.9877166748046876,0.1080169677734375,-0.0279554687440395,0.0052320463582873,0.0065215486101806
1770454139811,-0.153656005859375,-0.9866790771484376,0.105560302734375,-0.0291320532560348,0.0070129018276929,0.0059542953968048
1770454139821,-0.1571502685546875,-0.9834136962890624,0.107666015625,-0.0244893636554479,0.0044360272586345,0.002470081904903
1770454139831,-0.157989501953125,-0.9824066162109376,0.104522705078125,-0.0185406617820262,-0.0004713795206043,0.0006364954751916
1770454139841,-0.15679931640625,-0.981292724609375,0.10498046875,-0.0127424271777272,-0.0021813951898366,-0.0009672601008787
1770454139851,-0.15386962890625,-0.980499267578125,0.1061553955078125,-0.0044099283404648,-0.0046075349673628,-0.0017188041238114
1770454139861,-0.1533050537109375,-0.9825897216796876,0.1053924560546875,0.0005723133217543,-0.005364139098674,-0.0002266350056743
1770454139871,-0.15191650390625,-0.98095703125,0.105255126953125,0.0065247444435954,-0.0040898164734244,-0.0008111988427117
1770454139881,-0.150909423828125,-0.9791107177734376,0.1059417724609375,0.0098225371912121,-0.0048826392740011,-0.0027624969370663
1770454139891,-0.1531982421875,-0.9782867431640624,0.1073455810546875,0.016121445223689,-0.0035555863287299,-0.002682602033019
1770454139901,-0.154632568359375,-0.9760589599609376,0.1064453125,0.0158644504845142,-0.0008516788948327,-0.0027198863681405
1770454139912,-0.155181884765625,-0.97900390625,0.105194091796875,0.0201635919511318,-0.0001115864506573,-0.0019244002178311
1770454139922,-0.1551361083984375,-0.98211669921875,0.104034423828125,0.0206368342041969,0.0012519520241767,-0.0036413401830941
1770454139932,-0.1551513671875,-0.981536865234375,0.1058502197265625,0.0184317380189895,0.0037681066896766,-0.009288040921092
1770454139942,-0.1550750732421875,-0.9852142333984376,0.11016845703125,0.0153461992740631,5.4328484111465514e-05,-0.006140983197838
1770454139952,-0.151702880859375,-0.98785400390625,0.11126708984375,0.0063761402852833,0.0035116442013531,-0.0024770060554146
1770454139962,-0.15142822265625,-0.9819793701171876,0.1121063232421875,-0.0008202536264434,0.0086648603901267,0.0009992180857807
1770454139972,-0.1530303955078125,-0.975982666015625,0.1129302978515625,-0.0017070862231776,0.009991381317377,6.231796578504145e-05
1770454139982,-0.153564453125,-0.97503662109375,0.1138153076171875,-0.0015065502375364,0.0048043425194919,-0.0028178908396512
1770454139992,-0.1538848876953125,-0.97882080078125,0.111236572265625,-0.0025542378425598,0.0027419906109571,-0.0006562029011547
1770454140002,-0.1523590087890625,-0.9776763916015624,0.111663818359375,-0.0029494508635252,0.0045833000913262,-0.0021997711155563
1770454140012,-0.1505889892578125,-0.975799560546875,0.1117401123046875,-0.0039587887004017,0.0079367524012923,-0.0006263754912652
1770454140022,-0.1547698974609375,-0.9758453369140624,0.1073150634765625,-0.0039907470345497,0.005771336145699,-0.005634716246277
1770454140032,-0.158203125,-0.9776153564453124,0.1056060791015625,-0.0042173820547759,-0.0012447615154087,-0.0062459115870296
1770454140042,-0.1578826904296875,-0.9809112548828124,0.10693359375,-0.0016532903537154,-0.0014676681021228,-0.0080222403630614
1770454140052,-0.1535186767578125,-0.986602783203125,0.10894775390625,-0.0074515244923532,0.0031017838045954,-0.0027342673856765
1770454140062,-0.148895263671875,-0.9859466552734376,0.1110687255859375,-0.0096952375024557,0.0062810652889311,-0.0007765777409076
1770454140072,-0.1501617431640625,-0.9802398681640624,0.11138916015625,-0.0100065609440207,0.0104606300592422,-0.001580053474754
1770454140082,-0.1540069580078125,-0.9779052734375,0.1082916259765625,-0.0062179486267268,0.0054560182616114,-0.0033760892692953
1770454140092,-0.15850830078125,-0.9768218994140624,0.1086578369140625,0.0007331682136282,0.0004761732125189,-0.0025047028902918
1770454140102,-0.1583251953125,-0.9778289794921876,0.10858154296875,0.006083458662033,-0.0008697884040884,-0.0028083033394068
1770454140113,-0.1554412841796875,-0.9786376953125,0.109375,0.0088310418650507,-0.0006162554491311,-0.0004348942020442
1770454140122,-0.1537322998046875,-0.977996826171875,0.110443115234375,0.0116936741396784,-0.0002197107824031,-0.0005970807396806
1770454140132,-0.154693603515625,-0.977081298828125,0.1110076904296875,0.0097157442942261,0.0033585124183446,0.0001262338337255
1770454140143,-0.15460205078125,-0.979217529296875,0.1108856201171875,0.0117298932746052,0.005560946650803,-0.0014098774408921
1770454140153,-0.1534271240234375,-0.9779052734375,0.1101226806640625,0.0107945911586284,0.0048301750794053,0.0005962817813269
1770454140163,-0.1530609130859375,-0.9779205322265624,0.1118621826171875,0.011272894218564,0.0048261806368827,0.0007938882918097
1770454140173,-0.15362548828125,-0.97705078125,0.11181640625,0.0087271789088845,0.0016905746888369,-0.0014924354618415
1770454140183,-0.1546783447265625,-0.97747802734375,0.1125335693359375,0.0071311462670564,0.0028421254828572,-0.0036024579312652
1770454140193,-0.1556854248046875,-0.9783935546875,0.112060546875,0.005543103441596,0.0028360001742839,-0.0023294670972973
1770454140203,-0.156280517578125,-0.9798431396484376,0.1106414794921875,0.004431233741343,-0.0012543488992378,-0.0040277647785842
1770454140213,-0.156097412109375,-0.981109619140625,0.11163330078125,0.0020791299175471,-0.0016056197928264,-0.0024301344528794
1770454140223,-0.1530914306640625,-0.9804534912109376,0.114837646484375,-0.0013970943400636,0.0001938781206263,-0.0025068335235118
1770454140233,-0.15240478515625,-0.9799652099609376,0.1174163818359375,-0.0062999739311635,0.0021891184151172,-0.0021454426459968
1770454140243,-0.153350830078125,-0.9784698486328124,0.116363525390625,-0.0081937480717897,0.0039502666331827,-0.0010934938909485
1770454140253,-0.1544036865234375,-0.976165771484375,0.1140594482421875,-0.0119788981974124,0.0019004317000508,-0.0022509037517011
1770454140263,-0.1551513671875,-0.9761505126953124,0.1114501953125,-0.0143272737041115,0.0006325007416307,-0.0018463695887476
1770454140273,-0.15289306640625,-0.9788665771484376,0.11181640625,-0.0150487245991826,0.003647731617093,0.0005094627267681
1770454140283,-0.1534881591796875,-0.9797515869140624,0.11212158203125,-0.0158878862857818,0.0027491811197251,0.0004721784498542
1770454140293,-0.15325927734375,-0.9841156005859376,0.10894775390625,-0.014977085404098,0.0037225666455924,0.0012136024888604
1770454140303,-0.15185546875,-0.9852294921875,0.10894775390625,-0.0168269164860248,0.0062339273281395,0.0017536915838718
1770454140313,-0.1534881591796875,-0.9810028076171876,0.1079254150390625,-0.0132894404232501,0.0071095749735832,0.0012359730899333
1770454140323,-0.1539459228515625,-0.9746246337890624,0.10845947265625,-0.0111075118184089,0.0038392129354178,-0.0010772485984489
1770454140333,-0.157257080078125,-0.9716033935546876,0.1088714599609375,-0.0096608828753232,0.0026351979468017,-0.0021595573052763
1770454140343,-0.1571044921875,-0.97344970703125,0.1093902587890625,-0.0061100902967154,0.0035601137205958,-0.0033981935121119
1770454140353,-0.1562957763671875,-0.9731597900390624,0.10772705078125,-0.0010050770360976,-0.0015544871566817,-0.004048803821206
1770454140364,-0.1552886962890625,-0.9841461181640624,0.1051788330078125,0.0031680963002145,-0.0044059338979423,-0.0066251456737518
1770454140374,-0.1512908935546875,-0.995208740234375,0.1045684814453125,0.0076552564278244,-0.0053849117830395,-0.001612277701497
1770454140384,-0.147308349609375,-0.991607666015625,0.105224609375,0.0085000116378068,0.0040570595301687,0.0020008329302072
1770454140394,-0.14886474609375,-0.98260498046875,0.110504150390625,0.0084153227508068,0.0127235185354948,-0.0036421390250325
1770454140404,-0.154449462890625,-0.9643707275390624,0.113983154296875,0.0120958108454942,0.0098877847194671,-0.0082928175106644
1770454140414,-0.1581573486328125,-0.970977783203125,0.1144256591796875,0.0162119921296834,0.0078941415995359,-0.0095871137455105
1770454140424,-0.1580352783203125,-0.9781951904296876,0.11151123046875,0.0193784907460212,0.0066195530816912,-0.0118396151810884
1770454140434,-0.1532440185546875,-0.978424072265625,0.1104736328125,0.0219660196453332,0.0064805359579622,-0.0117325559258461
1770454140444,-0.152252197265625,-0.9734039306640624,0.1078033447265625,0.0274404119700193,0.0029430591966956,-0.0178184118121862
1770454140454,-0.1556243896484375,-0.9655303955078124,0.1079864501953125,0.0320301055908203,-0.001839711680077,-0.0196322910487651
1770454140464,-0.1572113037109375,-0.9677276611328124,0.1114044189453125,0.0293981023132801,-0.006574279628694,-0.0208160653710365
1770454140474,-0.15625,-0.969482421875,0.117706298828125,0.0221726801246404,-0.0089370356872677,-0.0217721406370401
1770454140484,-0.1539459228515625,-0.975494384765625,0.122314453125,0.0109354723244905,-0.0052610747516155,-0.0158428791910409
1770454140494,-0.1512451171875,-0.9822540283203124,0.124053955078125,-0.0044773062691092,0.0027832696214318,-0.0117647806182503
1770454140504,-0.149017333984375,-0.9862518310546876,0.123291015625,-0.0179789997637271,0.0045374939218163,-0.0058965049684047
1770454140514,-0.1492462158203125,-0.9892730712890624,0.11737060546875,-0.0281994137912988,0.0054517569951713,9.82706405920908e-05
1770454140524,-0.149810791015625,-0.9891815185546876,0.1121368408203125,-0.0354703776538372,0.0023688818328082,0.0022178804501891
1770454140534,-0.1486968994140625,-0.9898223876953124,0.1119384765625,-0.0369178056716918,-0.0008282430935651,0.0074685690924525
1770454140545,-0.15234375,-0.9891204833984376,0.111480712890625,-0.0350280255079269,-0.0029478529468178,0.006564958486706
1770454140554,-0.1542816162109375,-0.9866943359375,0.11083984375,-0.0326700620353221,-0.0034871431998908,0.0064808023162186
1770454140565,-0.1538543701171875,-0.982330322265625,0.1133270263671875,-0.0319014750421047,-0.0042932820506393,0.0056030247360467
1770454140575,-0.1527252197265625,-0.98248291015625,0.113677978515625,-0.0291847828775644,-0.0008966863388195,0.0007065366371534
1770454140585,-0.1514434814453125,-0.9816131591796876,0.111541748046875,-0.0266822110861539,0.0008479504613205,0.0019896477460861
1770454140595,-0.149139404296875,-0.9791717529296876,0.10968017578125,-0.0209324453026056,-1.4114753867033867e-05,0.0027044401504099
1770454140605,-0.1499176025390625,-0.9782562255859376,0.107208251953125,-0.0130681311711668,0.003810450900346,0.0013472931459546
1770454140615,-0.1504364013671875,-0.97796630859375,0.105133056640625,-0.0046975496225059,0.0016644756542518,0.0003001382574439
1770454140625,-0.152252197265625,-0.9779510498046876,0.10504150390625,0.0011017497163265,0.0006287723081186,0.0002822950773406
1770454140635,-0.15325927734375,-0.97808837890625,0.1067962646484375,0.0048743835650384,0.0020980383269488,3.808320252574049e-05
1770454140645,-0.15179443359375,-0.981658935546875,0.108001708984375,0.0073955981060862,0.0014245248166844,-0.002190982690081
1770454140655,-0.154327392578125,-0.9840850830078124,0.107177734375,0.011323494836688,-0.0016096145845949,-0.0046381615102291
1770454140665,-0.1547698974609375,-0.98272705078125,0.106719970703125,0.0117464046925306,0.0025992451701313,-0.0044352286495268
1770454140675,-0.1545257568359375,-0.9810943603515624,0.10772705078125,0.0085500786080956,0.0034535871818661,-0.0039470707997679
1770454140685,-0.1521759033203125,-0.986236572265625,0.1086273193359375,0.0061444453895092,0.0005872269975952,-0.0008053398923948
1770454140695,-0.15234375,-0.9809112548828124,0.1087646484375,0.0018245317041873,0.0045207161456346,0.0034317492973059
1770454140705,-0.1527252197265625,-0.97235107421875,0.111724853515625,0.00094142742455,0.0096672745421528,0.0004796353168785
1770454140715,-0.1514739990234375,-0.9751434326171876,0.1143798828125,0.0024003069847822,0.0043622576631605,-0.0016961672808974
1770454140725,-0.1514434814453125,-0.980133056640625,0.1114501953125,0.0047191213816404,0.0017326525412499,-0.0020285297650843
1770454140735,-0.1505126953125,-0.976715087890625,0.1117706298828125,0.0041143177077174,0.0018101505702361,-0.0004860268963966
1770454140745,-0.1518402099609375,-0.9752655029296876,0.10968017578125,0.0058957058936357,0.0032879386562854,-0.0040922132320702
1770454140755,-0.1534271240234375,-0.9785308837890624,0.1099395751953125,0.0049662627279758,0.0018682074733078,-0.0058541605249047
1770454140765,-0.15478515625,-0.9791412353515624,0.1129150390625,0.0031569111160933,0.0034946000669151,-0.0074235615320503
1770454140776,-0.15283203125,-0.9824371337890624,0.1134796142578125,0.002306830137968,0.0059902481734752,-0.0042485408484935
1770454140786,-0.1514434814453125,-0.987213134765625,0.1128387451171875,-0.001046355930157,0.0032589102629572,-0.0023363912478089
1770454140796,-0.1494140625,-0.9874114990234376,0.1131439208984375,-0.0046791741624474,0.006344448775053,1.4114753867033867e-05
1770454140806,-0.1491851806640625,-0.98077392578125,0.1134185791015625,-0.005911951418966,0.0105011099949479,0.0012287824647501
1770454140816,-0.1537017822265625,-0.9794158935546876,0.112518310546875,-0.005142830312252,0.0099687445908784,0.0016956346808001
1770454140826,-0.154449462890625,-0.977569580078125,0.111541748046875,-0.000597613339778,0.0081652514636516,0.0018612833227962
1770454140836,-0.1535186767578125,-0.9776458740234376,0.112762451171875,0.0020793962758034,0.0030983216129243,0.0017457021167501
1770454140846,-0.153045654296875,-0.977935791015625,0.1142425537109375,0.0043148533441126,0.0026282735634595,0.0013627394801005
1770454140856,-0.153564453125,-0.9775390625,0.112396240234375,0.0062560318037867,0.0036133769899606,0.0004980111261829
1770454140866,-0.1557159423828125,-0.97613525390625,0.1119537353515625,0.0028226843569427,0.0092632733285427,0.0009291769238188
1770454140876,-0.1519927978515625,-0.976318359375,0.1126556396484375,0.006730340886861,0.0012804478174075,-0.0011603393359109
1770454140886,-0.1514434814453125,-0.9806671142578124,0.1090850830078125,0.0091064125299453,-0.0016261261189356,-0.0016074840677902
1770454140896,-0.1526031494140625,-0.979095458984375,0.111236572265625,0.0076648439280688,0.0037510623224079,-0.001765942084603
1770454140906,-0.15283203125,-0.979095458984375,0.1136627197265625,0.0061305966228246,-6.285060226218775e-05,-0.0003296993381809
1770454140916,-0.15118408203125,-0.978546142578125,0.1119232177734375,0.0073085129261016,-0.0033617082517594,-0.0013150689192116
1770454140926,-0.1537322998046875,-0.9798126220703124,0.1124725341796875,0.0048738508485257,0.0003451456723269,-0.003810450900346
1770454140936,-0.155731201171875,-0.9771881103515624,0.1141357421875,0.0016088156262412,-0.0027848675381392,-0.0024658208712935
1770454140946,-0.1534881591796875,-0.9788665771484376,0.1161041259765625,-0.0001185106666525,-0.0046458845026791,-0.0042301649227738
1770454140957,-0.1519927978515625,-0.9825439453125,0.1178436279296875,-0.0031864722259342,-0.0011281149927526,-0.0014133396325632
1770454140966,-0.1489105224609375,-0.9839324951171876,0.11834716796875,-0.0078147798776626,0.0027798074297606,0.000191481274669
1770454140976,-0.1483917236328125,-0.9816436767578124,0.1175079345703125,-0.008529040031135,0.0065002436749637,-0.001962483394891
1770454140986,-0.1511077880859375,-0.9799652099609376,0.1142730712890625,-0.0110467923805117,0.0053324475884437,0.0005478122038766
1770454140997,-0.15301513671875,-0.9780120849609376,0.11260986328125,-0.0090574109926819,0.0019116170005872,-0.0001712412631604
1770454141006,-0.1533050537109375,-0.9749755859375,0.1131744384765625,-0.0089221224188804,0.0024903218727558,0.002649046247825
1770454141017,-0.1519317626953125,-0.9737396240234376,0.1120758056640625,-0.0121408188715577,0.0081439465284347,0.0029547770973294
1770454141027,-0.1504058837890625,-0.976287841796875,0.1116485595703125,-0.0099096223711967,0.0087996171787381,0.0007062703371047
1770454141037,-0.15435791015625,-0.97906494140625,0.111236572265625,-0.0058805258013308,0.0049337721429765,-0.0014564828015863
1770454141047,-0.1561737060546875,-0.983001708984375,0.1106414794921875,-0.0045518749393522,-0.000810399884358,-0.0032852755393832
1770454141057,-0.1537017822265625,-0.98370361328125,0.1092681884765625,-0.0034416031558066,0.0042762379162013,-0.0027212179265916
1770454141067,-0.1515960693359375,-0.977996826171875,0.1100921630859375,-0.0006681871018372,0.0043934169225394,-4.900216299574822e-05
1770454141077,-0.1533966064453125,-0.97528076171875,0.1123504638671875,-0.0004961469094268,-9.028115891851483e-05,-0.0025118936318904
1770454141087,-0.155303955078125,-0.9760894775390624,0.1136016845703125,0.0020471718162298,-0.0037569212727248,-0.0033188313245773
1770454141097,-0.1542205810546875,-0.971466064453125,0.1129302978515625,0.0025257419329136,-0.0047217844985425,-0.004177700728178
1770454141107,-0.15289306640625,-0.9786376953125,0.11273193359375,0.0033545177429914,-0.0026993800420314,-0.0062997075729072
1770454141117,-0.1498565673828125,-0.990631103515625,0.1112213134765625,0.0010671286145225,-0.0013113404856994,-0.0023510386236011
1770454141127,-0.14495849609375,-0.9978790283203124,0.112396240234375,-0.0011307782260701,-0.0013422331539914,0.0026013758033514
1770454141137,-0.14263916015625,-0.9893798828125,0.1153717041015625,-0.0046581351198256,0.0020977719686925,0.0067833373323082
1770454141147,-0.1490936279296875,-0.98272705078125,0.113555908203125,-0.0028501150663942,0.0099242692813277,0.0022066952660679
1770454141157,-0.155487060546875,-0.966156005859375,0.115203857421875,0.0015395734226331,0.0043518715538084,-0.003654389642179
1770454141167,-0.1558990478515625,-0.9677886962890624,0.117218017578125,0.0056767943315207,-0.0028714202344417,-0.0073564499616622
1770454141177,-0.15338134765625,-0.9769744873046876,0.11572265625,0.0049188584089279,0.006697317585349,-0.0051239216700196
1770454141187,-0.1510772705078125,-0.9798126220703124,0.1131134033203125,0.0035204326268285,0.0134598826989531,-0.005142830312252
1770454141197,-0.1526641845703125,-0.9804840087890624,0.1101226806640625,0.005355617031455,0.0142130246385931,-0.0070832096971571
1770454141208,-0.1556549072265625,-0.970367431640625,0.1101226806640625,0.0120745059102773,0.0093980291858315,-0.0114111127331852
1770454141218,-0.1559295654296875,-0.97003173828125,0.1139984130859375,0.0161414183676242,-0.0017707358347252,-0.0129695944488048
1770454141228,-0.1555328369140625,-0.9712677001953124,0.1168365478515625,0.014447116293013,-0.0029087045695632,-0.0150798829272389
1770454141238,-0.1537628173828125,-0.971588134765625,0.1197967529296875,0.0084741786122322,-0.0018128136871382,-0.0132329808548092
1770454141248,-0.1533355712890625,-0.976593017578125,0.1193084716796875,-0.001578721916303,0.0007344998302869,-0.0119706429541111
1770454141258,-0.152252197265625,-0.9854278564453124,0.1172027587890625,-0.011782357469201,0.0005829659639857,-0.009261941537261
1770454141268,-0.149810791015625,-0.98663330078125,0.1159820556640625,-0.0198373533785343,0.0027848675381392,-0.0056605488061904
1770454141278,-0.148895263671875,-0.9870452880859376,0.1138763427734375,-0.0276500042527914,0.0037601171061396,-0.0002953445655293
1770454141288,-0.147552490234375,-0.9889678955078124,0.1121673583984375,-0.0296766683459281,0.0034213629551231,0.0056861150078475
1770454141298,-0.15057373046875,-0.9888916015625,0.1107940673828125,-0.0273445397615432,0.004023237619549,0.0075460667721927
1770454141308,-0.1539459228515625,-0.984375,0.1085968017578125,-0.0222057029604911,0.0011843077372759,0.0057244645431637
1770454141318,-0.155548095703125,-0.9831085205078124,0.1092681884765625,-0.0142862610518932,0.0004210457555018,0.0046613309532403
1770454141328,-0.1548919677734375,-0.985809326171875,0.1094970703125,-0.0071135694161057,-0.0054411045275628,0.0047478834167122
1770454141338,-0.1492919921875,-0.982147216796875,0.11181640625,-0.0003408846096135,-0.0061058294959366,0.0010048106778413
1770454141348,-0.1483917236328125,-0.9792327880859376,0.1129302978515625,0.004203266929835,-0.0040543964132666,0.0004681837162934
1770454141358,-0.14825439453125,-0.9787139892578124,0.11138916015625,0.0069199576973915,-0.0004791026876773,0.00027563716867
1770454141368,-0.1492919921875,-0.977813720703125,0.1100006103515625,0.0119970077648758,-0.0010191916953772,0.0007499461644329
1770454141378,-0.1513519287109375,-0.97576904296875,0.110595703125,0.0165888294577598,0.0002247707889182,-0.0026631611399352
1770454141388,-0.152435302734375,-0.9747161865234376,0.1117706298828125,0.0185899287462234,0.0012130698887631,-0.0004854942671954
1770454141398,-0.15234375,-0.9767303466796876,0.11419677734375,0.0193129777908325,-0.0004037352045997,-0.0021326593123376
1770454141408,-0.1537017822265625,-0.97943115234375,0.1124725341796875,0.0243018772453069,-0.0066011771559715,-0.0036437369417399
1770454141418,-0.152496337890625,-0.9827117919921876,0.1132965087890625,0.0203582681715488,-0.0035425368696451,-0.0070493873208761
1770454141428,-0.1508636474609375,-0.983978271484375,0.1147308349609375,0.0163542050868272,0.0042858249507844,-0.0065974490717053
1770454141439,-0.14898681640625,-0.9891357421875,0.1166534423828125,0.0069132996723055,0.0037052559200674,-0.0031523837242275
1770454141449,-0.147369384765625,-0.986602783203125,0.119232177734375,0.0006719155353493,0.0061396514065563,0.0010245180455967
1770454141459,-0.1500244140625,-0.9760894775390624,0.1179962158203125,-0.0029353362042456,0.0080384854227304,0.0029137644451111
1770454141469,-0.1524658203125,-0.972686767578125,0.118194580078125,-0.0045393579639494,0.0049478868022561,-0.0011632688110694
1770454141479,-0.154266357421875,-0.97802734375,0.1191864013671875,-0.0058813248760998,-0.0001057274930644,-0.0021046961192041
1770454141489,-0.1507415771484375,-0.979827880859375,0.1181182861328125,-0.0080906832590699,0.0017715347930788,-0.0026186862960457
1770454141499,-0.14776611328125,-0.97564697265625,0.1159515380859375,-0.0074049192480742,0.0033949976786971,-0.0027182884514331
1770454141509,-0.1529541015625,-0.973114013671875,0.1153564453125,-0.0081759048625826,0.0061785336583852,-0.0040610544383525
1770454141519,-0.154327392578125,-0.9731597900390624,0.11395263671875,-0.0075407405383884,0.0033497239928692,-0.0058126151561737
1770454141529,-0.1545562744140625,-0.9783782958984376,0.114166259765625,-0.0091836443170905,0.0039800941012799,-0.0068267472088336
1770454141539,-0.150115966796875,-0.9838104248046876,0.1161346435546875,-0.0121032679453492,0.0037982002831995,-0.0027811392210423
1770454141549,-0.146759033203125,-0.9881591796875,0.1143951416015625,-0.0092334458604455,0.0054525560699403,-0.0018996327416971
1770454141559,-0.14752197265625,-0.98638916015625,0.1131744384765625,-0.0094496943056583,0.0058847870677709,0.0007797735743224
1770454141569,-0.1480560302734375,-0.9817047119140624,0.1143341064453125,-0.0093460977077484,0.0084424866363406,0.0007970841252245
1770454141579,-0.1516876220703125,-0.9786529541015624,0.11285400390625,-0.0057969028130173,0.0052192630246281,0.0009563411585986
1770454141589,-0.1555328369140625,-0.9791412353515624,0.1142730712890625,-0.002175802597776,0.0031033814884722,-0.0012583435745909
1770454141599,-0.1561279296875,-0.9779510498046876,0.11480712890625,0.0018959043081849,0.0018783274572342,0.0015086807543411
1770454141609,-0.1521148681640625,-0.9766082763671876,0.11358642578125,0.0061223409138619,0.002591788303107,-0.0005752427969127
1770454141619,-0.1542510986328125,-0.97674560546875,0.114898681640625,0.0061226072721183,0.0012918994762003,0.0009174589649774
1770454141629,-0.1519622802734375,-0.9791412353515624,0.1146392822265625,0.0118537303060293,0.0054911719635128,-0.0018519621808081
1770454141639,-0.1509552001953125,-0.9807586669921876,0.1120147705078125,0.0137725379317998,0.0021979068405926,-0.0033451966010034
1770454141650,-0.1514739990234375,-0.9793243408203124,0.112152099609375,0.0150101082399487,-0.0006777744856663,-0.0003896204580087
1770454141660,-0.15106201171875,-0.978668212890625,0.1129608154296875,0.0145829375833272,0.0004751079250127,0.000431165768532
1770454141670,-0.150665283203125,-0.9808807373046876,0.115997314453125,0.0099152149632573,0.0020074907224625,-0.0004324973560869
1770454141680,-0.1495513916015625,-0.98052978515625,0.119110107421875,0.0061329938471317,0.0021973741240799,0.0012937636347487
1770454141690,-0.149169921875,-0.9794921875,0.12158203125,-0.000386158353649,0.0049196574836969,-0.0021667478140443
1770454141700,-0.1506500244140625,-0.9798126220703124,0.1199493408203125,-0.0023057649377733,0.0050373692065477,-0.0015009575290605
1770454141710,-0.1546173095703125,-0.982879638671875,0.1163177490234375,-0.0014988270122557,0.0014298511669039,-0.0055143414065241
1770454141720,-0.152557373046875,-0.979705810546875,0.115203857421875,-0.0019494339358061,0.0001360875321552,-0.0022287995088845
1770454141730,-0.150634765625,-0.978668212890625,0.1170196533203125,-0.0045353635214269,0.0016231966437771,-0.0013337110867723
1770454141740,-0.15008544921875,-0.97833251953125,0.11956787109375,-0.0071207601577043,0.0041414815932512,0.000843689427711
1770454141750,-0.147918701171875,-0.9770050048828124,0.1211090087890625,-0.0088374335318803,0.005902630276978,0.0015654060989618
1770454141760,-0.1518707275390625,-0.9766387939453124,0.119232177734375,-0.0105253448709845,0.005494900047779,0.0010532801970839
1770454141770,-0.1528778076171875,-0.9773406982421876,0.117279052734375,-0.01029231864959,0.004325239919126,0.0004865595255978
1770454141780,-0.151031494140625,-0.9758148193359376,0.1152191162109375,-0.0096201365813612,0.00421072402969,-0.0005318332696333
1770454141790,-0.1504364013671875,-0.978851318359375,0.115753173828125,-0.0108390655368566,0.0077466028742492,-0.0017259946325793
1770454141800,-0.149627685546875,-0.984466552734375,0.11602783203125,-0.0093708653002977,0.0072395368479192,-0.0024591628462076
1770454141810,-0.15008544921875,-0.984710693359375,0.1129608154296875,-0.0056871804408729,0.0049241846427321,-0.0033388049341738
1770454141820,-0.15277099609375,-0.9781951904296876,0.11083984375,-0.0020602215081453,0.0048418929800391,-0.0015845808666199
1770454141830,-0.153411865234375,-0.9732818603515624,0.1123199462890625,0.0034993935842067,0.0003107908996753,-0.0024815334472805
1770454141840,-0.1549530029296875,-0.9720916748046876,0.1161041259765625,0.006574279628694,-0.0014024205738678,-0.0038288265932351
1770454141851,-0.15606689453125,-0.9705657958984376,0.11688232421875,0.0084363613277673,-0.0026322684716433,-0.0067191552370786
1770454141861,-0.1551361083984375,-0.977752685546875,0.1161041259765625,0.0087024113163352,-0.0008538094116374,-0.0067913271486759
1770454141870,-0.1511993408203125,-0.9912261962890624,0.117034912109375,0.0038312235847115,0.0025049692485481,-0.0034455978311598
1770454141881,-0.145233154296875,-0.99603271484375,0.1176300048828125,0.0011765845119953,0.0036503949668258,0.0004990763845853
1770454141891,-0.1453094482421875,-0.989837646484375,0.1165313720703125,-0.003678624285385,0.0039547942578792,0.0033752904273569
1770454141901,-0.1517486572265625,-0.982452392578125,0.116668701171875,-0.0031348068732768,0.0097247986122965,0.0012639362830668
1770454141911,-0.1489715576171875,-0.960540771484375,0.1209869384765625,-0.0026578346733003,0.0078296931460499,-0.0024684839881956
1770454141921,-0.1526336669921875,-0.97271728515625,0.12127685546875,-0.0015989618841558,0.0056336508132517,-0.0056965015828609
1770454141931,-0.152099609375,-0.980438232421875,0.1192474365234375,-0.0045012747868895,0.0136127481237053,-0.006335926707834
1770454141941,-0.1472320556640625,-0.97998046875,0.117156982421875,-0.0034794199746102,0.0162143893539905,-0.0051825116388499
1770454141951,-0.1497344970703125,-0.9714508056640624,0.111541748046875,0.0020389161072671,0.0162964146584272,-0.0127107352018356
1770454141961,-0.1548004150390625,-0.965606689453125,0.1106109619140625,0.0122108599171042,0.0054299188777804,-0.0176439750939607
1770454141971,-0.1576995849609375,-0.9707183837890624,0.114471435546875,0.0162016060203313,-0.0041611893102526,-0.0223252791911363
1770454141981,-0.155303955078125,-0.971221923828125,0.1204376220703125,0.0145840030163526,-0.0048189898952841,-0.0207529496401548
1770454141991,-0.15228271484375,-0.9705352783203124,0.123382568359375,0.007088269572705,0.0031031153630465,-0.0187664963304996
1770454142001,-0.15020751953125,-0.9783477783203124,0.1260986328125,-0.0003390203928574,0.0056104813702404,-0.0122777055948972
1770454142011,-0.148681640625,-0.9846954345703124,0.122161865234375,-0.0107983192428946,0.0027699538040906,-0.010661432519555
1770454142021,-0.146026611328125,-0.9864959716796876,0.1191558837890625,-0.0213058218359947,0.0034487936645746,-0.0028549085836857
1770454142031,-0.14361572265625,-0.9861602783203124,0.1162261962890625,-0.028701951727271,0.0039678434841334,0.0008940231637097
1770454142041,-0.1452178955078125,-0.9881744384765624,0.11529541015625,-0.0340083017945289,0.0037934065330773,0.003581419121474
1770454142052,-0.1504669189453125,-0.9878692626953124,0.1136016845703125,-0.0345111042261123,0.0025060346815735,0.0054112770594656
1770454142061,-0.1529693603515625,-0.985748291015625,0.1110076904296875,-0.031056186184287,-0.0034679684322327,0.002453037770465
1770454142071,-0.1531219482421875,-0.9866790771484376,0.1118621826171875,-0.0231748279184103,-0.0062973108142614,-0.0003158508916385
1770454142081,-0.1512603759765625,-0.985137939453125,0.111968994140625,-0.0166977532207965,-0.0076307551935315,-0.0013161342358216
1770454142092,-0.1495513916015625,-0.981475830078125,0.1118011474609375,-0.0103056346997618,-0.007800665218383,-0.0009840379934757
1770454142102,-0.1479339599609375,-0.9807586669921876,0.1105499267578125,-0.0051175304688513,-0.0065476479940116,-0.0012389025650918
1770454142112,-0.1466522216796875,-0.9815521240234376,0.1109771728515625,0.0028439897578209,-0.0053939665667712,-0.0008974852971732
1770454142122,-0.1461944580078125,-0.9796142578125,0.1103668212890625,0.0068805427290499,-0.0024567660875618,0.0004852279380429
1770454142132,-0.14739990234375,-0.979034423828125,0.1133270263671875,0.0103298695757985,0.0008165251929312,0.0005502090789377
1770454142142,-0.1472015380859375,-0.979095458984375,0.1148681640625,0.0142495092004537,0.0051164650358259,0.002044775057584
1770454142152,-0.1488800048828125,-0.9770965576171876,0.113677978515625,0.0197726394981145,0.0026607641484588,0.0010175938950851
1770454142162,-0.15130615234375,-0.978973388671875,0.1119537353515625,0.0223633628338575,-0.0004556668573059,-0.0007544735562987
1770454142172,-0.1514739990234375,-0.9821014404296876,0.11346435546875,0.0229644384235143,0.002919090911746,-0.003049319377169
1770454142182,-0.1523895263671875,-0.984771728515625,0.1150665283203125,0.0183755457401275,0.0030301446095108,-0.004980111028999
1770454142192,-0.1504974365234375,-0.98736572265625,0.118408203125,0.0098020303994417,-0.0017939052777364,-0.0013355752453207
1770454142202,-0.1488494873046875,-0.98065185546875,0.12091064453125,0.0025031049735844,0.00346743571572,-0.0005022721597924
1770454142212,-0.1500701904296875,-0.9712677001953124,0.122406005859375,-0.0057050236500799,0.007095193490386,-0.0002759034978225
1770454142222,-0.151458740234375,-0.9725494384765624,0.1236572265625,-0.0086864326149225,0.0060741379857063,-0.0032418658956885
1770454142232,-0.1504974365234375,-0.976776123046875,0.1223602294921875,-0.0110119050368666,0.0041337586008012,0.000140082265716
1770454142242,-0.1475067138671875,-0.9757537841796876,0.1204376220703125,-0.0091303810477256,0.008076568134129,-0.0016532903537154
1770454142252,-0.150054931640625,-0.9761505126953124,0.1176605224609375,-0.0104252099990844,0.003458913648501,-0.0028362665325403
1770454142262,-0.1509552001953125,-0.97589111328125,0.116607666015625,-0.0090598072856664,-0.0011691277613863,-0.0038634478114545
1770454142272,-0.149566650390625,-0.9778289794921876,0.119781494140625,-0.0122348284348845,0.0015230617718771,-0.0058003650046885
1770454142282,-0.14764404296875,-0.983612060546875,0.12091064453125,-0.015736885368824,0.0027395938523113,-0.0036948695778846
1770454142293,-0.14678955078125,-0.9883880615234376,0.121002197265625,-0.0207079406827688,0.0055300537496805,-0.0006900250446051
1770454142302,-0.1468963623046875,-0.9893951416015624,0.118377685546875,-0.0223276764154434,0.0065050371922552,0.0010591391474008
1770454142313,-0.14996337890625,-0.9832305908203124,0.1156463623046875,-0.0234941411763429,0.0049854377284646,0.0023334617726504
1770454142323,-0.1492462158203125,-0.97772216796875,0.113067626953125,-0.0206586737185716,0.004456799943,0.0034216293133795
1770454142333,-0.15142822265625,-0.976165771484375,0.1131591796875,-0.016726516187191,0.0054147392511367,0.0027041737921535
1770454142343,-0.151336669921875,-0.978485107421875,0.1141204833984375,-0.0127549432218074,0.0030764837283641,0.0049004824832081
1770454142353,-0.1511688232421875,-0.9786224365234376,0.11334228515625,-0.003206712193787,0.0046315034851431,0.0030549119692295
1770454142363,-0.15350341796875,-0.9739990234375,0.1110076904296875,0.0026280074380338,0.000900947372429,-2.7430558475316506e-05
1770454142373,-0.1533203125,-0.974517822265625,0.1131591796875,0.0060706757940351,-0.0023025691043585,-5.379585491027683e-05
1770454142383,-0.1521453857421875,-0.97808837890625,0.1140899658203125,0.0083727119490504,-0.0005877596559002,-0.0009784454014152
1770454142394,-0.1500396728515625,-0.981689453125,0.1145477294921875,0.0091120060533285,3.328951424919069e-05,-0.00059042283101
1770454142403,-0.1460723876953125,-0.98101806640625,0.1168212890625,0.0069071743637323,-0.0006769755273126,-0.001447694376111
1770454142413,-0.1472320556640625,-0.981414794921875,0.1164093017578125,0.0073133064433932,-0.000524376402609,0.0002495381922926
1770454142423,-0.148101806640625,-0.97857666015625,0.114990234375,0.006680273450911,0.0003936151915695,-0.0006404902087524
1770454142433,-0.1491546630859375,-0.97869873046875,0.1153717041015625,0.0069947927258908,0.0001350222592009,-9.82706405920908e-05
1770454142443,-0.1502685546875,-0.979461669921875,0.117095947265625,0.0047398940660059,-0.0003555320145096,-0.0008676578872837
1770454142453,-0.149444580078125,-0.979888916015625,0.1196746826171875,0.0022607573773711,0.0010117349447682,-0.0003635214816313
1770454142463,-0.1500701904296875,-0.982879638671875,0.120574951171875,-0.0011888351291418,-0.001750229508616,-0.0017006946727633
1770454142474,-0.1470947265625,-0.9812469482421876,0.11859130859375,-0.0004591289616655,0.0008623315370641,0.0005179848521947
1770454142483,-0.1483917236328125,-0.979400634765625,0.118377685546875,-0.0032751555554568,0.0033915357198566,0.0014700648607686
1770454142494,-0.149261474609375,-0.9761962890625,0.1202850341796875,-0.0065633603371679,0.0103490436449646,0.0011313108261674
1770454142503,-0.1499176025390625,-0.976470947265625,0.12127685546875,-0.0094180032610893,0.0059084892272949,0.0028764803428202
1770454142514,-0.151641845703125,-0.9788360595703124,0.1214447021484375,-0.0133102126419544,0.0027537085115909,0.001937449676916
1770454142524,-0.1502685546875,-0.978912353515625,0.1200408935546875,-0.0126849021762609,0.0031172300223261,-0.0002687129599507
1770454142534,-0.149383544921875,-0.977691650390625,0.1174163818359375,-0.0110113723203539,0.0004625910660251,-0.0005344964447431
1770454142544,-0.1499176025390625,-0.9772796630859376,0.114105224609375,-0.0098254662007093,-2.370213405811228e-05,-0.0039401468820869
1770454142554,-0.1511993408203125,-0.981475830078125,0.11590576171875,-0.0105344001203775,-0.0017137441318482,-0.0017912421608343
1770454142564,-0.15008544921875,-0.985076904296875,0.1168975830078125,-0.0110518522560596,0.0034248251467943,0.0005241101025603
1770454142574,-0.1491546630859375,-0.9824981689453124,0.1175079345703125,-0.0145112983882427,0.0077191721647977,0.0033105756156146
1770454142584,-0.15155029296875,-0.9775390625,0.1173248291015625,-0.0149142341688275,0.0085117295384407,0.0016780578298494
1770454142594,-0.153656005859375,-0.9728546142578124,0.11749267578125,-0.0132718635722994,0.0016974988393485,0.0007129282457754
1770454142605,-0.1526641845703125,-0.9744415283203124,0.11871337890625,-0.0122169852256774,0.0008322378271259,0.0008282430935651
1770454142614,-0.149993896484375,-0.9796905517578124,0.1145477294921875,-0.0150492573156952,0.0038314899429678,0.001684981980361
1770454142624,-0.146209716796875,-0.989227294921875,0.113677978515625,-0.0142279379069805,0.0042386869899928,0.0020421119406819
1770454142634,-0.1441802978515625,-0.9916534423828124,0.1108245849609375,-0.0122521389275789,0.0025481125339865,0.0071164988912642
1770454142644,-0.1469879150390625,-0.989654541015625,0.110076904296875,-0.007677627261728,0.0113107115030288,0.0064062341116368
1770454142654,-0.150238037109375,-0.9802398681640624,0.11029052734375,0.0013978932984173,0.0074248928576707,0.0012237224727869
1770454142664,-0.1536712646484375,-0.9636993408203124,0.1135406494140625,0.0092938998714089,0.0023214775137603,-0.0036269591655582
1770454142674,-0.1564788818359375,-0.9771575927734376,0.1180877685546875,0.0102193476632237,0.0063737435266375,-0.0065614962950348
1770454142684,-0.1515960693359375,-0.98321533203125,0.1187744140625,0.0130209932103753,0.0124870296567678,-0.0038314899429678
1770454142694,-0.1488494873046875,-0.97381591796875,0.114837646484375,0.0184325370937585,0.0083117261528968,-0.0056416406296193
1770454142705,-0.15191650390625,-0.9654541015625,0.1123199462890625,0.0271027237176895,0.0013883059145882,-0.0151110421866178
1770454142715,-0.15557861328125,-0.9649505615234376,0.1137847900390625,0.0326165333390235,-0.0084763094782829,-0.0191348120570182
1770454142724,-0.1534271240234375,-0.9678802490234376,0.118499755859375,0.0291411075741052,-0.0094811199232935,-0.0204954221844673
1770454142735,-0.1497955322265625,-0.971649169921875,0.124267578125,0.0218480415642261,-0.0044826325029134,-0.0182959157973527
1770454142745,-0.148345947265625,-0.9785919189453124,0.124298095703125,0.0098411794751882,-0.0014402375090867,-0.0157094541937112
1770454142755,-0.14752197265625,-0.983123779296875,0.12640380859375,-0.0038330876268446,0.0042757051996886,-0.0103021720424294
1770454142765,-0.144927978515625,-0.9836578369140624,0.125823974609375,-0.0192991290241479,0.0079279644414782,-0.0061194114387035
1770454142775,-0.1455841064453125,-0.98577880859375,0.1237030029296875,-0.0288162007927894,0.0100398510694503,8.04274677648209e-05
1770454142785,-0.14678955078125,-0.9884185791015624,0.11932373046875,-0.0339803360402584,0.0027846011798828,0.0043332292698323
1770454142795,-0.1502685546875,-0.9886016845703124,0.11663818359375,-0.0335262678563594,-0.0017206683987751,0.0061396514065563
1770454142805,-0.1515350341796875,-0.9875640869140624,0.1137542724609375,-0.0298564322292804,-0.0018503642641007,0.0063551012426614
1770454142815,-0.1531524658203125,-0.9859619140625,0.1153717041015625,-0.0286745224148035,-0.0050490871071815,0.00510208401829
1770454142825,-0.152191162109375,-0.98431396484375,0.1192169189453125,-0.0293456390500068,0.000286556140054,0.0005850964807905
1770454142835,-0.1523895263671875,-0.98236083984375,0.1200408935546875,-0.0245607364922761,0.0025076323654502,0.0014168017078191
1770454142845,-0.151214599609375,-0.978668212890625,0.11834716796875,-0.0202887598425149,0.0013693973887711,-0.0034293525386601
1770454142855,-0.148651123046875,-0.97845458984375,0.113433837890625,-0.0137826576828956,-0.001488174428232,-0.0038128476589918
1770454142865,-0.1461181640625,-0.9783477783203124,0.109619140625,-0.0053457631729543,-0.0044136568903923,-0.0006218480993993
1770454142875,-0.1459197998046875,-0.9778289794921876,0.1108856201171875,-0.0010104032699018,3.435477628954686e-05,0.0003036003618035
1770454142885,-0.144378662109375,-0.977508544921875,0.1120147705078125,0.0031332089565694,0.0006503439508378,0.0030687605030834
1770454142895,-0.14581298828125,-0.9768218994140624,0.1130523681640625,0.0092965625226497,-0.0030559774022549,0.0029870015569031
1770454142905,-0.1496124267578125,-0.975006103515625,0.1115264892578125,0.0136774629354476,-0.006516755092889,-9.614011651137844e-05
1770454142916,-0.1514434814453125,-0.983856201171875,0.1116180419921875,0.017942514270544,-0.0055068843066692,-0.0027225494850426
1770454142926,-0.1507568359375,-0.98822021484375,0.1125335693359375,0.0145120974630117,0.0011638014111667,-0.0042820968665182
1770454142935,-0.147979736328125,-0.9854583740234376,0.1152191162109375,0.0068741515278816,0.005836583673954,-0.0031217574141919
1770454142946,-0.148223876953125,-0.982330322265625,0.1181793212890625,0.0019686087034642,0.0082667181268334,-0.0003669835859909
1770454142956,-0.1488037109375,-0.978118896484375,0.1178436279296875,-0.0001179780374513,0.0075905416160821,0.0014697986189275
1770454142966,-0.1504669189453125,-0.975494384765625,0.118499755859375,-0.0009297095239162,0.0065351310186088,0.0004194478678982
1770454142976,-0.149383544921875,-0.9761962890625,0.117523193359375,-0.0012098740553483,0.0085695199668407,0.0008157262345775
1770454142986,-0.146392822265625,-0.9749603271484376,0.11761474609375,0.0032096416689455,0.0090550137683749,-0.0015156050212681
1770454142996,-0.1497955322265625,-0.9765777587890624,0.1125030517578125,0.0093314498662948,-0.0008133294177241,-0.0044908886775374
1770454143006,-0.1515045166015625,-0.9736785888671876,0.1101531982421875,0.0128478882834315,0.0014253237750381,-0.0042160502634942
1770454143016,-0.1513824462890625,-0.9754180908203124,0.1165008544921875,0.0126209864392876,-0.0030999195296317,-0.0071516525931656
1770454143026,-0.148162841796875,-0.98260498046875,0.1197967529296875,0.0096465023234486,-0.005078381858766,-0.0064144898205995
1770454143036,-0.1453399658203125,-0.9854278564453124,0.1205596923828125,0.0030072415247559,0.0002561961009632,-0.0027904601301997
1770454143046,-0.1436767578125,-0.987396240234375,0.1247711181640625,-0.0066081015393137,0.0069300779141485,0.0004676510870922
1770454143056,-0.143035888671875,-0.9841766357421876,0.125640869140625,-0.0115701034665107,0.0104483794420957,0.0054195327684283
1770454143066,-0.14630126953125,-0.981597900390625,0.121185302734375,-0.0137807931751012,0.0122486762702465,0.0017038905061781
1770454143076,-0.1539764404296875,-0.9797821044921876,0.1170806884765625,-0.0139568280428648,0.0081743067130446,0.0026298714801669
1770454143086,-0.1526641845703125,-0.97772216796875,0.116546630859375,-0.0096070868894457,0.0015092133544385,0.0061625544913113
1770454143096,-0.1504974365234375,-0.979034423828125,0.1180419921875,-0.0076307551935315,0.0028266792651265,0.0048951562494039
1770454143106,-0.151123046875,-0.9771881103515624,0.1177215576171875,-0.0080014672130346,0.0030365362763404,0.0034213629551231
1770454143116,-0.1529083251953125,-0.9773712158203124,0.1188812255859375,-0.0059042279608547,-0.0003059972077608,0.002943325554952
1770454143127,-0.15301513671875,-0.9795989990234376,0.1199188232421875,-0.0065963836386799,-0.0002814961189869,0.0006258428329601
1770454143136,-0.149688720703125,-0.9808349609375,0.119171142578125,-0.0080304956063628,0.0032924660481512,-0.0003398193512111
1770454143147,-0.1480255126953125,-0.979522705078125,0.118804931640625,-0.0084299696609377,0.004694087896496,0.0019696739036589
1770454143156,-0.147430419921875,-0.9769439697265624,0.11773681640625,-0.0079583246260881,0.0016295883106067,0.001006941194646
1770454143167,-0.14825439453125,-0.976654052734375,0.11474609375,-0.0064507089555263,0.0014783206861466,0.0022945795208215
1770454143176,-0.14862060546875,-0.9752655029296876,0.1134185791015625,-0.0070094401016831,-0.0003491404058877,0.0017994979862123
1770454143187,-0.14874267578125,-0.9762725830078124,0.1171875,-0.0074323499575257,-0.000353401468601,0.0026943201664835
1770454143197,-0.1496429443359375,-0.98065185546875,0.119140625,-0.0083058672025799,0.0026831347495317,0.001661013578996
1770454143207,-0.1501922607421875,-0.982513427734375,0.1205596923828125,-0.0129791814833879,0.0037031255196779,0.0012498215073719
1770454143217,-0.1508026123046875,-0.98284912109375,0.11822509765625,-0.0136505644768476,0.0021813951898366,-0.0019550265278667
1770454143227,-0.1500701904296875,-0.9832611083984376,0.1175689697265625,-0.0140641536563634,0.0053087454289197,0.0016498282784596
1770454143237,-0.14776611328125,-0.98236083984375,0.1165008544921875,-0.0127019463106989,0.0066006449051201,0.0032293491531163
1770454143247,-0.1473388671875,-0.979888916015625,0.1164703369140625,-0.0123890256509184,0.005371063016355,0.0032490564044564
1770454143257,-0.149322509765625,-0.9765777587890624,0.1151123046875,-0.0097050918266177,0.0033989925868809,0.0028272117488086
1770454143267,-0.1504364013671875,-0.978363037109375,0.1148529052734375,-0.0066927899606525,0.0043137883767485,0.0034242924302816
1770454143277,-0.148834228515625,-0.980133056640625,0.1122589111328125,-0.0040296288207173,0.0022522353101521,0.0022485069930553
1770454143287,-0.1494293212890625,-0.9754180908203124,0.11163330078125,0.0022503710351884,-0.0009592706337571,-0.0020005665719509
1770454143297,-0.1507110595703125,-0.9753875732421876,0.11395263671875,0.0034389398060739,0.0017369136912748,-0.0013411679537966
1770454143307,-0.149078369140625,-0.9834747314453124,0.1168670654296875,0.0020402476657181,0.0032437301706522,0.0004705805622506
1770454143317,-0.1484222412109375,-0.9865875244140624,0.1173553466796875,0.0004559331864584,0.007734618615359,0.0018210695125162
1770454143327,-0.1500701904296875,-0.9803924560546876,0.1160888671875,-0.0016652746126055,0.0099293300881981,0.0005443501286208
1770454143337,-0.1534423828125,-0.9714202880859376,0.117828369140625,-0.0011552792275324,0.0046592000871896,-0.0006671218434348
1770454143348,-0.1541748046875,-0.9739532470703124,0.116302490234375,0.0015086807543411,0.00023835292086,-0.0017401094082742
1770454143357,-0.15350341796875,-0.977630615234375,0.1149139404296875,-0.0004042678629048,-0.0020746025256812,-0.0010506170801818
1770454143367,-0.14910888671875,-0.98419189453125,0.11785888671875,-0.0039044604636728,0.0065337992273271,0.0020357202738523
1770454143378,-0.144134521484375,-0.989898681640625,0.1171722412109375,-0.00725365197286,0.0066584353335201,0.0068563083186745
1770454143388,-0.1435394287109375,-0.9903411865234376,0.1167449951171875,-0.0078014638274908,0.0106321377679705,0.0065963836386799
1770454143398,-0.1491851806640625,-0.9847564697265624,0.117706298828125,-0.0050110039301216,0.0104214819148182,0.0020583572331815
1770454143408,-0.153778076171875,-0.9655303955078124,0.1190032958984375,0.0029366677626967,0.0043606599792838,-0.0028967203106731
1770454143418,-0.156341552734375,-0.9739532470703124,0.1177825927734375,0.008037419989705,0.0021774005144834,-0.0078254323452711
1770454143428,-0.1517791748046875,-0.9859466552734376,0.1181488037109375,0.0071660336107015,0.0087010795250535,-0.0061790663748979
1770454143438,-0.1455230712890625,-0.9750823974609376,0.1198272705078125,0.0077463365159928,0.0179443787783384,-0.0055889096111059
1770454143448,-0.1508636474609375,-0.96453857421875,0.1150360107421875,0.0151619082316756,0.0090462258085608,-0.0109668970108032
1770454143458,-0.1558074951171875,-0.96588134765625,0.114013671875,0.0214086193591356,-0.0052504218183457,-0.0146572394296526
1770454143468,-0.1536865234375,-0.97015380859375,0.1190643310546875,0.021491976454854,-0.0074483286589384,-0.0150029174983501
1770454143478,-0.149810791015625,-0.973236083984375,0.121826171875,0.0156908128410577,-0.0081764375790953,-0.0131757231429219
1770454143488,-0.14862060546875,-0.9794921875,0.124847412109375,0.0019654128700494,0.0008271778351627,-0.0114590497687459
1770454143498,-0.14898681640625,-0.9833984375,0.1268157958984375,-0.0123381586745381,0.0072861425578594,-0.0085122613236308
1770454143508,-0.148712158203125,-0.9850616455078124,0.123992919921875,-0.0225593708455562,0.0057463026605546,-0.001578988158144
1770454143518,-0.147064208984375,-0.9870452880859376,0.1200103759765625,-0.029396504163742,0.0053377738222479,0.0038309572264552
1770454143528,-0.1454620361328125,-0.986541748046875,0.117919921875,-0.0312825553119182,0.0009030779474414,0.0081905517727136
1770454143538,-0.146942138671875,-0.9894866943359376,0.1154327392578125,-0.0306870732456445,-0.0004285026225261,0.011043063364923
1770454143548,-0.149688720703125,-0.9863433837890624,0.113739013671875,-0.0274007320404052,0.0004434163274709,0.0102827316150069
1770454143558,-0.15252685546875,-0.9848175048828124,0.1122283935546875,-0.0251413062214851,-0.001243962557055,0.0074286214075982
1770454143568,-0.151519775390625,-0.9842987060546876,0.115875244140625,-0.0221601631492376,-0.0029289445374161,0.0037310887128114
1770454143579,-0.1485443115234375,-0.9844512939453124,0.1178741455078125,-0.0179925821721553,-0.0008370315190404,0.0002743055811151
1770454143588,-0.1476593017578125,-0.9816741943359376,0.11669921875,-0.0135387117043137,-0.0010242518037557,-0.0001613875647308
1770454143599,-0.147796630859375,-0.979217529296875,0.1168060302734375,-0.0075031900778412,-0.0030333404429256,-0.0031017838045954
1770454143609,-0.145965576171875,-0.978302001953125,0.1142730712890625,-0.0020807278342545,0.0022413162514567,0.0030597057193517
1770454143619,-0.1452484130859375,-0.9806060791015624,0.11358642578125,0.0031957933679223,0.005560946650803,0.0021648835390806
1770454143629,-0.1456298828125,-0.978118896484375,0.111175537109375,0.0084153227508068,0.0031670311000198,0.003082875162363
1770454143639,-0.1492919921875,-0.974700927734375,0.1106414794921875,0.015849269926548,-0.0008665926288813,0.0042725093662738
1770454143649,-0.1507110595703125,-0.97601318359375,0.1116485595703125,0.0228355415165424,-0.0092936335131526,0.002747849561274
1770454143659,-0.15191650390625,-0.9840850830078124,0.1126251220703125,0.0241942852735519,-0.0072555160149931,0.0016785904299467
1770454143669,-0.1507110595703125,-0.9870452880859376,0.1149139404296875,0.0195233672857284,0.0006109291571192,0.001031974912621
1770454143679,-0.1495208740234375,-0.9839630126953124,0.1185455322265625,0.0138582913205027,0.0029081718530505,-0.0021012341603636
1770454143689,-0.1486358642578125,-0.9834442138671876,0.1199798583984375,0.0065124942921102,0.0037385455798357,0.0024908545892685
1770454143699,-0.1485595703125,-0.977996826171875,0.119293212890625,0.0011760519118979,0.0081724422052502,0.0025883263442665
1770454143709,-0.1507110595703125,-0.9770050048828124,0.12060546875,0.0016013587592169,0.0064784055575728,0.0015891082584857
1770454143719,-0.150146484375,-0.976531982421875,0.1217498779296875,0.0002727076935116,0.0069870692677795,0.002901780186221
1770454143729,-0.1493988037109375,-0.9729461669921876,0.1220550537109375,-0.0009856359101831,0.0040354877710342,0.0020072245970368
1770454143739,-0.1505889892578125,-0.9764404296875,0.1201934814453125,0.0005949501646682,0.0019318570848554,-0.0007960188668221
1770454143749,-0.1520233154296875,-0.976593017578125,0.1182098388671875,0.0005643238546326,0.0016421051695942,-0.0014855111949145
1770454143759,-0.152252197265625,-0.9772186279296876,0.1185150146484375,2.1305288555595325e-06,0.0008266451768577,-0.0031449268572032
1770454143769,-0.15093994140625,-0.979400634765625,0.119049072265625,-0.0051769185811281,0.0028197548817843,-0.0014950985787436
1770454143779,-0.1483154296875,-0.9833221435546876,0.1198577880859375,-0.011673167347908,0.0063758739270269,0.0013472931459546
1770454143789,-0.14471435546875,-0.989532470703125,0.1222686767578125,-0.0128955589607357,0.0122260395437479,0.0047497479245066
1770454143800,-0.144989013671875,-0.9874420166015624,0.1175994873046875,-0.0134614799171686,0.0089343730360269,0.0058701396919786
1770454143810,-0.1487274169921875,-0.9811859130859376,0.1156463623046875,-0.0136162098497152,0.0085623292252421,0.0070001189596951
1770454143820,-0.14862060546875,-0.974456787109375,0.11700439453125,-0.0088430261239409,0.0075671058148145,0.0070392675697803
1770454143830,-0.1511383056640625,-0.9792022705078124,0.1161956787109375,-0.0022847258951514,0.0021110877860337,0.0048544099554419
1770454143840,-0.1540679931640625,-0.9795684814453124,0.115234375,0.0016937704058364,-0.000343814084772,0.0037361485883593
1770454143850,-0.1531524658203125,-0.974761962890625,0.117889404296875,0.0021467742044478,0.005814479663968,0.0055257929489016
1770454143860,-0.1521453857421875,-0.9732513427734376,0.1197509765625,0.0022860574536025,0.0065287393517792,0.0030346720013767
1770454143870,-0.1512603759765625,-0.977752685546875,0.117950439453125,0.0072866748087108,0.0055747949518263,0.0020748688839375
1770454143880,-0.152130126953125,-0.9789886474609376,0.1181793212890625,0.0076046562753617,0.0034570493735373,0.0012631373247131
1770454143890,-0.1511077880859375,-0.978546142578125,0.1189117431640625,0.0088986866176128,0.0031023162882775,-0.0023784691002219
1770454143900,-0.1500091552734375,-0.9788818359375,0.1188201904296875,0.0120819630101323,0.0004058657505083,-0.0013438310706987
1770454143910,-0.1496429443359375,-0.97821044921875,0.1181793212890625,0.0106782102957367,0.0003922836331184,-0.0019662117119878
1770454143920,-0.1510162353515625,-0.9777069091796876,0.11859130859375,0.0079093221575021,0.0003169161791447,-0.0026024410035461
1770454143930,-0.15093994140625,-0.97930908203125,0.1212921142578125,0.0050770500674843,-0.0008727178792469,-0.0033742249943315
1770454143940,-0.14898681640625,-0.9803619384765624,0.12225341796875,0.0007339671719819,0.0010804444318637,-0.0009672601008787
1770454143950,-0.1500244140625,-0.9806365966796876,0.120758056640625,-0.0030280142091214,0.0058224690146744,-0.0013632721966132
1770454143960,-0.1505279541015625,-0.98138427734375,0.121063232421875,-0.0058224690146744,0.0037497307639569,-0.001905225450173
1770454143970,-0.1501312255859375,-0.97711181640625,0.1226654052734375,-0.004938565660268,0.0014090784825384,-0.0011363708181306
1770454143980,-0.1505889892578125,-0.974151611328125,0.1214141845703125,-0.0074171698652207,0.0037164413370192,0.0001296959380852
1770454143990,-0.151275634765625,-0.9752960205078124,0.1214447021484375,-0.0099474396556615,0.0021169467363506,0.001800563186407
1770454144000,-0.1517333984375,-0.97705078125,0.1209869384765625,-0.0117040602490305,0.0014974954538047,-3.994741746282671e-06
1770454144011,-0.150177001953125,-0.9791412353515624,0.1206207275390625,-0.0120012694969773,0.0043614590540528,0.0017725999932736
1770454144020,-0.14801025390625,-0.979217529296875,0.1204833984375,-0.0135315209627151,0.0021254688035696,0.00080320937559
1770454144031,-0.1489410400390625,-0.9828643798828124,0.118896484375,-0.0111197624355554,0.0023824640084058,-0.001430916483514
1770454144041,-0.15032958984375,-0.9854888916015624,0.1184539794921875,-0.01297412160784,0.0036437369417399,0.0006823018775321
1770454144051,-0.148895263671875,-0.981903076171875,0.118560791015625,-0.0135773280635476,0.007113835774362,0.003672232851386
1770454144061,-0.1506195068359375,-0.976287841796875,0.115997314453125,-0.0096654100343585,0.0049846386536955,0.0031081752385944
1770454144071,-0.153656005859375,-0.973175048828125,0.1166229248046875,-0.0071929316036403,-0.0011209244839847,-0.0010122675448656
1770454144081,-0.154815673828125,-0.9709930419921876,0.115142822265625,-0.0024069650098681,-0.0021222729701548,-0.0005060005933046
1770454144091,-0.15411376953125,-0.969512939453125,0.1151580810546875,-0.003458913648501,-0.0020413128659129,-0.0033356093335896
1770454144101,-0.1521148681640625,-0.9843292236328124,0.116973876953125,-0.0028839372098445,-0.0029273466207087,-0.003409378696233
1770454144111,-0.146942138671875,-0.9983367919921876,0.1182403564453125,-0.0042288335971534,0.0053830472752451,-0.0010157296201214
1770454144121,-0.1437225341796875,-0.9853515625,0.12176513671875,-0.0032378712203353,0.010677145794034,-0.0008319715270772
1770454144131,-0.1500396728515625,-0.9705352783203124,0.1205902099609375,0.0032879386562854,0.0042978092096745,-0.0101176155731081
1770454144141,-0.15557861328125,-0.9754791259765624,0.1179351806640625,0.0096805905923247,0.0004546015989035,-0.0096177402883768
1770454144151,-0.1526336669921875,-0.982940673828125,0.1184539794921875,0.008904811926186,0.0057103498838841,-0.0077852187678217
1770454144161,-0.1472930908203125,-0.984466552734375,0.1186676025390625,0.0088715218007564,0.0158034637570381,-0.0055399076081812
1770454144171,-0.1478271484375,-0.9661712646484376,0.11578369140625,0.0120915500447154,0.014127536676824,-0.0126297753304243
1770454144181,-0.1574859619140625,-0.964569091796875,0.1169586181640625,0.0161813665181398,-0.0006508765509352,-0.018282601609826
1770454144191,-0.1571044921875,-0.970123291015625,0.1200408935546875,0.0179443787783384,-0.0101682152599096,-0.0200536027550697
1770454144201,-0.1506805419921875,-0.9712066650390624,0.1246185302734375,0.0109977899119257,-0.0050677293911576,-0.0162546038627624
1770454144211,-0.148712158203125,-0.975128173828125,0.1259002685546875,0.0020668793004006,-0.0001518001809017,-0.0156729687005281
1770454144222,-0.1501007080078125,-0.981048583984375,0.1257476806640625,-0.0059002335183322,0.002560895634815,-0.0123120602220296
1770454144231,-0.1478271484375,-0.9836883544921876,0.12188720703125,-0.014977085404098,-0.0005856291390955,-0.006337790749967
1770454144241,-0.1451263427734375,-0.984832763671875,0.1202850341796875,-0.0220792032778263,0.0027766118291765,-0.0014524880098178
1770454144252,-0.1472320556640625,-0.986663818359375,0.1193389892578125,-0.0278345607221126,0.002763562137261,0.0041593248024582
1770454144262,-0.146484375,-0.98919677734375,0.1207733154296875,-0.0317896194756031,0.0043012714013457,0.0085157239809632
1770454144271,-0.150054931640625,-0.988128662109375,0.120849609375,-0.0313517972826957,0.0034692999906837,0.0084731131792068
1770454144282,-0.150299072265625,-0.986083984375,0.119873046875,-0.02671629935503,0.0013670006301254,0.0044922200031578
1770454144292,-0.15118408203125,-0.98486328125,0.117431640625,-0.0223393943160772,-0.0052685313858091,0.0005874933558516
1770454144302,-0.149810791015625,-0.9848480224609376,0.118194580078125,-0.015845276415348,-0.0059910472482442,-0.0013536848127841
1770454144312,-0.1486358642578125,-0.98028564453125,0.1156768798828125,-0.0113210976123809,-0.0073878751136362,-0.0021603561472147
1770454144322,-0.148284912109375,-0.978271484375,0.1168060302734375,-0.0068251490592956,-0.0032450617291033,-0.0002101234131259
1770454144332,-0.143768310546875,-0.976348876953125,0.11724853515625,-0.0058048921637237,-0.0006151901907287,0.0022807312197983
1770454144342,-0.144012451171875,-0.978912353515625,0.1177520751953125,-0.001817074837163,0.0035627768374979,0.0025837989524006
1770454144352,-0.1470489501953125,-0.9775390625,0.1164093017578125,0.0016306535108014,0.0036914076190441,0.0014647386269643
1770454144362,-0.14849853515625,-0.9760589599609376,0.1148681640625,0.0065335328690707,-9.427589975530282e-05,-0.0016410398529842
1770454144372,-0.1514892578125,-0.9746551513671876,0.1144561767578125,0.0112526547163724,-0.0031742216087877,-0.0033720945939421
1770454144382,-0.1546783447265625,-0.98016357421875,0.1153717041015625,0.0126550747081637,-0.0036815537605434,-0.0026546388398855
1770454144392,-0.1529083251953125,-0.9849090576171876,0.116668701171875,0.0090946946293115,0.0025411883834749,-0.0039784964174032
1770454144402,-0.1494293212890625,-0.984527587890625,0.11737060546875,0.0072797508910298,0.0016809873050078,-0.0049835732206702
1770454144412,-0.146881103515625,-0.98565673828125,0.11944580078125,0.0025859293527901,0.00421072402969,-0.0010447581298649
1770454144422,-0.145538330078125,-0.981201171875,0.1194610595703125,-0.0034930021502077,0.0084086647257208,0.0007664577569812
1770454144432,-0.1488189697265625,-0.974945068359375,0.1210479736328125,-0.0028157602064311,0.0076725669205188,0.0012562130577862
1770454144442,-0.15118408203125,-0.9767608642578124,0.1206207275390625,-0.0035465315449982,0.004383030347526,-0.0012314456980675
1770454144452,-0.1491851806640625,-0.97540283203125,0.1210784912109375,-0.0027134947013109,0.0040796962566673,-0.0039944751188158
1770454144463,-0.14825439453125,-0.9776458740234376,0.1184234619140625,-0.0007174555794335,0.0021955100819468,-0.0013949638232588
1770454144473,-0.148956298828125,-0.9755401611328124,0.1173553466796875,0.0004583300324156,-0.001316666835919,-0.0044938181526958
1770454144483,-0.149810791015625,-0.97515869140625,0.1189727783203125,0.0020181434229016,0.0003858920244965,-0.0065194182097911
1770454144493,-0.1518096923828125,-0.98077392578125,0.11767578125,-0.0005358280031941,0.0005906891310587,-0.0079460740089416
1770454144503,-0.1494140625,-0.9845428466796876,0.1192779541015625,-0.0029561088886111,0.0034959316253662,-0.003157443832606
1770454144513,-0.1476898193359375,-0.9860382080078124,0.1191558837890625,-0.002520149340853,0.0052962284535169,-0.0022064289078116
1770454144523,-0.146881103515625,-0.9845123291015624,0.1189117431640625,-0.0037404096219688,0.0087825721129775,-0.0008239820599555
1770454144533,-0.1475372314453125,-0.9819183349609376,0.1190643310546875,-0.0027566379867494,0.0084589980542659,0.0010106696281582
1770454144543,-0.1494140625,-0.9798736572265624,0.1181640625,-0.0027750139124691,0.0079553946852684,0.0014223942998796
1770454144553,-0.1499786376953125,-0.9803924560546876,0.1205291748046875,-0.0006434197421185,0.0053473613224923,0.0005784385721199
1770454144563,-0.14752197265625,-0.9786376953125,0.1217193603515625,0.0014764565275982,0.0039803604595363,0.0011632688110694
1770454144573,-0.1489105224609375,-0.975555419921875,0.121063232421875,0.0015012238873168,0.003157443832606,0.0017715347930788
1770454144583,-0.151123046875,-0.9745330810546876,0.122039794921875,0.0033670344855636,0.003664243267849,-0.0008905610884539
1770454144593,-0.151031494140625,-0.977813720703125,0.121002197265625,0.0015166702214628,0.0019550265278667,-0.0005928196478635
1770454144603,-0.1494598388671875,-0.9796600341796876,0.1223907470703125,0.0018293253378942,0.002927612978965,-0.0009970874525606
1770454144613,-0.1482391357421875,-0.978546142578125,0.1216583251953125,-0.0005792375304736,0.0055521582253277,-0.0008609999786131
1770454144623,-0.147552490234375,-0.9778594970703124,0.119781494140625,-0.0011347729014232,0.0018253305461257,0.000630370224826
1770454144633,-0.1478271484375,-0.9772796630859376,0.1187286376953125,0.0010580739472061,0.0049907639622688,-0.0009462211164645
1770454144643,-0.1503143310546875,-0.97576904296875,0.1196136474609375,-0.001792307361029,0.000785898824688,-0.0009478190331719
1770454144653,-0.15167236328125,-0.9788818359375,0.1190032958984375,-0.002894057193771,-0.0018447716720402,-0.0007805725326761
1770454144664,-0.1497344970703125,-0.9790496826171876,0.1215667724609375,-0.0044373590499162,-0.0011206581257283,-0.001889779116027
1770454144674,-0.1472320556640625,-0.9837188720703124,0.1243896484375,-0.0085018752142786,-0.0007307713967747,-0.0011816446203738
1770454144684,-0.14593505859375,-0.9846343994140624,0.1234588623046875,-0.0114891435950994,0.0037420075386762,-0.0010104032699018
1770454144694,-0.148223876953125,-0.9813385009765624,0.1246490478515625,-0.0157355535775423,0.0052309809252619,-0.0006902913446538
1770454144704,-0.148101806640625,-0.9770660400390624,0.12432861328125,-0.0183872636407613,0.0071995896287262,0.0014998923288658
1770454144714,-0.14874267578125,-0.976715087890625,0.1216583251953125,-0.0192557200789451,0.0078552598133683,0.00164450192824
1770454144724,-0.1500396728515625,-0.9800872802734376,0.1185150146484375,-0.0184080358594656,0.0054807853884994,0.0024668860714882
1770454144734,-0.1514434814453125,-0.978912353515625,0.115753173828125,-0.0156758986413478,0.0056664077565073,0.0003882888704538
1770454144744,-0.150543212890625,-0.9748687744140624,0.113922119140625,-0.0099192094057798,-6.338323146337643e-05,-0.0004372910480014
1770454144754,-0.1504364013671875,-0.9787445068359376,0.112579345703125,-0.0064017064869403,-0.0025590313598513,-0.0001211738272104
1770454144764,-0.1496734619140625,-0.98358154296875,0.114227294921875,-0.0029561088886111,0.0009659285424277,0.0002854908525478
1770454144774,-0.148223876953125,-0.9849700927734376,0.11846923828125,-0.0021515677217394,0.0025156219489872,0.0028088360559195
1770454144784,-0.148040771484375,-0.980133056640625,0.1209259033203125,-0.002208825899288,0.0029486520215868,0.0011235876008868
