timestamp_ms,acc_x,acc_y,acc_z,gyro_x,gyro_y,gyro_z
1768730682592,0.0225830078125,-0.3250732421875,-0.94976806640625,0.0151294181123375,0.0040328246541321,0.0629454106092453
1768730682601,0.0233612060546875,-0.3270263671875,-0.94415283203125,0.0151294181123375,0.0040328246541321,0.0629454106092453
1768730682611,0.0230560302734375,-0.3293304443359375,-0.9414520263671876,0.012811136431992,0.0002783003437798,0.0664549246430397
1768730682622,0.0196380615234375,-0.334014892578125,-0.9371337890625,0.0028450549580156,0.0054522897116839,0.0661870092153549
1768730682632,0.0189666748046875,-0.3315887451171875,-0.9381866455078124,-0.0022397185675799,0.0201524067670106,0.0706944093108177
1768730682642,0.0186614990234375,-0.32733154296875,-0.9408721923828124,-0.0029270802624523,0.025025725364685,0.0707644522190094
1768730682652,0.0183563232421875,-0.32366943359375,-0.9416351318359376,-0.0029270802624523,0.025025725364685,0.0707644522190094
1768730682661,0.01654052734375,-0.3235626220703125,-0.94140625,-0.0074328826740384,0.0296822618693113,0.0671095252037048
1768730682672,0.015380859375,-0.321929931640625,-0.9414520263671876,-0.0151682998985052,0.0290734637528657,0.0664120465517044
1768730682682,0.013214111328125,-0.327972412109375,-0.93792724609375,-0.0151682998985052,0.0290734637528657,0.0664120465517044
1768730682692,0.0141143798828125,-0.3410186767578125,-0.9307861328125,-0.025733858346939,0.0215649474412202,0.0651963129639625
1768730682702,0.0177001953125,-0.335052490234375,-0.9312591552734376,-0.0387694984674453,0.0153323505073785,0.0542424656450748
1768730682712,0.0134735107421875,-0.3271331787109375,-0.941497802734375,-0.0401351675391197,0.0177105534821748,0.0514655858278274
1768730682722,0.0196380615234375,-0.347564697265625,-0.9368438720703124,-0.0379998460412025,0.0203012768179178,0.0491624847054481
1768730682732,0.0240478515625,-0.3297576904296875,-0.9382171630859376,-0.0368189997971057,0.0060128848999738,0.0344967246055603
1768730682742,0.02178955078125,-0.3163604736328125,-0.9600982666015624,-0.0177816599607467,0.0001603222917765,0.0348258912563324
1768730682752,0.0169830322265625,-0.3171234130859375,-0.9644317626953124,0.0010932276491075,0.0088488850742578,0.0361305736005306
1768730682762,0.0068817138671875,-0.320068359375,-0.9564361572265624,0.0137677434831857,0.0226496513932943,0.0283866338431835
1768730682772,0.0061798095703125,-0.3252105712890625,-0.9476470947265624,0.0182980466634035,0.028343491256237,0.018016817048192
1768730682782,0.0068359375,-0.322540283203125,-0.944976806640625,0.0266763512045145,0.0308258235454559,0.0111605087295174
1768730682793,0.009307861328125,-0.3169708251953125,-0.9473419189453124,0.0421447902917861,0.0222552381455898,0.0184802077710628
1768730682802,0.01617431640625,-0.315338134765625,-0.9496002197265624,0.0421447902917861,0.0222552381455898,0.0184802077710628
1768730682813,0.0179901123046875,-0.3165283203125,-0.94830322265625,0.042363703250885,0.0082542011514306,0.0225031785666942
1768730682822,0.0155792236328125,-0.3231201171875,-0.9398956298828124,0.042363703250885,0.0082542011514306,0.0225031785666942
1768730682832,0.014129638671875,-0.327850341796875,-0.9333953857421876,0.0346980579197406,-0.0033236250746995,0.017993913963437
1768730682843,0.0159149169921875,-0.332855224609375,-0.9305572509765624,0.0166119989007711,-0.0109298797324299,0.0182594321668148
1768730682853,0.0230560302734375,-0.335174560546875,-0.9338226318359376,0.0157459396868944,0.0006306365248747,0.0246592741459608
1768730682863,0.030914306640625,-0.334686279296875,-0.9402618408203124,0.0206373669207096,0.0088523477315902,0.0353555940091609
1768730682873,0.034912109375,-0.3308868408203125,-0.9447021484375,0.0268635712563991,0.0108478544279932,0.0383303463459014
1768730682883,0.0325164794921875,-0.3307037353515625,-0.944915771484375,0.0268635712563991,0.0108478544279932,0.0383303463459014
1768730682893,0.02197265625,-0.3311004638671875,-0.9387359619140624,0.0299746766686439,0.0078778965398669,0.0424925982952117
1768730682903,0.009979248046875,-0.3295440673828125,-0.9347381591796876,0.0255642160773277,0.0160830952227115,0.0336192138493061
1768730682913,0.0088043212890625,-0.3257293701171875,-0.9372406005859376,0.0214200709015131,0.0252427719533443,0.0295001007616519
1768730682923,0.017120361328125,-0.3227996826171875,-0.9470062255859376,0.0258204117417335,0.0307437982410192,0.0306945294141769
1768730682933,0.02032470703125,-0.3251495361328125,-0.951080322265625,0.0334333255887031,0.0267613064497709,0.0317089259624481
1768730682943,0.01654052734375,-0.3277740478515625,-0.943817138671875,0.0382065065205097,0.0176474377512931,0.0278947483748197
1768730682953,0.014404296875,-0.3308563232421875,-0.938995361328125,0.0355063304305076,0.0170921683311462,0.0208962261676788
1768730682963,0.0151519775390625,-0.3351287841796875,-0.9342498779296876,0.031889222562313,0.0163882933557033,0.0171366427093744
1768730682973,0.0200347900390625,-0.3350372314453125,-0.930389404296875,0.0219087600708007,0.0197076573967933,0.0199907515197992
1768730682983,0.0265350341796875,-0.3382110595703125,-0.930084228515625,0.0147019810974597,0.0195289608091115,0.0247128028422594
1768730682993,0.029388427734375,-0.3392333984375,-0.9314727783203124,0.011542672291398,0.0085647264495491,0.0330748632550239
1768730683003,0.0291290283203125,-0.3417205810546875,-0.931610107421875,0.0074259582906961,9.400958515470847e-05,0.0315661802887916
1768730683013,0.027557373046875,-0.332794189453125,-0.939117431640625,0.0138084897771477,0.0117679759860038,0.0303872004151344
1768730683023,0.0231781005859375,-0.3196563720703125,-0.9503936767578124,0.0279698483645916,0.0274225696921348,0.0278995409607887
1768730683033,0.0184478759765625,-0.318389892578125,-0.95196533203125,0.0455456487834453,0.0426489263772964,0.0268129725009202
1768730683043,0.0146484375,-0.3269500732421875,-0.9423828125,0.0542283505201339,0.0314226374030113,0.0229878742247819
1768730683053,0.01263427734375,-0.333038330078125,-0.935302734375,0.0560672618448734,0.0221793372184038,0.0152782890945672
1768730683064,0.0114898681640625,-0.3300628662109375,-0.9328765869140624,0.0453387200832366,0.0084581999108195,0.0076161078177392
1768730683074,0.0148773193359375,-0.3310699462890625,-0.934173583984375,0.0350029915571212,-0.0044157872907817,0.0015861787833273
1768730683084,0.014251708984375,-0.338165283203125,-0.925994873046875,0.0350029915571212,-0.0044157872907817,0.0015861787833273
1768730683094,0.01171875,-0.340667724609375,-0.9255828857421876,0.0218754708766937,-0.0196820925921201,-0.0067167584784328
1768730683104,0.0155181884765625,-0.33984375,-0.9331512451171876,0.0173478312790393,-0.0206080731004476,-0.0134548218920826
1768730683114,0.0186767578125,-0.3395538330078125,-0.9414825439453124,0.0157227702438831,-0.002478603972122,-0.0161326304078102
1768730683124,0.02203369140625,-0.3388671875,-0.941619873046875,0.0160239730030298,0.0126132639124989,-0.0136961042881011
1768730683135,0.0182037353515625,-0.3415679931640625,-0.938140869140625,0.0376400537788867,0.0183808710426092,-0.0118686435744166
1768730683144,0.0227203369140625,-0.3400421142578125,-0.944183349609375,0.0376400537788867,0.0183808710426092,-0.0118686435744166
1768730683154,0.0335540771484375,-0.338775634765625,-0.95550537109375,0.0612021051347255,0.032195221632719,0.0002593918761704
1768730683164,0.031402587890625,-0.3390045166015625,-0.953887939453125,0.0783422067761421,0.0386283509433269,0.0053958306089043
1768730683174,0.024444580078125,-0.345672607421875,-0.9440765380859376,0.085585743188858,0.0518229827284812,0.0038288265932351
1768730683184,0.0190582275390625,-0.349151611328125,-0.93609619140625,0.0899956673383712,0.0572680830955505,0.0024522386956959
1768730683194,0.0192413330078125,-0.345062255859375,-0.932769775390625,0.0957973673939704,0.0438848994672298,0.002231728984043
1768730683204,0.01611328125,-0.348114013671875,-0.929779052734375,0.0928577706217765,0.0465131737291812,-0.0041175135411322
1768730683214,0.0146484375,-0.3469085693359375,-0.9287109375,0.0874843075871467,0.052152682095766,-0.0125477500259876
1768730683224,0.0180816650390625,-0.34393310546875,-0.9359130859375,0.0879823192954063,0.0521066114306449,-0.022211829200387
1768730683234,0.0191192626953125,-0.34368896484375,-0.9369049072265624,0.0876515582203865,0.0449248626828193,-0.0266923308372497
1768730683245,0.0232696533203125,-0.3464813232421875,-0.9325408935546876,0.0917219296097755,0.0251508932560682,-0.0281576011329889
1768730683254,0.0270538330078125,-0.354339599609375,-0.9310455322265624,0.0970953926444053,0.0109724896028637,-0.0246819108724594
1768730683264,0.0296630859375,-0.3608245849609375,-0.9262542724609376,0.099331110715866,0.0135299237444996,-0.0227519180625677
1768730683275,0.02642822265625,-0.363861083984375,-0.9163818359375,0.0880928412079811,0.0321771092712879,-0.0232472661882638
1768730683284,0.0175323486328125,-0.3672332763671875,-0.907501220703125,0.0694507136940956,0.0486359782516956,-0.0227809455245733
1768730683294,0.0137786865234375,-0.3638763427734375,-0.90057373046875,0.0437964834272861,0.0736348032951355,-0.0289823822677135
1768730683304,0.014923095703125,-0.353851318359375,-0.9101715087890624,0.0281743798404932,0.0921019613742828,-0.0428659729659557
1768730683315,0.0128173828125,-0.35211181640625,-0.927734375,0.0158000010997056,0.0969334691762924,-0.0550888180732727
1768730683325,0.010101318359375,-0.3475799560546875,-0.93157958984375,0.0050578755326569,0.110352873802185,-0.0655553042888641
1768730683335,0.0143280029296875,-0.34259033203125,-0.9361724853515624,0.0004226436722092,0.1224662587046623,-0.0678544119000434
1768730683345,0.026123046875,-0.34588623046875,-0.943145751953125,0.0089245187118649,0.114465057849884,-0.0623858794569969
1768730683355,0.04351806640625,-0.3589019775390625,-0.939300537109375,0.0202970150858163,0.0938543230295181,-0.0515572018921375
1768730683365,0.0584259033203125,-0.3547821044921875,-0.93475341796875,0.0257522352039814,0.0593437515199184,-0.0410126820206642
1768730683375,0.064666748046875,-0.3491058349609375,-0.9523468017578124,0.0452481731772422,0.0249122735112905,-0.0238632541149854
1768730683385,0.066925048828125,-0.37689208984375,-0.9476165771484376,0.0676733180880546,0.0049982205964624,-0.0015683355741202
1768730683396,0.058013916015625,-0.3659210205078125,-0.930206298828125,0.069529540836811,-0.0214309897273778,0.001980326604098
1768730683405,0.0304718017578125,-0.3639068603515625,-0.9261932373046876,0.0621943995356559,-0.0041963430121541,-0.0179443787783384
1768730683415,0.0123138427734375,-0.3673248291015625,-0.9218902587890624,0.0621943995356559,-0.0041963430121541,-0.0179443787783384
1768730683425,0.0092620849609375,-0.366424560546875,-0.917266845703125,0.0407468974590301,0.0271013919264078,-0.0335963107645511
1768730683435,0.0238189697265625,-0.36456298828125,-0.9204864501953124,0.0319720469415187,0.0348250903189182,-0.0446588136255741
1768730683445,0.028106689453125,-0.3557281494140625,-0.9240570068359376,0.0304180923849344,0.0431527979671955,-0.0540248863399028
1768730683458,0.0289764404296875,-0.340667724609375,-0.925201416015625,0.0324218571186065,0.0356836952269077,-0.0537058375775814
1768730683466,0.0334014892578125,-0.3386688232421875,-0.92803955078125,0.0361028760671615,0.0260177515447139,-0.056452888995409
1768730683477,0.0425262451171875,-0.3408203125,-0.9246978759765624,0.0347790196537971,0.0117272296920418,-0.0453259348869323
1768730683486,0.0577545166015625,-0.3499298095703125,-0.925201416015625,0.035289280116558,-0.0001235706731677,-0.0276374872773885
1768730683495,0.07598876953125,-0.3595123291015625,-0.9216156005859376,0.0290582831948995,-0.0203044731169939,7.829693640815094e-05
1768730683505,0.0753936767578125,-0.365631103515625,-0.9203643798828124,0.0234323553740978,-0.0379457846283912,0.0277432147413492
1768730683516,0.0621490478515625,-0.3736724853515625,-0.9098052978515624,0.0116108497604727,-0.0524933002889156,0.0384025163948535
1768730683526,0.0534210205078125,-0.3801727294921875,-0.906280517578125,-0.0098145473748445,-0.0373396500945091,0.0408374443650245
1768730683536,0.047027587890625,-0.3769073486328125,-0.9132843017578124,-0.0261280070990324,0.0012687299167737,0.038776159286499
1768730683546,0.0482635498046875,-0.3700103759765625,-0.92645263671875,-0.0290857143700122,0.0326594077050685,0.0428137779235839
1768730683556,0.05853271484375,-0.36346435546875,-0.946044921875,-0.0132329808548092,0.0584420040249824,0.053716491907835
1768730683566,0.054718017578125,-0.362701416015625,-0.9459991455078124,0.013000220991671,0.0650290697813034,0.0681817159056663
1768730683576,0.0444793701171875,-0.369354248046875,-0.930084228515625,0.025063807144761,0.060611680150032,0.0774218216538429
1768730683586,0.0330810546875,-0.377410888671875,-0.9140472412109376,0.0179443787783384,0.0580680966377258,0.0774045065045356
1768730683596,0.0306549072265625,-0.3778839111328125,-0.9102020263671876,-0.001693237805739,0.0511987395584583,0.0791400894522667
1768730683606,0.03485107421875,-0.3755950927734375,-0.9146575927734376,-0.0164580699056386,0.0437850318849086,0.0808802023530006
1768730683616,0.02874755859375,-0.3735809326171875,-0.9089813232421876,-0.0340714156627655,0.0268878061324358,0.080723337829113
1768730683626,0.0224151611328125,-0.3762664794921875,-0.9017486572265624,-0.0560249201953411,0.0046565369702875,0.0704403445124626
1768730683636,0.0229949951171875,-0.371826171875,-0.9075927734375,-0.0743591859936714,-0.0034716967493295,0.0587405450642108
1768730683646,0.030670166015625,-0.3689422607421875,-0.9134979248046876,-0.088786594569683,-0.0092909699305891,0.0549359545111656
1768730683656,0.0426788330078125,-0.3688812255859375,-0.9221343994140624,-0.0923807993531227,-0.0225665625184774,0.0637225210666656
1768730683666,0.052032470703125,-0.3685455322265625,-0.93359375,-0.0765517652034759,-0.029846578836441,0.0730031058192253
1768730683676,0.0474090576171875,-0.3604888916015625,-0.9330902099609376,-0.0671928822994232,-0.0279823653399944,0.0803113505244255
1768730683686,0.0455169677734375,-0.3544769287109375,-0.9383087158203124,-0.0554422214627265,-0.0222166217863559,0.0867370218038559
1768730683697,0.0359954833984375,-0.349273681640625,-0.9417572021484376,-0.0376107580959796,-0.00945102609694,0.0797371715307235
1768730683707,0.0249176025390625,-0.352142333984375,-0.9363250732421876,-0.0308258235454559,-0.0006562029011547,0.0715266466140747
1768730683717,0.0263519287109375,-0.356353759765625,-0.932373046875,-0.0299975797533988,0.00464508542791,0.0583802200853824
1768730683727,0.0286407470703125,-0.3596038818359375,-0.930023193359375,-0.031580563634634,0.0088438251987099,0.0531945116817951
1768730683737,0.026458740234375,-0.3625030517578125,-0.9224090576171876,-0.0401149280369281,0.0081575289368629,0.0517105981707572
1768730683747,0.0252838134765625,-0.3649749755859375,-0.9246978759765624,-0.0502655655145645,0.019588615745306,0.048327051103115
1768730683757,0.0284423828125,-0.358734130859375,-0.9260711669921876,-0.0599341727793216,0.0168639346957206,0.0480069406330585
1768730683767,0.035736083984375,-0.3574676513671875,-0.9313812255859376,-0.0614662915468215,0.0030879352707415,0.0483076125383377
1768730683777,0.0379638671875,-0.362579345703125,-0.9308624267578124,-0.0627280995249748,-0.0025044367648661,0.0503393374383449
1768730683787,0.035491943359375,-0.3667755126953125,-0.929046630859375,-0.062234878540039,-0.001177383470349,0.0559777803719043
1768730683797,0.0363616943359375,-0.36590576171875,-0.929840087890625,-0.0618862695991992,0.0061404504813253,0.0636588707566261
1768730683807,0.0367584228515625,-0.3627166748046875,-0.9350738525390624,-0.0552850924432277,0.0078922780230641,0.0717618018388748
1768730683818,0.0345611572265625,-0.3627166748046875,-0.936920166015625,-0.0448513589799404,0.0043699811212718,0.0779653713107109
1768730683827,0.0283660888671875,-0.3638458251953125,-0.9377899169921876,-0.0312045253813266,0.0053891725838184,0.072510153055191
1768730683837,0.0178070068359375,-0.3615264892578125,-0.932220458984375,-0.0300678871572017,0.0061700115911662,0.057713896036148
1768730683848,0.0078582763671875,-0.3582000732421875,-0.9326324462890624,-0.0242081340402364,0.0078009315766394,0.0441245846450328
1768730683858,0.0054931640625,-0.3534088134765625,-0.942840576171875,-0.0145150264725089,0.0117541281506419,0.0286625381559133
1768730683867,0.0062713623046875,-0.3532867431640625,-0.944122314453125,-0.0085615301504731,0.007202785462141,0.0154548566788434
1768730683877,0.0047607421875,-0.35614013671875,-0.938720703125,-0.0067910607904195,-0.0059087555855512,0.0044828988611698
1768730683887,0.00689697265625,-0.3587493896484375,-0.933349609375,-0.0053446977399289,-0.0058304583653807,-0.0066754794679582
1768730683898,0.0113525390625,-0.358001708984375,-0.936859130859375,-0.0021744710393249,-0.0148737542331218,-0.0098550273105502
1768730683908,0.01556396484375,-0.3564453125,-0.9325103759765624,0.0007403587806038,-0.0274707730859518,-0.016895093023777
1768730683918,0.0186614990234375,-0.3546142578125,-0.9321441650390624,0.001062867580913,-0.0439690537750721,-0.0186466556042432
1768730683928,0.0180206298828125,-0.3516998291015625,-0.928955078125,0.0033617082517594,-0.057316817343235,-0.020856013521552
1768730683938,0.01837158203125,-0.3517913818359375,-0.92822265625,0.0033518546260893,-0.055138885974884,-0.0244374331086874
1768730683948,0.0184326171875,-0.3535919189453125,-0.9252166748046876,-0.0050163301639258,-0.0508458688855171,-0.0282548069953918
1768730683958,0.0165557861328125,-0.3576202392578125,-0.9194793701171876,-0.0137019632384181,-0.0467507280409336,-0.0293797273188829
1768730683968,0.0205841064453125,-0.35797119140625,-0.9166412353515624,-0.0215713381767272,-0.0527713373303413,-0.0303251482546329
1768730683978,0.0236053466796875,-0.3564300537109375,-0.9194488525390624,-0.0266161635518074,-0.0555130615830421,-0.0310572516173124
1768730683988,0.02490234375,-0.3534698486328125,-0.925018310546875,-0.0307621732354164,-0.0505824834108352,-0.0345936641097068
1768730683998,0.02294921875,-0.3543853759765625,-0.9287567138671876,-0.0322106666862964,-0.0445035509765148,-0.0313707068562507
1768730684009,0.023895263671875,-0.35382080078125,-0.9301300048828124,-0.030731813982129,-0.0427434705197811,-0.0268550496548414
1768730684018,0.02484130859375,-0.353668212890625,-0.9324798583984376,-0.0274872835725545,-0.0546275600790977,-0.0248174648731946
1768730684028,0.0234222412109375,-0.346954345703125,-0.938812255859375,-0.0193348154425621,-0.0408739298582077,-0.0231481958180665
1768730684038,0.021270751953125,-0.3419952392578125,-0.9452667236328124,-0.0152010573074221,-0.0284074060618877,-0.0213537588715553
1768730684048,0.0205230712890625,-0.344757080078125,-0.942657470703125,-0.013431386090815,-0.0284737199544906,-0.0213963687419891
1768730684059,0.0260009765625,-0.3564300537109375,-0.933868408203125,-0.0166351702064275,-0.046396791934967,-0.0192956663668155
1768730684068,0.030548095703125,-0.3584442138671875,-0.923614501953125,-0.0244821738451719,-0.0590398833155632,-0.0177715402096509
1768730684078,0.0290679931640625,-0.3472137451171875,-0.932525634765625,-0.0171464961022138,-0.0480434261262416,-0.007513309828937
1768730684089,0.03009033203125,-0.3677215576171875,-0.92840576171875,-0.0291341822594404,-0.0492991060018539,-0.0119711756706237
1768730684099,0.0319976806640625,-0.3576202392578125,-0.917816162109375,-0.0349665060639381,-0.0492367893457412,-0.0137653471902012
1768730684109,0.0250396728515625,-0.3439178466796875,-0.9303436279296876,-0.0341425240039825,-0.041579931974411,-0.0166727192699909
1768730684119,0.0207977294921875,-0.3427276611328125,-0.935760498046875,-0.0332285277545452,-0.0344333425164222,-0.021654961630702
1768730684129,0.0138397216796875,-0.3510589599609375,-0.932220458984375,-0.0395111888647079,-0.0323438234627246,-0.0307938642799854
1768730684139,0.011627197265625,-0.3529815673828125,-0.9273529052734376,-0.0393559262156486,-0.0255804602056741,-0.0371068902313709
1768730684149,0.010772705078125,-0.345245361328125,-0.9346923828125,-0.0325675308704376,-0.022671490907669,-0.0375673472881317
1768730684159,0.0110626220703125,-0.3369598388671875,-0.940704345703125,-0.0250646062195301,-0.017461547628045,-0.03796948492527
1768730684169,0.0092010498046875,-0.3373565673828125,-0.942718505859375,-0.0245527476072311,-0.002796585438773,-0.0389356799423694
1768730684179,0.01177978515625,-0.34234619140625,-0.93707275390625,-0.0279016718268394,0.0005787048721686,-0.0376629568636417
1768730684189,0.0171966552734375,-0.3428497314453125,-0.932861328125,-0.0324370339512825,-0.0076094502583146,-0.0310910735279321
1768730684199,0.02777099609375,-0.34637451171875,-0.932769775390625,-0.0328341126441955,-0.0094206659123301,-0.0183041729032993
1768730684209,0.0386199951171875,-0.3499298095703125,-0.934326171875,-0.0346077792346477,-0.0114345485344529,-0.005288771353662
1768730684219,0.0411376953125,-0.35137939453125,-0.937530517578125,-0.032001607120037,-0.0074941352941095,0.0069401976652443
1768730684229,0.0384521484375,-0.349517822265625,-0.9352874755859376,-0.0292471013963222,0.0042227082885801,0.0146868005394935
1768730684239,0.0312957763671875,-0.3526153564453125,-0.9353485107421876,-0.0240281037986278,0.0087940245866775,0.0181531719863414
1768730684249,0.0233612060546875,-0.352325439453125,-0.934783935546875,-0.0187566429376602,0.0068065072409808,0.0170900374650955
1768730684259,0.0190887451171875,-0.349456787109375,-0.9360198974609376,-0.0154684381559491,0.0076451366767287,0.0111940652132034
1768730684269,0.0124969482421875,-0.34844970703125,-0.935455322265625,-0.0169952288269996,0.0115171065554022,0.0022085595410317
1768730684279,0.00482177734375,-0.3496551513671875,-0.93212890625,-0.0215271301567554,0.0146761480718851,-0.0076632457785308
1768730684290,0.005523681640625,-0.348236083984375,-0.9310150146484376,-0.0220914538949728,0.0114784901961684,-0.0109533155336976
1768730684300,0.0128936767578125,-0.3461456298828125,-0.9345550537109376,-0.0188724901527166,0.0080597903579473,-0.0071465927176177
1768730684310,0.023590087890625,-0.345001220703125,-0.9413299560546876,-0.0097293267026543,0.004816326778382,0.0011422297684475
1768730684320,0.02862548828125,-0.345672607421875,-0.941680908203125,-0.0070997211150825,-0.0024272049777209,0.0083093289285898
1768730684330,0.02813720703125,-0.3484649658203125,-0.9394989013671876,-0.0043145874515175,-0.0053894389420747,0.0201284382492303
1768730684340,0.02960205078125,-0.348907470703125,-0.9397125244140624,0.0017880463274195,-0.0049763829447329,0.0303744170814752
1768730684350,0.0289459228515625,-0.349029541015625,-0.9397735595703124,0.0014191985828801,-0.0010487528052181,0.0397415533661842
1768730684360,0.0216827392578125,-0.3516082763671875,-0.9334259033203124,-0.0022540995851159,-0.0060270000249147,0.0381279438734054
1768730684370,0.01763916015625,-0.3568267822265625,-0.9285430908203124,-0.0072893383912742,-0.0004612595075741,0.0248832460492849
1768730684381,0.0148468017578125,-0.3536224365234375,-0.9302520751953124,-0.0052094091661274,0.0156066566705703,0.0177627522498369
1768730684390,0.01312255859375,-0.3431243896484375,-0.9367218017578124,0.0020785972010344,0.0290297865867614,0.0146641638129949
1768730684400,0.013946533203125,-0.3410186767578125,-0.94091796875,0.0113599793985486,0.0337502397596836,0.0122207133099436
1768730684410,0.015716552734375,-0.3404998779296875,-0.9430084228515624,0.0114851482212543,0.0225652307271957,0.0077697723172605
1768730684420,0.00946044921875,-0.345703125,-0.9317626953125,0.0084097301587462,0.0120156500488519,0.0008713863207958
1768730684431,0.0074920654296875,-0.3470306396484375,-0.9308624267578124,0.0008564725867472,-0.0021065603941679,-0.0044442829675972
1768730684440,0.0165252685546875,-0.3444061279296875,-0.9341583251953124,-0.001669269404374,-0.0090299798175692,-0.0006370281334966
1768730684450,0.022979736328125,-0.3491668701171875,-0.9342041015625,-0.0108917960897088,-0.0173640772700309,-0.003302852390334
1768730684460,0.0238800048828125,-0.3553466796875,-0.92462158203125,-0.0264345370233058,-0.0144604323431849,-0.0008647284121252
1768730684470,0.0242919921875,-0.3555145263671875,-0.9224090576171876,-0.0402499511837959,-0.0081628551706671,0.0072872075252234
1768730684481,0.026519775390625,-0.3545989990234375,-0.9265289306640624,-0.0490498356521129,-0.0018461032304912,0.0116321546956896
1768730684490,0.02105712890625,-0.3537445068359375,-0.9266510009765624,-0.0543532520532608,-0.0055731972679495,0.0115677062422037
1768730684501,0.017181396484375,-0.3504180908203125,-0.9326934814453124,-0.047939296811819,0.0040583913214504,0.0167278479784727
1768730684511,0.021453857421875,-0.3444366455078125,-0.944580078125,-0.0314721725881099,0.0147802773863077,0.026853185147047
1768730684521,0.0250244140625,-0.3413238525390625,-0.95355224609375,-0.0128569426015019,0.0248243901878595,0.0326844416558742
1768730684531,0.0238037109375,-0.339996337890625,-0.958251953125,0.0065646921284496,0.0319502092897892,0.0301291402429342
1768730684541,0.0156402587890625,-0.3436431884765625,-0.95263671875,0.0190818160772323,0.0335169471800327,0.0256209410727024
1768730684551,0.01043701171875,-0.34423828125,-0.946258544921875,0.0252318531274795,0.0291363131254911,0.0159020014107227
1768730684561,0.0073699951171875,-0.342376708984375,-0.9395751953125,0.0275573246181011,0.0261479802429676,0.007848335430026
1768730684571,0.008148193359375,-0.34356689453125,-0.9365081787109376,0.0262340009212493,0.0159653834998607,-0.0007827030494809
1768730684582,0.01080322265625,-0.3412628173828125,-0.9296417236328124,0.0235753674060106,0.0020647486671805,-0.0068373996764421
1768730684591,0.0166778564453125,-0.3420562744140625,-0.9308319091796876,0.0276097897440195,-0.0049873017705976,-0.0047406931407749
1768730684601,0.0234527587890625,-0.33770751953125,-0.9395294189453124,0.0315619222819805,-0.0046557383611798,0.0007984156836755
1768730684611,0.030731201171875,-0.33837890625,-0.9404754638671876,0.0334330573678016,-0.0045129926875233,0.0058118165470659
1768730684621,0.0291595458984375,-0.3423614501953125,-0.936767578125,0.0302489828318357,-0.002510828198865,0.0094773909077048
1768730684631,0.023223876953125,-0.345367431640625,-0.93011474609375,0.0189515873789787,0.0047958204522728,0.002280997345224
1768730684641,0.018798828125,-0.3474884033203125,-0.92315673828125,0.0100046973675489,0.0115136438980698,0.0059662796556949
1768730684651,0.0235748291015625,-0.34722900390625,-0.92822265625,0.0028519791085273,0.0211431011557579,0.0125677231699228
1768730684661,0.022918701171875,-0.347991943359375,-0.92706298828125,-0.000957406417001,0.0289738606661558,0.0169760547578334
1768730684671,0.023529052734375,-0.34796142578125,-0.9326934814453124,2.50337143370416e-05,0.0432143174111843,0.0211063511669635
1768730684681,0.0255126953125,-0.3492584228515625,-0.9365997314453124,0.0037161749787628,0.0361859686672687,0.0189880728721618
1768730684693,0.022552490234375,-0.3485870361328125,-0.9344024658203124,0.006237655878067,0.0382315404713153,0.0140223419293761
1768730684701,0.0177001953125,-0.3507537841796875,-0.936004638671875,0.0060794642195105,0.045671347528696,0.0123634589836001
1768730684711,0.016357421875,-0.352020263671875,-0.9356231689453124,0.0100409165024757,0.0487646088004112,0.0126590700820088
1768730684722,0.0201568603515625,-0.3502960205078125,-0.9364013671875,0.0180695485323667,0.049892459064722,0.0130918333306908
1768730684732,0.0212554931640625,-0.345458984375,-0.939910888671875,0.0208509527146816,0.0543705634772777,0.0101197455078363
1768730684742,0.0133209228515625,-0.3437652587890625,-0.935882568359375,0.0188471917062997,0.0464612431824207,0.0016168050933629
1768730684752,0.007171630859375,-0.3489227294921875,-0.929046630859375,0.025161013007164,0.0320410244166851,-0.007031544111669
1768730684762,0.016510009765625,-0.35491943359375,-0.9327850341796876,0.0296929143369197,0.0133480299264192,-0.0093383742496371
1768730684772,0.0272674560546875,-0.34771728515625,-0.9380340576171876,0.0409434400498867,-0.0053521548397839,-0.0059630838222801
1768730684782,0.0213623046875,-0.3478546142578125,-0.9427032470703124,0.0491829924285411,-0.0121730426326394,-0.0066682891920208
1768730684792,0.023193359375,-0.3681640625,-0.9342041015625,0.0548203699290752,-0.0158956088125705,-0.0177742037922143
1768730684802,0.02142333984375,-0.347442626953125,-0.9368743896484376,0.0604838505387306,0.0004178499802947,-0.0255985707044601
1768730684812,0.0122222900390625,-0.3424072265625,-0.9473114013671876,0.0648871213197708,0.0350330844521522,-0.0367705300450325
1768730684822,0.0045013427734375,-0.3391265869140625,-0.9471435546875,0.0702515244483947,0.0457933209836483,-0.0419245474040508
1768730684832,0.009002685546875,-0.3461456298828125,-0.9429931640625,0.0908244475722312,0.0397846959531307,-0.0375769361853599
1768730684842,0.02984619140625,-0.3531951904296875,-0.9520111083984376,0.1194052249193191,0.0394802987575531,-0.0236201081424951
1768730684852,0.04327392578125,-0.352935791015625,-0.9606781005859376,0.1519192308187484,0.0438279062509536,-0.0031515848822891
1768730684863,0.0471954345703125,-0.3479766845703125,-0.96856689453125,0.1778299212455749,0.0483869723975658,0.0116350846365094
1768730684872,0.0418853759765625,-0.3469085693359375,-0.96484375,0.1956909447908401,0.0486764572560787,0.0176945738494396
1768730684882,0.0313720703125,-0.3525848388671875,-0.9503936767578124,0.2007781118154525,0.042608980089426,0.0029481193050742
1768730684892,0.0118560791015625,-0.358612060546875,-0.9353179931640624,0.188673511147499,0.0377290025353431,-0.0187542457133531
1768730684902,0.0061492919921875,-0.36688232421875,-0.9193267822265624,0.1786592304706573,0.0499260127544403,-0.0302111655473709
1768730684912,0.0204925537109375,-0.3711700439453125,-0.9196624755859376,0.1688659787178039,0.040349818766117,-0.0345672965049743
1768730684923,0.027740478515625,-0.371673583984375,-0.912841796875,0.1606464087963104,0.0201649237424135,-0.0342112332582473
1768730684933,0.035491943359375,-0.374786376953125,-0.911407470703125,0.152810052037239,0.0057199373841285,-0.0328913703560829
1768730684943,0.0374298095703125,-0.371856689453125,-0.9151153564453124,0.1513098925352096,-0.0055646752007305,-0.0301150251179933
1768730684952,0.03997802734375,-0.369537353515625,-0.9170074462890624,0.1502430289983749,-0.0304156970232725,-0.0252491645514965
1768730684963,0.0384521484375,-0.373931884765625,-0.9150848388671876,0.1479178220033645,-0.0425048507750034,-0.0274412110447883
1768730684973,0.03125,-0.374114990234375,-0.9183807373046876,0.1392281949520111,-0.0228874720633029,-0.0285344384610652
1768730684983,0.024658203125,-0.3736114501953125,-0.9172210693359376,0.1238404512405395,0.0039188414812088,-0.032170720398426
1768730684993,0.0189666748046875,-0.3763275146484375,-0.906982421875,0.1075501590967178,0.0223439205437898,-0.0343539789319038
1768730685003,0.020843505859375,-0.37957763671875,-0.899932861328125,0.08759456127882,0.0215646810829639,-0.0376975759863853
1768730685013,0.023040771484375,-0.3829193115234375,-0.896331787109375,0.0635874941945076,0.0315171778202056,-0.0392320901155471
1768730685026,0.02337646484375,-0.385467529296875,-0.8926544189453125,0.0339308008551597,0.0381548404693603,-0.0413461066782474
1768730685034,0.025299072265625,-0.3805694580078125,-0.8876953125,0.0100062955170869,0.0364259183406829,-0.0413272008299827
1768730685043,0.0343475341796875,-0.3756103515625,-0.8953857421875,-0.0001371527905575,0.0232952032238245,-0.0292497649788856
1768730685053,0.05029296875,-0.371246337890625,-0.910919189453125,4.420847471919842e-05,-0.0073183667846024,-0.0175467692315578
1768730685063,0.05279541015625,-0.3714141845703125,-0.9152069091796876,0.0056791910901665,-0.0343939252197742,-0.0142465801909565
1768730685073,0.0433197021484375,-0.3760223388671875,-0.9148712158203124,-0.0009946906939148,-0.0415980443358421,-0.0170120056718587
1768730685083,0.033782958984375,-0.3756256103515625,-0.90850830078125,-0.0064123594202101,-0.0246353056281805,-0.0163014754652977
1768730685093,0.030426025390625,-0.379119873046875,-0.91156005859375,-0.0070925303734838,-0.0007211840129457,-0.0127506824210286
1768730685103,0.0326995849609375,-0.3760223388671875,-0.9143524169921876,-0.0181917864829301,0.0063479105010628,-0.0071322117000818
1768730685113,0.0267791748046875,-0.379547119140625,-0.908843994140625,-0.0290439017117023,-0.0070336745120584,-0.0080794980749487
1768730685124,0.02642822265625,-0.382354736328125,-0.9088592529296876,-0.0326442308723926,-0.0175518300384283,-0.0096528939902782
1768730685134,0.037200927734375,-0.3760833740234375,-0.923004150390625,-0.0342738181352615,-0.0284643974155187,-0.0014839133946225
1768730685144,0.0451507568359375,-0.3728179931640625,-0.9300994873046876,-0.0305778831243515,-0.0304053090512752,0.0073452647775411
1768730685154,0.043853759765625,-0.3770599365234375,-0.9308013916015624,-0.0307967942208051,-0.0202232468873262,0.0141451135277748
1768730685163,0.0416717529296875,-0.3791961669921875,-0.9256591796875,-0.0307967942208051,-0.0202232468873262,0.0141451135277748
1768730685174,0.0376739501953125,-0.382110595703125,-0.9197540283203124,-0.0416824668645858,-0.0072107748128473,0.0228941310197114
1768730685184,0.039031982421875,-0.3800201416015625,-0.9138336181640624,-0.0422084406018257,-0.0080555295571684,0.0295818597078323
1768730685194,0.042022705078125,-0.378143310546875,-0.9196319580078124,-0.0404757857322692,-0.0076571209356188,0.0302343349903821
1768730685204,0.036956787109375,-0.375579833984375,-0.9234619140625,-0.042168490588665,0.0043284357525408,0.020133763551712
1768730685214,0.022308349609375,-0.377685546875,-0.9197235107421876,-0.0503638386726379,0.0183811374008655,0.0112382732331752
1768730685224,0.01922607421875,-0.382781982421875,-0.913818359375,-0.0531460419297218,0.0226584412157535,0.0097527625039219
1768730685234,0.0276336669921875,-0.3805084228515625,-0.91802978515625,-0.0533646866679191,0.0218384526669979,0.0182343982160091
1768730685244,0.03192138671875,-0.37738037109375,-0.921966552734375,-0.050537209957838,0.0116310892626643,0.0257394518703222
1768730685254,0.0306243896484375,-0.3727569580078125,-0.9260406494140624,-0.0440646633505821,-0.0019369170768186,0.0271828845143318
1768730685264,0.028961181640625,-0.3710784912109375,-0.9292449951171876,-0.0412614196538925,0.0016088156262412,0.0228627044707536
1768730685274,0.0256500244140625,-0.3732757568359375,-0.9274444580078124,-0.0430768951773643,0.0016556872287765,0.0180474445223808
1768730685284,0.025054931640625,-0.3742218017578125,-0.922393798828125,-0.0397607274353504,-0.0032325449865311,0.0227492544800043
1768730685296,0.0305328369140625,-0.37579345703125,-0.9276580810546876,-0.0328809842467308,-0.0109013831242918,0.0303509812802076
1768730685305,0.03582763671875,-0.37432861328125,-0.9298553466796876,-0.0265485197305679,-0.0100478399544954,0.0327211953699588
1768730685315,0.032318115234375,-0.3719024658203125,-0.932220458984375,-0.0178804639726877,-0.0053361756727099,0.0307384710758924
1768730685324,0.0263671875,-0.37060546875,-0.93310546875,-0.0107652964070439,-0.0035702337045222,0.0254726037383079
1768730685334,0.022979736328125,-0.3708953857421875,-0.9317626953125,-0.0048749162815511,0.002029062481597,0.0174194704741239
1768730685345,0.021209716796875,-0.371429443359375,-0.9268035888671876,-0.0023124227300286,0.0021446435712277,0.0127565413713455
1768730685355,0.021636962890625,-0.3732147216796875,-0.9283599853515624,0.0085908249020576,-0.0032328111119568,0.0140550984069705
1768730685365,0.0330810546875,-0.3740997314453125,-0.9317474365234376,0.0140764042735099,0.0020216056145727,0.0234201047569513
1768730685375,0.0400543212890625,-0.3771209716796875,-0.9308929443359376,0.0128854382783174,0.0011582087026908,0.0316543318331241
1768730685385,0.0340423583984375,-0.378448486328125,-0.9231414794921876,0.0134763941168785,-0.0054179350845515,0.034192856401205
1768730685395,0.0350189208984375,-0.37567138671875,-0.9219207763671876,0.0084310350939631,-0.0054964981973171,0.0343513153493404
1768730685405,0.0336456298828125,-0.3768310546875,-0.9190521240234376,-0.0016639430541545,-0.0039667785167694,0.0252829864621162
1768730685415,0.0261993408203125,-0.3773193359375,-0.91107177734375,-0.0153509927913546,-0.005503156222403,0.0164452865719795
1768730685425,0.0224609375,-0.3816375732421875,-0.9107513427734376,-0.0260366611182689,0.0013851100811734,0.0152604458853602
1768730685435,0.0241851806640625,-0.3810577392578125,-0.9142608642578124,-0.0363055430352687,0.0052592107094824,0.0192977972328662
1768730685445,0.0227508544921875,-0.377227783203125,-0.9138031005859376,-0.0431924760341644,0.0022277343086898,0.0207918304949998
1768730685455,0.0224456787109375,-0.3717498779296875,-0.918426513671875,-0.0412433110177516,-0.000899615813978,0.0193974003195762
1768730685465,0.0216522216796875,-0.3649139404296875,-0.925506591796875,-0.0372006334364414,-0.0030748858116567,0.0197875536978244
1768730685475,0.018402099609375,-0.3672027587890625,-0.9288177490234376,-0.0354914143681526,-0.0002290318516315,0.016948889940977
1768730685485,0.0183868408203125,-0.3755340576171875,-0.927459716796875,-0.0368506908416748,-0.0166314411908388,0.0127528132870793
1768730685495,0.01959228515625,-0.3791351318359375,-0.922149658203125,-0.0323286466300487,-0.0309525895863771,0.0102489087730646
1768730685506,0.0245361328125,-0.365478515625,-0.9315338134765624,-0.014127536676824,-0.0196962058544158,0.0209409687668085
1768730685515,0.0255279541015625,-0.3797454833984375,-0.9388580322265624,-0.0150418002158403,-0.0198690462857484,0.0178820621222257
1768730685525,0.0287017822265625,-0.38531494140625,-0.920166015625,-0.017592841759324,-0.0184911265969276,0.0069119683466851
1768730685535,0.0223846435546875,-0.3705596923828125,-0.9259796142578124,-0.0170823149383068,0.0003818972909357,0.005991845857352
1768730685546,0.01849365234375,-0.366302490234375,-0.9328460693359376,-0.0166005473583936,0.0069833411835134,-0.003269829088822
1768730685556,0.00958251953125,-0.3659210205078125,-0.927398681640625,-0.0204722508788108,-0.003556385403499,-0.0174285247921943
1768730685566,0.0057373046875,-0.3748779296875,-0.9168243408203124,-0.023904800415039,-0.0040120519697666,-0.0274430755525827
1768730685576,0.0108489990234375,-0.371429443359375,-0.9188385009765624,-0.0251152068376541,-0.0070589748211205,-0.0365268513560295
1768730685586,0.013946533203125,-0.358642578125,-0.926513671875,-0.0205790437757968,-0.0114334831014275,-0.0374459102749824
1768730685596,0.019378662109375,-0.352325439453125,-0.93133544921875,-0.0123133910819888,-0.0271855480968952,-0.0365313775837421
1768730685606,0.022308349609375,-0.3532257080078125,-0.9329833984375,-0.0019174759509041,-0.0343148298561573,-0.0328985601663589
1768730685616,0.028533935546875,-0.36041259765625,-0.9328765869140624,0.0035441347863525,-0.0350807569921016,-0.0258712787181139
1768730685626,0.0330657958984375,-0.3666229248046875,-0.9308013916015624,0.0040509342215955,-0.0300559028983116,-0.0158958751708269
1768730685636,0.033721923828125,-0.3693695068359375,-0.924560546875,0.00013102752564,-0.0312585867941379,-0.0119293639436364
1768730685646,0.0298919677734375,-0.371734619140625,-0.91864013671875,-0.0033262881916016,-0.0338069647550582,-0.0108494516462087
1768730685656,0.0238037109375,-0.3726043701171875,-0.9181060791015624,-0.0084893582388758,-0.0243809726089239,-0.0130084762349724
1768730685666,0.02362060546875,-0.37158203125,-0.9202880859375,-0.0083181168884038,-0.0155773619189858,-0.0143669545650482
1768730685676,0.0260772705078125,-0.36944580078125,-0.92767333984375,-0.0058666775003075,-0.012622850947082,-0.0132878422737121
1768730685686,0.0269012451171875,-0.3687286376953125,-0.9266815185546876,4.873584839515388e-05,-0.0108142979443073,-0.0090432958677411
1768730685697,0.0284576416015625,-0.3715972900390625,-0.9278717041015624,0.0034067155793309,-0.0126588037237524,-0.0047385622747242
1768730685706,0.0235137939453125,-0.3736572265625,-0.9234771728515624,0.0003400856803636,-0.017861820757389,-0.0045500108972191
1768730685716,0.0189056396484375,-0.3734588623046875,-0.9190521240234376,-0.0071623055264353,-0.0355785004794597,-0.0088728535920381
1768730685726,0.0146484375,-0.372344970703125,-0.9142913818359376,-0.014764298684895,-0.05840365588665,-0.0176618173718452
1768730685736,0.0123291015625,-0.372283935546875,-0.9138641357421876,-0.0250765904784202,-0.0743578523397445,-0.0305528491735458
1768730685747,0.007904052734375,-0.3687744140625,-0.915679931640625,-0.033775009214878,-0.0782133117318153,-0.0443839766085147
1768730685757,0.0074310302734375,-0.3643951416015625,-0.9212646484375,-0.0404587425291538,-0.0736228227615356,-0.0521883703768253
1768730685767,0.0099334716796875,-0.3663482666015625,-0.92596435546875,-0.0517718493938446,-0.0680363103747367,-0.0639086738228797
1768730685778,0.0046234130859375,-0.3677520751953125,-0.919891357421875,-0.0624846816062927,-0.0674293711781501,-0.0798439681529998
1768730685787,0.00872802734375,-0.3721771240234375,-0.92120361328125,-0.0623025223612785,-0.069151371717453,-0.0892545133829116
1768730685797,0.0187225341796875,-0.3709564208984375,-0.9300689697265624,-0.0583988614380359,-0.0657790154218673,-0.0940002650022506
1768730685807,0.026702880859375,-0.36895751953125,-0.9392852783203124,-0.043460126966238,-0.0503475926816463,-0.0892007127404213
1768730685817,0.03106689453125,-0.3677978515625,-0.9427490234375,-0.0258134882897138,-0.0468625798821449,-0.0822258964180946
1768730685827,0.02642822265625,-0.3619384765625,-0.9402923583984376,-0.0129107385873794,-0.0357745103538036,-0.0720558166503906
1768730685837,0.0195465087890625,-0.363800048828125,-0.9373016357421876,-0.0152913378551602,-0.0249106753617525,-0.0744622498750686
1768730685847,0.0088348388671875,-0.369903564453125,-0.9214630126953124,-0.0269024539738893,-0.0351124480366706,-0.08663821965456
1768730685857,0.0020599365234375,-0.3678436279296875,-0.91326904296875,-0.0393189117312431,-0.0486700683832168,-0.0959084182977676
1768730685867,0.0014190673828125,-0.36968994140625,-0.91436767578125,-0.0559578090906143,-0.07280283421278,-0.1076841205358505
1768730685877,0.0009307861328125,-0.3680877685546875,-0.91180419921875,-0.0666671767830848,-0.0818155035376548,-0.1148291155695915
1768730685887,0.005859375,-0.3632965087890625,-0.9197235107421876,-0.0680695995688438,-0.0804080218076706,-0.1139380186796188
1768730685897,0.0194091796875,-0.3574981689453125,-0.9304962158203124,-0.058992214500904,-0.0886640921235084,-0.1056044548749923
1768730685907,0.0305328369140625,-0.360443115234375,-0.93701171875,-0.0483784526586532,-0.082991823554039,-0.0902816951274871
1768730685917,0.036590576171875,-0.365570068359375,-0.93780517578125,-0.0404110737144947,-0.070193201303482,-0.0746904835104942
1768730685927,0.032318115234375,-0.367645263671875,-0.9347381591796876,-0.0340008437633514,-0.0561681985855102,-0.065890334546566
1768730685937,0.0296630859375,-0.370452880859375,-0.9362030029296876,-0.025358086451888,-0.0422148331999778,-0.057018544524908
1768730685948,0.0267333984375,-0.372894287109375,-0.9347686767578124,-0.0214477684348821,-0.034781415015459,-0.0464455299079418
1768730685957,0.0242919921875,-0.3728790283203125,-0.933624267578125,-0.018983544781804,-0.0123967481777071,-0.038862444460392
1768730685967,0.0230865478515625,-0.37530517578125,-0.9290008544921876,-0.0169249214231967,0.0019587550777941,-0.028082501143217
1768730685978,0.0229034423828125,-0.371734619140625,-0.930511474609375,-0.0142777394503355,0.0016751283546909,-0.0185654293745756
1768730685988,0.02679443359375,-0.3674774169921875,-0.9314117431640624,-0.0139110218733549,-0.018908442929387,-0.0115751633420586
1768730685997,0.0201568603515625,-0.36334228515625,-0.929168701171875,-0.0139110218733549,-0.018908442929387,-0.0115751633420586
1768730686007,0.0045928955078125,-0.364501953125,-0.9225006103515624,-0.0198264345526695,-0.0649417117238044,-0.0329142734408378
1768730686018,-0.0030517578125,-0.3604583740234375,-0.9249114990234376,-0.0298859942704439,-0.0575684867799282,-0.0451475046575069
1768730686028,-0.0032501220703125,-0.3578948974609375,-0.9268341064453124,-0.034041590988636,-0.0455965138971805,-0.0530709400773048
1768730686038,0.00042724609375,-0.355926513671875,-0.9350433349609376,-0.0302732177078723,-0.0441378988325595,-0.0567663423717021
1768730686048,0.00335693359375,-0.355804443359375,-0.9358673095703124,-0.0203002113848924,-0.0372267290949821,-0.0555186532437801
1768730686058,0.0102691650390625,-0.356964111328125,-0.9417266845703124,-0.007129015866667,-0.0198432132601737,-0.0473195798695087
1768730686068,0.0217132568359375,-0.354034423828125,-0.948944091796875,0.0111591778695583,-0.0099716736003756,-0.0292502976953983
1768730686078,0.0311737060546875,-0.35601806640625,-0.9509124755859376,0.0238193124532699,-0.0094566186890006,-0.0123322997242212
1768730686088,0.030487060546875,-0.362548828125,-0.9416656494140624,0.0295248683542013,-0.0183827355504035,-0.0038317560683935
1768730686098,0.022857666015625,-0.3657684326171875,-0.934234619140625,0.0360038056969642,-0.0119626531377434,0.0023816649336367
1768730686108,0.017059326171875,-0.364837646484375,-0.9337921142578124,0.0359907560050487,-0.0184386614710092,-5.299690383253619e-05
1768730686118,0.009033203125,-0.3612823486328125,-0.9254150390625,0.0312892124056816,-0.0310093145817518,-0.0133954342454671
1768730686128,-0.00079345703125,-0.364959716796875,-0.917266845703125,0.0208530835807323,-0.0292159430682659,-0.029791185632348
1768730686138,-0.001434326171875,-0.3676300048828125,-0.9174652099609376,0.011281949467957,-0.0245434269309043,-0.0415019020438194
1768730686149,0.000946044921875,-0.3675994873046875,-0.9199371337890624,0.0009867012267932,-0.0259748753160238,-0.0468790903687477
1768730686158,-0.000152587890625,-0.365753173828125,-0.916473388671875,-0.0031489215325564,-0.0399791076779365,-0.0486682020127773
1768730686169,0.005035400390625,-0.3618011474609375,-0.9213409423828124,-0.0010045443195849,-0.0333667434751987,-0.0441863685846328
1768730686179,0.0101165771484375,-0.359222412109375,-0.9314422607421876,0.0028138959314674,-0.033571008592844,-0.0387362092733383
1768730686189,0.0127105712890625,-0.3563385009765625,-0.936126708984375,0.0079961409792304,-0.0283794440329074,-0.0341371968388557
1768730686199,0.014495849609375,-0.3564300537109375,-0.937835693359375,0.01424977555871,-0.0195880830287933,-0.0332775302231311
1768730686209,0.010040283203125,-0.3658447265625,-0.934356689453125,0.011094463057816,-0.013359747827053,-0.0367193967103958
1768730686219,0.0084991455078125,-0.3738555908203125,-0.925048828125,0.0021073594689369,-0.0178346578031778,-0.0452335253357887
1768730686229,0.0054473876953125,-0.3626708984375,-0.9236602783203124,0.007619303651154,-0.0117304259911179,-0.0447711981832981
1768730686239,0.006195068359375,-0.3675689697265625,-0.92926025390625,0.0103658214211463,-0.0186312086880207,-0.0433413498103618
1768730686250,0.0128631591796875,-0.37689208984375,-0.9166259765625,0.0083998767659068,-0.054524227976799,-0.0584284216165542
1768730686259,0.0035552978515625,-0.3548126220703125,-0.9231719970703124,0.0193404089659452,-0.0621539168059825,-0.0723727345466613
1768730686269,-0.00360107421875,-0.351318359375,-0.93853759765625,0.0209548156708478,-0.0540746860206127,-0.0858896076679229
1768730686279,-0.0114898681640625,-0.35418701171875,-0.9291534423828124,0.0178682133555412,-0.0527196712791919,-0.1076311245560646
1768730686289,-0.01422119140625,-0.3643646240234375,-0.921539306640625,0.0116681074723601,-0.0631773695349693,-0.1284937858581543
1768730686299,-0.01019287109375,-0.3663787841796875,-0.9173583984375,-3.27568814100232e-05,-0.0770596340298652,-0.1454541385173797
1768730686309,-0.0051727294921875,-0.361541748046875,-0.9149627685546876,-0.0081817638128995,-0.079190157353878,-0.1472823917865753
1768730686319,0.001007080078125,-0.3543548583984375,-0.923492431640625,-0.006833937484771,-0.0693106278777122,-0.1409904062747955
1768730686329,0.0110626220703125,-0.352081298828125,-0.9333343505859376,-0.0070888022892177,-0.0667595863342285,-0.1328776180744171
1768730686339,0.0151824951171875,-0.359619140625,-0.9278411865234376,-0.0144053045660257,-0.0761789232492446,-0.127131313085556
1768730686349,0.008514404296875,-0.3682098388671875,-0.918853759765625,-0.0190312154591083,-0.0774314105510711,-0.123270533978939
1768730686359,0.0110015869140625,-0.3708343505859375,-0.9233856201171876,-0.0240755081176757,-0.0757264494895935,-0.1147508174180984
1768730686369,0.020782470703125,-0.371795654296875,-0.926788330078125,-0.0309403389692306,-0.0902625173330307,-0.1083855926990509
1768730686379,0.0126190185546875,-0.3743896484375,-0.917572021484375,-0.0351180396974086,-0.0967401266098022,-0.1199937835335731
1768730686390,-0.003692626953125,-0.3701934814453125,-0.91455078125,-0.0380999818444252,-0.1009641662240028,-0.1321878582239151
1768730686400,-0.004638671875,-0.364776611328125,-0.920501708984375,-0.0320162549614906,-0.0855380669236183,-0.1438738107681274
1768730686410,-0.004302978515625,-0.36077880859375,-0.934356689453125,-0.0220384560525417,-0.0636828392744064,-0.1442828774452209
1768730686420,0.0029296875,-0.35894775390625,-0.938873291015625,-0.0058427089825272,-0.0569394491612911,-0.1366683691740036
1768730686430,0.0097808837890625,-0.3638916015625,-0.939788818359375,0.0112111093476414,-0.060300625860691,-0.1308493614196777
1768730686440,0.0052947998046875,-0.361572265625,-0.939483642578125,0.0198248364031314,-0.0598854385316371,-0.1299766451120376
1768730686450,0.00115966796875,-0.360595703125,-0.93585205078125,0.0273360162973403,-0.0616226159036159,-0.1282759457826614
1768730686460,0.0019683837890625,-0.36151123046875,-0.934814453125,0.0251021571457386,-0.0580902025103569,-0.1208143010735511
1768730686470,0.0023651123046875,-0.3654632568359375,-0.92822265625,0.0231380760669708,-0.0601445622742176,-0.1099992021918296
1768730686481,0.0107574462890625,-0.3665771484375,-0.932281494140625,0.0285834409296512,-0.0633608624339103,-0.0842144787311554
1768730686490,0.0244293212890625,-0.3665008544921875,-0.9370269775390624,0.0305033139884471,-0.0763110145926475,-0.0590196438133716
1768730686500,0.02490234375,-0.370452880859375,-0.9300689697265624,0.0318045355379581,-0.0883114859461784,-0.0428726337850093
1768730686510,0.0213623046875,-0.375244140625,-0.92340087890625,0.0213803891092538,-0.1042853891849517,-0.0389599166810512
1768730686520,0.0129852294921875,-0.371734619140625,-0.9166107177734376,0.018343586474657,-0.100238986313343,-0.0448396429419517
1768730686530,0.003509521484375,-0.3634185791015625,-0.9231109619140624,0.0178213417530059,-0.0994842424988746,-0.048552356660366
1768730686540,-0.0032196044921875,-0.357025146484375,-0.91827392578125,0.0130295157432556,-0.1035546213388443,-0.0608748011291027
1768730686550,-0.0155487060546875,-0.35931396484375,-0.9126129150390624,0.0094270575791597,-0.0969201549887657,-0.0720025524497032
1768730686561,-0.01373291015625,-0.3597869873046875,-0.918304443359375,-0.0001794970594346,-0.0883991047739982,-0.0756710618734359
1768730686570,-0.007965087890625,-0.3577423095703125,-0.919769287109375,-0.0047891624271869,-0.0913685262203216,-0.074193000793457
1768730686581,0.002716064453125,-0.3592681884765625,-0.9214935302734376,-0.0102062989026308,-0.0952143967151641,-0.0697668269276619
1768730686592,0.009307861328125,-0.359710693359375,-0.9254913330078124,-0.0173512939363718,-0.0946554020047187,-0.0677590742707252
1768730686600,0.007537841796875,-0.36572265625,-0.9221038818359376,-0.0233487319201231,-0.0845638886094093,-0.063236229121685
1768730686611,0.0105133056640625,-0.3687286376953125,-0.925994873046875,-0.0314263664186,-0.0667156502604484,-0.0591056644916534
1768730686621,0.0067596435546875,-0.369903564453125,-0.9242095947265624,-0.0380632281303405,-0.0590843595564365,-0.0556238479912281
1768730686631,0.004119873046875,-0.369964599609375,-0.920684814453125,-0.0451629497110843,-0.0648245364427566,-0.0510253682732582
1768730686641,0.00360107421875,-0.3690643310546875,-0.9176025390625,-0.0481574088335037,-0.0591543987393379,-0.0474167838692665
1768730686651,0.003204345703125,-0.368988037109375,-0.924346923828125,-0.0436121933162212,-0.0565029568970203,-0.0387673676013946
1768730686661,0.006805419921875,-0.36224365234375,-0.9321136474609376,-0.0359934195876121,-0.0691982433199882,-0.0309190340340137
1768730686671,0.0052032470703125,-0.3582305908203125,-0.93121337890625,-0.0313685759902,-0.0805267989635467,-0.0311102494597435
1768730686682,-0.0025177001953125,-0.3589019775390625,-0.928436279296875,-0.0286026168614625,-0.0811752825975418,-0.0319866947829723
1768730686691,-0.0047454833984375,-0.3605804443359375,-0.9296112060546876,-0.0241831000894308,-0.0674964860081672,-0.0305421967059373
1768730686701,-0.0040740966796875,-0.358551025390625,-0.9349365234375,-0.0179963111877441,-0.0522283166646957,-0.0247913654893636
1768730686711,0.0003509521484375,-0.3552398681640625,-0.941253662109375,-0.0100379865616559,-0.0401580706238746,-0.0149054462090134
1768730686721,0.0030364990234375,-0.356842041015625,-0.9398956298828124,-0.0049151298590004,-0.0287474915385246,-0.0043990095146
1768730686731,0.0052490234375,-0.36114501953125,-0.934814453125,-0.0055692023597657,-0.0124377608299255,0.0024080302100628
1768730686741,-0.0001068115234375,-0.364349365234375,-0.9293365478515624,-0.0123898237943649,-0.0059383166953921,0.0052964948117733
1768730686751,-0.0050811767578125,-0.363983154296875,-0.923065185546875,-0.0225836057215929,0.0065300711430609,0.0108004501089453
1768730686761,-0.0030364990234375,-0.362213134765625,-0.923431396484375,-0.0269080474972724,0.0176801942288875,0.0176631491631269
1768730686771,0.00030517578125,-0.357269287109375,-0.9296722412109376,-0.0234744325280189,0.0232320856302976,0.0237391516566276
1768730686781,0.0022125244140625,-0.35711669921875,-0.9376983642578124,-0.0143642919138073,0.0140790669247508,0.0307760220021009
1768730686792,0.0028076171875,-0.3602142333984375,-0.9374542236328124,-0.0078062578104436,0.0113309510052204,0.0411501005291938
1768730686802,0.0067901611328125,-0.3646697998046875,-0.9365386962890624,-0.0061657503247261,0.0113535886630415,0.0501696951687336
1768730686812,0.003631591796875,-0.365997314453125,-0.92999267578125,-0.0100893853232264,-0.0092214616015553,0.0533521696925163
1768730686822,-0.0093841552734375,-0.36932373046875,-0.9208984375,-0.0174229331314563,-0.0179558303207159,0.0459938570857048
1768730686832,-0.012786865234375,-0.3674468994140625,-0.9244537353515624,-0.0194157753139734,0.007040066178888,0.0400403589010238
1768730686842,-0.016265869140625,-0.3631134033203125,-0.9302825927734376,-0.020718328654766,0.022571887820959,0.0333326570689678
1768730686852,-0.0162506103515625,-0.3608551025390625,-0.932464599609375,-0.0158841572701931,0.0362805090844631,0.0345728918910026
1768730686862,-0.010986328125,-0.357696533203125,-0.934539794921875,-0.0090089412406086,0.0259122904390096,0.0349459983408451
1768730686872,-0.0136566162109375,-0.353790283203125,-0.9357452392578124,0.0013257216196507,0.0295991711318492,0.031154191121459
1768730686882,-0.013153076171875,-0.3533935546875,-0.94171142578125,0.0085905585438013,0.0318311676383018,0.0273440070450305
1768730686892,-0.0191192626953125,-0.3526458740234375,-0.9383087158203124,0.0110896686092019,0.0250158701092004,0.0172586161643266
1768730686902,-0.0234832763671875,-0.3559417724609375,-0.9331207275390624,0.0133658731356263,0.0104790059849619,0.0090486221015453
1768730686912,-0.02166748046875,-0.3660736083984375,-0.9254913330078124,0.0094225304201245,0.0061905179172754,0.0043758400715887
1768730686922,-0.009735107421875,-0.3742218017578125,-0.9190826416015624,-0.0035292210523039,0.0018253305461257,0.0130438962951302
1768730686932,0.0023956298828125,-0.3643951416015625,-0.9233551025390624,-0.006100236903876,0.0137168774381279,0.023611320182681
1768730686942,-1.52587890625e-05,-0.366485595703125,-0.9310302734375,-0.0147445909678936,0.0180844608694314,0.0295182112604379
1768730686953,-0.0067901611328125,-0.3835601806640625,-0.9106597900390624,-0.0334583595395088,-0.0067183566279709,0.0153603143990039
1768730686962,-0.0142059326171875,-0.3669891357421875,-0.9090728759765624,-0.0280489455908536,-0.0150460610166192,0.0097136134281754
1768730686972,-0.012908935546875,-0.357513427734375,-0.933837890625,-0.0142351286485791,-0.0088118677958846,0.0134047549217939
1768730686985,-0.0120697021484375,-0.3538665771484375,-0.9449462890625,-0.00696523161605,0.0076989321969449,0.0102004399523139
1768730686993,-0.019317626953125,-0.36041259765625,-0.9401092529296876,-0.0038557245861738,0.0095138764008879,-0.001792041119188
1768730687003,-0.0272369384765625,-0.3595123291015625,-0.9314422607421876,0.0033989925868809,-0.0062853265553712,-0.0144399255514144
1768730687013,-0.0297393798828125,-0.3558807373046875,-0.9320831298828124,0.017079384997487,-0.011927499435842,-0.022569490596652
1768730687023,-0.02490234375,-0.351715087890625,-0.9389801025390624,0.0247226562350988,0.001561944023706,-0.0185105670243501
1768730687033,-0.0146026611328125,-0.3493499755859375,-0.9406585693359376,0.0305469892919063,-0.0011755193118005,-0.0080251693725585
1768730687043,-0.00726318359375,-0.3542327880859375,-0.9367523193359376,0.0369359143078327,-0.0201430842280387,0.0023302659392356
1768730687053,-0.0033721923828125,-0.35986328125,-0.934539794921875,0.0433274991810321,-0.0286971591413021,0.0100230732932686
1768730687063,-0.006195068359375,-0.36151123046875,-0.93206787109375,0.0372288599610328,-0.0188738219439983,0.0074062510393559
1768730687073,-0.013031005859375,-0.3636627197265625,-0.9237823486328124,0.0277168489992618,-0.0027494474779814,0.0015435680979862
1768730687083,-0.01824951171875,-0.3689727783203125,-0.9158172607421876,0.0194477345794439,0.0112454639747738,-0.0006759102689102
1768730687093,-0.0137481689453125,-0.3690948486328125,-0.9162139892578124,0.0197816938161849,0.0157478041946887,-0.0028913940768688
1768730687103,-0.0084991455078125,-0.364654541015625,-0.92584228515625,0.0326506197452545,0.0073868096806108,-0.0036946034524589
1768730687113,-0.00811767578125,-0.3611297607421875,-0.935760498046875,0.0424688979983329,0.0144873298704624,-0.0030000510159879
1768730687124,-0.013092041015625,-0.3633270263671875,-0.934051513671875,0.0448236651718616,0.0289775896817445,-0.0097612841054797
1768730687134,-0.0194854736328125,-0.3655853271484375,-0.9315185546875,0.0525257922708988,0.0257929805666208,-0.0058682751841843
1768730687143,-0.0160369873046875,-0.366424560546875,-0.9340972900390624,0.06277896463871,0.013431386090815,-0.004104730207473
1768730687153,-0.0145721435546875,-0.3665313720703125,-0.9307861328125,0.0631664544343948,-0.0020157466642558,-0.0023382555227726
1768730687163,-0.0154266357421875,-0.37103271484375,-0.92333984375,0.0545255579054355,-0.0006604639347642,-0.0039484025910496
1768730687173,-0.0117034912109375,-0.3730926513671875,-0.9206390380859376,0.0455525703728199,7.829693640815094e-05,0.0062035676091909
1768730687183,-0.0040130615234375,-0.3687286376953125,-0.92120361328125,0.0425839461386203,-0.0005573995877057,0.0176381152123212
1768730687194,0.002899169921875,-0.3697357177734375,-0.9273223876953124,0.0420009791851043,0.0126239163801074,0.032832782715559
1768730687203,0.0047760009765625,-0.3729400634765625,-0.927947998046875,0.0361689217388629,0.0262217503041028,0.0420166924595832
1768730687213,-0.00152587890625,-0.3812408447265625,-0.9199066162109376,0.0246659312397241,0.0322482176125049,0.032740369439125
1768730687224,-0.0078582763671875,-0.3779296875,-0.9156341552734376,0.0162133239209651,0.0373883843421936,0.027812723070383
1768730687234,-0.0125885009765625,-0.3690338134765625,-0.9179840087890624,0.0158529989421367,0.0477049387991428,0.0186272133141756
1768730687244,-0.01300048828125,-0.36578369140625,-0.925445556640625,0.0191092453896999,0.0598761178553104,0.0107551757246255
1768730687253,-0.0183563232421875,-0.36676025390625,-0.92523193359375,0.0149682965129613,0.0605536252260208,0.0038741005118936
1768730687264,-0.0196990966796875,-0.3699798583984375,-0.9238433837890624,0.0112302843481302,0.0518237836658954,-0.0025984463281929
1768730687274,-0.0155181884765625,-0.3694610595703125,-0.9209747314453124,0.0090243872255086,0.0463038496673107,0.0023981765843927
1768730687284,-0.00970458984375,-0.3697052001953125,-0.920318603515625,0.0006442186422646,0.0357960797846317,0.0111381383612751
1768730687294,-0.0047454833984375,-0.36810302734375,-0.9178466796875,-0.0023385216481983,0.0169366393238306,0.015237808227539
1768730687304,-0.0003204345703125,-0.36541748046875,-0.9224853515625,-0.0043824976310133,0.0055007589980959,0.0220176838338375
1768730687314,0.00079345703125,-0.3638916015625,-0.9280853271484376,-0.0071085095405578,-0.0006434197421185,0.0250896401703357
1768730687325,-0.0023345947265625,-0.3668060302734375,-0.9256744384765624,-0.0067942566238343,-0.0059705409221351,0.0234509967267513
1768730687334,-0.008819580078125,-0.3703155517578125,-0.9239501953125,-0.0120031330734491,0.0076424730941653,0.0145363323390483
1768730687344,-0.0094757080078125,-0.37164306640625,-0.92431640625,-0.0121107250452041,0.0139184789732098,0.0103849964216351
1768730687354,-0.008209228515625,-0.375335693359375,-0.929412841796875,-0.0049830405041575,0.0221108943223953,0.0137304598465561
1768730687364,-0.0008392333984375,-0.3740234375,-0.935302734375,0.0057609500363469,0.0266316104680299,0.0204884968698024
1768730687375,0.0012359619140625,-0.37200927734375,-0.9367828369140624,0.0136311240494251,0.0345744900405406,0.0253242645412683
1768730687384,-0.002197265625,-0.368927001953125,-0.9364471435546876,0.0220419187098741,0.0409588851034641,0.0309086479246616
1768730687394,-0.002716064453125,-0.3674468994140625,-0.938140869140625,0.0320447534322738,0.0445783883333206,0.0340735465288162
1768730687404,-0.0030670166015625,-0.3676605224609375,-0.935546875,0.0338884592056274,0.0423410646617412,0.0377830639481544
1768730687414,-0.0081024169921875,-0.3706817626953125,-0.928619384765625,0.0392147786915302,0.039113312959671,0.0345284156501293
1768730687425,-0.010009765625,-0.371917724609375,-0.9279327392578124,0.0337374582886695,0.0363148637115955,0.035645879805088
1768730687435,-0.0108642578125,-0.369781494140625,-0.924774169921875,0.0308676343411207,0.0365841090679168,0.0314684435725212
1768730687445,-0.010284423828125,-0.3702239990234375,-0.9230804443359376,0.026072347536683,0.0306660328060388,0.0288311149924993
1768730687455,-0.0096893310546875,-0.36907958984375,-0.92230224609375,0.0258291997015476,0.0153086483478546,0.0256683453917503
1768730687465,-0.0082550048828125,-0.3699188232421875,-0.9213409423828124,0.0179499723017215,-0.0030834078788757,0.0165765788406133
1768730687475,-0.0109710693359375,-0.37164306640625,-0.915435791015625,0.0130026172846555,-0.0023566312156617,0.0084571344777941
1768730687485,-0.0146026611328125,-0.3740997314453125,-0.9210968017578124,0.0099642174318432,0.0098640825599432,0.0022620889358222
1768730687495,-0.0132293701171875,-0.3716583251953125,-0.92474365234375,0.0116265621036291,0.0198336262255907,0.0088094705715775
1768730687505,-0.006622314453125,-0.3703765869140625,-0.927398681640625,0.0158607214689254,0.018417090177536,0.0175592862069606
1768730687515,0.0012969970703125,-0.37164306640625,-0.92816162109375,0.0202267076820135,0.0202597323805093,0.0234496649354696
1768730687525,0.001617431640625,-0.3737335205078125,-0.9275054931640624,0.0191824827343225,0.0234888140112161,0.0248057469725608
1768730687535,-0.0021514892578125,-0.3746337890625,-0.920745849609375,0.0149459261447191,0.0167656634002923,0.0229977276176214
1768730687545,-0.0019989013671875,-0.3748321533203125,-0.919219970703125,0.0067559070885181,0.0111298831179738,0.0151448640972375
1768730687555,-0.008697509765625,-0.3737030029296875,-0.914825439453125,-0.0040504015050828,0.0112212290987372,0.0091679319739341
1768730687565,-0.01263427734375,-0.37530517578125,-0.9127960205078124,-0.0122185833752155,0.0071750883944332,0.004806206561625
1768730687575,-0.0135650634765625,-0.3736419677734375,-0.914306640625,-0.0185569059103727,0.0112388059496879,0.0039822249673306
1768730687585,-0.0092010498046875,-0.37078857421875,-0.9206695556640624,-0.0199473425745964,0.0094305193051695,0.0057233995757997
1768730687595,-0.007720947265625,-0.3671417236328125,-0.9251251220703124,-0.0177188087254762,0.0027827369049191,0.0042237732559442
1768730687605,-0.012359619140625,-0.363372802734375,-0.929351806640625,-0.0096478331834077,0.0128556108102202,0.0066592344082891
1768730687616,-0.0100555419921875,-0.36688232421875,-0.9336700439453124,-0.0021891184151172,0.022080535069108,0.0073338127695024
1768730687625,-0.00604248046875,-0.3806304931640625,-0.9310150146484376,0.0008641957538202,0.0153166381642222,0.0063468455336987
1768730687636,0.0009002685546875,-0.3791351318359375,-0.926361083984375,0.0061513693071901,0.020102072507143,0.0096228001639246
1768730687646,-0.0008697509765625,-0.3679351806640625,-0.94122314453125,0.026684608310461,0.0430388152599334,0.0193475987762212
1768730687656,-0.0017547607421875,-0.3876953125,-0.9414215087890624,0.020749220624566,0.0355377532541751,0.0167840402573347
1768730687666,-0.0051116943359375,-0.392303466796875,-0.914581298828125,0.0165747161954641,0.0147432601079344,0.0014721954939886
1768730687676,-0.0155181884765625,-0.37835693359375,-0.9199981689453124,0.0194314885884523,0.0165249146521091,-0.0052032843232154
1768730687686,-0.0111541748046875,-0.37518310546875,-0.934234619140625,0.0200325641781091,0.0345025844871997,-0.0099413143470883
1768730687696,-0.0114288330078125,-0.374053955078125,-0.9303436279296876,0.020668527111411,0.0208570789545774,-0.0157813597470521
1768730687706,-0.0107421875,-0.37451171875,-0.926910400390625,0.0294737368822097,0.0116268284618854,-0.0201050024479627
1768730687716,-0.008514404296875,-0.370025634765625,-0.9305877685546876,0.0368195325136184,0.0143195511773228,-0.0201366934925317
1768730687726,-0.0092010498046875,-0.3675079345703125,-0.9345550537109376,0.0394864231348037,0.0088531468063592,-0.0194914098829031
1768730687736,-0.016754150390625,-0.3650970458984375,-0.9275665283203124,0.0435328297317028,0.0057540256530046,-0.0255008321255445
1768730687746,-0.0172119140625,-0.3667144775390625,-0.9281768798828124,0.0459275431931018,-0.0004902879591099,-0.0248827133327722
1768730687756,-0.009857177734375,-0.3705291748046875,-0.92767333984375,0.0474189147353172,-0.0108060427010059,-0.0218653511255979
1768730687766,-0.0038604736328125,-0.373382568359375,-0.9265899658203124,0.0517827719449996,-0.0175534263253211,-0.0153115782886743
1768730687776,0.004913330078125,-0.37628173828125,-0.9290924072265624,0.0544954650104045,-0.0150963952764868,-0.01365402713418
1768730687786,0.0021514892578125,-0.3814697265625,-0.923187255859375,0.0486828498542308,-0.0226496513932943,-0.0169741902500391
1768730687797,-0.0034332275390625,-0.3857574462890625,-0.91302490234375,0.0420909933745861,-0.0215921103954315,-0.022545788437128
1768730687806,-0.0088043212890625,-0.3865203857421875,-0.91192626953125,0.0393412820994854,-0.0069894660264253,-0.028637770563364
1768730687816,-0.01251220703125,-0.38165283203125,-0.9137420654296876,0.0334738045930862,0.0173233300447464,-0.0337092280387878
1768730687827,-0.01214599609375,-0.3802032470703125,-0.914947509765625,0.0298108924180269,0.0226089060306549,-0.0349590480327606
1768730687837,-0.0070648193359375,-0.3780059814453125,-0.91448974609375,0.0305206254124641,0.0210112761706113,-0.0388781577348709
1768730687847,-0.0028228759765625,-0.3750762939453125,-0.9205780029296876,0.025840651243925,0.010079531930387,-0.0378656238317489
1768730687857,-0.0019378662109375,-0.3764495849609375,-0.91717529296875,0.0181140229105949,-0.0014607438351958,-0.037743117660284
1768730687867,-0.0019989013671875,-0.3780517578125,-0.911773681640625,0.0087436903268098,-0.018410699442029,-0.0382022447884082
1768730687877,-0.0046844482421875,-0.3812255859375,-0.90716552734375,-0.0015728629659861,-0.0273578539490699,-0.0382818765938282
1768730687887,-0.00091552734375,-0.3853912353515625,-0.9116363525390624,-0.0089639341458678,-0.0186730194836854,-0.0297006368637084
1768730687897,0.0051422119140625,-0.3842315673828125,-0.9185638427734376,-0.0141949150711297,-0.0096558229997754,-0.018524682149291
1768730687907,0.0061187744140625,-0.384521484375,-0.9208831787109376,-0.0098369177430868,-0.0245048105716705,-0.0116452043876051
1768730687917,0.0030517578125,-0.3881378173828125,-0.9237213134765624,-0.0012327772565186,-0.048376053571701,-0.0141160851344466
1768730687927,-0.00244140625,-0.3864898681640625,-0.9259796142578124,0.008021974004805,-0.0509337559342384,-0.0276926141232252
1768730687937,-0.00762939453125,-0.377685546875,-0.9313812255859376,0.0270076487213373,-0.0284167267382144,-0.0361468195915222
1768730687947,-0.0038909912109375,-0.3726043701171875,-0.9452667236328124,0.0459334030747413,0.0050176619552075,-0.0428989976644516
1768730687957,-0.0084075927734375,-0.3712921142578125,-0.9437408447265624,0.0586918070912361,0.0207561440765857,-0.0531918480992317
1768730687967,-0.014251708984375,-0.381011962890625,-0.930816650390625,0.0655257478356361,0.0302236825227737,-0.0628362223505973
1768730687977,-0.0122222900390625,-0.3843841552734375,-0.925079345703125,0.0723242610692977,0.0366560146212577,-0.0630506053566932
1768730687987,-0.0040740966796875,-0.3823089599609375,-0.9264984130859376,0.0722129419445991,0.0291126109659671,-0.0632032006978988
1768730687997,-0.002105712890625,-0.3825531005859375,-0.9187164306640624,0.0733016431331634,0.0232528578490018,-0.0600601397454738
1768730688007,0.002899169921875,-0.3835296630859375,-0.9176177978515624,0.0743839517235755,0.0248808488249778,-0.0489145442843437
1768730688017,0.01568603515625,-0.381927490234375,-0.925628662109375,0.078905202448368,0.0385266207158565,-0.0300798714160919
1768730688027,0.0246734619140625,-0.3824462890625,-0.9263916015625,0.076048694550991,0.0474993400275707,-0.0135712027549743
1768730688038,0.0223541259765625,-0.387603759765625,-0.918365478515625,0.0629928112030029,0.0478703193366527,-0.0081852255389094
1768730688048,0.0088653564453125,-0.389984130859375,-0.9014739990234376,0.0415519699454307,0.0286606736481189,-0.0124747790396213
1768730688058,0.0024261474609375,-0.3912506103515625,-0.8912811279296875,0.0298593621701002,0.0339385271072387,-0.0120063293725252
1768730688068,0.008026123046875,-0.391998291015625,-0.9047698974609376,0.0204482842236757,0.0377710796892643,-0.0003715109778568
1768730688078,0.0138092041015625,-0.3867645263671875,-0.9109954833984376,0.0250390395522117,0.0264387987554073,0.0087676588445901
1768730688088,0.0189056396484375,-0.3853759765625,-0.9190216064453124,0.0349595807492733,0.0131296506151556,0.0158609878271818
1768730688098,0.0154876708984375,-0.38250732421875,-0.9227294921875,0.0427567847073078,0.0165219847112894,0.0190184321254491
1768730688108,0.0101318359375,-0.3850250244140625,-0.925811767578125,0.0474447458982467,0.0259269382804632,0.0184176228940486
1768730688118,0.0021209716796875,-0.38824462890625,-0.92034912109375,0.0472037307918071,0.0320229157805442,0.013627927750349
1768730688128,-0.00543212890625,-0.3940582275390625,-0.91448974609375,0.0423320122063159,0.0377883911132812,0.0070312777534127
1768730688138,-0.008331298828125,-0.394439697265625,-0.914215087890625,0.0382150299847126,0.0443943627178669,0.0054573495872318
1768730688148,-0.0028076171875,-0.3914031982421875,-0.9146575927734376,0.0360466837882995,0.0491475723683834,0.0022466427180916
1768730688158,0.00250244140625,-0.3904571533203125,-0.92193603515625,0.0366315133869648,0.0444545485079288,0.0016916398890316
1768730688168,0.004058837890625,-0.3886871337890625,-0.918426513671875,0.0365417674183845,0.0242843013256788,0.004832305945456
1768730688178,0.00830078125,-0.38958740234375,-0.9161834716796876,0.0433725081384182,0.0217686779797077,0.0056221992708742
1768730688188,0.01556396484375,-0.3920135498046875,-0.9220733642578124,0.0426036529242992,0.026072347536683,0.009525061585009
1768730688198,0.0132598876953125,-0.395843505859375,-0.9170379638671876,0.0360762439668178,0.0274342875927686,0.0086038745939731
1768730688208,0.0059967041015625,-0.3983612060546875,-0.9071044921875,0.0270555857568979,0.0300274081528186,0.0014146711910143
1768730688218,0.005340576171875,-0.397247314453125,-0.9066619873046876,0.0199313629418611,0.0162372924387455,0.0013116068439558
1768730688228,0.0064239501953125,-0.393035888671875,-0.9022369384765624,0.0142343295738101,0.0001307612110394,0.0008333030855283
1768730688238,0.0086517333984375,-0.3940582275390625,-0.9075469970703124,0.0107698235660791,0.0047745150513947,0.0060296631418168
1768730688249,0.012786865234375,-0.3938446044921875,-0.9110107421875,0.0065596322529017,0.0014359764754772,0.0094379764050245
1768730688261,0.01055908203125,-0.3960113525390625,-0.90765380859375,-0.0036788906436413,0.0123229790478944,0.0035867453552782
1768730688269,0.0011138916015625,-0.398284912109375,-0.90350341796875,-0.0167707242071628,0.0292012952268123,-0.0019574232865124
1768730688279,-0.005950927734375,-0.3988494873046875,-0.899993896484375,-0.0287927649915218,0.0453986413776874,-0.0069356705062091
1768730688289,0.000213623046875,-0.3946990966796875,-0.9066619873046876,-0.0313158445060253,0.0489126816391944,-0.0039462721906602
1768730688299,0.0121917724609375,-0.3941650390625,-0.91363525390625,-0.0276617221534252,0.0409663431346416,0.0061995727010071
1768730688309,0.0199737548828125,-0.393951416015625,-0.91754150390625,-0.0210613422095775,0.0320290401577949,0.0196687765419483
1768730688319,0.0225677490234375,-0.3928680419921875,-0.9215545654296876,-0.0136231342330574,0.021955631673336,0.0240459479391574
1768730688330,0.0119781494140625,-0.391265869140625,-0.9246826171875,-0.0090377032756805,0.0081013357266783,0.0185675583779811
1768730688339,0.0021209716796875,-0.3895111083984375,-0.926025390625,-0.0033792851027101,-8.096009696600959e-05,0.0117722367867827
1768730688349,-0.001007080078125,-0.39959716796875,-0.91827392578125,-0.0101011032238602,-0.0116582540795207,0.0010740528814494
1768730688362,-0.001556396484375,-0.4071197509765625,-0.903900146484375,-0.0264704897999763,-0.0017496967921033,-0.0058738682419061
1768730688369,-0.0005645751953125,-0.394744873046875,-0.9075775146484376,-0.0264505166560411,0.0242145266383886,-0.0075327511876821
1768730688379,-0.0039825439453125,-0.4027099609375,-0.9161224365234376,-0.033510822802782,0.0259983111172914,-0.0153171708807349
1768730688389,0.0035247802734375,-0.413299560546875,-0.9023284912109376,-0.0371580198407173,0.0149962604045867,-0.0278385560959577
1768730688399,1.52587890625e-05,-0.390960693359375,-0.9121856689453124,-0.0320074670016765,0.0231902748346328,-0.0317331627011299
1768730688409,-0.0001983642578125,-0.3857879638671875,-0.9281463623046876,-0.0258387867361307,0.0149352736771106,-0.0361287109553813
1768730688419,-0.00115966796875,-0.3844757080078125,-0.9293212890625,-0.0114113790914416,0.0020088222809135,-0.0419130958616733
1768730688429,0.0022430419921875,-0.39288330078125,-0.9282989501953124,0.0015020228456705,0.0032471923623234,-0.0420028455555439
1768730688439,0.0047149658203125,-0.3883209228515625,-0.92584228515625,0.0081183798611164,0.0075314193964004,-0.0423775501549243
1768730688449,0.00152587890625,-0.38372802734375,-0.9237060546875,0.0131837129592895,0.0171299837529659,-0.0425493232905864
1768730688459,-0.0015869140625,-0.381744384765625,-0.919219970703125,0.0117573235183954,0.023967383429408,-0.0396174490451812
1768730688470,-0.001739501953125,-0.385101318359375,-0.9105682373046876,0.0068203555420041,0.006768689956516,-0.0405226573348045
1768730688480,0.0055084228515625,-0.3936004638671875,-0.9034271240234376,1.4114753867033867e-05,-0.0119306957349181,-0.0367010235786438
1768730688490,0.016326904296875,-0.39495849609375,-0.9057769775390624,-0.0045263087376952,-0.0170250553637743,-0.0303816068917512
1768730688500,0.0225677490234375,-0.3958892822265625,-0.9084320068359376,-0.0174221340566873,-0.0161520726978778,-0.0238986741751432
1768730688510,0.0183258056640625,-0.3975982666015625,-0.90203857421875,-0.0313720367848873,-0.0276737064123153,-0.0187220219522714
1768730688520,0.0191497802734375,-0.3974761962890625,-0.8999786376953125,-0.0348778218030929,-0.0267999228090047,-0.0051897019147872
1768730688530,0.0218505859375,-0.3947296142578125,-0.9095611572265624,-0.0356690473854541,-0.0206754505634307,0.0051721250638365
1768730688540,0.01593017578125,-0.393096923828125,-0.90966796875,-0.0364821106195449,-0.0123962154611945,0.0067700217477977
1768730688550,0.0059661865234375,-0.3932952880859375,-0.9133148193359376,-0.0344019159674644,-0.002755839144811,0.0006823018775321
1768730688563,0.001007080078125,-0.38775634765625,-0.9151763916015624,-0.0342088378965854,0.0038551918696612,-0.0054408381693065
1768730688570,-0.002410888671875,-0.3870697021484375,-0.9152069091796876,-0.0322322398424148,0.015156315639615,-0.0121091268956661
1768730688580,-0.0045928955078125,-0.3902587890625,-0.91680908203125,-0.0317304991185665,0.0199220422655344,-0.0191571824252605
1768730688590,0.0015869140625,-0.395263671875,-0.9158935546875,-0.0311997309327125,0.0174511615186929,-0.0148737542331218
1768730688600,0.0095672607421875,-0.3959808349609375,-0.9163360595703124,-0.0305608380585908,0.0135698709636926,-0.0093660708516836
1768730688610,0.0165252685546875,-0.3976287841796875,-0.9204864501953124,-0.0293224677443504,0.0083788372576236,-0.0007182545377872
1768730688621,0.016937255859375,-0.3970794677734375,-0.9191741943359376,-0.0328386388719081,0.0047950213775038,0.0050189932808279
1768730688630,0.0117950439453125,-0.3990936279296875,-0.914825439453125,-0.0367252565920352,0.0015246596885845,0.0116987340152263
1768730688640,0.011566162109375,-0.4022369384765625,-0.9164581298828124,-0.0366381704807281,-0.0073223612271249,0.0131251234561204
1768730688651,0.0092620849609375,-0.4006805419921875,-0.91864013671875,-0.0330823212862014,-0.0165989510715007,-0.002012550830841
1768730688661,0.0020599365234375,-0.3936767578125,-0.9272613525390624,-0.0161400884389877,-0.0195811577141284,-0.0113229621201753
1768730688670,0.0035247802734375,-0.3870849609375,-0.9401702880859376,0.0065588331781327,-0.0146260801702737,-0.0190421342849731
1768730688681,0.008026123046875,-0.3871002197265625,-0.9409942626953124,0.0289355106651783,-0.0108057763427495,-0.0189217589795589
1768730688691,0.009429931640625,-0.389373779296875,-0.9369964599609376,0.0469723008573055,-0.0030929953791201,-0.0112470621243119
1768730688701,0.0099334716796875,-0.3909912109375,-0.932647705078125,0.054706122726202,0.0005105279851704,-0.0076331524178385
1768730688711,0.0076751708984375,-0.392242431640625,-0.920623779296875,0.051476240158081,-0.0086209187284111,-0.0120177809149026
1768730688721,0.0050506591796875,-0.393798828125,-0.9097442626953124,0.0426702313125133,-0.0120526682585477,-0.0138963740319013
1768730688731,0.0113372802734375,-0.3950653076171875,-0.9046173095703124,0.0265956576913595,-0.0182913895696401,-0.0102102933451533
1768730688741,0.014892578125,-0.3920135498046875,-0.8990936279296875,0.0123967481777071,-0.0312039926648139,-0.0052991579286754
1768730688751,0.0126190185546875,-0.3921051025390625,-0.8958282470703125,-0.0004743089957628,-0.03522190451622,-0.0037486655637621
1768730688761,0.0123291015625,-0.393341064453125,-0.8983001708984375,-0.0139554962515831,-0.0341846011579036,-0.0067268786951899
1768730688771,0.010101318359375,-0.3906707763671875,-0.903594970703125,-0.0278710462152957,-0.03291667252779,-0.0144724166020751
1768730688781,0.0028533935546875,-0.3927001953125,-0.901580810546875,-0.0396901555359363,-0.0300127603113651,-0.0228065121918916
1768730688791,-0.0006256103515625,-0.3956298828125,-0.9002227783203125,-0.0534674860537052,-0.0269687660038471,-0.0240813679993152
1768730688801,-0.0013885498046875,-0.3952484130859375,-0.9045562744140624,-0.0539013147354126,-0.0330399759113788,-0.0237016007304191
1768730688811,0.00421142578125,-0.391082763671875,-0.912628173828125,-0.0509766303002834,-0.0273384135216474,-0.0178138837218284
1768730688821,0.011383056640625,-0.390655517578125,-0.9216766357421876,-0.0478756465017795,-0.0214376468211412,-0.0098995026201009
1768730688831,0.0125885009765625,-0.3920745849609375,-0.919952392578125,-0.0444095432758331,-0.0256859213113784,-0.0026711504906415
1768730688841,0.0134124755859375,-0.3925323486328125,-0.9219970703125,-0.0354493372142314,-0.0227348729968071,0.005338838789612
1768730688852,0.0149688720703125,-0.39093017578125,-0.928802490234375,-0.0239250399172306,-0.0100062955170869,0.0140945138409733
1768730688861,0.013580322265625,-0.3895721435546875,-0.9300537109375,-0.0187611710280179,0.0055265920236706,0.0153914727270603
1768730688871,0.005950927734375,-0.3922576904296875,-0.927398681640625,-0.0139989061281085,0.0103602288290858,0.0131181990727782
1768730688882,0.0032958984375,-0.3904571533203125,-0.928192138671875,-0.0066943881101906,0.0146910613402724,0.0134593499824404
1768730688892,0.00506591796875,-0.38702392578125,-0.9314727783203124,0.0035444011446088,0.0110878050327301,0.0123003423213958
1768730688902,0.0015106201171875,-0.3877105712890625,-0.9322052001953124,0.0151363424956798,0.0084113283082842,0.0096086850389838
1768730688912,0.0002593994140625,-0.38543701171875,-0.92926025390625,0.0237577930092811,0.0080560622736811,0.0066246129572391
1768730688922,0.0018310546875,-0.3849639892578125,-0.927398681640625,0.0333624854683876,0.0060219396837055,0.0047361655160784
1768730688932,0.005157470703125,-0.386871337890625,-0.9224700927734376,0.0316836275160312,0.0084779066964983,0.0007824367494322
1768730688942,0.0013427734375,-0.3902130126953125,-0.916046142578125,0.0272041894495487,0.0129791814833879,0.0001057274930644
1768730688952,-0.0008392333984375,-0.3908843994140625,-0.908355712890625,0.0162079986184835,0.0175150781869888,-0.0044107274152338
1768730688962,-0.00152587890625,-0.3921356201171875,-0.9053192138671876,0.0088427597656846,0.0172261241823434,-0.0034421356394886
1768730688972,0.0077362060546875,-0.390960693359375,-0.9085235595703124,0.007113036699593,0.0073556508868932,0.0057921088300645
1768730688982,0.0118865966796875,-0.3878631591796875,-0.9122467041015624,0.0061665493994951,-0.0102920522913336,0.0092369075864553
1768730688992,0.0070648193359375,-0.3896484375,-0.912933349609375,0.002331863855943,-0.0100398510694503,0.0077458037994802
1768730689002,0.000213623046875,-0.3900604248046875,-0.9109344482421876,-0.005593969952315,-0.0053383065387606,-0.0007558051147498
1768730689012,-0.0039825439453125,-0.3916015625,-0.9087371826171876,-0.0124880950897932,-0.0044011399149894,-0.0048442902043461
1768730689022,-0.0031890869140625,-0.391326904296875,-0.9067230224609376,-0.0190924685448408,-0.0058123492635786,-0.0054941014386713
1768730689032,0.000732421875,-0.3934326171875,-0.910308837890625,-0.0217313934117555,0.0004902879591099,-0.0003874899412039
1768730689044,0.002716064453125,-0.39105224609375,-0.9142913818359376,-0.0221812017261981,0.0045382929965853,-0.0027217506431043
1768730689052,0.001983642578125,-0.38714599609375,-0.916778564453125,-0.0243210513144731,0.0054783886298537,-0.0027936559636145
1768730689063,-0.0017852783203125,-0.383392333984375,-0.915679931640625,-0.0198868885636329,0.010783671401441,-0.0039004657883197
1768730689073,-0.0017242431640625,-0.386138916015625,-0.9205322265625,-0.0134582845494151,0.008436094969511,0.0011595403775572
1768730689083,0.0054779052734375,-0.3927459716796875,-0.921600341796875,-0.0109005849808454,0.000630370224826,0.0024240091443061
1768730689093,0.012725830078125,-0.3929443359375,-0.92083740234375,-0.004089550115168,0.001759816892445,0.0050062099471688
1768730689103,0.0082550048828125,-0.3829345703125,-0.9295196533203124,0.0039076562970876,0.0106869991868734,0.0070789484307169
1768730689113,-0.0013885498046875,-0.40374755859375,-0.92034912109375,-0.0111035173758864,-0.0005680522299371,-0.0043641221709549
1768730689123,-0.00299072265625,-0.40753173828125,-0.8984375,-0.0181941837072372,-0.0079860212281346,-0.0213345829397439
1768730689133,-0.005096435546875,-0.3874359130859375,-0.9129791259765624,-0.0198594592511653,0.0053092776797711,-0.0244038756936788
1768730689143,-0.002197265625,-0.38519287109375,-0.9210357666015624,-0.0246920306235551,0.0243088006973266,-0.0274055246263742
1768730689153,0.0016021728515625,-0.3856964111328125,-0.9206085205078124,-0.0250856447964906,0.0237828269600868,-0.0260592978447675
1768730689163,0.0064544677734375,-0.3897552490234375,-0.916656494140625,-0.0208464264869689,0.0167997535318136,-0.0200922191143035
1768730689173,0.0094757080078125,-0.3856201171875,-0.9164581298828124,-0.017509751021862,0.0058038267306983,-0.0144601659849286
1768730689183,0.0077362060546875,-0.3789520263671875,-0.920013427734375,-0.0142433838918805,0.0061130197718739,-0.0088720545172691
1768730689194,0.0020904541015625,-0.3765869140625,-0.9250640869140624,-0.011657721363008,0.0073905382305383,-0.0065140919759869
1768730689203,0.000213623046875,-0.3819580078125,-0.9224395751953124,-0.0123341642320156,0.0030919299460947,-0.0096917757764458
1768730689214,-0.0027313232421875,-0.38800048828125,-0.9140777587890624,-0.016170447692275,-0.000761397765018,-0.0116907441988587
1768730689223,0.0010986328125,-0.39141845703125,-0.9118194580078124,-0.0224051736295223,-0.0132002243772149,-0.0120111228898167
1768730689233,0.0084686279296875,-0.391632080078125,-0.9130096435546876,-0.0210474953055381,-0.0117117837071418,-0.006729541812092
1768730689243,0.01751708984375,-0.3924713134765625,-0.916839599609375,-0.0253676753491163,-0.0082712452858686,0.0027140274178236
1768730689253,0.01641845703125,-0.392974853515625,-0.9129486083984376,-0.0301373954862356,-0.0137464385479688,0.0050080744549632
1768730689263,0.0099945068359375,-0.389892578125,-0.9109649658203124,-0.036742303520441,-0.012157330289483,-0.0007973504252731
1768730689273,9.1552734375e-05,-0.388946533203125,-0.9086151123046876,-0.0450220704078674,-0.0091543495655059,-0.0092480927705764
1768730689284,-0.0057220458984375,-0.38848876953125,-0.9087982177734376,-0.0512717105448246,-0.0052938316948711,-0.0163118615746498
1768730689293,-0.0025787353515625,-0.385284423828125,-0.914276123046875,-0.047298539429903,-0.0019920445047318,-0.013504090718925
1768730689304,0.0070037841796875,-0.3820953369140625,-0.9221343994140624,-0.0413410477340221,9.400958515470847e-05,-0.0058275288902223
1768730689314,0.0138702392578125,-0.3816986083984375,-0.928802490234375,-0.0330277234315872,8.76179983606562e-05,0.001440770109184
1768730689324,0.015777587890625,-0.3845367431640625,-0.9276275634765624,-0.0305121019482612,0.0105993812903761,0.0112547846511006
1768730689334,0.0099945068359375,-0.3873748779296875,-0.9240570068359376,-0.0339798033237457,0.0147890662774443,0.0159723088145256
1768730689344,0.0073394775390625,-0.3867950439453125,-0.9197540283203124,-0.0354504026472568,0.017962222918868,0.0164743140339851
1768730689354,0.0088348388671875,-0.38739013671875,-0.9230194091796876,-0.033004555851221,0.0186455901712179,0.0238691139966249
1768730689364,0.013580322265625,-0.3890838623046875,-0.9286346435546876,-0.0257905852049589,0.01938221976161,0.0329504944384098
1768730689374,0.0125885009765625,-0.394683837890625,-0.927520751953125,-0.0175355840474367,0.0133134089410305,0.0310284905135631
1768730689384,0.00732421875,-0.3955230712890625,-0.925262451171875,-0.0109855392947793,0.0058118165470659,0.0167885664850473
1768730689394,0.0018157958984375,-0.387542724609375,-0.9297332763671876,0.0031185615807771,0.0151456631720066,0.0096888458356261
1768730689404,0.0011749267578125,-0.3873443603515625,-0.930511474609375,0.0120537336915731,0.018550781533122,0.0045819687657058
1768730689414,-0.00189208984375,-0.3869476318359375,-0.924713134765625,0.0171904377639293,0.0161619260907173,-0.0034732946660369
1768730689424,-0.007568359375,-0.3848419189453125,-0.9214019775390624,0.0165664590895175,0.0101399859413504,-0.0109197590500116
1768730689434,-0.007720947265625,-0.3831024169921875,-0.9164276123046876,0.0087894964963197,0.0079745696857571,-0.0207055453211069
1768730689444,-0.0077362060546875,-0.3846893310546875,-0.9096832275390624,-0.0039654467254877,0.0014021543320268,-0.0247538164258003
1768730689454,-0.002105712890625,-0.3835906982421875,-0.907318115234375,-0.0084542045369744,-0.0067942566238343,-0.0205252487212419
1768730689464,0.0115203857421875,-0.3787841796875,-0.914794921875,-0.0074222297407686,-0.0121551994234323,-0.0125299068167805
1768730689474,0.0191650390625,-0.3787384033203125,-0.918914794921875,-0.0114332167431712,-0.0147192915901541,-0.002617621095851
1768730689484,0.0196380615234375,-0.3831024169921875,-0.9183502197265624,-0.0151552511379122,-0.0093194656074047,0.006418484263122
1768730689494,0.0203094482421875,-0.3865203857421875,-0.9188690185546876,-0.0169590096920728,-0.0038775624707341,0.0153214316815137
1768730689505,0.01300048828125,-0.38824462890625,-0.916259765625,-0.0210408363491296,0.0008474178612232,0.0116100506857037
1768730689515,0.000518798828125,-0.3877105712890625,-0.91436767578125,-0.026641197502613,0.0158737711608409,0.0070805461145937
1768730689525,-0.002685546875,-0.386749267578125,-0.92071533203125,-0.0229157023131847,0.0259642228484153,0.0053415023721754
1768730689535,0.003143310546875,-0.383392333984375,-0.9284515380859376,-0.0102995093911886,0.0224296748638153,0.0072235581465065
1768730689545,0.01025390625,-0.3846435546875,-0.93280029296875,0.0067132962867617,0.0082464786246418,0.0122537370771169
1768730689556,0.009185791015625,-0.3824005126953125,-0.93121337890625,0.0169643368571996,-0.0008149272762238,0.0109618371352553
1768730689565,0.000640869140625,-0.38323974609375,-0.9259185791015624,0.0161456800997257,0.0033380060922354,0.001333178486675
1768730689576,-0.0067901611328125,-0.3852691650390625,-0.9190521240234376,0.0161113254725933,0.0074917385354638,-0.0085383607074618
1768730689585,-0.00262451171875,-0.3846282958984375,-0.9167327880859376,0.0132079469040036,0.0160799007862806,-0.0098917791619896
1768730689595,0.0029144287109375,-0.38720703125,-0.913909912109375,0.0099064270034432,0.0132905049249529,-0.0080222403630614
1768730689605,0.00592041015625,-0.386505126953125,-0.9141387939453124,0.0098819257691502,0.0042496062815189,-0.0093679353594779
1768730689615,0.0066375732421875,-0.3843231201171875,-0.91534423828125,0.0018948391079902,0.0003890878288075,-0.0127959558740258
1768730689625,0.00213623046875,-0.386627197265625,-0.9075927734375,-0.0157246347516775,-0.0024146882351487,-0.0252041555941104
1768730689635,-0.0073699951171875,-0.391326904296875,-0.897674560546875,-0.0364197939634323,-0.0089255841448903,-0.0346069782972335
1768730689645,-0.0030975341796875,-0.3911895751953125,-0.8984375,-0.0493188127875328,-0.0169491562992334,-0.0357127226889133
1768730689655,0.0062255859375,-0.3852691650390625,-0.908050537109375,-0.0526554882526397,-0.0248816478997468,-0.0304425936192274
1768730689665,0.0135498046875,-0.37841796875,-0.919830322265625,-0.0430670417845249,-0.0285392329096794,-0.0235751010477542
1768730689675,0.02008056640625,-0.37713623046875,-0.933380126953125,-0.0304785463958978,-0.0244720540940761,-0.0123738450929522
1768730689685,0.0197296142578125,-0.37969970703125,-0.9374847412109376,-0.0205968879163265,-0.0175222679972648,-0.0067604342475533
1768730689696,0.0134735107421875,-0.3832855224609375,-0.9335784912109376,-0.0122140552848577,-0.0052104745991528,-0.0044179176911711
1768730689705,0.0102691650390625,-0.3856964111328125,-0.9336700439453124,-0.0067079700529575,0.0083897560834884,-0.0014647386269643
1768730689716,0.00634765625,-0.384429931640625,-0.9295654296875,-0.0024338630028069,0.0146202212199568,-0.0036511938087642
1768730689727,0.00341796875,-0.385040283203125,-0.9267425537109376,0.002830141223967,0.0170879065990448,-0.0092909699305891
1768730689736,0.000823974609375,-0.38360595703125,-0.9234619140625,0.0080571277067065,0.0210379064083099,-0.0151195647194981
1768730689747,0.0028533935546875,-0.38116455078125,-0.9238739013671876,0.0103818010538816,0.0234363507479429,-0.0148487212136387
1768730689756,0.005401611328125,-0.380035400390625,-0.9235076904296876,0.0154788251966238,0.024924524128437,-0.014821290038526
1768730689766,0.009735107421875,-0.3799896240234375,-0.922119140625,0.0211699996143579,0.0213380455970764,-0.0086704539135098
1768730689776,0.0140838623046875,-0.38128662109375,-0.9220428466796876,0.025963956490159,0.0221540387719869,0.0003568635729607
1768730689786,0.017974853515625,-0.3793487548828125,-0.926177978515625,0.0267794169485569,0.0224610995501279,0.0061577609740197
1768730689796,0.0135498046875,-0.3823089599609375,-0.9198455810546876,0.0220898557454347,0.0199974104762077,0.0072238245047628
1768730689806,0.01043701171875,-0.3946990966796875,-0.9117279052734376,0.010374610312283,0.0092201298102736,0.0028410602826625
1768730689816,0.0115814208984375,-0.394012451171875,-0.906829833984375,0.0028913940768688,0.0101053649559617,0.0090366378426551
1768730689826,0.012420654296875,-0.3838348388671875,-0.9184722900390624,0.004751878324896,0.0319312997162342,0.0148098384961485
1768730689836,0.00762939453125,-0.396453857421875,-0.9200897216796876,-0.0066890618763864,0.0301211513578891,0.008422247134149
1768730689846,0.00732421875,-0.399932861328125,-0.9010772705078124,-0.0142431184649467,0.0135248638689517,-0.0054373759776353
1768730689856,0.001983642578125,-0.3817901611328125,-0.9102935791015624,-0.0109296133741736,0.019188342615962,-0.0063782706856727
1768730689866,0.005218505859375,-0.3782501220703125,-0.9267120361328124,-0.0110989902168512,0.0295589566230773,-0.0102861933410167
1768730689876,0.00128173828125,-0.3783111572265625,-0.922515869140625,-0.0119613213464617,0.0215929094702005,-0.0154745634645223
1768730689886,-0.0025634765625,-0.385589599609375,-0.9148406982421876,-0.006385994143784,0.009906692430377,-0.0185659602284431
1768730689897,0.000457763671875,-0.38287353515625,-0.919158935546875,0.0050695934332907,0.0093652717769145,-0.0193752963095903
1768730689906,0.00616455078125,-0.372161865234375,-0.9322052001953124,0.0171816498041152,0.0157725717872381,-0.0105146924033761
1768730689917,0.0095367431640625,-0.3695068359375,-0.934783935546875,0.0304915960878133,0.014298778027296,-0.0071431305259466
1768730689927,0.0094146728515625,-0.3760223388671875,-0.9293670654296876,0.0397375598549842,0.0044243093580007,-0.0016982977977022
1768730689937,0.0122833251953125,-0.3818359375,-0.9247894287109376,0.0409951023757457,0.0071801487356424,0.001629055594094
1768730689947,0.0157928466796875,-0.3889923095703125,-0.920074462890625,0.0388864129781723,0.0076965354382991,0.0098467720672488
1768730689957,0.018890380859375,-0.3922576904296875,-0.9157867431640624,0.0341643616557121,0.0136881154030561,0.0146303419023752
1768730689967,0.020111083984375,-0.3924407958984375,-0.9156341552734376,0.0283141955733299,0.0175797920674085,0.0177835244685411
1768730689977,0.0178070068359375,-0.391326904296875,-0.91119384765625,0.0163459498435258,0.0093154711648821,0.0159653834998607
1768730689987,0.010955810546875,-0.3915252685546875,-0.904815673828125,0.0067013120278716,-0.004465322010219,0.0066126291640102
1768730689997,0.0025787353515625,-0.3899993896484375,-0.9010772705078124,-0.0032274848781526,-0.0032684975303709,-0.001447960617952
1768730690007,0.0018157958984375,-0.38818359375,-0.906524658203125,-0.0129197929054498,0.0046943537890911,-0.0068917283788323
1768730690017,0.00048828125,-0.385772705078125,-0.90753173828125,-0.0201774407178163,0.0141565650701522,-0.0080755036324262
1768730690027,0.004638671875,-0.3855133056640625,-0.910919189453125,-0.0197164472192525,0.0040445425547659,-0.0044546695426106
1768730690037,0.0093231201171875,-0.3856048583984375,-0.913604736328125,-0.0185688901692628,-0.0056965015828609,-0.0033119071740657
1768730690047,0.0110321044921875,-0.386444091796875,-0.9177398681640624,-0.0186471883207559,-0.0035348136443644,0.0024935177061706
1768730690057,0.0135345458984375,-0.384429931640625,-0.92108154296875,-0.0220826659351587,-0.0013518205378204,0.0062227421440184
1768730690068,0.0148162841796875,-0.387176513671875,-0.91839599609375,-0.0305949263274669,0.0055383099243044,0.0097604850307106
1768730690077,0.016021728515625,-0.394775390625,-0.9112091064453124,-0.0414659492671489,0.0061519020237028,0.0120255034416913
1768730690087,0.01531982421875,-0.3968658447265625,-0.9115753173828124,-0.0477733798325061,0.0048581385053694,0.0181137565523386
1768730690097,0.016571044921875,-0.3940582275390625,-0.91668701171875,-0.0477432869374752,-0.001062867580913,0.0211534891277551
1768730690107,0.018310546875,-0.39141845703125,-0.92279052734375,-0.0394070595502853,-0.0031433289404958,0.0185864679515361
1768730690118,0.012969970703125,-0.38494873046875,-0.931884765625,-0.0210682675242424,0.0081612570211291,0.0206602718681097
1768730690128,0.0111236572265625,-0.38214111328125,-0.941009521484375,-0.0034104441292583,0.0232027899473905,0.0231926701962947
1768730690138,0.0096893310546875,-0.377960205078125,-0.9432220458984376,0.0164998807013034,0.0264715552330017,0.0270079150795936
1768730690148,0.005340576171875,-0.3794708251953125,-0.9405670166015624,0.0348482616245746,0.0256201419979333,0.0248150676488876
1768730690158,-0.000701904296875,-0.3841400146484375,-0.933990478515625,0.0400414243340492,0.0146463206037878,0.0156348869204521
1768730690168,-0.0023651123046875,-0.384490966796875,-0.9270172119140624,0.0462694950401783,0.000875114754308,0.0095948362722992
1768730690178,-0.0008544921875,-0.3841094970703125,-0.924468994140625,0.0396131910383701,-0.0120659843087196,-0.0022277343086898
1768730690188,-0.0037689208984375,-0.389404296875,-0.9116668701171876,0.0243362318724393,-0.0213777273893356,-0.0132417697459459
1768730690199,-0.0001373291015625,-0.3942108154296875,-0.904937744140625,0.0120108565315604,-0.0192954000085592,-0.0199332274496555
1768730690208,0.0036468505859375,-0.39312744140625,-0.9009857177734376,-0.001709749456495,-0.017618142068386,-0.0201177857816219
1768730690218,0.010345458984375,-0.3869171142578125,-0.9037322998046876,-0.0069039785303175,-0.0101269362494349,-0.0113578494638204
1768730690228,0.016387939453125,-0.3856658935546875,-0.91107177734375,-0.01271259970963,-0.0009925601771101,-0.0055356468074023
1768730690239,0.01531982421875,-0.385711669921875,-0.91314697265625,-0.021360682323575,0.0056954361498355,-0.0053185988217592
1768730690248,0.009246826171875,-0.3885040283203125,-0.908966064453125,-0.0330479629337787,0.0119003355503082,-0.0102529041469097
1768730690258,0.0069427490234375,-0.3880157470703125,-0.9051971435546876,-0.0416619591414928,0.0122095281258225,-0.0126452213153243
1768730690268,0.009979248046875,-0.3847808837890625,-0.9138031005859376,-0.0379910580813884,0.0028815402183681,-0.0092206625267863
1768730690278,0.0179290771484375,-0.3806915283203125,-0.9251708984375,-0.0290060844272375,0.0075420723296701,-0.0014498248929157
1768730690289,0.0199127197265625,-0.3833465576171875,-0.9288330078125,-0.022756977006793,0.0053484262898564,0.004726312123239
1768730690298,0.017578125,-0.3860626220703125,-0.9252471923828124,-0.022891467437148,0.0093588810414075,0.0084978807717561
1768730690308,0.0110321044921875,-0.3883514404296875,-0.9193572998046876,-0.0260859280824661,0.0170551501214504,0.0067077036947011
1768730690319,0.0051116943359375,-0.3873748779296875,-0.9185333251953124,-0.0311222337186336,0.0259887240827083,0.0070648337714374
1768730690329,0.0054779052734375,-0.382354736328125,-0.9201202392578124,-0.0319970808923244,0.0348759591579437,0.0042189797386527
1768730690338,0.0061798095703125,-0.3847808837890625,-0.9196929931640624,-0.0330314524471759,0.0408193357288837,0.0010873686987906
1768730690349,0.0095062255859375,-0.3841705322265625,-0.92132568359375,-0.029264410957694,0.0347992591559886,0.0045340317301452
1768730690359,0.0137176513671875,-0.381378173828125,-0.92626953125,-0.0193465333431959,0.016441024839878,0.0067383302375674
1768730690369,0.016937255859375,-0.3824462890625,-0.926483154296875,-0.0089950924739241,0.0022762038279324,0.0115551892668008
1768730690379,0.01605224609375,-0.3837127685546875,-0.927215576171875,-0.0018423747969791,-0.0006937534781172,0.0141333956271409
1768730690389,0.011474609375,-0.3820037841796875,-0.92474365234375,-0.0010407633380964,0.0023321302141994,0.0135957039892673
1768730690399,0.0095367431640625,-0.3835601806640625,-0.9198150634765624,-0.0074866781942546,0.0026104305870831,0.0124891605228185
1768730690409,0.0052337646484375,-0.386383056640625,-0.91241455078125,-0.0186988525092601,0.0101181482896208,0.0113280219957232
1768730690419,0.0058441162109375,-0.3882904052734375,-0.9092254638671876,-0.0278305653482675,0.0164418239146471,0.0138428453356027
1768730690429,0.0159759521484375,-0.3867340087890625,-0.913543701171875,-0.0353593230247497,0.0181872602552175,0.0244222525507211
1768730690439,0.0226287841796875,-0.386077880859375,-0.913299560546875,-0.0434276349842548,0.0169297140091657,0.0293967705219984
1768730690450,0.0188140869140625,-0.3841705322265625,-0.9121551513671876,-0.0478724502027034,0.0140063632279634,0.0282758455723524
1768730690459,0.012664794921875,-0.3843231201171875,-0.9130401611328124,-0.0542288832366466,0.0180519707500934,0.0267304144799709
1768730690469,0.0079498291015625,-0.3831634521484375,-0.9166107177734376,-0.0570206753909587,0.0213034246116876,0.0277701113373041
1768730690479,0.009185791015625,-0.3789825439453125,-0.921539306640625,-0.0524189993739128,0.0238832291215658,0.0262648928910493
1768730690489,0.0089874267578125,-0.3770599365234375,-0.9276885986328124,-0.0463254190981388,0.0177236031740903,0.0258265379816293
1768730690499,0.0079345703125,-0.3744659423828125,-0.9297943115234376,-0.0382515154778957,0.0212645418941974,0.0257623549550771
1768730690510,0.0090179443359375,-0.371490478515625,-0.9335784912109376,-0.0277546662837266,0.018235994502902,0.0255197416990995
1768730690520,0.0093841552734375,-0.373748779296875,-0.932769775390625,-0.0237929467111825,0.008233961649239,0.0202450845390558
1768730690529,0.0077362060546875,-0.384613037109375,-0.9257049560546876,-0.0200059320777654,0.0083293030038475,0.0128691932186484
1768730690539,0.0127105712890625,-0.3800811767578125,-0.929840087890625,-0.0147083718329668,0.0214712042361497,0.0201774407178163
1768730690550,0.01416015625,-0.3742523193359375,-0.94189453125,-0.00077870831592,0.0363119356334209,0.0273999329656362
1768730690560,0.0141448974609375,-0.39154052734375,-0.931304931640625,0.0024431839119642,0.0291056875139474,0.0147027792409062
1768730690570,0.0104827880859375,-0.3853607177734375,-0.922607421875,0.0102180168032646,0.0223396606743335,0.0030389330349862
1768730690580,0.008148193359375,-0.3755340576171875,-0.933319091796875,0.0289506912231445,0.0326069444417953,0.0076877470128238
1768730690590,0.0145721435546875,-0.3736572265625,-0.9405975341796876,0.0393221043050289,0.0435437485575675,0.0094366446137428
1768730690600,0.012603759765625,-0.3778076171875,-0.931365966796875,0.0408592820167541,0.0439938232302665,0.0080171804875135
1768730690610,0.0075836181640625,-0.3810882568359375,-0.9192047119140624,0.045108888298273,0.0375676155090332,0.0032011196017265
1768730690620,0.006805419921875,-0.3742828369140625,-0.9187469482421876,0.0449482984840869,0.0334889851510524,0.0044706487096846
1768730690630,0.008209228515625,-0.36578369140625,-0.917724609375,0.0354970060288906,0.0306271519511938,0.0033252229914069
1768730690640,0.0051422119140625,-0.3667755126953125,-0.9095458984375,0.0182559695094823,0.0247490219771862,0.004187021870166
1768730690650,0.0020751953125,-0.373443603515625,-0.905120849609375,-0.0056379120796918,0.0101554319262504,0.0019422433106228
1768730690660,0.003143310546875,-0.379852294921875,-0.896636962890625,-0.0313675105571746,0.0007779093575663,0.000688160827849
1768730690670,0.010772705078125,-0.38580322265625,-0.8964385986328125,-0.0555458180606365,-0.0064509748481214,0.0035036546178162
1768730690680,0.016571044921875,-0.384735107421875,-0.8963775634765625,-0.0754058063030242,-0.0118768997490406,0.0038879488129168
1768730690690,0.01849365234375,-0.3828887939453125,-0.900146484375,-0.0893895328044891,-0.0120132528245449,0.0071844095364212
1768730690700,0.017852783203125,-0.3813323974609375,-0.904937744140625,-0.0954245254397392,-0.0068235513754189,0.010145578533411
1768730690710,0.016937255859375,-0.3807373046875,-0.9157867431640624,-0.0899338871240615,-0.0006197175825946,0.0116212358698248
1768730690720,0.0171661376953125,-0.3791961669921875,-0.9289093017578124,-0.0737868696451187,0.0069660302251577,0.014340323396027
1768730690730,0.0170135498046875,-0.376129150390625,-0.94158935546875,-0.0498192198574543,0.0103730121627449,0.0147467218339443
1768730690740,0.0137481689453125,-0.3739776611328125,-0.948211669921875,-0.0231876112520694,0.0140708116814494,0.0159419476985931
1768730690751,0.010772705078125,-0.3752899169921875,-0.95147705078125,-0.0003904194163624,0.0172434356063604,0.0134228644892573
1768730690761,0.005523681640625,-0.378753662109375,-0.9426727294921876,0.0146031770855188,0.0155741656199097,0.008150071837008
1768730690771,0.00128173828125,-0.3789520263671875,-0.9367828369140624,0.0262087006121873,0.0140668163076043,0.0053606769070029
1768730690781,0.0028076171875,-0.376434326171875,-0.9361419677734376,0.0332524962723255,0.0149808134883642,0.0036954022943973
1768730690791,0.006591796875,-0.3755035400390625,-0.9320831298828124,0.0298838634043931,0.0081601915881037,0.0008772452711127
1768730690801,0.0070648193359375,-0.381439208984375,-0.9211883544921876,0.0223614983260631,-0.0038179077673703,0.0016197345685213
1768730690811,0.0091552734375,-0.3889923095703125,-0.911346435546875,0.0110875386744737,-0.0274673104286193,-0.0060589578934013
1768730690821,0.0121002197265625,-0.3902740478515625,-0.90545654296875,0.0009070726810023,-0.0293853189796209,-0.0186320077627897
1768730690831,0.0067291259765625,-0.381561279296875,-0.910125732421875,-0.0072547169402241,-0.0152580486610531,-0.0192961990833282
1768730690841,0.008819580078125,-0.3734283447265625,-0.915771484375,-0.0101335942745208,0.0051614725962281,-0.0202032718807458
1768730690851,0.0128173828125,-0.36907958984375,-0.9188385009765624,-0.0149006526917219,0.0092156026512384,-0.0201854296028614
1768730690861,0.0147552490234375,-0.376129150390625,-0.9151458740234376,-0.0197140499949455,-0.0109229553490877,-0.0175014957785606
1768730690871,0.015472412109375,-0.3797760009765625,-0.910614013671875,-0.0210016872733831,-0.0308644380420446,-0.0097956387326121
1768730690881,0.01507568359375,-0.3761444091796875,-0.914703369140625,-0.0257122870534658,-0.0269826147705316,-0.0029790119733661
1768730690891,0.010467529296875,-0.373931884765625,-0.919036865234375,-0.0358368270099163,-0.0144436536356806,-0.004342284053564
1768730690901,0.0048065185546875,-0.375,-0.919097900390625,-0.0399884283542633,-0.0081021348014473,-0.0080408826470375
1768730690911,0.00506591796875,-0.376129150390625,-0.918975830078125,-0.0440518781542778,-0.0100579606369137,-0.011887552216649
1768730690921,0.0091094970703125,-0.378448486328125,-0.9205169677734376,-0.0434417501091957,-0.0157760344445705,-0.0101825967431068
1768730690931,0.0117034912109375,-0.37982177734375,-0.924468994140625,-0.0392438098788261,-0.023402526974678,-0.0152527224272489
1768730690941,0.0083465576171875,-0.3747406005859375,-0.92974853515625,-0.0290343146771192,-0.0234019961208105,-0.016791496425867
1768730690951,0.0093841552734375,-0.3706512451171875,-0.9357452392578124,-0.0165611337870359,-0.0144511107355356,-0.0179033670574426
1768730690962,0.0110015869140625,-0.3719024658203125,-0.936553955078125,-0.0023987090680748,-0.012377574108541,-0.0203449521213769
1768730690972,0.0089874267578125,-0.3738555908203125,-0.9367523193359376,0.0121426824480295,-0.002518018707633,-0.0227375365793705
1768730690982,0.0081634521484375,-0.37554931640625,-0.9346771240234376,0.0265642330050468,0.003067162586376,-0.0231918711215257
1768730690992,0.0123138427734375,-0.376495361328125,-0.9337921142578124,0.0369588173925876,0.0026596989482641,-0.0199617240577936
1768730691002,0.014862060546875,-0.37530517578125,-0.92974853515625,0.0418776758015155,-0.001701493631117,-0.0148929292336106
1768730691012,0.0147705078125,-0.3751678466796875,-0.9240570068359376,0.0405423678457737,-0.0022578279022127,-0.0126779787242412
1768730691022,0.0101165771484375,-0.373260498046875,-0.916015625,0.0299565680325031,-0.0048378985375165,-0.0151259563863277
1768730691032,0.0110015869140625,-0.3726654052734375,-0.9079437255859376,0.0140982419252395,-0.0030602384358644,-0.0136569561436772
1768730691042,0.0149993896484375,-0.3737030029296875,-0.904205322265625,0.0022892532870173,-0.010671286843717,-0.0107485176995396
1768730691052,0.021240234375,-0.374725341796875,-0.906219482421875,-0.0108846053481101,-0.0158660486340522,-0.005821137689054
1768730691063,0.0204010009765625,-0.3758087158203125,-0.9062042236328124,-0.0246640667319297,-0.0225338041782379,-0.0089540798217058
1768730691072,0.015289306640625,-0.37646484375,-0.9068145751953124,-0.0294540282338857,-0.025564482435584,-0.0120891537517309
1768730691082,0.0155487060546875,-0.3752899169921875,-0.9153900146484376,-0.0330623462796211,-0.0311201028525829,-0.0100454436615109
1768730691092,0.0140533447265625,-0.373870849609375,-0.9188690185546876,-0.0316442139446735,-0.0311587173491716,-0.0101277353242039
1768730691102,0.0107574462890625,-0.376983642578125,-0.9202117919921876,-0.0303429923951625,-0.0251378435641527,-0.0039047268219292
1768730691112,0.0130767822265625,-0.3757781982421875,-0.9245758056640624,-0.0239980109035968,-0.0206549447029829,0.0026144252624362
1768730691122,0.0106353759765625,-0.37744140625,-0.9267730712890624,-0.0215495005249977,-0.0108052436262369,0.0061447117477655
1768730691133,0.0078582763671875,-0.3769378662109375,-0.9237823486328124,-0.0245831068605184,-0.006598247680813,0.0022916500456631
1768730691142,0.006011962890625,-0.3758087158203125,-0.9209136962890624,-0.0243705864995718,-0.0065836003050208,-0.0005632585380226
1768730691153,0.0090484619140625,-0.37615966796875,-0.921356201171875,-0.0192083157598972,-0.014307833276689,-0.0017185378819704
1768730691162,0.0110321044921875,-0.3726654052734375,-0.9264373779296876,-0.0061678811907768,-0.011315238662064,-0.001848233747296
1768730691173,0.0153961181640625,-0.3712615966796875,-0.9341278076171876,0.0053028864786028,-0.0012064119800925,-0.0013403689954429
1768730691183,0.017059326171875,-0.372222900390625,-0.9347991943359376,0.014296380802989,0.0093429014086723,0.0039278962649405
1768730691194,0.0128631591796875,-0.3741302490234375,-0.93328857421875,0.0203588008880615,0.02035453915596,0.0067383302375674
1768730691203,0.009002685546875,-0.375762939453125,-0.9292144775390624,0.0244576726108789,0.0314399488270282,0.0041718417778611
1768730691213,0.0066680908203125,-0.3757171630859375,-0.9285888671875,0.0268734265118837,0.0299712140113115,0.0053758569993078
1768730691223,0.0018768310546875,-0.37579345703125,-0.9248199462890624,0.03044312633574,0.0234323553740978,0.0038163098506629
1768730691233,0.0043182373046875,-0.3833770751953125,-0.9210357666015624,0.0228568464517593,0.0160854924470186,-0.0015398397808894
1768730691243,0.007720947265625,-0.3855438232421875,-0.914306640625,0.0081378212198615,0.0134082166478037,-0.007455519400537
1768730691253,0.0027008056640625,-0.375091552734375,-0.9169158935546876,0.0096166748553514,0.0249887071549892,-0.0061652180738747
1768730691263,0.0059661865234375,-0.3795928955078125,-0.9265899658203124,0.0107913948595523,0.024466460570693,-0.0050008837133646
1768730691273,0.009796142578125,-0.3931121826171875,-0.9163360595703124,0.0066251456737518,0.0103437174111604,-0.0119621204212307
1768730691283,0.0107269287109375,-0.38616943359375,-0.9181365966796876,0.0159424804151058,0.0023260049056261,-0.0108582405373454
1768730691294,0.0109405517578125,-0.3810272216796875,-0.926666259765625,0.0195523966103792,0.0121551994234323,-0.0080004017800092
1768730691303,0.0094146728515625,-0.3811798095703125,-0.9232940673828124,0.0226334072649478,0.0191627759486436,-0.009744506329298
1768730691313,0.00518798828125,-0.3798980712890625,-0.9234466552734376,0.028695560991764,0.0304383337497711,-0.0164010766893625
1768730691323,0.0037384033203125,-0.3746490478515625,-0.9254302978515624,0.0407021567225456,0.0390568561851978,-0.0165068041533231
1768730691334,0.005828857421875,-0.3682861328125,-0.9299163818359376,0.0467829518020153,0.0257375873625278,-0.020107664167881
1768730691344,0.00537109375,-0.36920166015625,-0.9222869873046876,0.0460212863981723,0.0128026138991117,-0.0189923327416181
1768730691354,0.0048675537109375,-0.3745269775390625,-0.9136505126953124,0.0339092314243316,-0.0066062374971807,-0.0224291421473026
1768730691363,0.0032806396484375,-0.3797454833984375,-0.9057159423828124,0.0142804021015763,-0.0178711414337158,-0.0291570872068405
1768730691373,0.0046844482421875,-0.3831787109375,-0.90106201171875,-0.0082291681319475,-0.0238757710903882,-0.0330612808465957
1768730691384,0.0108795166015625,-0.3881683349609375,-0.8973236083984375,-0.026104038581252,-0.0318364910781383,-0.0315539315342903
1768730691394,0.0196685791015625,-0.38958740234375,-0.899871826171875,-0.0309379417449235,-0.0380509793758392,-0.0207931622862815
1768730691404,0.0307159423828125,-0.3846588134765625,-0.913360595703125,-0.0295829251408576,-0.0326660685241222,-0.0082787023857235
1768730691414,0.032562255859375,-0.3812103271484375,-0.923431396484375,-0.0256627518683671,-0.0186019130051136,0.0057345847599208
1768730691424,0.0249176025390625,-0.3832550048828125,-0.9228515625,-0.0197401493787765,-0.007840346544981,0.0104600973427295
1768730691434,0.017791748046875,-0.3814544677734375,-0.92559814453125,-0.0092915026471018,0.0075295553542673,0.0089506180956959
1768730691444,0.0151214599609375,-0.3811798095703125,-0.9283905029296876,0.0026639599818736,0.0166815090924501,0.0127661293372511
1768730691454,0.0114898681640625,-0.3809967041015625,-0.9327392578125,0.0154021261259913,0.0215700063854455,0.0112358769401907
1768730691464,0.010467529296875,-0.3793182373046875,-0.9385528564453124,0.0263322722166776,0.0177252013236284,0.008200405165553
1768730691474,0.006072998046875,-0.381103515625,-0.93524169921875,0.0372243337333202,0.0171765908598899,0.0097948396578431
1768730691484,0.0034332275390625,-0.3853759765625,-0.932891845703125,0.0434369556605815,0.0137427104637026,0.0125943552702665
1768730691494,0.0026397705078125,-0.3839263916015625,-0.929534912109375,0.0488703362643718,0.0096118813380599,0.0147043773904442
1768730691504,0.0034942626953125,-0.38519287109375,-0.9257049560546876,0.044275052845478,0.0018860506825149,0.0171409044414758
1768730691514,0.00628662109375,-0.3907470703125,-0.9146270751953124,0.0367420352995395,-0.0126502811908721,0.0132992938160896
1768730691524,0.009002685546875,-0.3967132568359375,-0.9090728759765624,0.0291227307170629,-0.0236648488789796,0.0040634511969983
1768730691534,0.013427734375,-0.389312744140625,-0.9124603271484376,0.0235593877732753,-0.0160615239292383,0.0048932922072708
1768730691545,0.0161285400390625,-0.3848724365234375,-0.917938232421875,0.0226491205394268,-0.0011310444679111,0.0078227696940302
1768730691554,0.0106353759765625,-0.3816986083984375,-0.918060302734375,0.0187214892357587,0.0186679605394601,0.0072957295924425
1768730691564,0.007537841796875,-0.3832550048828125,-0.9153594970703124,0.0133570842444896,0.0325161330401897,0.0050008837133646
1768730691575,0.0079345703125,-0.3820953369140625,-0.9136810302734376,0.0108441254124045,0.0321885608136653,0.0022844595368951
1768730691585,0.012115478515625,-0.381622314453125,-0.91259765625,0.0081308968365192,0.0224150270223617,0.003573429537937
1768730691595,0.0131683349609375,-0.382720947265625,-0.91131591796875,-0.0025321335997432,0.0152998603880405,0.0071926652453839
1768730691604,0.0144805908203125,-0.38262939453125,-0.9097442626953124,-0.0115578528493642,0.0046333675272762,0.0097511643543839
1768730691615,0.0137481689453125,-0.3839111328125,-0.910369873046875,-0.0182895250618457,-0.0035324168857187,0.0161925517022609
1768730691625,0.0126800537109375,-0.384765625,-0.912506103515625,-0.0276574604213237,-0.0070139672607183,0.017446368932724
1768730691635,0.0105133056640625,-0.389068603515625,-0.912139892578125,-0.0378421880304813,-0.0073367422446608,0.0173691362142562
1768730691645,0.0124664306640625,-0.392547607421875,-0.9117279052734376,-0.0453099571168422,-0.0103008402511477,0.0180066972970962
1768730691655,0.013519287109375,-0.392333984375,-0.913665771484375,-0.0451416447758674,-0.0179835278540849,0.017830928787589
1768730691665,0.0155487060546875,-0.3914794921875,-0.9227447509765624,-0.0391444712877273,-0.0301182214170694,0.0153414057567715
1768730691675,0.0172271728515625,-0.389068603515625,-0.9285888671875,-0.0313709713518619,-0.0308921355754137,0.0182013735175132
1768730691685,0.0154266357421875,-0.3878021240234375,-0.9331512451171876,-0.0188764855265617,-0.0241751112043857,0.0185300093144178
1768730691695,0.0080413818359375,-0.387603759765625,-0.93267822265625,-0.0143994456157088,-0.0148567100986838,0.0127805098891258
1768730691705,-0.0007781982421875,-0.3871917724609375,-0.9267120361328124,-0.0106164254248142,0.0013289173366501,0.0051281829364597
1768730691715,-0.0048675537109375,-0.384124755859375,-0.9266357421875,-0.0059660132974386,0.0131879737600684,0.0034565166570246
1768730691725,0.0037994384765625,-0.377899169921875,-0.9301910400390624,0.0053830472752451,0.0169286504387855,0.0106079028919339
1768730691735,0.016937255859375,-0.3763427734375,-0.9326934814453124,0.0120465429499745,0.014191186055541,0.0204719863831996
1768730691745,0.0205230712890625,-0.3763885498046875,-0.929443359375,0.0146886650472879,0.0093349125236272,0.0242720507085323
1768730691755,0.014892578125,-0.3768157958984375,-0.922332763671875,0.0115405423566699,0.0132143385708332,0.0243820380419492
1768730691765,0.0117950439453125,-0.378021240234375,-0.91497802734375,0.003385144053027,0.0197635851800441,0.0253977682441473
1768730691775,0.01263427734375,-0.3782958984375,-0.9120635986328124,-0.0061550978571176,0.0274223033338785,0.0232424717396497
1768730691786,0.0083770751953125,-0.37994384765625,-0.9103546142578124,-0.0077426079660654,0.0351819545030593,0.0235748346894979
1768730691796,0.0089874267578125,-0.3807220458984375,-0.914276123046875,-0.014576013199985,0.0489172078669071,0.0249034855514764
1768730691805,0.007781982421875,-0.38043212890625,-0.9150390625,-0.0236960090696811,0.0512461438775062,0.0279906224459409
1768730691816,0.0088043212890625,-0.3840484619140625,-0.9109039306640624,-0.0256254691630601,0.0484980270266532,0.0330082848668098
1768730691826,0.0112762451171875,-0.386749267578125,-0.91357421875,-0.0242020096629858,0.0389111787080764,0.037679735571146
1768730691836,0.014251708984375,-0.387969970703125,-0.91986083984375,-0.0239649880677461,0.0308929346501827,0.0413474403321743
1768730691846,0.0115814208984375,-0.38995361328125,-0.9221038818359376,-0.0256294626742601,0.023495739325881,0.037436056882143
1768730691856,0.0055694580078125,-0.3897247314453125,-0.92181396484375,-0.0277461428195238,0.0141938496381044,0.0297589600086212
1768730691866,-0.0012969970703125,-0.3932647705078125,-0.919769287109375,-0.0263999160379171,0.0033939324785023,0.0173771250993013
1768730691876,-0.0037384033203125,-0.3934326171875,-0.921722412109375,-0.0257471743971109,-0.0011765845119953,0.0073367422446608
1768730691886,-0.0036163330078125,-0.3897857666015625,-0.921905517578125,-0.0249431673437356,-0.011272095143795,-0.0031188279390335
1768730691896,-0.0036163330078125,-0.386932373046875,-0.9215850830078124,-0.0166942905634641,-0.0237021334469318,-0.011502725072205
1768730691906,0.00067138671875,-0.381561279296875,-0.9279937744140624,-0.0038642466533929,-0.0209601428359746,-0.0114859472960233
1768730691916,0.0061798095703125,-0.3752288818359375,-0.9376983642578124,0.0119450762867927,-0.0119488043710589,-0.0067764134146273
1768730691926,0.0086669921875,-0.3732452392578125,-0.94073486328125,0.0305797476321458,-0.0087277116253972,0.0002644518972374
1768730691936,0.006011962890625,-0.3793182373046875,-0.9347991943359376,0.0398195832967758,-0.0197864882647991,-0.0028234834317117
1768730691946,0.0048370361328125,-0.389495849609375,-0.9240875244140624,0.036854688078165,-0.034705251455307,-0.0130122052505612
1768730691956,-0.0003204345703125,-0.381500244140625,-0.9156494140625,0.0270851477980613,-0.0219162181019783,-0.0226022470742464
