timestamp_ms,acc_x,acc_y,acc_z,gyro_x,gyro_y,gyro_z
1770453522861,0.1164703369140625,-0.1672515869140625,-0.9709930419921876,-0.0182639583945274,0.0072073126211762,0.0133861126378178
1770453522874,0.111602783203125,-0.1588592529296875,-0.9693603515625,-0.0207630693912506,0.0026429209392517,0.0099623529240489
1770453522878,0.1085052490234375,-0.151336669921875,-0.9753265380859376,-0.0220592301338911,0.0142186172306537,-0.0038823562208563
1770453522888,0.0987396240234375,-0.1489410400390625,-0.981536865234375,-0.0184807404875755,0.0256675463169813,-0.0160551331937313
1770453522898,0.0968475341796875,-0.1508636474609375,-0.986541748046875,-0.009613212198019,0.0220728106796741,-0.0202709175646305
1770453522908,0.0998992919921875,-0.1544952392578125,-0.9913330078125,0.0023411849979311,0.0154287572950124,-0.0208232570439577
1770453522918,0.1031951904296875,-0.162200927734375,-0.99139404296875,0.0112129729241132,0.0332945734262466,-0.0146377980709075
1770453522928,0.1083831787109375,-0.1556396484375,-0.990875244140625,0.0166447572410106,0.0273970030248165,-0.0096177402883768
1770453522939,0.10284423828125,-0.1442108154296875,-0.983367919921875,0.0214887801557779,0.0212405733764171,-0.0133560188114643
1770453522949,0.1004180908203125,-0.147064208984375,-0.9800567626953124,0.0212528239935636,0.0231649745255708,-0.0163640603423118
1770453522959,0.102783203125,-0.1556243896484375,-0.9784088134765624,0.0193036571145057,0.0250675361603498,-0.01710388623178
1770453522969,0.10699462890625,-0.1602783203125,-0.979827880859375,0.0156798940151929,0.0118151139467954,-0.0152034536004066
1770453522979,0.111968994140625,-0.1606597900390625,-0.9789276123046876,0.0079287635162472,-0.0030437267851084,-0.0191585142165422
1770453522989,0.1131134033203125,-0.1629638671875,-0.9690093994140624,-0.0077300914563238,-0.014854047447443,-0.015823969617486
1770453522999,0.121429443359375,-0.1618499755859375,-0.95733642578125,-0.0283165927976369,-0.0025310681667178,-0.0084022730588912
1770453523009,0.125,-0.1622161865234375,-0.953704833984375,-0.0462103709578514,0.0180703476071357,-0.0053380401805043
1770453523019,0.1212921142578125,-0.1635894775390625,-0.9611053466796876,-0.0484993606805801,0.0173843167722225,0.0022607573773711
1770453523030,0.122589111328125,-0.16595458984375,-0.9777374267578124,-0.0393884181976318,-0.0032029838766902,0.0062211444601416
1770453523039,0.121185302734375,-0.1647186279296875,-0.9907073974609376,-0.0279882252216339,-0.0146210202947258,0.012116583995521
1770453523049,0.11865234375,-0.1658477783203125,-0.9912261962890624,-0.0210240595042705,-0.0143645582720637,0.0155131798237562
1770453523059,0.1127471923828125,-0.1627960205078125,-0.9891815185546876,-0.0177683439105749,-0.0062978430651128,0.0204994156956672
1770453523069,0.109588623046875,-0.1528167724609375,-0.9863433837890624,-0.0090683298185467,0.0006000102148391,0.0186549108475446
1770453523079,0.1033935546875,-0.1431884765625,-0.9905242919921876,0.0018700717482715,-0.0060632186941802,0.0105330683290958
1770453523089,0.099884033203125,-0.1481475830078125,-0.9925384521484376,0.011365040205419,-0.0095764612779021,0.002168612089008
1770453523099,0.10198974609375,-0.1550140380859375,-0.9912872314453124,0.0183086991310119,-0.0011467571603134,-0.0037228327710181
1770453523109,0.1025848388671875,-0.1562042236328125,-0.9867401123046876,0.0233450029045343,0.006654973141849,-0.0087364995852112
1770453523120,0.1038665771484375,-0.15899658203125,-0.9778594970703124,0.0231692343950271,0.0138188768178224,-0.0097983023151755
1770453523129,0.10791015625,-0.1565093994140625,-0.9723663330078124,0.0186194907873868,0.0238600596785545,-0.0123333651572465
1770453523140,0.107696533203125,-0.1544036865234375,-0.9729156494140624,0.0103173526003956,0.0296713430434465,-0.0148130347952246
1770453523150,0.105072021484375,-0.1574554443359375,-0.9740142822265624,0.0014176006661728,0.038263764232397,-0.0118827586993575
1770453523160,0.106842041015625,-0.157562255859375,-0.9758453369140624,0.0010186590952798,0.0450332537293434,-0.0112995263189077
1770453523171,0.105010986328125,-0.153717041015625,-0.98138427734375,0.0042416164651513,0.0403660647571086,-0.01136424113065
1770453523180,0.1054229736328125,-0.1561737060546875,-0.985565185546875,0.0083364928141236,0.0226648319512605,-0.0067071709781885
1770453523190,0.110321044921875,-0.1576995849609375,-0.9829254150390624,0.0060246028006076,0.0035705000627785,-0.0066813384182751
1770453523200,0.114288330078125,-0.16064453125,-0.974639892578125,-0.0042879558168351,-0.01308917067945,-0.0010170611785724
1770453523210,0.12109375,-0.1833343505859375,-0.96539306640625,-0.0210703983902931,-0.0238976087421178,0.0177318584173917
1770453523220,0.131927490234375,-0.1912078857421875,-0.9614105224609376,-0.0246811117976903,-0.0243916250765323,0.0293736010789871
1770453523230,0.1267547607421875,-0.1523895263671875,-0.95599365234375,-0.0451528318226337,-0.0355073921382427,0.0233290251344442
1770453523240,0.1104583740234375,-0.140716552734375,-0.9459991455078124,-0.0712946876883506,-0.0182929877191782,0.0101003050804138
1770453523250,0.1052093505859375,-0.163604736328125,-0.955474853515625,-0.0809912532567977,0.0296681467443704,0.0131339114159345
1770453523260,0.1109771728515625,-0.1638336181640625,-0.9719085693359376,-0.0634327679872512,0.0497883297502994,0.0030980552546679
1770453523270,0.0995635986328125,-0.1139068603515625,-0.97747802734375,-0.0556387603282928,0.0084912227466702,-0.0262071024626493
1770453523280,0.09112548828125,-0.1487579345703125,-0.9820098876953124,-0.0605994313955307,-0.0145163582637906,-0.0249290522187948
1770453523290,0.1168670654296875,-0.196136474609375,-0.99395751953125,-0.0658392012119293,-0.0027041737921535,0.0075796227902174
1770453523301,0.13238525390625,-0.184783935546875,-0.993560791015625,-0.0553940162062644,0.0092739257961511,0.0143592320382595
1770453523310,0.1133880615234375,-0.13323974609375,-0.98486328125,-0.0390669740736484,0.0062033012509346,-0.0129277827218174
1770453523321,0.0878143310546875,-0.121795654296875,-0.9821929931640624,-0.033336117863655,0.0265613030642271,-0.0368951670825481
1770453523330,0.0854644775390625,-0.1418914794921875,-0.9944000244140624,-0.0246392991393804,0.0480548776686191,-0.0432947427034378
1770453523341,0.099822998046875,-0.153076171875,-1.003265380859375,-0.011085407808423,0.0367516241967678,-0.0334868542850017
1770453523352,0.116668701171875,-0.1671600341796875,-1.0048675537109375,0.0080478060990571,0.0042125880718231,-0.0190818160772323
1770453523361,0.1259918212890625,-0.178863525390625,-0.9975128173828124,0.0209420341998338,-0.0063026370480656,-0.0031510521657764
1770453523371,0.1301727294921875,-0.173065185546875,-0.9858856201171876,0.0186621006578207,0.0035609125625342,0.0061878548003733
1770453523381,0.1251220703125,-0.1621551513671875,-0.9723052978515624,0.0045822351239621,0.017133979126811,0.013398096896708
1770453523391,0.1197967529296875,-0.1587677001953125,-0.9643707275390624,-0.0013355752453207,0.027982098981738,0.0120524019002914
1770453523401,0.1139984130859375,-0.155364990234375,-0.9683990478515624,-0.0029734193813055,0.0374621525406837,0.0108036454766988
1770453523411,0.10882568359375,-0.1494903564453125,-0.975860595703125,0.0075383437797427,0.0293277949094772,0.0023113575298339
1770453523421,0.1017303466796875,-0.1446533203125,-0.9863128662109376,0.0287307146936655,0.006271744146943,-0.0102835297584533
1770453523431,0.09661865234375,-0.1463470458984375,-0.99755859375,0.0479440912604332,-0.0112222945317626,-0.0202751774340868
1770453523441,0.1033935546875,-0.151397705078125,-0.998138427734375,0.0509135127067565,-0.021575866267085,-0.0266036465764045
1770453523451,0.1102142333984375,-0.1630706787109375,-0.9867095947265624,0.047193344682455,-0.0166045427322387,-0.0200035348534584
1770453523461,0.1191864013671875,-0.173858642578125,-0.9734954833984376,0.0414180122315883,0.009264338761568,-0.0089402319863438
1770453523471,0.1219635009765625,-0.160247802734375,-0.9650726318359376,0.0342575721442699,0.0318551361560821,-0.0079561937600374
1770453523481,0.1117706298828125,-0.14910888671875,-0.9603118896484376,0.0225276798009872,0.0511310957372188,-0.0113666374236345
1770453523491,0.1044921875,-0.1492919921875,-0.9653778076171876,0.0129189947620034,0.0485379733145237,-0.0135339181870222
1770453523501,0.1042327880859375,-0.151824951171875,-0.972015380859375,0.0063066319562494,0.0271549224853515,-0.0119986059144139
1770453523511,0.1131439208984375,-0.1562042236328125,-0.9779510498046876,0.0053332461975514,0.0124601321294903,-0.0143488459289073
1770453523521,0.1168365478515625,-0.1607818603515625,-0.98101806640625,0.0038288265932351,0.0068075722083449,-0.0104622282087802
1770453523531,0.120452880859375,-0.162322998046875,-0.9758453369140624,-0.0020809939596801,0.0122329639270901,-0.0060560284182429
1770453523541,0.1199188232421875,-0.1615447998046875,-0.969512939453125,-0.0082677835598587,0.0230970624834299,0.0028748824261128
1770453523551,0.1201934814453125,-0.15960693359375,-0.9713134765625,-0.0124393589794635,0.0196285620331764,0.0087969535961747
1770453523562,0.1227874755859375,-0.1613922119140625,-0.9757843017578124,-0.0116460034623742,0.0148109039291739,0.0119709093123674
1770453523572,0.1221466064453125,-0.164947509765625,-0.9826812744140624,-0.0047276434488594,0.0113922040909528,0.0165970865637063
1770453523582,0.123504638671875,-0.1646728515625,-0.984893798828125,0.0057359160855412,0.0088289119303226,0.0187180284410715
1770453523592,0.1207733154296875,-0.1624603271484375,-0.985198974609375,0.0142886582762002,0.0020322583150118,0.0154503285884857
1770453523602,0.1173553466796875,-0.159423828125,-0.980194091796875,0.0194554571062326,0.0008540757698938,0.0148186273872852
1770453523612,0.11767578125,-0.157958984375,-0.9762420654296876,0.0194493308663368,0.0021632856223732,0.0129022160544991
1770453523622,0.1165771484375,-0.16070556640625,-0.9734954833984376,0.0144495125859975,0.0065918564796447,0.0148236872628331
1770453523632,0.114349365234375,-0.16168212890625,-0.9726104736328124,0.0052578789182007,0.0131488246843218,0.0145701542496681
1770453523642,0.1104278564453125,-0.160125732421875,-0.9712371826171876,-0.0011361044598743,0.0187342725694179,0.0093674026429653
1770453523652,0.1098785400390625,-0.159393310546875,-0.9727935791015624,-0.0070440610870718,0.0216419119387865,0.0034634410403668
1770453523662,0.1123504638671875,-0.15869140625,-0.9740447998046876,-0.0095847165212035,0.0179046988487243,0.0030802120454609
1770453523672,0.112213134765625,-0.156341552734375,-0.9774169921875,-0.0067401942797005,0.0162468813359737,0.0027859327383339
1770453523682,0.109588623046875,-0.153839111328125,-0.9828033447265624,0.001856489572674,0.0102382563054561,0.0013579458463937
1770453523692,0.1107330322265625,-0.154937744140625,-0.9851837158203124,0.0097999004647135,0.0056685381568968,0.00012463593157
1770453523702,0.108489990234375,-0.1533660888671875,-0.98382568359375,0.010896323248744,0.0138574922457337,-0.0024490428622812
1770453523712,0.107666015625,-0.1518402099609375,-0.980010986328125,0.0132803851738572,0.0247620716691017,-0.0020311928819864
1770453523722,0.108154296875,-0.155670166015625,-0.9804534912109376,0.0175755321979522,0.0355342924594879,-0.0002775013854261
1770453523732,0.111907958984375,-0.1571502685546875,-0.9840545654296876,0.0264744833111763,0.0461134314537048,0.0030272151343524
1770453523742,0.11370849609375,-0.1637725830078125,-0.98529052734375,0.0275762341916561,0.0523526854813098,0.0152905397117137
1770453523752,0.125335693359375,-0.187042236328125,-0.9819793701171876,0.033385120332241,0.0666280314326286,0.0330642089247703
1770453523762,0.1297760009765625,-0.1806640625,-0.977813720703125,0.0458183549344539,0.0630695149302482,0.0445597432553768
1770453523773,0.122833251953125,-0.1327972412109375,-0.9651336669921876,0.0487345159053802,0.0538073070347309,0.0260073654353618
1770453523782,0.102386474609375,-0.132965087890625,-0.964752197265625,0.0394701771438121,0.0662711635231971,0.0003286340797785
1770453523793,0.0970306396484375,-0.164093017578125,-0.9741973876953124,0.0469917431473732,0.1125603690743446,-0.0031268175225704
1770453523803,0.110992431640625,-0.154693603515625,-0.9890289306640624,0.0662578493356704,0.1167785450816154,-0.0211367104202508
1770453523813,0.1017913818359375,-0.123504638671875,-0.981719970703125,0.0650951117277145,0.041055291891098,-0.0385404676198959
1770453523823,0.1163177490234375,-0.187774658203125,-0.9788360595703124,0.0501957908272743,-0.0013195963110774,-0.0099788643419742
1770453523833,0.1481781005859375,-0.218994140625,-0.98150634765625,0.0453150160610675,-0.0002567287301644,0.0162950828671455
1770453523843,0.148773193359375,-0.1793365478515625,-0.9746856689453124,0.0462460592389106,-0.0065593658946454,0.0101450458168983
1770453523853,0.118896484375,-0.13360595703125,-0.9601593017578124,0.0331582203507423,-0.0249540861696004,-0.0190623737871646
1770453523863,0.103118896484375,-0.1430816650390625,-0.9554443359375,0.0049542784690856,0.0053990264423191,-0.0374640189111232
1770453523873,0.109954833984375,-0.1629791259765625,-0.9640045166015624,-0.0128300450742244,0.0431277640163898,-0.0330500937998294
1770453523883,0.1212921142578125,-0.174346923828125,-0.97625732421875,-0.0118454741314053,0.0217500366270542,-0.0185656938701868
1770453523893,0.13372802734375,-0.1827545166015625,-0.98406982421875,0.00197100546211,-0.0156607180833816,0.0038836877793073
1770453523903,0.142303466796875,-0.186676025390625,-0.981842041015625,0.0082952138036489,-0.0076477997936308,0.0240800362080335
1770453523913,0.1377410888671875,-0.1814727783203125,-0.9769287109375,0.0077609838917851,0.0153406066820025,0.0344160310924053
1770453523923,0.1297607421875,-0.1705474853515625,-0.972320556640625,0.0062496401369571,0.0150010539218783,0.0361359007656574
1770453523934,0.1237030029296875,-0.16302490234375,-0.9698028564453124,0.0048275119625031,0.0078019965440034,0.0333124175667762
1770453523943,0.1199188232421875,-0.159271240234375,-0.9693145751953124,0.004610997159034,0.016940901055932,0.0246667303144931
1770453523953,0.11358642578125,-0.1573486328125,-0.9687652587890624,0.0053249904885888,0.0209028851240873,0.0134481647983193
1770453523963,0.1109771728515625,-0.15643310546875,-0.9677886962890624,0.0114867463707923,0.0094137415289878,-0.0020293288398534
1770453523974,0.1110687255859375,-0.16363525390625,-0.9728851318359376,0.0143158221617341,0.000417051021941,-0.0081455446779727
1770453523983,0.1177520751953125,-0.171173095703125,-0.9777984619140624,0.0131640052422881,0.0060677463188767,-0.0099604884162545
1770453523993,0.1204071044921875,-0.1840057373046875,-0.9793701171875,0.0149190286174416,0.0157568585127592,-0.0053391051478683
1770453524004,0.1259613037109375,-0.18426513671875,-0.9801177978515624,0.0211960989981889,0.0206456240266561,0.0005334311863407
1770453524014,0.1232757568359375,-0.16265869140625,-0.973876953125,0.0223753470927476,0.0267554484307765,-0.0050887679681181
1770453524024,0.1119232177734375,-0.153167724609375,-0.9738006591796876,0.0226270146667957,0.0455192811787128,-0.0156692415475845
1770453524035,0.106414794921875,-0.1588287353515625,-0.9821319580078124,0.0258244071155786,0.0431685075163841,-0.0203281752765178
1770453524044,0.114654541015625,-0.160919189453125,-0.9871063232421876,0.0352155119180679,0.0249085463583469,-0.0232677720487117
1770453524054,0.1260833740234375,-0.1612091064453125,-0.983123779296875,0.0387228950858116,0.0183904580771923,-0.0221156887710094
1770453524064,0.12579345703125,-0.16461181640625,-0.974700927734375,0.0357105918228626,0.0319787040352821,-0.0174263939261436
1770453524074,0.1267547607421875,-0.1676788330078125,-0.9686279296875,0.0319709815084934,0.0389418080449104,-0.0112806176766753
1770453524084,0.13067626953125,-0.17034912109375,-0.9666900634765624,0.0356791689991951,0.0380565710365772,0.000663127109874
1770453524094,0.1368408203125,-0.173583984375,-0.9733734130859376,0.0380014441907405,0.0379921235144138,0.0090819122269749
1770453524104,0.1379852294921875,-0.1777801513671875,-0.979248046875,0.0485411696135997,0.0276076588779687,0.0162372924387455
1770453524114,0.1360321044921875,-0.1783905029296875,-0.985443115234375,0.061494518071413,0.0097857853397727,0.0208171308040618
1770453524124,0.136627197265625,-0.17498779296875,-0.9825897216796876,0.0668629184365272,0.0097559578716754,0.0240472797304391
1770453524135,0.1325225830078125,-0.17138671875,-0.9779510498046876,0.0679470896720886,0.0179015025496482,0.0243101324886083
1770453524144,0.1289825439453125,-0.169281005859375,-0.97216796875,0.0630961433053016,0.0160207785665988,0.0200101938098669
1770453524154,0.12884521484375,-0.169677734375,-0.9666290283203124,0.0524711981415748,0.0129927638918161,0.0194828882813453
1770453524164,0.127197265625,-0.172393798828125,-0.9594268798828124,0.0410710051655769,0.0211305860430002,0.018362496048212
1770453524174,0.1289215087890625,-0.172760009765625,-0.955108642578125,0.0278870239853858,0.034294057637453,0.0202770419418811
1770453524185,0.1269073486328125,-0.17718505859375,-0.9552001953125,0.0174479652196168,0.0386531203985214,0.0233077201992273
1770453524194,0.1257171630859375,-0.1790924072265625,-0.9599456787109376,0.0125842345878481,0.0427328161895275,0.0248765870928764
1770453524205,0.1237335205078125,-0.1751251220703125,-0.96630859375,0.0156647134572267,0.0445842444896698,0.0235221032053232
1770453524215,0.1219940185546875,-0.1721954345703125,-0.9755401611328124,0.0193776916712522,0.0342820733785629,0.0166599359363317
1770453524225,0.119476318359375,-0.171356201171875,-0.98040771484375,0.025400698184967,0.0162002742290496,0.0132178012281656
1770453524236,0.1240692138671875,-0.17138671875,-0.9783477783203124,0.0255032293498516,0.0017574200173839,0.0103037701919674
1770453524245,0.123046875,-0.1712646484375,-0.9701690673828124,0.0178397167474031,-0.0009944243356585,0.0073623089119791
1770453524255,0.12274169921875,-0.171112060546875,-0.9619293212890624,0.0076672406867146,0.0053827813826501,0.0059867859818041
1770453524265,0.1254730224609375,-0.173675537109375,-0.9585418701171876,-0.0011137339752167,0.0102385226637125,0.002879676176235
1770453524275,0.1273040771484375,-0.178680419921875,-0.9613800048828124,-0.015220764093101,0.0104992464184761,0.0083463471382856
1770453524285,0.136077880859375,-0.1991424560546875,-0.9648284912109376,-0.0183838009834289,0.0227535162121057,0.0286982245743274
1770453524295,0.1470794677734375,-0.1998748779296875,-0.97509765625,-0.0071247546002268,0.0254198722541332,0.0359726473689079
1770453524305,0.1360015869140625,-0.15814208984375,-0.9757843017578124,0.0013789847726002,0.0084896245971322,0.0204554740339517
1770453524315,0.1174774169921875,-0.1531524658203125,-0.9744110107421876,-0.0001667138858465,0.0129975574091076,0.0051241880282759
1770453524325,0.1154632568359375,-0.1833038330078125,-0.98052978515625,0.0131472274661064,0.0498237498104572,0.0129357725381851
1770453524335,0.1292266845703125,-0.1922607421875,-0.99169921875,0.0508767627179622,0.0454013049602508,0.0054397727362811
1770453524345,0.1178741455078125,-0.1405029296875,-0.9848175048828124,0.0614031739532947,-0.0183334667235612,-0.0143312690779566
1770453524355,0.114593505859375,-0.19482421875,-0.976318359375,0.0543114431202411,-0.0360999479889869,0.0064325993880629
1770453524366,0.1409759521484375,-0.225982666015625,-0.974090576171875,0.039754070341587,-0.0157502014189958,0.0320554040372371
1770453524375,0.1426239013671875,-0.18975830078125,-0.9616546630859376,0.0290273912250995,-0.0090062776580452,0.0200666524469852
1770453524385,0.1163330078125,-0.136474609375,-0.9422607421875,0.0059108859859406,-0.007710117381066,-0.0227950606495142
1770453524395,0.0931243896484375,-0.1422576904296875,-0.9384307861328124,-0.0243855006992816,0.0236494038254022,-0.0533758737146854
1770453524406,0.0981292724609375,-0.1664581298828125,-0.95220947265625,-0.0465288870036602,0.034275148063898,-0.0572297349572181
1770453524416,0.119232177734375,-0.1826629638671875,-0.9630889892578124,-0.0488620810210704,0.0076395436190068,-0.0441203229129314
1770453524426,0.1373291015625,-0.197906494140625,-0.971038818359375,-0.0423788838088512,-0.0125397602096199,-0.0263282768428325
1770453524436,0.1432647705078125,-0.2023773193359375,-0.9732208251953124,-0.0377646908164024,-0.0028666264843195,-0.0047295079566538
1770453524446,0.140533447265625,-0.1978759765625,-0.9764404296875,-0.0331819206476211,-0.0078105186112225,0.0076129124499857
1770453524456,0.13787841796875,-0.1877593994140625,-0.978118896484375,-0.0298705473542213,-0.0183028411120176,0.0161483436822891
1770453524466,0.1353302001953125,-0.178558349609375,-0.9787750244140624,-0.0255303941667079,-0.0195108503103256,0.0120071284472942
1770453524476,0.1306610107421875,-0.173919677734375,-0.980743408203125,-0.0193486642092466,-0.0207670629024505,0.0053676012903451
1770453524486,0.1293792724609375,-0.1657257080078125,-0.976409912109375,-0.0162205155938863,-0.0268803499639034,-0.0077607175335288
1770453524496,0.1265716552734375,-0.167449951171875,-0.968505859375,-0.0155299575999379,-0.0208943635225296,-0.0186498500406742
1770453524506,0.1295166015625,-0.1740570068359375,-0.9648590087890624,-0.0229287520051002,0.0033595776185393,-0.0155035918578505
1770453524516,0.133575439453125,-0.180633544921875,-0.965667724609375,-0.022965770214796,0.0258963126689195,-0.0069125010631978
1770453524526,0.132904052734375,-0.1905059814453125,-0.975982666015625,-0.0112201636657118,0.0324266478419303,0.008101069368422
1770453524536,0.137420654296875,-0.1951751708984375,-0.990692138671875,0.0124643929302692,0.0279248412698507,0.0207311101257801
1770453524546,0.135528564453125,-0.17431640625,-1.001617431640625,0.0356517359614372,0.0169819127768278,0.0182098969817161
1770453524556,0.121124267578125,-0.1639404296875,-0.998870849609375,0.0497949868440628,0.0176903139799833,0.0094771245494484
1770453524566,0.113739013671875,-0.1627197265625,-0.995330810546875,0.0574843324720859,0.0181555673480033,0.0009510148083791
1770453524576,0.1167449951171875,-0.1686248779296875,-0.991729736328125,0.0624545887112617,0.0079079903662204,-0.0034088462125509
1770453524586,0.1272125244140625,-0.1753387451171875,-0.983489990234375,0.0703950673341751,-0.0187736880034208,-0.0013693973887711
1770453524597,0.13665771484375,-0.1798858642578125,-0.9698486328125,0.0620862729847431,-0.0182415880262851,0.0005834985640831
1770453524606,0.13714599609375,-0.1861114501953125,-0.9569244384765624,0.0478950887918472,0.0025659557431936,0.0033931334037333
1770453524616,0.1354522705078125,-0.1855316162109375,-0.95111083984375,0.030886011198163,0.0139248706400394,0.0090837758034467
1770453524626,0.1363525390625,-0.1846160888671875,-0.9482269287109376,0.0118497349321842,0.0165837705135345,0.0147089045494794
1770453524637,0.1408233642578125,-0.1891632080078125,-0.9509429931640624,-0.003425890346989,0.0249809827655553,0.0223785433918237
1770453524647,0.1402740478515625,-0.1899871826171875,-0.9595489501953124,-0.0074605792760849,0.0304939933121204,0.0311427395790815
1770453524657,0.1362762451171875,-0.1842193603515625,-0.96697998046875,-0.0034091125708073,0.0220901221036911,0.0330303870141506
1770453524667,0.13177490234375,-0.182586669921875,-0.974761962890625,0.0068661617115139,0.0040714405477046,0.0292178057134151
1770453524677,0.127105712890625,-0.1795806884765625,-0.97821044921875,0.0162687189877033,-0.0015970977256074,0.0281243119388818
1770453524687,0.126373291015625,-0.180511474609375,-0.977142333984375,0.0172655396163463,0.0056022256612777,0.0260803364217281
1770453524697,0.1240234375,-0.1787109375,-0.973419189453125,0.0170791186392307,0.0059308595955371,0.0227250196039676
1770453524707,0.125518798828125,-0.1799468994140625,-0.9715423583984376,0.0201774407178163,-0.0004559331864584,0.0197172462940216
1770453524718,0.125457763671875,-0.1855926513671875,-0.97088623046875,0.0189465265721082,-0.0030692932195961,0.0171454306691885
1770453524727,0.12591552734375,-0.184814453125,-0.970733642578125,0.0174895115196704,0.0099900495260953,0.0167233198881149
1770453524737,0.1254425048828125,-0.1834564208984375,-0.9722900390625,0.01729616522789,0.0152740273624658,0.0145049067214131
1770453524747,0.1241455078125,-0.1816253662109375,-0.9744110107421876,0.0181702151894569,0.0207510851323604,0.0115706361830234
1770453524757,0.124786376953125,-0.180084228515625,-0.976715087890625,0.0207012835890054,0.0229663029313087,0.0037444045301526
1770453524768,0.1215972900390625,-0.181884765625,-0.977264404296875,0.0238102581351995,0.0076318206265568,0.0002359560749027
1770453524777,0.12713623046875,-0.1841583251953125,-0.97509765625,0.022188127040863,0.0038687740452587,0.0021875204984098
1770453524787,0.1311492919921875,-0.188812255859375,-0.9691619873046876,0.0211974307894706,0.0043417513370513,0.0049588060937821
1770453524797,0.1309661865234375,-0.18634033203125,-0.964385986328125,0.0175177417695522,0.0015102786710485,0.0046509443782269
1770453524807,0.1286163330078125,-0.1858673095703125,-0.9593505859375,0.0097002983093261,-0.0070195598527789,0.0084347641095519
1770453524818,0.1324005126953125,-0.201904296875,-0.9580230712890624,-0.0050586746074259,-0.0047148605808615,0.0251668728888034
1770453524827,0.1454620361328125,-0.2155303955078125,-0.95770263671875,-0.005387841258198,-0.000393881520722,0.0378730781376361
1770453524838,0.1407470703125,-0.1761474609375,-0.958160400390625,-0.0135307228192687,-0.0024935177061706,0.0218379199504852
1770453524848,0.1126708984375,-0.1544952392578125,-0.957427978515625,-0.0191164370626211,0.00108071079012,-0.004095409065485
1770453524858,0.1034393310546875,-0.176025390625,-0.9691162109375,-0.0198043305426836,0.0196474716067314,-0.0052086105570197
1770453524868,0.1208648681640625,-0.20782470703125,-0.9829254150390624,0.005666141398251,0.0309893414378166,0.0016519587952643
1770453524878,0.12579345703125,-0.155303955078125,-0.9761962890625,0.0058608185499906,-0.011134410277009,-0.0186948589980602
1770453524888,0.1144256591796875,-0.1753692626953125,-0.9594573974609376,-0.013881460763514,-0.0218040980398654,-0.0130481580272316
1770453524898,0.1339569091796875,-0.224761962890625,-0.9600982666015624,-0.033998180180788,-0.0020727382507175,0.0192051194608211
1770453524908,0.148406982421875,-0.21197509765625,-0.9584197998046876,-0.0349409393966198,0.0126337697729468,0.0240467470139265
1770453524918,0.1314849853515625,-0.155181884765625,-0.9587554931640624,-0.0330588817596435,0.0085053378716111,-0.0115261608734726
1770453524928,0.0995025634765625,-0.140380859375,-0.9638519287109376,-0.033587522804737,0.0135475005954504,-0.0466434024274349
1770453524938,0.099151611328125,-0.1620330810546875,-0.9782562255859376,-0.0375076942145824,0.023370835930109,-0.0543814823031425
1770453524948,0.1192779541015625,-0.181365966796875,-0.9898529052734376,-0.0235977377742528,0.0060802628286182,-0.0395306311547756
1770453524958,0.13983154296875,-0.2003631591796875,-0.99383544921875,-0.0039119170978665,-0.0244227852672338,-0.0193854160606861
1770453524968,0.151031494140625,-0.213623046875,-0.9888763427734376,0.010324808768928,-0.0299397893249988,0.005928995553404
1770453524978,0.1508331298828125,-0.20819091796875,-0.976226806640625,0.0084086647257208,-0.0148167628794908,0.0223399270325899
1770453524988,0.144622802734375,-0.1974945068359375,-0.9649200439453124,-0.0052725262939929,-0.0023110911715775,0.032043419778347
1770453524998,0.1405792236328125,-0.191162109375,-0.964141845703125,-0.0162993445992469,0.0025473134592175,0.0314764343202114
1770453525008,0.135589599609375,-0.1854400634765625,-0.966796875,-0.019250925630331,0.0034983283840119,0.0256528984755277
1770453525018,0.129852294921875,-0.1779937744140625,-0.9689788818359376,-0.0111575797200202,-0.000381630990887,0.0127221867442131
1770453525028,0.12115478515625,-0.1731719970703125,-0.9723052978515624,-0.0003352919884491,-0.0021787320729345,-0.0042669167742133
1770453525039,0.115142822265625,-0.175750732421875,-0.97589111328125,0.0091215930879116,-0.0039958069100975,-0.0145666925236582
1770453525048,0.11517333984375,-0.181793212890625,-0.97711181640625,0.0120558636263012,-0.0058853197842836,-0.0198943465948104
1770453525058,0.1212921142578125,-0.187591552734375,-0.9768218994140624,0.0142793366685509,-0.0086510125547647,-0.0141155524179339
1770453525069,0.1283416748046875,-0.2003173828125,-0.9746856689453124,0.0170032177120447,0.0031332089565694,-0.0040421457961201
1770453525079,0.128662109375,-0.189727783203125,-0.97467041015625,0.0182700846344232,0.002926813904196,-0.002918291836977
1770453525089,0.1204376220703125,-0.17462158203125,-0.972991943359375,0.0230754911899566,-0.0017520936671644,-0.007889880798757
1770453525099,0.1141357421875,-0.1738433837890625,-0.974639892578125,0.0188477244228124,-0.002869555959478,-0.0161241088062524
1770453525109,0.117706298828125,-0.1789398193359375,-0.9735260009765624,0.0086121298372745,-0.0118329571560025,-0.015690280124545
1770453525119,0.13031005859375,-0.1824798583984375,-0.9665374755859376,-0.0040051280520856,-0.0158801637589931,-0.0146178249269723
1770453525129,0.1330718994140625,-0.1845550537109375,-0.9549713134765624,-0.0247535500675439,-0.0155326202511787,-0.0162157211452722
1770453525139,0.13555908203125,-0.1876373291015625,-0.942718505859375,-0.0451299287378788,0.0022748722694814,-0.0111639713868498
1770453525149,0.1375885009765625,-0.1905975341796875,-0.9474029541015624,-0.0534246079623699,0.0149203594774007,-0.0029670277144759
1770453525159,0.1353912353515625,-0.1916351318359375,-0.9611968994140624,-0.0461384654045105,0.0036922064609825,0.0060001020319759
1770453525169,0.137298583984375,-0.190887451171875,-0.9777679443359376,-0.0358440168201923,-0.0129528166726231,0.0139909163117408
1770453525179,0.1364898681640625,-0.1920928955078125,-0.984405517578125,-0.0240912213921546,-0.0149094406515359,0.0203100647777318
1770453525189,0.13726806640625,-0.1877899169921875,-0.9854583740234376,-0.0132393725216388,-0.0068027786910533,0.0239998754113912
1770453525199,0.13037109375,-0.182769775390625,-0.9836883544921876,-0.0036810212768614,-0.0060182115994393,0.0187348052859306
1770453525209,0.12579345703125,-0.17926025390625,-0.982757568359375,0.0082978773862123,-0.008249407634139,0.0184407923370599
1770453525219,0.12750244140625,-0.1784210205078125,-0.9843292236328124,0.0169528853148221,-0.0010370349045842,0.0192043203860521
1770453525229,0.1238861083984375,-0.182952880859375,-0.9822540283203124,0.022457905113697,0.0036029906477779,0.0155507298186421
1770453525240,0.121917724609375,-0.1847991943359375,-0.9799346923828124,0.0286138020455837,-0.0062568304128944,0.0113631756976246
1770453525249,0.12255859375,-0.1832275390625,-0.9781036376953124,0.0350256264209747,-0.0183838009834289,0.0067689563147723
1770453525260,0.121490478515625,-0.1820526123046875,-0.9759674072265624,0.0365854427218437,-0.0197883527725934,0.0047068707644939
1770453525270,0.1248626708984375,-0.1837158203125,-0.9695892333984376,0.030735807493329,-0.0089290468022227,0.0025968484114855
1770453525280,0.1222686767578125,-0.18450927734375,-0.965484619140625,0.0262055043131113,-0.004954544827342,0.0003667172859422
1770453525290,0.123077392578125,-0.1843414306640625,-0.9671173095703124,0.0208951625972986,0.0006447513005696,0.0006111954571679
1770453525300,0.1239776611328125,-0.183380126953125,-0.9702301025390624,0.0144005110487341,0.0150239570066332,-0.0030890004709362
1770453525310,0.1180877685546875,-0.1833648681640625,-0.971282958984375,0.0158900171518325,0.0155089180916547,-0.0094590159133076
1770453525320,0.1156158447265625,-0.1817626953125,-0.97650146484375,0.0200152527540922,-0.0030064424499869,-0.0075977323576807
1770453525330,0.1241302490234375,-0.1794586181640625,-0.9755859375,0.0222168881446123,-0.0107988519594073,-0.0078358184546232
1770453525340,0.126739501953125,-0.1827392578125,-0.970703125,0.01868287473917,-0.0129685290157794,-0.0114771593362092
1770453525350,0.1248779296875,-0.186920166015625,-0.965850830078125,0.0064485780894756,-0.0202863626182079,-0.007202785462141
1770453525360,0.132537841796875,-0.20391845703125,-0.9571075439453124,-0.0139317940920591,-0.0212834514677524,0.01085717510432
1770453525370,0.146270751953125,-0.21478271484375,-0.9512786865234376,-0.0218198113143444,-0.0098853874951601,0.0227860063314437
1770453525380,0.136444091796875,-0.173370361328125,-0.9465484619140624,-0.0398805700242519,-0.0178652834147214,0.002355566015467
1770453525390,0.114105224609375,-0.156402587890625,-0.9427337646484376,-0.0581746213138103,-0.0152178350836038,-0.0159515365958213
1770453525401,0.1100921630859375,-0.179901123046875,-0.95367431640625,-0.0663798227906227,0.0214139446616172,-0.0111719602718949
1770453525410,0.1263427734375,-0.2039337158203125,-0.96697998046875,-0.0498051084578037,0.0412576906383037,-0.0048876996152102
1770453525420,0.117828369140625,-0.1483154296875,-0.9684600830078124,-0.0398201160132885,-0.003614175831899,-0.0200884900987148
1770453525430,0.107635498046875,-0.1816253662109375,-0.9742584228515624,-0.038953524082899,-0.0174266602843999,-0.0085679218173027
1770453525440,0.1276092529296875,-0.2188568115234375,-0.988922119140625,-0.0372554920613765,-0.0081711104139685,0.0241636596620082
1770453525450,0.1389617919921875,-0.19659423828125,-0.987762451171875,-0.0232818871736526,-0.0072097098454833,0.0194599833339452
1770453525460,0.1158599853515625,-0.142242431640625,-0.982147216796875,-0.0133890425786376,-0.0170498229563236,-0.0227726902812719
1770453525471,0.091522216796875,-0.1380615234375,-0.9767303466796876,-0.0160788353532552,-0.0007217166712507,-0.0561072118580341
1770453525480,0.0983428955078125,-0.16314697265625,-0.9823150634765624,-0.0161211788654327,0.0144657585769891,-0.0601901039481163
1770453525491,0.1244659423828125,-0.185333251953125,-0.9878082275390624,-0.0065122279338538,-0.0051681301556527,-0.0451445765793323
1770453525501,0.1412506103515625,-0.20452880859375,-0.9844818115234376,0.0031473238486796,-0.0359998121857643,-0.0239133220165967
1770453525511,0.146087646484375,-0.20965576171875,-0.9737091064453124,0.0002636529388837,-0.0280795712023973,-0.0033912693616002
1770453525521,0.1449127197265625,-0.2009124755859375,-0.963623046875,-0.0165163930505514,0.0018373148050159,0.0189198944717645
1770453525531,0.140869140625,-0.192230224609375,-0.960845947265625,-0.0294284615665674,0.0186352040618658,0.0288460291922092
1770453525541,0.1357574462890625,-0.189239501953125,-0.9719085693359376,-0.027732029557228,0.0170218609273433,0.0322375632822513
1770453525551,0.1272430419921875,-0.1802520751953125,-0.98468017578125,-0.011707255616784,0.0035766253713518,0.0252552889287471
1770453525561,0.116363525390625,-0.1683807373046875,-0.9912109375,0.0113264238461852,-0.004506068304181,0.010871822014451
1770453525571,0.1115264892578125,-0.1633758544921875,-0.992401123046875,0.0255788639187812,-0.0072568478062748,-0.0069524482823908
1770453525581,0.1102142333984375,-0.1654510498046875,-0.9861907958984376,0.0372661463916301,-0.0007382282637991,-0.0181683506816625
1770453525591,0.11322021484375,-0.1732025146484375,-0.9824676513671876,0.0458503141999244,-0.0098949745297431,-0.0257144179195165
1770453525601,0.1197357177734375,-0.182891845703125,-0.978485107421875,0.0462455265223979,-0.0247261188924312,-0.0197217725217342
1770453525611,0.13232421875,-0.1967315673828125,-0.968170166015625,0.0400637947022914,-0.0045279064215719,-0.0059265987947583
1770453525621,0.1328887939453125,-0.1882781982421875,-0.960418701171875,0.028511269018054,0.0188868716359138,-0.0015656723408028
1770453525631,0.119842529296875,-0.174896240234375,-0.9574432373046876,0.0230200979858636,0.0214046239852905,-0.004636563360691
1770453525641,0.11224365234375,-0.168365478515625,-0.9657440185546876,0.0234248992055654,0.0140252718701958,-0.0123035376891493
1770453525651,0.1107177734375,-0.1693878173828125,-0.97564697265625,0.0232571195811033,0.005388906225562,-0.0179885886609554
1770453525661,0.1189422607421875,-0.1735992431640625,-0.98126220703125,0.022677881643176,-0.0144742801785469,-0.0247239880263805
1770453525672,0.127166748046875,-0.1795196533203125,-0.9731903076171876,0.0142657551914453,-0.0202829018235206,-0.0229061152786016
1770453525681,0.1353302001953125,-0.1871337890625,-0.9618072509765624,0.0020730046089738,-0.0108262822031974,-0.0156263634562492
1770453525691,0.1392822265625,-0.1894989013671875,-0.9591064453125,-0.0074909394606947,0.0026764769572764,-0.0034772893413901
1770453525702,0.1404266357421875,-0.1906280517578125,-0.961090087890625,-0.0138265993446111,0.0047915591858327,0.0051399008370935
1770453525712,0.135955810546875,-0.1916656494140625,-0.96502685546875,-0.0136921098455786,0.0026290726382285,0.0155424745753407
1770453525722,0.1356658935546875,-0.1891021728515625,-0.972320556640625,-0.0112430667504668,-0.0001685781026026,0.0258393194526433
1770453525732,0.136260986328125,-0.1867523193359375,-0.9783477783203124,-0.0067804078571498,-0.0027851338963955,0.0287932977080345
1770453525742,0.1304168701171875,-0.185943603515625,-0.9758758544921876,0.0001451422722311,-0.0073274215683341,0.0290657393634319
1770453525752,0.1263580322265625,-0.181854248046875,-0.9761199951171876,0.0065785404294729,-0.0041771680116653,0.0244419593364
1770453525762,0.1233062744140625,-0.1796722412109375,-0.9751434326171876,0.0082225101068615,-0.0059684100560843,0.0156945399940013
1770453525772,0.118988037109375,-0.1809539794921875,-0.9720001220703124,0.0083125242963433,-0.0093426350504159,0.0129102058708667
1770453525782,0.11956787109375,-0.1799163818359375,-0.97015380859375,0.0047382963821291,-0.0074485950171947,0.0062752063386142
1770453525792,0.1195831298828125,-0.18316650390625,-0.969390869140625,0.0022064289078116,-0.0084443511441349,0.0059708072803914
1770453525802,0.119476318359375,-0.1858062744140625,-0.9692840576171876,0.004040281753987,-0.0186730194836854,0.0061931810341775
1770453525812,0.1212615966796875,-0.18499755859375,-0.9713592529296876,0.0044663874432444,-0.0153091810643672,0.0046333675272762
1770453525822,0.120391845703125,-0.1851959228515625,-0.97119140625,0.0015009575290605,-0.0036573191173374,0.0027675570454448
1770453525832,0.118133544921875,-0.182952880859375,-0.9718475341796876,-0.0028306739404797,-0.0060666808858513,0.0002905508736148
1770453525842,0.1203460693359375,-0.1783599853515625,-0.97052001953125,-0.0073969298973679,0.0015435680979862,-0.0032008532434701
1770453525852,0.117767333984375,-0.1768646240234375,-0.970550537109375,-0.0090177301317453,0.0101429149508476,-0.0058291270397603
1770453525862,0.11956787109375,-0.1773834228515625,-0.9733428955078124,-0.0064371265470981,0.0182005763053894,-0.0050496198236942
1770453525872,0.1259307861328125,-0.181671142578125,-0.9801025390625,0.0040562604553997,0.0253735333681106,-0.0026256104465574
1770453525883,0.1269073486328125,-0.1838531494140625,-0.98602294921875,0.0186357367783784,0.0208200607448816,-0.0015928366919979
1770453525892,0.1245880126953125,-0.185943603515625,-0.98724365234375,0.0312798917293548,-0.0009840379934757,0.0035356127191334
1770453525902,0.1284027099609375,-0.201080322265625,-0.9799957275390624,0.0224882643669843,-0.0124968830496072,0.0239591281861066
1770453525913,0.1396484375,-0.219482421875,-0.9668426513671876,0.016014652326703,0.0031726236920803,0.0394651181995868
1770453525923,0.1320343017578125,-0.17889404296875,-0.95086669921875,0.0013960290234535,-0.0015105449128895,0.0155185060575604
1770453525933,0.109283447265625,-0.156494140625,-0.94146728515625,-0.0179465096443891,-0.0057945060543715,-0.0089373020455241
1770453525943,0.104095458984375,-0.178466796875,-0.946075439453125,-0.0373902469873428,0.0260435845702886,-0.0106957871466875
1770453525953,0.1180267333984375,-0.2089691162109375,-0.95465087890625,-0.0341518446803092,0.0525905080139637,-0.0032043154351413
1770453525963,0.11798095703125,-0.162017822265625,-0.9542388916015624,-0.0376038327813148,0.0118127176538109,-0.0262214839458465
1770453525973,0.103973388671875,-0.1776580810546875,-0.9543609619140624,-0.0461392663419246,-0.0161808338016271,-0.0241575334221124
1770453525983,0.12030029296875,-0.214447021484375,-0.9673004150390624,-0.0597184561192989,-0.0053116749040782,0.000565389113035
1770453525993,0.1323699951171875,-0.20440673828125,-0.9725189208984376,-0.0632450133562088,-0.0021899172570556,0.0036261600907891
1770453526003,0.1209564208984375,-0.15789794921875,-0.959869384765625,-0.0774460583925247,-0.0185095015913248,-0.0215039607137441
1770453526013,0.0967254638671875,-0.1482696533203125,-0.9408111572265624,-0.1061930134892463,-0.003524693660438,-0.0471233017742633
1770453526023,0.0957489013671875,-0.1623382568359375,-0.9406280517578124,-0.1283563673496246,0.0122361602261662,-0.0560467578470706
1770453526035,0.10858154296875,-0.1721649169921875,-0.9481201171875,-0.135592445731163,0.0018535600975155,-0.05654077231884
1770453526043,0.1194305419921875,-0.183197021484375,-0.96148681640625,-0.1379898339509964,-0.0151797514408826,-0.0458785407245159
1770453526053,0.1291656494140625,-0.18951416015625,-0.9723663330078124,-0.129182755947113,-0.0271615795791149,-0.0321598015725612
1770453526063,0.1358184814453125,-0.190582275390625,-0.98419189453125,-0.1212491989135742,-0.0436635911464691,-0.0162671208381652
1770453526073,0.1385650634765625,-0.18609619140625,-0.9883575439453124,-0.1112277209758758,-0.0608489699661731,-0.0045074000954627
1770453526083,0.1381072998046875,-0.17803955078125,-0.99237060546875,-0.0969790071249008,-0.0740686357021331,0.0082797678187489
1770453526093,0.1376953125,-0.1746826171875,-0.9965667724609376,-0.075741097331047,-0.0740779563784599,0.0035710327792912
1770453526103,0.12969970703125,-0.1705780029296875,-0.9984130859375,-0.0526355132460594,-0.0685308575630188,0.000121440141811
1770453526114,0.127593994140625,-0.164398193359375,-0.9912261962890624,-0.0368400402367115,-0.0528131462633609,-0.0049023469910025
1770453526123,0.1265869140625,-0.16351318359375,-0.985748291015625,-0.032401081174612,-0.0144223487004637,-0.0075974659994244
1770453526134,0.1263427734375,-0.1703643798828125,-0.9848785400390624,-0.0232198350131511,0.0121101923286914,-0.0115075185894966
1770453526144,0.126251220703125,-0.180084228515625,-0.993682861328125,-0.0024325312115252,0.0151105094701051,-0.005362540949136
1770453526154,0.1340484619140625,-0.1909027099609375,-1.0048828125,0.0269684996455907,0.0164612643420696,0.0087349023669958
1770453526164,0.135040283203125,-0.182373046875,-1.00689697265625,0.0518011450767517,0.0168359708040952,0.0181861948221921
1770453526174,0.121551513671875,-0.1701202392578125,-0.9976959228515624,0.0695082396268844,0.0199188478291034,0.0177193414419889
1770453526184,0.110626220703125,-0.1624603271484375,-0.990386962890625,0.0744023323059082,0.0195734351873397,0.0115317534655332
1770453526194,0.1084136962890625,-0.160888671875,-0.985076904296875,0.0719202607870101,0.0105429217219352,0.0064789382740855
1770453526204,0.113189697265625,-0.1693267822265625,-0.9776458740234376,0.0623113103210926,0.0002205097407568,0.0036266928073018
1770453526214,0.1212310791015625,-0.1752166748046875,-0.968475341796875,0.0456138253211975,-0.0020671456586569,0.0048608016222715
1770453526224,0.122802734375,-0.1827850341796875,-0.961578369140625,0.0302005130797624,-0.0024088292848318,0.0079420786350965
1770453526234,0.1243438720703125,-0.1866455078125,-0.95654296875,0.018093517050147,-0.0067777447402477,0.0158790983259677
1770453526244,0.12908935546875,-0.1861114501953125,-0.9566192626953124,0.0052008870989084,-0.0104928547516465,0.0189153682440519
1770453526254,0.127655029296875,-0.1872406005859375,-0.9545440673828124,-0.0097817908972501,-0.0131730595603585,0.0219135545194149
1770453526264,0.1293792724609375,-0.1893768310546875,-0.9518890380859376,-0.0293759983032941,-0.0140409842133522,0.0260694175958633
1770453526274,0.1327667236328125,-0.1851043701171875,-0.94964599609375,-0.0473755039274692,0.002879676176235,0.0296825282275676
1770453526284,0.12384033203125,-0.1875152587890625,-0.9528350830078124,-0.0573642216622829,0.0170255880802869,0.0287432316690683
1770453526294,0.11602783203125,-0.184326171875,-0.9619293212890624,-0.0563503578305244,0.016676714643836,0.0278308317065238
1770453526304,0.1136627197265625,-0.176910400390625,-0.97283935546875,-0.0507585182785987,0.0146202212199568,0.0219942480325698
1770453526314,0.1093902587890625,-0.1772003173828125,-0.98150634765625,-0.0436207130551338,0.0135999647900462,0.0153358131647109
1770453526325,0.1071319580078125,-0.1754913330078125,-0.9858551025390624,-0.034461036324501,0.0094409063458442,0.0040991376154124
1770453526335,0.1040802001953125,-0.174591064453125,-0.98992919921875,-0.0183728821575641,-0.0008476841612718,0.000557665945962
1770453526345,0.1082916259765625,-0.17431640625,-0.9900360107421876,-0.006352171767503,0.0027025758754462,-0.0047942227683961
1770453526355,0.110076904296875,-0.1763458251953125,-0.9912872314453124,0.0030980552546679,0.0147946588695049,-0.0079271653667092
1770453526365,0.1094207763671875,-0.1786651611328125,-0.9913177490234376,0.0136843863874673,0.012197277508676,-0.0142415203154087
1770453526375,0.108062744140625,-0.1748046875,-0.98651123046875,0.0179379880428314,0.006287723314017,-0.0204682573676109
1770453526385,0.1116485595703125,-0.1738128662109375,-0.9818878173828124,0.0188384018838405,0.0153555199503898,-0.0246512833982706
1770453526395,0.114715576171875,-0.1765289306640625,-0.976837158203125,0.0150620397180318,0.0256973747164011,-0.0258094929158687
1770453526405,0.1193695068359375,-0.176727294921875,-0.9735870361328124,0.0168050788342952,0.0249985605478286,-0.0251349136233329
1770453526415,0.1229705810546875,-0.177154541015625,-0.9739532470703124,0.0210829153656959,0.0148814776912331,-0.0252387765794992
1770453526425,0.1215362548828125,-0.1800384521484375,-0.97369384765625,0.0272345505654811,-0.0046458845026791,-0.026260633021593
1770453526435,0.125457763671875,-0.1814727783203125,-0.970367431640625,0.0258782021701335,-0.0137299271300435,-0.0210176669061183
1770453526445,0.126007080078125,-0.193695068359375,-0.96484375,0.0092283859848976,-0.0089407647028565,-0.0066999807022511
1770453526455,0.13543701171875,-0.208251953125,-0.9597015380859376,-3.1691615731688216e-05,-0.0008181231096386,0.0090419640764594
1770453526465,0.132965087890625,-0.17340087890625,-0.9549102783203124,-0.0136135471984744,-0.0052802492864429,-0.0052128713577985
1770453526475,0.112823486328125,-0.1514434814453125,-0.952484130859375,-0.0265037789940834,-0.0009736517095007,-0.0196930114179849
1770453526485,0.1081695556640625,-0.17120361328125,-0.961944580078125,-0.0338599607348442,0.0275530647486448,-0.0197313595563173
1770453526495,0.1214447021484375,-0.1981658935546875,-0.9754486083984376,-0.015858856961131,0.0473430156707763,-0.0130268521606922
1770453526506,0.1214752197265625,-0.1481781005859375,-0.9769134521484376,-0.0042533343657851,0.0041348240338265,-0.0360094010829925
1770453526515,0.107421875,-0.1689605712890625,-0.973236083984375,-0.0115591846406459,-0.019294336438179,-0.0286659989506006
1770453526525,0.129730224609375,-0.21295166015625,-0.9809112548828124,-0.0223521776497364,0.0037902109324932,0.000778175657615
1770453526535,0.1402740478515625,-0.2007293701171875,-0.979156494140625,-0.0165803078562021,0.0064863949082791,0.0054775895550847
1770453526545,0.1240386962890625,-0.1511993408203125,-0.971343994140625,-0.0098941763862967,-0.01205959264189,-0.0257607568055391
1770453526556,0.1001739501953125,-0.14208984375,-0.966583251953125,-0.0137799941003322,-0.0006780407857149,-0.0527247302234172
1770453526565,0.099151611328125,-0.162261962890625,-0.97027587890625,-0.0159723088145256,0.0215015634894371,-0.0571588948369026
1770453526576,0.1165771484375,-0.17529296875,-0.980316162109375,-0.0122031364589929,0.0109123028814792,-0.0467970669269561
1770453526586,0.1299591064453125,-0.1919708251953125,-0.98760986328125,0.0013856426812708,-0.0141608268022537,-0.0336668826639652
1770453526596,0.134307861328125,-0.20355224609375,-0.9865570068359376,0.0080390181392431,-0.0265373345464468,-0.0128939608111977
1770453526606,0.136077880859375,-0.198272705078125,-0.97967529296875,0.0017957695527002,-0.0281970165669918,0.0042749061249196
1770453526616,0.135040283203125,-0.1860504150390625,-0.9677886962890624,-0.0105852661654353,-0.0198221746832132,0.0142178181558847
1770453526626,0.1308135986328125,-0.1829376220703125,-0.9679718017578124,-0.0211921036243438,0.0004886900424025,0.0148370033130049
1770453526636,0.1241607666015625,-0.1752777099609375,-0.969940185546875,-0.0212206002324819,0.0088100032880902,0.0077335536479949
1770453526646,0.117584228515625,-0.167877197265625,-0.9751129150390624,-0.005730589851737,0.0058869174681603,-0.0063902549445629
1770453526656,0.1104736328125,-0.1648101806640625,-0.982025146484375,0.0075431372970342,0.0027806065045297,-0.0202578678727149
1770453526666,0.10809326171875,-0.1673126220703125,-0.98370361328125,0.0179989747703075,0.0076659093610942,-0.0296585597097873
1770453526676,0.1119384765625,-0.17193603515625,-0.98529052734375,0.028375981375575,0.0073617761954665,-0.0333608873188495
1770453526686,0.1170501708984375,-0.18243408203125,-0.9863433837890624,0.0354243032634258,0.0055574844591319,-0.031788021326065
1770453526696,0.1246185302734375,-0.192779541015625,-0.9823455810546876,0.0421581044793129,0.0182056352496147,-0.0226017162203788
1770453526706,0.125030517578125,-0.182281494140625,-0.978118896484375,0.0499800778925418,0.0136793265119194,-0.0228866729885339
1770453526716,0.11395263671875,-0.1660308837890625,-0.9726715087890624,0.0513904877007007,0.001513474388048,-0.0314932130277156
1770453526726,0.1056365966796875,-0.164215087890625,-0.97039794921875,0.0413575582206249,-0.0025952504947781,-0.0378845296800136
1770453526736,0.1074676513671875,-0.1707305908203125,-0.964202880859375,0.0219295341521501,-0.0002593918761704,-0.0435943491756916
1770453526746,0.1147308349609375,-0.17578125,-0.9584808349609376,0.0010857707820832,-0.0100249368697404,-0.0437040701508522
1770453526756,0.1183624267578125,-0.17852783203125,-0.952117919921875,-0.0184383951127529,-0.0100696785375475,-0.0413855239748954
1770453526766,0.124237060546875,-0.1812591552734375,-0.9534149169921876,-0.0364525504410266,0.0090286489576101,-0.0346458628773689
1770453526777,0.1228790283203125,-0.1796112060546875,-0.9605255126953124,-0.0411237329244613,0.0167832411825656,-0.0280380267649889
1770453526787,0.1228179931640625,-0.1745758056640625,-0.9720611572265624,-0.0364064760506153,0.0054392400197684,-0.0258648861199617
1770453526797,0.1217193603515625,-0.175567626953125,-0.9819183349609376,-0.0244566071778535,-0.0091708619147539,-0.0229090433567762
1770453526807,0.1274261474609375,-0.1759185791015625,-0.985626220703125,-0.0167129337787628,-0.0118124512955546,-0.0241383593529462
1770453526817,0.12677001953125,-0.17913818359375,-0.979248046875,-0.0107924602925777,-0.0185443889349699,-0.0215385816991329
1770453526827,0.1275787353515625,-0.1781005859375,-0.9705657958984376,-0.0113538550212979,-0.014634602703154,-0.0209851767867803
1770453526837,0.1268310546875,-0.1736602783203125,-0.9638519287109376,-0.0196069907397031,0.0061899852007627,-0.0199782345443964
1770453526848,0.12445068359375,-0.173980712890625,-0.962432861328125,-0.0228440631181001,0.0234246328473091,-0.0188823454082012
1770453526857,0.123291015625,-0.1746673583984375,-0.9712982177734376,-0.0163558032363653,0.0336655527353286,-0.0202346984297037
1770453526867,0.12109375,-0.1712799072265625,-0.985992431640625,-0.0002498045214451,0.0306402016431093,-0.0171190649271011
1770453526877,0.1196746826171875,-0.170501708984375,-0.9981689453125,0.0267312135547399,0.0183390602469444,-0.0156860183924436
1770453526887,0.1188812255859375,-0.1737213134765625,-1.0037994384765625,0.0512615889310836,0.006532734259963,-0.0130116725340485
1770453526897,0.1205596923828125,-0.1748504638671875,-1.0018310546875,0.0642612800002098,-0.0034149715211242,-0.0109618371352553
1770453526907,0.120941162109375,-0.1699676513671875,-0.9867706298828124,0.066410981118679,0.0024141555186361,-0.0121765052899718
1770453526917,0.1255645751953125,-0.172576904296875,-0.9739837646484376,0.0613690838217735,0.0136007638648152,-0.0136801255866885
1770453526927,0.1224822998046875,-0.1718597412109375,-0.9656829833984376,0.0573865920305252,0.0144790736958384,-0.0168367698788642
1770453526938,0.122406005859375,-0.17425537109375,-0.966400146484375,0.0541212931275367,0.0001669802004471,-0.0188820790499448
1770453526947,0.1280975341796875,-0.17803955078125,-0.9660797119140624,0.0444857105612754,-0.0069700251333415,-0.0192250926047563
1770453526957,0.1282501220703125,-0.179962158203125,-0.96405029296875,0.0387790873646736,-0.0018977685831487,-0.019568907096982
1770453526967,0.1267852783203125,-0.1833648681640625,-0.9625244140625,0.0258646197617054,0.0064507089555263,-0.0164021421223878
1770453526977,0.1236572265625,-0.1801910400390625,-0.961517333984375,0.0130284503102302,0.0129434950649738,-0.0129512185230851
1770453526988,0.1260223388671875,-0.192138671875,-0.9637298583984376,0.001587243983522,0.0142590971663594,4.900216299574822e-05
1770453526998,0.1316070556640625,-0.212982177734375,-0.97149658203125,0.0079948091879487,0.0006902913446538,0.0158860217779874
1770453527008,0.1304931640625,-0.1720428466796875,-0.97021484375,0.0061886538751423,-0.0244542099535465,0.0052272523753345
1770453527018,0.10736083984375,-0.1449127197265625,-0.9623260498046876,-0.0078992024064064,-0.0316537991166114,-0.0218094252049922
1770453527028,0.0950775146484375,-0.16143798828125,-0.9614715576171876,-0.0213484317064285,-0.0175627488642931,-0.0331390462815761
1770453527038,0.1103973388671875,-0.1944427490234375,-0.9677581787109376,-0.0021046961192041,0.0061119548045098,-0.0321118645370006
1770453527048,0.1165771484375,-0.1438140869140625,-0.9611663818359376,-0.0057223341427743,-0.0302782766520977,-0.0608455054461956
1770453527058,0.105377197265625,-0.1707763671875,-0.9458465576171876,-0.0372072905302047,-0.039540484547615,-0.0443347059190273
1770453527068,0.136871337890625,-0.23480224609375,-0.951263427734375,-0.0667731687426567,-0.0115570537745952,0.0036274916492402
1770453527078,0.1518096923828125,-0.2103729248046875,-0.9600982666015624,-0.0610854588449001,-0.011641476303339,0.0183531753718853
1770453527088,0.125335693359375,-0.1444549560546875,-0.9658203125,-0.0481736548244953,-0.0336767360568046,-0.0255682095885276
1770453527098,0.088592529296875,-0.1322784423828125,-0.9728851318359376,-0.0494892559945583,-0.0155115816742181,-0.065301239490509
1770453527108,0.0850372314453125,-0.1551666259765625,-0.9909820556640624,-0.0468766950070858,-0.0071348748169839,-0.0795211941003799
1770453527118,0.1063079833984375,-0.1663360595703125,-1.000091552734375,-0.0393327586352825,-0.0473155826330184,-0.0758169963955879
1770453527128,0.127105712890625,-0.1876373291015625,-0.99462890625,-0.027148263528943,-0.0698304772377014,-0.0573474466800689
1770453527138,0.1395263671875,-0.2042236328125,-0.9834136962890624,-0.0273016616702079,-0.0471270307898521,-0.0382595062255859
1770453527148,0.139617919921875,-0.2036590576171875,-0.9685211181640624,-0.0352546609938144,-0.0178338587284088,-0.0153422048315405
1770453527158,0.1391754150390625,-0.1899261474609375,-0.961822509765625,-0.0397255755960941,-0.0016042882343754,-0.0002585929469205
1770453527168,0.1321868896484375,-0.182403564453125,-0.974395751953125,-0.02915202639997,-0.0011747203534469,0.0062666842713952
1770453527178,0.1248931884765625,-0.1775054931640625,-0.99200439453125,-1.5978966985130683e-05,-0.0042104576714336,0.0035284222103655
1770453527189,0.121429443359375,-0.168609619140625,-1.001434326171875,0.030540332198143,-0.0067966533824801,-0.0046514770947396
1770453527198,0.110260009765625,-0.1656494140625,-1.002716064453125,0.0586313568055629,-0.0147182261571288,-0.0188272166997194
1770453527208,0.10821533203125,-0.16796875,-0.999267578125,0.0746515989303588,-0.0264491848647594,-0.0278220437467098
1770453527219,0.11163330078125,-0.17138671875,-0.99005126953125,0.0791512802243232,-0.0279275048524141,-0.0346461273729801
1770453527229,0.11669921875,-0.1830291748046875,-0.9797210693359376,0.0721394419670105,-0.0224645622074604,-0.0291416402906179
1770453527239,0.1289520263671875,-0.1973419189453125,-0.9724578857421876,0.0687250047922134,0.002004028763622,-0.0156191736459732
1770453527249,0.12823486328125,-0.1867523193359375,-0.968048095703125,0.0691423192620277,0.0141480434685945,-0.0156348869204521
1770453527259,0.1135101318359375,-0.1712646484375,-0.966400146484375,0.0701053217053413,0.009344233199954,-0.0214549582451581
1770453527269,0.1051483154296875,-0.1710052490234375,-0.972869873046875,0.0680672004818916,0.0116310892626643,-0.0273709036409854
1770453527279,0.1055908203125,-0.1768951416015625,-0.9774017333984376,0.0623635090887546,-0.0055050202645361,-0.0323073379695415
1770453527289,0.1083984375,-0.17535400390625,-0.96954345703125,0.0533087626099586,-0.0357540026307106,-0.0383551120758056
1770453527299,0.112152099609375,-0.1743621826171875,-0.9558868408203124,0.0276862233877182,-0.0446859784424304,-0.0416323989629745
1770453527309,0.1199798583984375,-0.18292236328125,-0.9389190673828124,-0.005166532471776,-0.018224012106657,-0.0400808416306972
1770453527319,0.1199188232421875,-0.1887054443359375,-0.93414306640625,-0.031698539853096,-0.0049361689016222,-0.0333904474973678
1770453527329,0.1234893798828125,-0.186859130859375,-0.939117431640625,-0.0448774583637714,-0.0090161319822072,-0.0246656648814678
1770453527339,0.127166748046875,-0.188140869140625,-0.9553070068359376,-0.0506677031517028,-0.0074398065917193,-0.015263108536601
1770453527349,0.127288818359375,-0.1893310546875,-0.9701385498046876,-0.0445711947977542,-0.0086302394047379,-0.006639793049544
1770453527359,0.123504638671875,-0.182525634765625,-0.977874755859375,-0.0357127226889133,-0.0147254168987274,-0.0008418252109549
1770453527369,0.12005615234375,-0.1771392822265625,-0.9803009033203124,-0.0280449502170085,-0.0186162944883108,0.0055204667150974
1770453527379,0.121795654296875,-0.1753692626953125,-0.980987548828125,-0.0197968743741512,-0.0098917791619896,0.0043936832807958
1770453527389,0.12200927734375,-0.1756591796875,-0.9807281494140624,-0.0118574583902955,0.0073886741884052,0.0078627169132232
1770453527400,0.1197509765625,-0.1762237548828125,-0.9855194091796876,0.0042812977917492,0.0085940212011337,0.0091458279639482
1770453527409,0.11492919921875,-0.18341064453125,-0.9911041259765624,0.0238643195480108,-2.663161103555467e-05,0.0110750216990709
1770453527420,0.1173553466796875,-0.176544189453125,-0.99517822265625,0.0383665636181831,-0.0197547953575849,0.010964767076075
1770453527430,0.1250762939453125,-0.1793365478515625,-0.9894561767578124,0.0416694171726703,-0.0251612793654203,0.0109117701649665
1770453527440,0.123046875,-0.18524169921875,-0.9763336181640624,0.0395138524472713,-0.0107176257297396,0.0113906059414148
1770453527450,0.12188720703125,-0.1826629638671875,-0.9674835205078124,0.040417730808258,0.0011741877533495,0.0114513263106346
1770453527460,0.11865234375,-0.181884765625,-0.9685516357421876,0.0448678731918334,0.0004599279200192,0.0093937683850526
1770453527470,0.11468505859375,-0.1804656982421875,-0.9732666015625,0.047103863209486,-0.0040621194057166,0.0053359093144536
1770453527480,0.1125946044921875,-0.1793975830078125,-0.975128173828125,0.0461339391767978,-0.0038754320703446,0.0018173410790041
1770453527490,0.1082000732421875,-0.17706298828125,-0.9715423583984376,0.0392392799258232,-0.0043803672306239,0.0011110707418993
1770453527500,0.1070556640625,-0.176422119140625,-0.963165283203125,0.0255695413798093,0.004381965380162,-0.002600310370326
1770453527510,0.111358642578125,-0.176177978515625,-0.9577789306640624,0.016785904765129,0.023389745503664,-0.0002543318842072
1770453527520,0.1116180419921875,-0.1828765869140625,-0.9621429443359376,0.0085151912644505,0.027780232951045,0.0048450888134539
1770453527530,0.1194000244140625,-0.20416259765625,-0.9683837890625,0.0056464341469109,0.0143693517893552,0.0212877113372087
1770453527540,0.13421630859375,-0.2131195068359375,-0.9748077392578124,0.0261663571000099,-0.0017480988753959,0.0300921220332384
1770453527550,0.1269989013671875,-0.1712646484375,-0.9749908447265624,0.0284180585294961,-0.0323741845786571,0.0128939608111977
1770453527560,0.1055450439453125,-0.1586456298828125,-0.96160888671875,0.0050035468302667,-0.0245689917355775,-0.0055034225806593
1770453527570,0.1077423095703125,-0.19342041015625,-0.9589385986328124,-0.0035537220537662,0.0363287143409252,0.0098089547827839
1770453527580,0.126068115234375,-0.205078125,-0.96783447265625,0.0238680485635995,0.0550651177763938,0.003664243267849
1770453527590,0.1090240478515625,-0.14697265625,-0.965545654296875,0.0250361114740371,0.0006261091912165,-0.0150854755192995
1770453527600,0.107208251953125,-0.2136993408203125,-0.97137451171875,0.017436247318983,-0.0206663962453603,0.0207047462463378
1770453527610,0.1402435302734375,-0.2429046630859375,-0.9867706298828124,0.0205247160047292,-0.0117053920403122,0.0582822151482105
1770453527620,0.1389312744140625,-0.1954193115234375,-0.980804443359375,0.0339718163013458,-0.0131472274661064,0.038076277822256
1770453527631,0.0969390869140625,-0.1300048828125,-0.9633636474609376,0.022277608513832,-0.0044613275676965,-0.0153912063688039
1770453527641,0.06707763671875,-0.139434814453125,-0.9568328857421876,0.0026855315081775,0.0360504128038883,-0.0468210354447364
1770453527651,0.082672119140625,-0.17236328125,-0.9720306396484376,-1.810949470382184e-05,0.0378376580774784,-0.0461376681923866
1770453527661,0.1104888916015625,-0.1944122314453125,-0.9846343994140624,0.0141618913039565,-0.0091221258044242,-0.0330024249851703
1770453527671,0.131072998046875,-0.2136383056640625,-0.983428955078125,0.0194349512457847,-0.037881601601839,-0.0118723716586828
1770453527681,0.1342315673828125,-0.224517822265625,-0.969024658203125,0.0074248928576707,-0.0264004487544298,0.012894227169454
1770453527691,0.1363677978515625,-0.213470458984375,-0.9523468017578124,-0.0185513142496347,-0.0009488842915743,0.0294662788510322
1770453527701,0.133056640625,-0.199066162109375,-0.947967529296875,-0.0390054546296596,0.0104124275967478,0.0370240658521652
1770453527711,0.1276092529296875,-0.19122314453125,-0.95697021484375,-0.0458090342581272,0.0039838226512074,0.0389742963016033
1770453527722,0.1261138916015625,-0.1850433349609375,-0.968414306640625,-0.0396057330071926,-0.0093170693144202,0.0350727662444114
1770453527731,0.122711181640625,-0.1814422607421875,-0.974884033203125,-0.0288446974009275,-0.007775364909321,0.0277520027011632
1770453527741,0.11767578125,-0.1808319091796875,-0.977630615234375,-0.0200251061469316,-0.0003800330741796,0.0242590010166168
1770453527751,0.113555908203125,-0.184295654296875,-0.977874755859375,-0.0139549644663929,0.00768375210464,0.0223372634500265
1770453527761,0.1163482666015625,-0.18719482421875,-0.9776458740234376,-0.0134628117084503,0.0114896753802895,0.0299168862402439
1770453527771,0.11956787109375,-0.19366455078125,-0.977813720703125,-0.011994345113635,0.017485249787569,0.0376531034708023
1770453527781,0.1261138916015625,-0.2060089111328125,-0.98297119140625,-0.0067393952049314,0.0195614509284496,0.0488354489207267
1770453527791,0.1247711181640625,-0.188568115234375,-0.9811859130859376,-0.0040906155481934,0.007881092838943,0.0475099943578243
1770453527801,0.1128387451171875,-0.1775360107421875,-0.9756011962890624,-0.0054328483529388,0.0005185174522921,0.0406835153698921
1770453527811,0.1083221435546875,-0.1781463623046875,-0.9721527099609376,-0.0117615843191742,-0.0023057649377733,0.0357308313250541
1770453527821,0.1109161376953125,-0.1833648681640625,-0.969818115234375,-0.021548168733716,-0.0079071912914514,0.0346152335405349
1770453527831,0.11846923828125,-0.1853790283203125,-0.965728759765625,-0.0308548510074615,-0.0095503618940711,0.0359907560050487
1770453527842,0.1184844970703125,-0.184173583984375,-0.9598388671875,-0.0396235771477222,-0.0043923514895141,0.0318687185645103
1770453527852,0.11712646484375,-0.1890869140625,-0.9582672119140624,-0.0474554002285003,0.0012825783342123,0.0357678495347499
1770453527862,0.1212615966796875,-0.1884613037109375,-0.9619903564453124,-0.05214549228549,0.0108619686216115,0.0403503514826297
1770453527872,0.1219024658203125,-0.18798828125,-0.9684295654296876,-0.0534280724823474,0.0222070347517728,0.0415285341441631
1770453527882,0.1175384521484375,-0.191162109375,-0.9754791259765624,-0.0433669164776802,0.0108550442382693,0.0413615554571151
1770453527892,0.11614990234375,-0.18902587890625,-0.978607177734375,-0.0338043011724948,-0.0033467945177108,0.0436478778719902
1770453527902,0.1179046630859375,-0.1861419677734375,-0.98095703125,-0.0216283295303583,-0.0009052084642462,0.0428183041512966
1770453527912,0.1172027587890625,-0.1857757568359375,-0.9829254150390624,-0.0091487569734454,0.0018061558948829,0.0414433144032955
1770453527922,0.1117706298828125,-0.185150146484375,-0.984771728515625,0.0049926280044019,8.149272616719827e-05,0.0341963209211826
1770453527932,0.10760498046875,-0.1822967529296875,-0.9842529296875,0.0159326270222663,-0.0031744879670441,0.0261647589504718
1770453527942,0.1039581298828125,-0.18267822265625,-0.9828643798828124,0.0172777902334928,0.0004703142330981,0.0218136850744485
1770453527952,0.1057281494140625,-0.1825103759765625,-0.97705078125,0.0140577619895339,0.0086629968136549,0.0171872433274984
1770453527962,0.1048126220703125,-0.1842803955078125,-0.973785400390625,0.0144769437611103,0.0055028898641467,0.0121477432548999
1770453527972,0.107635498046875,-0.18609619140625,-0.9732666015625,0.0167784467339515,0.0057052900083363,0.0121085941791534
1770453527982,0.1111297607421875,-0.1856536865234375,-0.9750823974609376,0.024117587134242,0.0175544917583465,0.0120998062193393
1770453527992,0.1117095947265625,-0.1876373291015625,-0.9796142578125,0.0271647758781909,0.0218517687171697,0.0110305463895201
1770453528002,0.1086273193359375,-0.1847381591796875,-0.9852447509765624,0.0389987975358963,0.0185433235019445,0.010456901974976
1770453528012,0.1101226806640625,-0.184356689453125,-0.99139404296875,0.0528552234172821,0.0120076602324843,0.0084885591641068
1770453528023,0.1111602783203125,-0.188812255859375,-0.991119384765625,0.061916097998619,6.072007090551779e-05,0.0087974863126873
1770453528032,0.1133880615234375,-0.1901092529296875,-0.98455810546875,0.0657864734530448,-0.0087759150192141,0.0092182653024792
1770453528042,0.1162567138671875,-0.1904754638671875,-0.973602294921875,0.0613776072859764,-0.004317516926676,0.0147938597947359
1770453528052,0.12042236328125,-0.1885986328125,-0.9658966064453124,0.0538504496216774,0.001088966615498,0.0139797311276197
1770453528063,0.116241455078125,-0.1935577392578125,-0.9635467529296876,0.0433546639978885,-0.0097466371953487,0.0191276222467422
1770453528073,0.1236572265625,-0.2166900634765625,-0.96435546875,0.0374235399067401,-0.0086169242858886,0.0390757620334625
1770453528083,0.1363067626953125,-0.21356201171875,-0.97161865234375,0.0466247610747814,-0.0117999343201518,0.0398550033569335
1770453528093,0.1181488037109375,-0.16485595703125,-0.9621124267578124,0.0353444069623947,-0.0288207288831472,0.0210634730756282
1770453528103,0.0987548828125,-0.164520263671875,-0.955780029296875,0.013962953351438,0.0065215486101806,0.0073268888518214
1770453528113,0.103546142578125,-0.2041473388671875,-0.965545654296875,0.0221484452486038,0.0624143742024898,0.0243777781724929
1770453528123,0.1191864013671875,-0.1973876953125,-0.97808837890625,0.0496591664850711,0.0277528017759323,0.0093389069661498
1770453528133,0.0999755859375,-0.1496124267578125,-0.969512939453125,0.0512847602367401,-0.0325350388884544,-0.0106766130775213
1770453528143,0.1015472412109375,-0.2171783447265625,-0.9669952392578124,0.0332002975046634,-0.0282859671860933,0.0079362196847796
1770453528153,0.123565673828125,-0.2409820556640625,-0.965728759765625,0.0195017959922552,-0.0138867869973182,0.0342927277088165
1770453528163,0.1265106201171875,-0.20281982421875,-0.958038330078125,0.0152031872421503,-0.0302617661654949,0.013103817589581
1770453528173,0.0999603271484375,-0.1466522216796875,-0.942352294921875,-0.0100742056965827,-0.0234211701899766,-0.0342410616576671
1770453528183,0.0724639892578125,-0.1556854248046875,-0.94427490234375,-0.0334740690886974,0.0166641976684331,-0.0610425807535648
1770453528193,0.08050537109375,-0.1784515380859375,-0.9669189453125,-0.0280705168843269,0.0267378706485033,-0.059674248099327
1770453528203,0.1034393310546875,-0.1943817138671875,-0.987823486328125,-0.0028855351265519,-0.0123168537393212,-0.0460950583219528
1770453528213,0.1191864013671875,-0.2118377685546875,-0.9960174560546876,0.0182823352515697,-0.0374413803219795,-0.0349955335259437
1770453528223,0.124664306640625,-0.214019775390625,-0.989410400390625,0.0231862794607877,-0.0328013561666011,-0.0162588637322187
1770453528233,0.1265106201171875,-0.2065277099609375,-0.97711181640625,0.0192360132932662,-0.0157965403050184,-0.0026791400741785
1770453528243,0.121795654296875,-0.19873046875,-0.9711761474609376,0.0178093574941158,-0.0171267893165349,0.0044991443865001
1770453528253,0.1191864013671875,-0.198272705078125,-0.9707794189453124,0.0259751416742801,-0.021450962871313,0.0055388421751558
1770453528263,0.1200103759765625,-0.1977691650390625,-0.9743194580078124,0.0290204659104347,-0.0265330728143453,0.0055178035981953
1770453528274,0.1164703369140625,-0.1926116943359375,-0.9662933349609376,0.0287371054291725,-0.029159216210246,-0.0049484195187687
1770453528283,0.110260009765625,-0.1886749267578125,-0.95806884765625,0.0175209362059831,-0.0240949504077434,-0.0182730127125978
1770453528294,0.1039581298828125,-0.1923828125,-0.957977294921875,0.0062206117436289,-0.0191097781062126,-0.0269147045910358
1770453528304,0.105010986328125,-0.1964874267578125,-0.9618072509765624,0.0004508731653913,-0.0150852091610431,-0.0255572907626628
1770453528314,0.1081695556640625,-0.202056884765625,-0.9698944091796876,0.0013409015955403,-0.00997353810817,-0.0161110591143369
1770453528324,0.1136322021484375,-0.2067413330078125,-0.9785308837890624,0.0103679522871971,-0.0044541368260979,-0.0074922712519764
1770453528334,0.1089935302734375,-0.1876220703125,-0.9846038818359376,0.0206666626036167,-0.0044429516419768,-0.0152561841532588
1770453528344,0.0959625244140625,-0.180450439453125,-0.9840850830078124,0.0343806110322475,-0.0077793598175048,-0.0207478888332843
1770453528354,0.0944366455078125,-0.1825408935546875,-0.9875946044921876,0.0458617657423019,-0.0072083780542016,-0.0262640938162803
1770453528364,0.0973052978515625,-0.1881103515625,-0.989715576171875,0.057719487696886,-0.0288707967847585,-0.0341084338724613
1770453528374,0.10614013671875,-0.1911773681640625,-0.979339599609375,0.0556997470557689,-0.0577282756567001,-0.0363641344010829
1770453528384,0.11572265625,-0.2003936767578125,-0.9568634033203124,0.0305853392928838,-0.0577130988240242,-0.0319233126938343
1770453528394,0.1223602294921875,-0.205230712890625,-0.9344329833984376,-0.0078256987035274,-0.031460452824831,-0.0211676023900508
1770453528404,0.12646484375,-0.2018280029296875,-0.919921875,-0.0428193695843219,0.0021406488958746,-0.0086353002116084
1770453528414,0.123382568359375,-0.202972412109375,-0.925537109375,-0.0632854923605918,0.0173009596765041,0.0028690234757959
1770453528424,0.1239471435546875,-0.202484130859375,-0.9434967041015624,-0.0645459666848182,0.0073444657027721,0.0152987949550151
1770453528434,0.1237030029296875,-0.20135498046875,-0.9674224853515624,-0.0540299452841281,-0.0071292822249233,0.0222959853708744
1770453528444,0.1174468994140625,-0.1984405517578125,-0.983734130859375,-0.036421924829483,-0.0353641174733638,0.0223122294992208
1770453528454,0.1142578125,-0.1945037841796875,-0.9856719970703124,-0.0220435168594121,-0.0552129223942756,0.0245815087109804
1770453528464,0.1147918701171875,-0.1905975341796875,-0.9831085205078124,-0.021042700856924,-0.043637491762638,0.0270755589008331
1770453528474,0.1147613525390625,-0.190704345703125,-0.9750823974609376,-0.030672425404191,-0.0254281274974346,0.0267565138638019
1770453528485,0.1133270263671875,-0.1941375732421875,-0.9667205810546876,-0.0410105511546134,-0.0062650865875184,0.031194670125842
1770453528494,0.1151580810546875,-0.1968994140625,-0.970062255859375,-0.0409703366458416,0.0086558060720562,0.0391346178948879
1770453528505,0.113555908203125,-0.1967010498046875,-0.97723388671875,-0.0374152809381485,0.0049018142744898,0.0455879904329776
1770453528515,0.11260986328125,-0.1967620849609375,-0.9850006103515624,-0.0294100865721702,-0.0042682480998337,0.0505012571811676
1770453528525,0.1160125732421875,-0.1961669921875,-0.9841766357421876,-0.0266388021409511,-0.0079282307997345,0.0546059869229793
1770453528535,0.1151275634765625,-0.1956329345703125,-0.9783782958984376,-0.0236970726400613,-0.012728844769299,0.0534363277256488
1770453528545,0.11224365234375,-0.1937103271484375,-0.9710540771484376,-0.0273389462381601,-0.0173587501049041,0.0520552098751068
1770453528555,0.110809326171875,-0.1928863525390625,-0.9618682861328124,-0.0317328944802284,-0.0106561062857508,0.0466149076819419
1770453528565,0.1050872802734375,-0.194000244140625,-0.95782470703125,-0.0403769835829734,-0.0078613851219415,0.042760245501995
1770453528575,0.1052398681640625,-0.192169189453125,-0.9554901123046876,-0.0470191724598407,-0.0055377772077918,0.0354440100491046
1770453528585,0.09912109375,-0.1884002685546875,-0.95550537109375,-0.0589791648089885,0.0043111252598464,0.0265892669558525
1770453528595,0.092559814453125,-0.1872100830078125,-0.959930419921875,-0.0654301419854164,0.0172695349901914,0.016458336263895
1770453528605,0.0933380126953125,-0.1879730224609375,-0.9665374755859376,-0.073833480477333,0.0235711056739091,0.0159075930714607
1770453528615,0.098541259765625,-0.21112060546875,-0.976593017578125,-0.0703753605484962,0.0301938541233539,0.0312061216682195
1770453528625,0.1119232177734375,-0.21234130859375,-0.991485595703125,-0.0423887372016906,0.0220043677836656,0.0271919406950473
1770453528635,0.100128173828125,-0.1610260009765625,-0.9995269775390624,-0.018451178446412,-0.0005696501466445,-0.003614974906668
1770453528645,0.078277587890625,-0.160980224609375,-1.00244140625,-0.0012868394842371,0.0072469939477741,-0.0317970775067806
1770453528655,0.083099365234375,-0.209320068359375,-1.0082550048828125,0.0333283953368663,0.0455709472298622,-0.0194711703807115
1770453528665,0.106597900390625,-0.198211669921875,-1.000396728515625,0.0539473891258239,0.0301525760442018,-0.034157171845436
1770453528675,0.095428466796875,-0.1564788818359375,-0.9745330810546876,0.05530746281147,-0.001930525409989,-0.0509164445102214
1770453528685,0.099212646484375,-0.207000732421875,-0.965087890625,0.0312750972807407,0.0230179671198129,-0.0329954996705055
1770453528695,0.119232177734375,-0.2280426025390625,-0.9682464599609376,0.0157789625227451,0.0405277200043201,-0.0035425368696451
1770453528706,0.1269378662109375,-0.206939697265625,-0.9698638916015624,0.021335382014513,0.0238699130713939,-0.0105144260451197
1770453528716,0.1116943359375,-0.16571044921875,-0.968963623046875,0.0223090332001447,0.022544989362359,-0.0363614708185195
1770453528726,0.0911407470703125,-0.16326904296875,-0.969696044921875,0.0194482654333114,0.0490556918084621,-0.0580292157828807
1770453528736,0.0894775390625,-0.17987060546875,-0.97808837890625,0.0236478056758642,0.047641821205616,-0.052019789814949
1770453528746,0.1055145263671875,-0.19427490234375,-0.982452392578125,0.0281690526753664,0.0174644775688648,-0.036609411239624
1770453528756,0.1201629638671875,-0.21209716796875,-0.9791717529296876,0.0247500874102115,-0.0183121617883443,-0.0161747094243764
1770453528766,0.1294708251953125,-0.2186737060546875,-0.960296630859375,-0.0007707187905907,-0.02542519941926,0.00656602345407
1770453528776,0.12841796875,-0.2102813720703125,-0.94134521484375,-0.032434906810522,0.0100915161892771,0.0246978886425495
1770453528786,0.1252899169921875,-0.19891357421875,-0.9399261474609376,-0.0527947731316089,0.0291946362704038,0.0337981767952442
1770453528796,0.1160888671875,-0.191741943359375,-0.951568603515625,-0.0577407926321029,0.0190828815102577,0.0362810418009758
1770453528806,0.10833740234375,-0.1783905029296875,-0.9630126953125,-0.0525569505989551,0.0204565394669771,0.0291727986186742
1770453528816,0.1004180908203125,-0.17327880859375,-0.9729766845703124,-0.0404880382120609,0.0089562106877565,0.0134857147932052
1770453528826,0.0982666015625,-0.1754608154296875,-0.9779815673828124,-0.0292668081820011,-0.0025736789684742,0.0042019356042146
1770453528837,0.10272216796875,-0.1792755126953125,-0.980377197265625,-0.019456522539258,-0.0026770094409585,1.0652644050423987e-05
1770453528846,0.1055755615234375,-0.1860198974609375,-0.9803466796875,-0.0164420902729034,0.00650051003322,-0.0048839710652828
1770453528856,0.1069183349609375,-0.1961517333984375,-0.9800872802734376,-0.0096891121938824,0.0152404718101024,-0.0012705941917374
1770453528866,0.11126708984375,-0.2060699462890625,-0.9839935302734376,0.0001065264441422,0.0276971422135829,0.0101738078519701
1770453528876,0.115814208984375,-0.1932830810546875,-0.9864959716796876,0.0144764110445976,0.0307131707668304,0.0103636914864182
1770453528886,0.1074676513671875,-0.186187744140625,-0.9909210205078124,0.0285490863025188,0.0252379793673753,0.004840028937906
1770453528896,0.10400390625,-0.186798095703125,-0.99041748046875,0.0395881570875644,0.0246462244540452,0.0023204123135656
1770453528907,0.1080322265625,-0.1895904541015625,-0.98809814453125,0.0469664447009563,0.0233740322291851,-0.0025459819007664
1770453528917,0.1111602783203125,-0.192047119140625,-0.9814605712890624,0.0497656911611557,0.014690794982016,-0.005788114387542
1770453528927,0.11334228515625,-0.1952362060546875,-0.9691009521484376,0.043624710291624,0.0092859100550413,-0.0091612739488482
1770453528937,0.1139373779296875,-0.197723388671875,-0.9586334228515624,0.0265330728143453,0.0139858564361929,-0.0115320198237895
1770453528947,0.1154327392578125,-0.1974029541015625,-0.9495849609375,0.0050043459050357,0.0278454795479774,-0.0146987847983837
1770453528957,0.1136474609375,-0.20086669921875,-0.949249267578125,-0.016095345839858,0.0368070155382156,-0.0118518657982349
1770453528967,0.1160888671875,-0.203277587890625,-0.9583282470703124,-0.0297634880989789,0.0335174798965454,-0.0088526140898466
1770453528977,0.1164398193359375,-0.20440673828125,-0.9733734130859376,-0.0280598644167184,0.0242691207677125,-0.0072299498133361
1770453528987,0.1114959716796875,-0.1998138427734375,-0.9875030517578124,-0.0216445755213499,0.0136572225019335,-0.0089913643896579
1770453528997,0.107666015625,-0.1938018798828125,-0.9887542724609376,-0.0179688800126314,0.0152063835412263,-0.0122518725693225
1770453529007,0.1071014404296875,-0.1876373291015625,-0.982269287109375,-0.0259509067982435,0.0360133945941925,-0.0214986335486173
1770453529017,0.10638427734375,-0.18603515625,-0.97576904296875,-0.0304636340588331,0.0427413396537303,-0.0246478226035833
1770453529027,0.11474609375,-0.1885833740234375,-0.972930908203125,-0.0285402983427047,0.0367103442549705,-0.0276153832674026
1770453529037,0.1203765869140625,-0.198394775390625,-0.9745330810546876,-0.0256742034107446,0.0400350354611873,-0.0241332985460758
1770453529047,0.12957763671875,-0.203460693359375,-0.972442626953125,-0.028212996199727,0.0451728031039238,-0.017804030328989
1770453529057,0.129364013671875,-0.204071044921875,-0.969970703125,-0.0258702132850885,0.0517537407577037,-0.0155707038938999
1770453529067,0.12677001953125,-0.2005767822265625,-0.966644287109375,-0.0277679823338985,0.0657161623239517,-0.0103764748200774
1770453529077,0.1230010986328125,-0.2001190185546875,-0.9673004150390624,-0.0280316341668367,0.0585011281073093,-0.0073790866881608
1770453529087,0.124420166015625,-0.19805908203125,-0.9688720703125,-0.0187638346105813,0.0356163159012794,-0.0021289309952408
1770453529097,0.120849609375,-0.1980133056640625,-0.9792022705078124,-0.0054155378602445,0.0446644052863121,0.0038988678716123
1770453529107,0.116363525390625,-0.1954193115234375,-0.9859161376953124,0.0091165332123637,0.0476692505180835,0.0054738614708185
1770453529117,0.108489990234375,-0.1861572265625,-0.9872589111328124,0.0313501991331577,0.0382086373865604,0.0061681475490331
1770453529127,0.1065216064453125,-0.1796875,-0.9885101318359376,0.0472537986934185,0.0395716428756713,-0.0017872473690658
1770453529138,0.1004791259765625,-0.1834716796875,-0.98809814453125,0.0589663796126842,0.0447520241141319,-0.0078014638274908
1770453529148,0.1027984619140625,-0.19293212890625,-0.9864349365234376,0.0671284347772598,0.0308170337229967,-0.0041212416253983
1770453529158,0.115234375,-0.220428466796875,-0.9825286865234376,0.0688411146402359,0.0093322489410638,0.0139349903911352
1770453529168,0.127960205078125,-0.2105865478515625,-0.970184326171875,0.0670525357127189,-0.0167177282273769,0.0148279480636119
1770453529178,0.1161956787109375,-0.171905517578125,-0.947662353515625,0.0402158610522747,-0.0198951456695795,-0.0047244476154446
1770453529188,0.099029541015625,-0.1690216064453125,-0.9359588623046876,0.0058666775003075,0.0122992768883705,-0.0276609230786561
1770453529198,0.09869384765625,-0.20953369140625,-0.9423828125,-0.0032618397381156,0.0550408810377121,-0.0197497364133596
1770453529208,0.1188812255859375,-0.196014404296875,-0.949310302734375,-0.0067431237548589,0.0280092637985944,-0.0357545353472232
1770453529218,0.1058807373046875,-0.157562255859375,-0.9371795654296876,-0.0238616559654474,-0.0203124620020389,-0.0485078804194927
1770453529228,0.1154632568359375,-0.2388763427734375,-0.943023681640625,-0.0474218428134918,-0.0107269464060664,-0.014642858877778
1770453529238,0.1425018310546875,-0.23236083984375,-0.9496612548828124,-0.0647044256329536,-0.0116246985271573,-0.0009174589649774
1770453529248,0.125640869140625,-0.17327880859375,-0.947265625,-0.0729117542505264,-0.043199136853218,-0.0263234823942184
1770453529258,0.09637451171875,-0.1503448486328125,-0.947235107421875,-0.0921291261911392,-0.0362056754529476,-0.060437511652708
1770453529268,0.0836944580078125,-0.1728057861328125,-0.9535675048828124,-0.1009154319763183,-0.0095959017053246,-0.0725977718830108
1770453529278,0.0997467041015625,-0.1860504150390625,-0.9668121337890624,-0.0973744913935661,-0.0171872433274984,-0.0619730912148952
1770453529288,0.122589111328125,-0.1938934326171875,-0.97564697265625,-0.090593546628952,-0.0265013817697763,-0.0486490279436111
1770453529298,0.1238861083984375,-0.2082061767578125,-0.9766082763671876,-0.0804293304681778,-0.0184610318392515,-0.0371532291173934
1770453529308,0.1209259033203125,-0.20428466796875,-0.9832916259765624,-0.0651110932230949,-0.0075750951655209,-0.0216909144073724
1770453529318,0.1213836669921875,-0.1902923583984375,-0.9931640625,-0.0503952614963054,-0.0114111127331852,-0.0146258138120174
1770453529328,0.1187744140625,-0.1796417236328125,-1.0045623779296875,-0.0261802040040493,-0.0205731857568025,-0.0126156602054834
1770453529338,0.1150665283203125,-0.1789703369140625,-1.010345458984375,0.0033156354911625,-0.0370994322001934,-0.0228211600333452
1770453529348,0.11590576171875,-0.1793060302734375,-1.003082275390625,0.0212019570171833,-0.0205460209399461,-0.0313115827739238
1770453529359,0.11627197265625,-0.1771392822265625,-0.9873504638671876,0.0189816802740097,0.0473408848047256,-0.038493063300848
1770453529369,0.113311767578125,-0.1813812255859375,-0.976470947265625,0.0037968687247484,0.1193040236830711,-0.0481145307421684
1770453529380,0.1102447509765625,-0.1843414306640625,-0.9679107666015624,0.0024325312115252,0.1031210571527481,-0.0501443929970264
1770453529389,0.12322998046875,-0.1868896484375,-0.9656829833984376,0.0202914234250783,0.0167901646345853,-0.0501055121421813
1770453529399,0.12286376953125,-0.1979827880859375,-0.9766845703125,0.0457523092627525,-0.0339782051742076,-0.0500506497919559
1770453529409,0.125030517578125,-0.2066497802734375,-0.9789581298828124,0.0474700480699539,-0.0275573246181011,-0.0451453737914562
1770453529419,0.1221923828125,-0.1801605224609375,-0.9648590087890624,0.0498535744845867,-0.0084936199709773,-0.0463320799171924
1770453529429,0.1174774169921875,-0.1828765869140625,-0.977294921875,0.0685782581567764,-0.0241181198507547,-0.0468231663107872
1770453529439,0.1185760498046875,-0.19525146484375,-0.99176025390625,0.0812772810459137,-0.0562960281968116,-0.038843534886837
1770453529449,0.1198272705078125,-0.19140625,-0.98883056640625,0.0788098573684692,-0.0540451258420944,-0.0373702757060527
1770453529459,0.1218109130859375,-0.1904754638671875,-0.976165771484375,0.0685247331857681,-0.0475347600877285,-0.034888207912445
1770453529470,0.125457763671875,-0.1921539306640625,-0.965423583984375,0.0465957298874855,-0.0311182383447885,-0.0284481532871723
1770453529479,0.1290435791015625,-0.1944732666015625,-0.9562530517578124,0.0310295540839433,-0.0209305826574563,-0.0162647236138582
1770453529489,0.1384735107421875,-0.1961212158203125,-0.957305908203125,0.0182152222841978,-0.0044501419179141,-0.0022735407110303
1770453529499,0.1429595947265625,-0.2016448974609375,-0.961883544921875,0.0139387184754014,0.0118100540712475,0.008231564424932
1770453529509,0.1431121826171875,-0.2041473388671875,-0.971466064453125,0.019806994125247,0.0139981070533394,0.0190538521856069
1770453529520,0.1405487060546875,-0.208221435546875,-0.981689453125,0.0344820767641067,-0.0035755599383264,0.0296361893415451
1770453529529,0.134918212890625,-0.20611572265625,-0.984832763671875,0.0487006939947605,-0.0259317327290773,0.0305360704660415
1770453529539,0.1253204345703125,-0.1973114013671875,-0.980621337890625,0.0521556138992309,-0.0289877094328403,0.026608707383275
1770453529549,0.1170806884765625,-0.1921234130859375,-0.9725189208984376,0.0489678084850311,-0.021788652986288,0.0197705086320638
1770453529560,0.114166259765625,-0.1925506591796875,-0.967864990234375,0.0470806919038295,-0.018236793577671,0.0155001301318407
1770453529570,0.1118011474609375,-0.19281005859375,-0.9664459228515624,0.0434414818882942,-0.0101024350151419,0.0096291918307542
1770453529580,0.1034393310546875,-0.192779541015625,-0.9679412841796876,0.0378831997513771,-0.0130857080221176,-0.0010761833982542
1770453529590,0.1053009033203125,-0.187286376953125,-0.9612884521484376,0.0341257452964782,0.0124532077461481,0.0006761765689589
1770453529600,0.1128082275390625,-0.1897430419921875,-0.9706878662109376,0.038515169173479,0.0156348869204521,-0.0040759681724011
1770453529610,0.10980224609375,-0.1966400146484375,-0.9736785888671876,0.0440561398863792,0.0087479511275887,-0.0060421796515583
1770453529620,0.106597900390625,-0.1904144287109375,-0.9730224609375,0.0480029471218586,0.0014058827655389,-0.0109234880656003
1770453529630,0.1030426025390625,-0.1887664794921875,-0.969970703125,0.0495513081550598,-0.0068943914957344,-0.0183867309242486
1770453529640,0.102691650390625,-0.1870574951171875,-0.969268798828125,0.0456633605062961,-0.0160069297999143,-0.0214296579360961
1770453529650,0.106201171875,-0.1898651123046875,-0.96612548828125,0.0450726710259914,-0.0184330698102712,-0.027886226773262
1770453529660,0.1100921630859375,-0.1972503662109375,-0.9651947021484376,0.0391897484660148,-0.0226746853441,-0.0289216637611389
1770453529670,0.115234375,-0.2006378173828125,-0.961700439453125,0.0267136357724666,-0.0205936916172504,-0.0281711835414171
1770453529680,0.1157073974609375,-0.2013702392578125,-0.9549102783203124,0.0063226106576621,-0.0083921533077955,-0.022864568978548
1770453529690,0.1212005615234375,-0.2226715087890625,-0.950714111328125,-0.0122598623856902,0.0143501767888665,-0.0008293083519674
1770453529700,0.13458251953125,-0.224517822265625,-0.953216552734375,-0.012892629019916,0.0248006880283355,0.0117341540753841
1770453529710,0.1224822998046875,-0.1836090087890625,-0.9588470458984376,-0.0204916931688785,0.0101546328514814,0.001087901298888
1770453529720,0.1063995361328125,-0.18377685546875,-0.9665679931640624,-0.029553897678852,0.0051830438897013,-0.0104755442589521
1770453529730,0.1102447509765625,-0.2203216552734375,-0.977752685546875,-0.0137142138555645,0.0473235733807086,-0.0004490089486353
1770453529740,0.1259002685546875,-0.199554443359375,-0.9824981689453124,0.0085471495985984,0.0410108156502246,-0.0208762530237436
1770453529750,0.10284423828125,-0.15911865234375,-0.9592437744140624,-0.0084821684285998,-0.011289938353002,-0.0253868494182825
1770453529760,0.123565673828125,-0.2679901123046875,-0.95098876953125,-0.0337505079805851,-0.0025792715605348,0.0248848441988229
1770453529771,0.1563568115234375,-0.2524261474609375,-0.9492340087890624,-0.0553519390523433,0.0129139339551329,0.0495707467198371
1770453529781,0.133941650390625,-0.1821746826171875,-0.935791015625,-0.0814735516905784,-0.0008157262345775,0.0206205900758504
1770453529791,0.0928192138671875,-0.162445068359375,-0.93206787109375,-0.1126767471432685,0.0079511338844895,-0.0145754804834723
1770453529801,0.073974609375,-0.1773834228515625,-0.9488525390625,-0.1285143047571182,0.0407341122627258,-0.0334703437983989
1770453529811,0.0870819091796875,-0.1810455322265625,-0.9726104736328124,-0.1258042603731155,0.0341678224503994,-0.0376754738390445
1770453529821,0.1058197021484375,-0.1961517333984375,-0.9884185791015624,-0.1111728623509407,0.0063130231574177,-0.0343153625726699
1770453529831,0.11395263671875,-0.2124786376953125,-0.997802734375,-0.0918401777744293,-0.0046221823431551,-0.0235170442610979
1770453529841,0.115966796875,-0.214813232421875,-1.0000457763671875,-0.0763048902153968,0.0132423024624586,-0.0094318510964512
1770453529851,0.1175384521484375,-0.2062835693359375,-1.0030059814453125,-0.0575871281325817,0.0168522167950868,0.004235225263983
1770453529861,0.11859130859375,-0.1961822509765625,-1.0019378662109375,-0.0355737060308456,0.0180628895759582,0.0124428207054734
1770453529871,0.11761474609375,-0.184112548828125,-0.999908447265625,-0.0132348453626036,0.0177134834229946,0.0084848310798406
1770453529881,0.113067626953125,-0.1794281005859375,-0.995635986328125,0.0103546362370252,0.0189933981746435,-0.0009028115891851
1770453529891,0.1148223876953125,-0.183563232421875,-0.989410400390625,0.0332120135426521,0.0163110624998807,-0.0103658214211463
1770453529901,0.115875244140625,-0.1869964599609375,-0.981170654296875,0.04897952824831,0.0133224632591009,-0.0187108367681503
1770453529911,0.1138916015625,-0.1889190673828125,-0.9731292724609376,0.0612814649939537,0.0010439591715112,-0.0283861011266708
1770453529921,0.1145172119140625,-0.1889495849609375,-0.96844482421875,0.0604644082486629,-0.0030959248542785,-0.0356743745505809
1770453529931,0.116455078125,-0.1988067626953125,-0.9648284912109376,0.0544051863253116,0.0132526885718107,-0.0342269465327262
1770453529941,0.1208953857421875,-0.21270751953125,-0.9688568115234376,0.0559980198740959,0.0255048274993896,-0.0287046153098344
1770453529951,0.1192626953125,-0.192596435546875,-0.9675445556640624,0.0549615174531936,0.0131799839437007,-0.0340746119618415
1770453529961,0.1079864501953125,-0.1812286376953125,-0.96380615234375,0.049710564315319,0.006238454952836,-0.0419011116027832
1770453529971,0.103057861328125,-0.183807373046875,-0.9639892578125,0.0380424559116363,0.0067029101774096,-0.0451078228652477
1770453529981,0.1072540283203125,-0.188232421875,-0.9616546630859376,0.0249974951148033,0.0035521241370588,-0.0428246967494487
1770453529991,0.1158905029296875,-0.1880950927734375,-0.9597625732421876,0.0077790934592485,0.0104347979649901,-0.0420590378344059
1770453530002,0.117706298828125,-0.189727783203125,-0.950897216796875,-0.0152979958802461,0.0090217245742678,-0.0417825989425182
1770453530012,0.12109375,-0.1900482177734375,-0.938507080078125,-0.0394632518291473,0.0365393683314323,-0.0342317409813404
1770453530022,0.1281890869140625,-0.1941680908203125,-0.9402618408203124,-0.060456421226263,0.0560829751193523,-0.0234174411743879
1770453530032,0.13604736328125,-0.19720458984375,-0.9473114013671876,-0.0666490644216537,0.0521079413592815,-0.006916229147464
1770453530042,0.1412811279296875,-0.1981964111328125,-0.955963134765625,-0.0712938904762268,0.0541061125695705,0.0030796795617789
1770453530052,0.1395111083984375,-0.20086669921875,-0.9626922607421876,-0.064465545117855,0.0439504124224185,0.0161195807158947
1770453530062,0.143035888671875,-0.197845458984375,-0.965972900390625,-0.0645510330796241,0.0251500941812992,0.0240872260183095
1770453530072,0.139495849609375,-0.1982879638671875,-0.9617919921875,-0.0661965981125831,0.0203814376145601,0.0327073447406291
1770453530082,0.1386566162109375,-0.195892333984375,-0.960845947265625,-0.074501134455204,0.0346977934241294,0.0358051359653472
1770453530092,0.13427734375,-0.1987762451171875,-0.9600830078125,-0.0812336057424545,0.0318098627030849,0.0400472842156887
1770453530102,0.129364013671875,-0.1949005126953125,-0.963043212890625,-0.0801073536276817,0.0270284209400415,0.0430625155568122
1770453530112,0.126800537109375,-0.19134521484375,-0.9730224609375,-0.0762761309742927,0.0206363033503294,0.0432638488709926
1770453530122,0.122772216796875,-0.1939544677734375,-0.9824676513671876,-0.0613227449357509,0.0074781561270356,0.0452284626662731
1770453530132,0.1196441650390625,-0.19488525390625,-0.995086669921875,-0.0394651181995868,0.0002362223895033,0.043158121407032
1770453530142,0.1146697998046875,-0.1941986083984375,-1.000091552734375,-0.0170442312955856,-0.0043801008723676,0.0419168248772621
1770453530152,0.1099853515625,-0.1875,-0.9959869384765624,0.0007038734620437,-0.0020192086230963,0.0343648977577686
1770453530162,0.10235595703125,-0.1795196533203125,-0.9903564453125,0.0169036164879798,0.0010956244077533,0.0190522540360689
1770453530172,0.0994415283203125,-0.176116943359375,-0.988739013671875,0.0357963480055332,0.0137091539800167,0.0036179043818265
1770453530182,0.097137451171875,-0.1763153076171875,-0.991851806640625,0.058295264840126,0.0021845910232514,-0.0145744150504469
1770453530192,0.1007537841796875,-0.1833343505859375,-0.99102783203125,0.0751440227031707,-0.0185537096112966,-0.0278878230601549
1770453530202,0.1101837158203125,-0.188812255859375,-0.9798736572265624,0.0773632302880287,-0.0203795731067657,-0.0345875397324562
1770453530212,0.1148834228515625,-0.1971893310546875,-0.9660491943359376,0.0605863817036151,-0.0091932322829961,-0.0368783883750438
1770453530223,0.125518798828125,-0.21820068359375,-0.9525299072265624,0.0436334982514381,0.0088867023587226,-0.0211311168968677
1770453530233,0.13604736328125,-0.20068359375,-0.94781494140625,0.0330612808465957,0.0041534658521413,-0.0218754708766937
1770453530243,0.117431640625,-0.1634368896484375,-0.9459228515625,0.0129951611161232,-0.0036133769899606,-0.0378925204277038
1770453530253,0.103302001953125,-0.1766204833984375,-0.9585113525390624,-0.0015057512791827,0.0262196194380521,-0.0430180393159389
1770453530263,0.1191558837890625,-0.2176666259765625,-0.9799652099609376,0.0366434976458549,0.0691814646124839,-0.041946917772293
1770453530273,0.1220550537109375,-0.15032958984375,-0.982635498046875,0.0483454279601573,0.0103674195706844,-0.0607669427990913
1770453530283,0.112518310546875,-0.1849212646484375,-0.966644287109375,0.0390981324017047,-0.0357007384300231,-0.0369921065866947
1770453530293,0.14703369140625,-0.2547760009765625,-0.9709014892578124,0.0323094688355922,-0.0126366997137665,0.0179752726107835
1770453530303,0.1695709228515625,-0.236480712890625,-0.9658966064453124,0.0393122509121894,0.0099072251468896,0.0311517938971519
1770453530313,0.138763427734375,-0.155548095703125,-0.94940185546875,0.0357366912066936,-0.0089519498869776,-0.0067314058542251
1770453530323,0.09716796875,-0.145599365234375,-0.945220947265625,0.0127173932269215,0.0077079869806766,-0.0365638695657253
1770453530333,0.0936126708984375,-0.1725616455078125,-0.9634857177734376,0.0055287224240601,0.0305701587349176,-0.0418153554201126
1770453530343,0.11334228515625,-0.1884307861328125,-0.981231689453125,0.0151435332372784,0.0001786981010809,-0.0364669300615787
1770453530353,0.1313934326171875,-0.2108306884765625,-0.980224609375,0.0228611063212156,-0.0518661253154277,-0.0261477138847112
1770453530363,0.1394500732421875,-0.227874755859375,-0.9651947021484376,0.0044943504035472,-0.0513976775109767,-0.007317301351577
1770453530373,0.1370697021484375,-0.2264404296875,-0.9447174072265624,-0.0350005961954593,-0.0185957886278629,0.0073186331428587
1770453530383,0.13031005859375,-0.21270751953125,-0.933990478515625,-0.0717815086245536,0.0017118799732998,0.0168335754424333
1770453530393,0.1286773681640625,-0.20074462890625,-0.9391326904296876,-0.0935643017292022,0.0157374180853366,0.0149802807718515
1770453530403,0.121734619140625,-0.1878814697265625,-0.9561004638671876,-0.094188280403614,0.0188631694763898,0.0073766899295151
1770453530413,0.1149444580078125,-0.1821441650390625,-0.9713134765625,-0.0789145231246948,0.0158700440078973,-0.0043180491775274
1770453530424,0.11279296875,-0.1888580322265625,-0.983978271484375,-0.0515726469457149,-0.0159739069640636,-0.0104686198756098
1770453530434,0.1164703369140625,-0.1915130615234375,-0.9909820556640624,-0.0217764023691415,-0.0279999431222677,-0.0107754161581397
1770453530444,0.1218414306640625,-0.1949462890625,-0.99359130859375,0.0034804851748049,-0.0318913534283638,-0.0106502473354339
1770453530454,0.123504638671875,-0.1942138671875,-0.9900360107421876,0.0181718133389949,-0.0283072721213102,-0.0118952756747603
1770453530464,0.1234283447265625,-0.1982269287109375,-0.9849090576171876,0.020856013521552,-0.004015780519694,-0.0121048660948872
1770453530474,0.1275634765625,-0.2032318115234375,-0.9822998046875,0.0220792032778263,0.0191055182367563,-0.0077250311151146
1770453530484,0.1256866455078125,-0.1875,-0.974822998046875,0.0155976014211773,0.0153219643980264,-0.0122529380023479
1770453530494,0.1190185546875,-0.1802978515625,-0.963958740234375,0.0070515177212655,0.0045777074992656,-0.0152681684121489
1770453530504,0.1174163818359375,-0.187225341796875,-0.958282470703125,-0.0073338127695024,0.0178831256926059,-0.0162916220724582
1770453530514,0.1218109130859375,-0.1914520263671875,-0.9586639404296876,-0.0217958427965641,0.0611999742686748,-0.0115285580977797
1770453530524,0.1218109130859375,-0.1891021728515625,-0.962921142578125,-0.03441097214818,0.0586835518479347,-0.0141725447028875
1770453530534,0.1229248046875,-0.1903228759765625,-0.9592437744140624,-0.0272215008735656,0.020559336990118,-0.0139373866841197
1770453530544,0.1248931884765625,-0.185791015625,-0.97552490234375,-0.0167251843959093,-0.014469220302999,-0.0086057391017675
1770453530554,0.12542724609375,-0.19281005859375,-0.9768218994140624,-0.0030929953791201,-0.0057100835256278,-0.0180612914264202
1770453530564,0.1147918701171875,-0.195037841796875,-0.979949951171875,0.0102869924157857,-0.0296026337891817,-0.0016772588714957
1770453530574,0.1316680908203125,-0.1953582763671875,-0.9761505126953124,0.0171132069081068,-0.0355276353657245,0.0007560714147984
1770453530584,0.124481201171875,-0.2019500732421875,-0.972686767578125,0.0148729560896754,-0.029158417135477,0.0050642671994864
1770453530594,0.1297760009765625,-0.19464111328125,-0.9653167724609376,0.0107794106006622,-0.0259112250059843,0.0075465994887053
1770453530604,0.1315460205078125,-0.1963958740234375,-0.961761474609375,0.0023214775137603,-0.0254667438566684,0.0093133402988314
1770453530614,0.1309814453125,-0.196502685546875,-0.9575958251953124,-0.0069218217395246,-0.0110220247879624,0.0063971793279051
1770453530625,0.1256561279296875,-0.1945953369140625,-0.961822509765625,-0.0092915026471018,0.0016698020044714,0.0086510125547647
1770453530634,0.1228179931640625,-0.19183349609375,-0.970703125,-0.0091279847547411,0.0083135897293686,0.0057500312104821
1770453530645,0.1166839599609375,-0.1924285888671875,-0.9794158935546876,-0.0020429107826203,-0.0021089571528136,0.0086970850825309
1770453530655,0.121124267578125,-0.19329833984375,-0.9825897216796876,0.0056645437143743,-0.0046301716938614,0.0119818281382322
1770453530665,0.1230010986328125,-0.1934814453125,-0.98406982421875,0.0136859845370054,0.0089894998818635,0.0136106172576546
1770453530675,0.1213531494140625,-0.1925811767578125,-0.9846649169921876,0.0244952235370874,0.0159552637487649,0.01723438128829
1770453530685,0.123565673828125,-0.1899261474609375,-0.985565185546875,0.0398062691092491,0.015664180740714,0.0233263615518808
1770453530695,0.1227569580078125,-0.1910858154296875,-0.988250732421875,0.0570686124265193,0.0151605773717165,0.021287178620696
1770453530705,0.1212615966796875,-0.1929931640625,-0.99176025390625,0.0793456882238388,0.0121709126979112,0.0218592267483472
1770453530715,0.1189422607421875,-0.1931610107421875,-0.9974212646484376,0.1055107116699218,0.0005275722360238,0.0202725138515234
1770453530725,0.116485595703125,-0.1953277587890625,-1.0001983642578125,0.1292591840028762,-0.0193444024771451,0.0151959974318742
1770453530735,0.1187591552734375,-0.1996917724609375,-0.9940643310546876,0.1390335261821746,-0.0337552987039089,0.0135229993611574
1770453530745,0.124481201171875,-0.21649169921875,-0.9811248779296876,0.1293497383594513,-0.0150151681154966,0.0272361487150192
1770453530755,0.1361541748046875,-0.2313690185546875,-0.967864990234375,0.1229403018951416,-0.0027270768769085,0.0406430326402187
1770453530765,0.134796142578125,-0.1920928955078125,-0.9531097412109376,0.1065200492739677,-0.0205127317458391,0.0276630520820617
1770453530775,0.113555908203125,-0.1724395751953125,-0.941925048828125,0.074576236307621,-0.0106209525838494,0.0119653167203068
1770453530785,0.10809326171875,-0.217071533203125,-0.9477691650390624,0.0680328458547592,0.0487443692982196,0.0223609656095504
1770453530795,0.1248779296875,-0.21807861328125,-0.962799072265625,0.0828141868114471,0.0513609237968921,0.0123346969485282
1770453530805,0.104095458984375,-0.154052734375,-0.95428466796875,0.0742100477218627,-0.0048416266217827,-0.010792726650834
1770453530815,0.099456787109375,-0.2180633544921875,-0.952362060546875,0.0536198168992996,-0.0201023388653993,0.007595335599035
1770453530825,0.1233978271484375,-0.2580413818359375,-0.9588623046875,0.0450031608343124,-0.0005315669695846,0.0402496829628944
1770453530836,0.13287353515625,-0.227264404296875,-0.960968017578125,0.0522799827158451,-0.0106744822114706,0.0287695955485105
1770453530845,0.1089630126953125,-0.1616973876953125,-0.950897216796875,0.0404544807970523,-0.0252992305904626,-0.0196277629584074
1770453530856,0.0757904052734375,-0.1656951904296875,-0.9463348388671876,0.0154551230370998,0.0011086739832535,-0.0513084605336189
1770453530866,0.082000732421875,-0.1854705810546875,-0.9556427001953124,-0.0014285196084529,0.0206759832799434,-0.0610431134700775
1770453530876,0.103973388671875,-0.2053070068359375,-0.9658050537109376,-0.0028509139083325,-0.0244464874267578,-0.0594614632427692
1770453530886,0.1238250732421875,-0.228240966796875,-0.9631500244140624,-0.0074443342164158,-0.0324591398239135,-0.0348719619214534
1770453530896,0.1422119140625,-0.24371337890625,-0.9597320556640624,-0.0196416117250919,-0.0011038802331313,-0.0086432890966534
1770453530906,0.1439971923828125,-0.25128173828125,-0.958709716796875,-0.0256526321172714,-0.0109320096671581,0.0139512354508042
1770453530916,0.139678955078125,-0.2309417724609375,-0.9575347900390624,-0.0330415740609169,-0.0269594453275203,0.0219063647091388
1770453530926,0.12347412109375,-0.207855224609375,-0.9598846435546876,-0.0318439491093158,-0.0217740051448345,0.0094981640577316
1770453530936,0.1077880859375,-0.1919403076171875,-0.9647216796875,-0.0283608008176088,-0.0291312541812658,-0.0080685792490839
1770453530946,0.1064910888671875,-0.18609619140625,-0.9676361083984376,-0.0227623041719198,-0.0319755114614963,-0.0210866425186395
1770453530956,0.1099395751953125,-0.1953125,-0.9710693359375,-0.0171813834458589,-0.0256398487836122,-0.0250283870846033
1770453530967,0.122802734375,-0.2141265869140625,-0.9734344482421876,-0.0114111127331852,-0.0187017824500799,-0.0148409977555274
1770453530976,0.12908935546875,-0.218536376953125,-0.973968505859375,-0.0049588060937821,-0.0181105602532625,-0.0031907332595437
1770453530986,0.1279449462890625,-0.216094970703125,-0.9726104736328124,-0.0006559365428984,-0.0066033080220222,0.0010495517635717
1770453530996,0.121978759765625,-0.2174835205078125,-0.9740753173828124,0.0051489556208252,0.0154697699472308,0.0097833881154656
1770453531006,0.12347412109375,-0.2084197998046875,-0.9784088134765624,0.018182199448347,0.0181483775377273,0.0097511643543839
1770453531016,0.11602783203125,-0.1909027099609375,-0.9854583740234376,0.0367327146232128,0.0130606740713119,0.0026485137641429
1770453531026,0.1082763671875,-0.193695068359375,-0.9921875,0.0596271120011806,0.0236568599939346,-0.00459501799196
1770453531037,0.10595703125,-0.196929931640625,-1.0008392333984375,0.0829335004091262,0.0240882914513349,-0.0082480758428573
1770453531046,0.111541748046875,-0.2006378173828125,-1.001129150390625,0.1002333909273147,0.0068491175770759,-0.0138215394690632
1770453531057,0.1180572509765625,-0.207061767578125,-0.9892120361328124,0.1058752983808517,0.0009464874165132,-0.0111394701525568
1770453531067,0.1217803955078125,-0.2134552001953125,-0.9699554443359376,0.0993247255682945,0.0109189599752426,-0.0062182149849832
1770453531077,0.123077392578125,-0.2154541015625,-0.95172119140625,0.0841130092740058,0.022432604804635,-5.699164830730297e-05
1770453531087,0.1225738525390625,-0.2166748046875,-0.943756103515625,0.0671010091900825,0.0254664774984121,0.0062879896722733
1770453531097,0.121002197265625,-0.2220611572265625,-0.944488525390625,0.051037885248661,0.0164167899638414,0.0119812954217195
1770453531107,0.124267578125,-0.220703125,-0.9440155029296876,0.0354456081986427,0.0067066387273371,0.0123211145401
1770453531117,0.123870849609375,-0.21954345703125,-0.943603515625,0.017667144536972,0.0006050702068023,0.0091130705550313
1770453531127,0.1228179931640625,-0.21875,-0.942138671875,-1.7310547264060006e-05,-0.0020160130225121,0.0060744038783013
1770453531137,0.1185302734375,-0.216278076171875,-0.9452056884765624,-0.01282818056643,-0.0022357236593961,0.0054964981973171
1770453531147,0.115997314453125,-0.213348388671875,-0.950042724609375,-0.0205239169299602,-0.0039654467254877,-0.0003949467791244
1770453531157,0.1139678955078125,-0.21307373046875,-0.9578094482421876,-0.022719694301486,-0.0124441524967551,0.0006601976347155
1770453531167,0.117156982421875,-0.214569091796875,-0.962921142578125,-0.0268412008881568,-0.009852897375822,0.0004841626796405
1770453531177,0.119384765625,-0.2137298583984375,-0.9679107666015624,-0.0276409480720758,-0.0025686188600957,0.0072645707987248
1770453531187,0.1195831298828125,-0.21240234375,-0.972320556640625,-0.0199558641761541,0.0005534048541449,0.0078536616638302
1770453531197,0.117645263671875,-0.20941162109375,-0.97802734375,-0.0063875918276607,-0.0018998990999534,0.0066762785427272
1770453531207,0.1163330078125,-0.209259033203125,-0.985443115234375,0.010185525752604,-0.0095253279432654,0.0067061060108244
1770453531217,0.11749267578125,-0.2083892822265625,-0.98773193359375,0.0266443938016891,-0.02187573723495,0.0049524144269526
1770453531227,0.117095947265625,-0.2093963623046875,-0.983001708984375,0.0337683483958244,-0.0318498089909553,-0.0008530105114914
1770453531237,0.113800048828125,-0.2120513916015625,-0.9765625,0.0382957234978675,-0.0327552817761898,0.0023358585312962
1770453531247,0.1196746826171875,-0.2117462158203125,-0.96539306640625,0.0326852425932884,-0.022038722410798,0.0045018075034022
1770453531258,0.1194305419921875,-0.2149200439453125,-0.9604949951171876,0.0250456985086202,-0.0075726984068751,0.0022327941842377
1770453531267,0.117584228515625,-0.21636962890625,-0.9593963623046876,0.0199348255991935,-0.0087215863168239,0.0047793090343475
1770453531277,0.1187744140625,-0.220123291015625,-0.9595184326171876,0.0138044953346252,-0.0101343933492898,0.0163198504596948
1770453531288,0.124114990234375,-0.24420166015625,-0.9647064208984376,0.0160655193030834,-0.0002684466307982,0.0309605784714221
1770453531298,0.127349853515625,-0.2262725830078125,-0.9730682373046876,0.0317765697836875,-0.0058432416990399,0.0238390192389488
1770453531308,0.10986328125,-0.181549072265625,-0.9708709716796876,0.0330916419625282,-0.0171278547495603,0.0030277478508651
1770453531318,0.0927581787109375,-0.1967315673828125,-0.9779205322265624,0.0468476675450801,0.0181771386414766,-0.001252484624274
1770453531328,0.1063690185546875,-0.22900390625,-0.9932861328125,0.0892089679837226,0.0505758263170719,0.0002695118892006
1770453531338,0.1037445068359375,-0.1743621826171875,-0.9906463623046876,0.1182768419384956,0.0046237800270318,-0.0312234330922365
1770453531348,0.0870819091796875,-0.1955108642578125,-0.980499267578125,0.1274082958698272,-0.0356938168406486,-0.033134251832962
1770453531358,0.1106414794921875,-0.2565765380859375,-0.9767913818359376,0.1158222034573555,-0.0340016409754753,0.0041867555119097
1770453531368,0.1357574462890625,-0.2683868408203125,-0.963226318359375,0.1066750437021255,-0.0151350107043981,0.0199273694306612
1770453531378,0.130584716796875,-0.210296630859375,-0.9392852783203124,0.0903075262904167,-0.0183438528329134,-0.0091215930879116
1770453531388,0.097381591796875,-0.187591552734375,-0.9246826171875,0.0586622469127178,-0.0006681871018372,-0.0433157831430435
1770453531398,0.08282470703125,-0.1925506591796875,-0.930419921875,0.0402275808155536,0.0307187642902135,-0.0593623928725719
1770453531408,0.0895843505859375,-0.2015838623046875,-0.9532318115234376,0.0407639406621456,0.0169744566082954,-0.0630434155464172
1770453531418,0.101593017578125,-0.2298736572265625,-0.9712982177734376,0.0475099943578243,-0.0241831000894308,-0.0543181002140045
1770453531428,0.1165771484375,-0.233367919921875,-0.9691314697265624,0.0393175780773162,-0.0539702922105789,-0.042775958776474
1770453531438,0.1212615966796875,-0.2394561767578125,-0.95477294921875,0.0071934643201529,-0.0485025532543659,-0.0292119476944208
1770453531448,0.132293701171875,-0.237091064453125,-0.9357147216796876,-0.0278260391205549,-0.0149632366374135,-0.0153070511296391
1770453531458,0.1337890625,-0.2398834228515625,-0.9375762939453124,-0.0491600893437862,-0.0045409561134874,-0.0024341291282325
1770453531468,0.1320953369140625,-0.2310638427734375,-0.943695068359375,-0.0639017522335052,-0.0169669985771179,-0.0040413467213511
1770453531478,0.1220703125,-0.218963623046875,-0.9482269287109376,-0.0754335075616836,-0.018412297591567,-0.0108710238710045
1770453531488,0.117645263671875,-0.2156982421875,-0.954742431640625,-0.0788660496473312,-0.0098835229873657,-0.0145512456074357
1770453531499,0.1199798583984375,-0.219085693359375,-0.963897705078125,-0.0746542662382125,-0.0190320145338773,-0.0138066262006759
1770453531509,0.1255035400390625,-0.2261962890625,-0.9734039306640624,-0.0623363442718982,-0.0221335310488939,-0.0083796363323926
1770453531519,0.1247100830078125,-0.2283477783203125,-0.982177734375,-0.0440958216786384,-0.0193870142102241,-0.0023337281309068
1770453531529,0.12408447265625,-0.231903076171875,-0.9896392822265624,-0.0199510715901851,-0.0105272093787789,0.0065604308620095
1770453531539,0.12738037109375,-0.22802734375,-0.994476318359375,0.0086882971227169,3.355582884978503e-05,0.0161499418318271
1770453531549,0.121734619140625,-0.2098541259765625,-0.995452880859375,0.0366456285119056,-0.0018993664998561,0.0153344813734292
1770453531559,0.1100921630859375,-0.2052459716796875,-0.998077392578125,0.0633792355656623,-0.0007856325246393,0.0094313183799386
1770453531569,0.10528564453125,-0.209808349609375,-0.9974212646484376,0.0807699486613273,0.0003262372338213,0.0046022087335586
1770453531579,0.109527587890625,-0.2125396728515625,-0.990509033203125,0.0901392102241516,-0.0104608964174985,-0.0006628608098253
1770453531589,0.114349365234375,-0.2183837890625,-0.975616455078125,0.0883740708231926,-0.0080802971497178,-0.0018373148050159
1770453531599,0.1159515380859375,-0.2237091064453125,-0.9601593017578124,0.0731381252408027,0.0002852245524991,-0.0046722497791051
1770453531609,0.115386962890625,-0.22418212890625,-0.942138671875,0.0534235425293445,0.0193659737706184,-0.0067697553895413
1770453531619,0.11175537109375,-0.22674560546875,-0.937744140625,0.0365143343806266,0.0279722455888986,-0.0047771781682968
1770453531629,0.1136627197265625,-0.22821044921875,-0.940704345703125,0.0253911111503839,0.029977073892951,0.000606668065302
1770453531639,0.115081787109375,-0.227783203125,-0.952423095703125,0.0243990831077098,0.0175563562661409,0.0048762480728328
1770453531649,0.115570068359375,-0.22821044921875,-0.96173095703125,0.0295174121856689,-0.0039896816015243,0.0085878958925604
1770453531659,0.1165771484375,-0.2247161865234375,-0.9657440185546876,0.0310830846428871,-0.0210570823401212,0.0096046905964612
1770453531669,0.1147613525390625,-0.223114013671875,-0.962371826171875,0.0263037756085395,-0.0233159754425287,0.013244698755443
1770453531680,0.114990234375,-0.2239227294921875,-0.9582672119140624,0.020133763551712,-0.0169459600001573,0.0128707913681864
1770453531689,0.118438720703125,-0.2249908447265625,-0.95465087890625,0.0176413115113973,-0.0148236872628331,0.0177773982286453
1770453531699,0.117828369140625,-0.22607421875,-0.95843505859375,0.0288239251822233,-0.0148844076320528,0.0178325269371271
1770453531710,0.11474609375,-0.22821044921875,-0.9707794189453124,0.0380195528268814,-0.0082613918930292,0.0205620005726814
1770453531720,0.1153564453125,-0.230072021484375,-0.978851318359375,0.0488383807241916,-0.0199609249830245,0.0229244902729988
1770453531730,0.1173095703125,-0.2321319580078125,-0.9759521484375,0.0545101128518581,-0.0269980616867542,0.0244416929781436
1770453531740,0.1162872314453125,-0.2326812744140625,-0.9694061279296876,0.0507555902004241,-0.012892629019916,0.0271083172410726
1770453531750,0.115509033203125,-0.228759765625,-0.961517333984375,0.0387098453938961,0.0066645606420934,0.0256089568138122
1770453531760,0.1100616455078125,-0.2281036376953125,-0.95599365234375,0.0401519462466239,0.0100459763780236,0.0261317361146211
1770453531770,0.1080169677734375,-0.226898193359375,-0.96173095703125,0.0445980951189994,0.0126633308827877,0.024648355320096
1770453531780,0.1060638427734375,-0.224761962890625,-0.969024658203125,0.0549426116049289,0.0092480927705764,0.0216280631721019
1770453531790,0.1066131591796875,-0.2297515869140625,-0.972412109375,0.0634090676903724,-0.0082608591765165,0.0175022948533296
1770453531800,0.1116485595703125,-0.2324371337890625,-0.96875,0.0666080564260482,-0.0223433878272771,0.0175158772617578
1770453531810,0.1134490966796875,-0.2330169677734375,-0.960540771484375,0.0605981014668941,-0.0229708291590213,0.0138891842216253
1770453531820,0.1109619140625,-0.236602783203125,-0.94842529296875,0.0487603470683097,-0.0163299702107906,0.0149701610207557
1770453531830,0.1118621826171875,-0.2417449951171875,-0.9433135986328124,0.0371015630662441,-0.0144343329593539,0.0215449724346399
1770453531840,0.117034912109375,-0.2634124755859375,-0.946197509765625,0.0307046491652727,-0.0147374011576175,0.0416177511215209
1770453531850,0.1251068115234375,-0.2509307861328125,-0.9544219970703124,0.0312836207449436,-0.023021962493658,0.0363907627761364
1770453531860,0.10809326171875,-0.2036895751953125,-0.9527587890625,0.0168780498206615,-0.0392736345529556,0.011797803454101
1770453531870,0.0894775390625,-0.21539306640625,-0.9519500732421876,0.0094733964651823,0.0069798789918422,-9.747169679030776e-05
1770453531880,0.0955047607421875,-0.249267578125,-0.964691162109375,0.0206693261861801,0.0581977926194667,0.0041662491858005
1770453531891,0.0975494384765625,-0.20928955078125,-0.958984375,0.0199524033814668,0.0280143246054649,-0.0154663082212209
1770453531900,0.0947113037109375,-0.2231292724609375,-0.953887939453125,0.0167385004460811,-0.0055455002002418,-0.0157339554280042
1770453531910,0.111114501953125,-0.2707061767578125,-0.955352783203125,0.0014242585748434,0.0067095682024955,0.009075254201889
1770453531920,0.12750244140625,-0.2709808349609375,-0.952606201171875,-0.0035116442013531,0.0177520997822284,0.0108041781932115
1770453531930,0.1153717041015625,-0.22186279296875,-0.9473419189453124,-0.0098044276237487,-0.0108300112187862,-0.0206544119864702
1770453531941,0.09381103515625,-0.20648193359375,-0.94134521484375,-0.032745961099863,-0.0058230017311871,-0.0521018169820308
1770453531951,0.0873870849609375,-0.2188262939453125,-0.944793701171875,-0.0498807393014431,0.0303456559777259,-0.0609219409525394
1770453531961,0.103179931640625,-0.2315216064453125,-0.9550628662109376,-0.0510871522128582,0.03104979544878,-0.0564741939306259
1770453531971,0.1164703369140625,-0.2485504150390625,-0.9638214111328124,-0.0348112434148788,0.005077582783997,-0.0450375154614448
1770453531981,0.1202239990234375,-0.2585601806640625,-0.97412109375,-0.0217207409441471,-0.007628624793142,-0.02949770539999
1770453531991,0.12469482421875,-0.2516937255859375,-0.9744415283203124,-0.0169092081487178,-0.00104049697984,-0.0094606131315231
1770453532001,0.1266937255859375,-0.2490997314453125,-0.97296142578125,-0.0140620227903127,0.0022096247412264,0.0073420689441263
1770453532011,0.1221160888671875,-0.2416229248046875,-0.9698638916015624,-0.0167614035308361,0.0001004011719487,0.0111847436055541
1770453532021,0.114898681640625,-0.2332763671875,-0.960906982421875,-0.0233386121690273,0.0107226856052875,0.0123589318245649
1770453532031,0.1121978759765625,-0.2307891845703125,-0.9588470458984376,-0.0254483688622713,0.0203635953366756,0.0085271755233407
1770453532041,0.1141357421875,-0.2305755615234375,-0.9578704833984376,-0.0264704897999763,0.0246227886527776,0.0017318536993116
1770453532051,0.1134490966796875,-0.234039306640625,-0.961090087890625,-0.0275043286383152,0.0191569160670042,-0.0038434739690274
1770453532061,0.112396240234375,-0.2392425537109375,-0.9630126953125,-0.0246291793882846,0.0100377202033996,-0.0072722937911748
1770453532071,0.1119842529296875,-0.2424163818359375,-0.9658355712890624,-0.0211694668978452,0.0051755872555077,-0.0082936165854334
1770453532081,0.11456298828125,-0.2491455078125,-0.96923828125,-0.0181294698268175,0.0089381011202931,-0.0047404267825186
1770453532092,0.1165618896484375,-0.2489166259765625,-0.970245361328125,-0.0137336552143096,0.0143765425309538,-0.0019499665359035
1770453532101,0.110931396484375,-0.2303619384765625,-0.9681549072265624,-0.0071559138596057,0.0161278378218412,-0.0071330107748508
1770453532111,0.101287841796875,-0.22357177734375,-0.96875,0.0011406318517401,0.0167638007551431,-0.0146761480718851
1770453532121,0.0965576171875,-0.2264862060546875,-0.9730072021484376,0.0078635159879922,0.013457485474646,-0.017152888700366
1770453532131,0.10101318359375,-0.2270965576171875,-0.972991943359375,0.0070089073851704,0.0012234562309458,-0.0187348052859306
1770453532142,0.106719970703125,-0.2323150634765625,-0.966094970703125,0.0047076698392629,-0.0133863789960742,-0.0198147166520357
1770453532152,0.111572265625,-0.2335205078125,-0.9557037353515624,-0.003115898463875,-0.0097240004688501,-0.0176200065761804
1770453532162,0.1175537109375,-0.2347259521484375,-0.9487457275390624,-0.0150354085490107,0.0059465724043548,-0.014280934818089
1770453532172,0.116363525390625,-0.236846923828125,-0.9459075927734376,-0.0250789877027273,0.0119725065305829,-0.0114249605685472
1770453532182,0.12078857421875,-0.2382354736328125,-0.9456787109375,-0.0379665568470954,0.0071681644767522,-0.0065287393517792
1770453532192,0.1224365234375,-0.2410430908203125,-0.948699951171875,-0.0454713441431522,0.0018844527658075,-0.0037718350067734
1770453532202,0.120208740234375,-0.2421875,-0.9531097412109376,-0.0479249134659767,-0.0063678845763206,-0.0046546729281544
1770453532212,0.1167144775390625,-0.238739013671875,-0.9567413330078124,-0.0503965951502323,-0.0151262218132615,-0.002920422470197
1770453532222,0.11663818359375,-0.233917236328125,-0.95947265625,-0.0537151582539081,-0.0180208124220371,0.0001147822404163
1770453532232,0.1155853271484375,-0.2352447509765625,-0.96343994140625,-0.0599227212369442,-0.0104688862338662,0.0026314693968743
1770453532242,0.1131439208984375,-0.2372894287109375,-0.966339111328125,-0.0607048906385898,-0.0062741413712501,0.0041468082927167
1770453532252,0.1166534423828125,-0.23565673828125,-0.970489501953125,-0.0572358593344688,-0.0059060924686491,0.0066246129572391
