timestamp_ms,acc_x,acc_y,acc_z,gyro_x,gyro_y,gyro_z
1770452347095,-0.081024169921875,-0.2257080078125,-0.9481964111328124,-0.0134207336232066,0.0172136072069406,-0.0365667976438999
1770452347103,-0.0824432373046875,-0.22454833984375,-0.952392578125,-0.0239982772618532,0.004815527703613,-0.0384821444749832
1770452347114,-0.086334228515625,-0.224029541015625,-0.956024169921875,-0.0340437218546867,-0.0009361011325381,-0.0419575683772563
1770452347124,-0.0818634033203125,-0.2276458740234375,-0.9586334228515624,-0.0430521294474601,0.0035864789970219,-0.0362874343991279
1770452347134,-0.0755157470703125,-0.2286834716796875,-0.9568023681640624,-0.0526805222034454,0.0165033433586359,-0.0320029407739639
1770452347144,-0.07537841796875,-0.2270050048828125,-0.9545745849609376,-0.0622620433568954,0.0320154577493667,-0.0302258133888244
1770452347154,-0.0745849609375,-0.2259521484375,-0.95794677734375,-0.0670320317149162,0.042885947972536,-0.0220214128494262
1770452347164,-0.07025146484375,-0.2266387939453125,-0.962554931640625,-0.0698552504181861,0.0374288633465766,-0.0192336160689592
1770452347174,-0.0703125,-0.223663330078125,-0.96636962890625,-0.0694752112030983,0.0291522927582263,-0.0123895583674311
1770452347184,-0.0706939697265625,-0.2248382568359375,-0.971435546875,-0.0600923635065555,0.0270270910114049,-0.0046506780199706
1770452347194,-0.0686187744140625,-0.2232208251953125,-0.9794921875,-0.043182622641325,0.0193989984691143,0.0025292041245847
1770452347204,-0.0688629150390625,-0.2193145751953125,-0.9861297607421876,-0.0268872734159231,0.0091261202469468,-0.00103064335417
1770452347214,-0.080780029296875,-0.222015380859375,-0.9873199462890624,-0.0163153242319822,-0.0053689326159656,-0.0057095508091151
1770452347224,-0.0827178955078125,-0.2245025634765625,-0.9830322265625,-0.0102877914905548,-0.0098816594108939,-0.0037633129395544
1770452347234,-0.0746612548828125,-0.2284393310546875,-0.9755096435546876,-0.0003616572648752,-0.0010554107138887,-0.0004649879119824
1770452347244,-0.0743408203125,-0.21826171875,-0.972076416015625,0.0017763284267857,0.0136833218857645,-0.0108989868313074
1770452347254,-0.087921142578125,-0.219696044921875,-0.98028564453125,0.0082890884950757,-0.0045654568821191,-0.0087069384753704
1770452347264,-0.0803680419921875,-0.2270660400390625,-0.980682373046875,0.0092837791889905,-0.0246723238378763,-0.0116563895717263
1770452347275,-0.084136962890625,-0.2126312255859375,-0.9739990234375,0.009516273625195,-0.0013030846603214,-0.0173632781952619
1770452347285,-0.08453369140625,-0.2171478271484375,-0.9686279296875,0.0178202763199806,0.0158375520259141,-0.0174540914595127
1770452347295,-0.073028564453125,-0.2304229736328125,-0.9703216552734376,0.0227556452155113,0.0027121631428599,-0.0096185384318232
1770452347305,-0.0716400146484375,-0.22686767578125,-0.97027587890625,0.0294265989214181,-0.01171391364187,-0.0053929011337459
1770452347315,-0.0776214599609375,-0.2190399169921875,-0.9775848388671876,0.0309749599546194,-0.0162884257733821,-0.0134178046137094
1770452347325,-0.0826263427734375,-0.217926025390625,-0.96783447265625,0.0258768703788518,-0.0127669274806976,-0.0096313217654824
1770452347335,-0.075714111328125,-0.2171630859375,-0.9589691162109376,0.0200440157204866,-0.0145925246179103,-0.0176317244768142
1770452347345,-0.0799407958984375,-0.2202911376953125,-0.955718994140625,0.0094867125153541,-0.0116207031533122,-0.0173395760357379
1770452347355,-0.0779876708984375,-0.2224884033203125,-0.9571075439453124,0.0011052117915824,-0.0124167222529649,-0.0099106878042221
1770452347365,-0.0721435546875,-0.2242889404296875,-0.96368408203125,0.0017694041598588,-0.0051731904968619,-0.0087458211928606
1770452347375,-0.0791778564453125,-0.219268798828125,-0.971923828125,0.0057036918587982,0.003639209549874,-0.015354455448687
1770452347385,-0.0809173583984375,-0.2174835205078125,-0.971527099609375,0.0105032408609986,0.0077050575055181,-0.01333524659276
1770452347395,-0.0732421875,-0.2181854248046875,-0.97174072265625,0.0133485626429319,0.0091402353718876,-0.01788792014122
1770452347405,-0.0793304443359375,-0.222564697265625,-0.9717559814453124,0.0209518875926733,0.0142178181558847,-0.0155869489535689
1770452347415,-0.0777130126953125,-0.2275848388671875,-0.97320556640625,0.0239455457776784,0.0184751469641923,-0.0055865128524601
1770452347425,-0.0704193115234375,-0.2299041748046875,-0.972137451171875,0.0228528510779142,0.0116521287709474,-0.0019683423452079
1770452347435,-0.074462890625,-0.230987548828125,-0.9696197509765624,0.0185539759695529,0.0106401275843381,-0.0019592875614762
1770452347445,-0.080596923828125,-0.227569580078125,-0.9705047607421876,0.0096084186807274,-0.0070824106223881,0.0027110979426652
1770452347455,-0.0787811279296875,-0.226715087890625,-0.9634246826171876,0.0003526025393512,-0.0090209254994988,0.0034426683560013
1770452347465,-0.0832061767578125,-0.2231903076171875,-0.9621124267578124,-0.0061931810341775,-0.0140039660036563,0.004670385736972
1770452347475,-0.082550048828125,-0.2238616943359375,-0.9633026123046876,-0.0057455035857856,-0.0128337731584906,0.0084856301546096
1770452347485,-0.0791778564453125,-0.226715087890625,-0.9636993408203124,-0.0116159096360206,0.0069782808423042,0.0081620560958981
1770452347495,-0.0732879638671875,-0.2264404296875,-0.9620513916015624,-0.0061431135982275,0.0190868750214576,0.0086217178031802
1770452347506,-0.0741119384765625,-0.228240966796875,-0.9766998291015624,0.0026857978664338,-0.0141483098268508,0.0022213426418602
1770452347516,-0.083282470703125,-0.227020263671875,-0.9810638427734376,0.0109767513349652,-0.0357617251574993,0.0002972087822854
1770452347526,-0.0854339599609375,-0.21673583984375,-0.9761505126953124,0.0181345287710428,-0.0311422068625688,-0.0007600661483593
1770452347536,-0.081207275390625,-0.222320556640625,-0.966461181640625,0.0150508545339107,-0.0148497857153415,0.0002175802655983
1770452347546,-0.0754852294921875,-0.2258758544921875,-0.9608612060546876,0.0102387890219688,-0.0036663739010691,-0.0058794608339667
1770452347556,-0.0774078369140625,-0.22064208984375,-0.9584197998046876,0.0050259176641702,0.0117077883332967,-0.0148982554674148
1770452347566,-0.080596923828125,-0.2226715087890625,-0.9603271484375,0.0011848403373733,0.0231021232903003,-0.0120939472690224
1770452347576,-0.0746612548828125,-0.2287445068359375,-0.9662017822265624,-0.0022471752017736,0.0131022194400429,-0.0108348047360777
1770452347586,-0.0774078369140625,-0.22882080078125,-0.96630859375,-0.0102201467379927,0.0123083312064409,-0.0088677937164902
1770452347596,-0.0800018310546875,-0.2244873046875,-0.96929931640625,-0.0132175348699092,0.009239837527275,-0.007693872321397
1770452347606,-0.0840606689453125,-0.2249755859375,-0.9668121337890624,-0.0177345219999551,0.008935703895986,-0.0065311361104249
1770452347616,-0.0792236328125,-0.2245941162109375,-0.9680023193359376,-0.0213566869497299,0.0010210559703409,-0.0074312845245003
1770452347626,-0.080108642578125,-0.225372314453125,-0.9705047607421876,-0.020909808576107,0.0042629218660295,-0.0050237872637808
1770452347636,-0.0782928466796875,-0.2268524169921875,-0.971771240234375,-0.0120132528245449,0.0060653495602309,-0.0002996056282427
1770452347646,-0.070068359375,-0.232513427734375,-0.9777374267578124,-0.001937449676916,0.0004074636381119,0.0032325449865311
1770452347656,-0.0766754150390625,-0.2292938232421875,-0.9817657470703124,0.0074509922415018,-0.0026658242568373,-1.890844396257307e-05
1770452347666,-0.0789642333984375,-0.2222900390625,-0.9802398681640624,0.0179438460618257,-0.0136745329946279,-0.003311374457553
1770452347676,-0.081451416015625,-0.2252960205078125,-0.977813720703125,0.0271631777286529,-0.0221516415476799,-0.0050677293911576
1770452347687,-0.0826873779296875,-0.2252960205078125,-0.97869873046875,0.0314505994319915,-0.0252350494265556,-0.0081173153594136
1770452347696,-0.0798797607421875,-0.225830078125,-0.973358154296875,0.0326141342520713,-0.007309578359127,-0.0099266665056347
1770452347706,-0.0791473388671875,-0.2259979248046875,-0.9667510986328124,0.0325113385915756,0.0065015750005841,-0.011715511791408
1770452347717,-0.0802459716796875,-0.225494384765625,-0.9664459228515624,0.0311930738389492,0.0097703393548727,-0.0167970899492502
1770452347727,-0.0808563232421875,-0.22686767578125,-0.9697265625,0.0344242863357067,0.0014993597287684,-0.0126659944653511
1770452347737,-0.0774383544921875,-0.2286376953125,-0.97314453125,0.0296939797699451,-0.0139594916254282,-0.015474297106266
1770452347747,-0.085662841796875,-0.22882080078125,-0.9685211181640624,0.0208336431533098,-0.0146796097978949,-0.0179233402013778
1770452347757,-0.0834808349609375,-0.228363037109375,-0.9584197998046876,0.0082704471424222,0.0014764565275982,-0.0175952389836311
1770452347767,-0.078460693359375,-0.230865478515625,-0.9522705078125,-0.0033422671258449,0.0239514056593179,-0.0129940956830978
1770452347777,-0.0746612548828125,-0.2285003662109375,-0.9545440673828124,-0.0093879094347357,0.0205550752580165,-0.0117261642590165
1770452347787,-0.076019287109375,-0.2268218994140625,-0.9590301513671876,-0.0145286088809371,0.0127477534115314,-0.0167286470532417
1770452347797,-0.084503173828125,-0.219390869140625,-0.9592132568359376,-0.0153174372389912,0.0101266698911786,-0.0103421192616224
1770452347807,-0.0772552490234375,-0.22186279296875,-0.9638519287109376,-0.0139776011928915,0.0081498054787516,-0.0099157476797699
1770452347817,-0.07708740234375,-0.225189208984375,-0.97027587890625,-0.0065401908941566,0.0051793158054351,-0.010523747652769
1770452347827,-0.077392578125,-0.22943115234375,-0.9757537841796876,-0.0042416164651513,-0.0052850432693958,-0.0098547609522938
1770452347837,-0.078460693359375,-0.2297515869140625,-0.975494384765625,0.0017584852175787,-0.0138258002698421,-0.0094861797988414
1770452347847,-0.07904052734375,-0.232208251953125,-0.97698974609375,0.0090779168531298,-0.0222925227135419,-0.0092949643731117
1770452347857,-0.078369140625,-0.231536865234375,-0.98114013671875,0.0240281037986278,-0.0323241166770458,-0.0116750318557024
1770452347868,-0.0822296142578125,-0.2269287109375,-0.984954833984375,0.0393593907356262,-0.0444505549967289,-0.0144100980833172
1770452347877,-0.08642578125,-0.2214202880859375,-0.9839324951171876,0.0623965337872505,-0.0560198612511158,-0.012983176857233
1770452347887,-0.077239990234375,-0.2290191650390625,-0.9894256591796876,0.0708318278193473,-0.0742862150073051,-0.0104622282087802
1770452347897,-0.078948974609375,-0.23284912109375,-0.9824676513671876,0.0745397508144378,-0.074448138475418,-0.0060219396837055
1770452347907,-0.080169677734375,-0.238189697265625,-0.97149658203125,0.0715074762701988,-0.053122341632843,-0.0010301107540726
1770452347919,-0.0774383544921875,-0.2342376708984375,-0.95330810546875,0.0487797893583774,0.0068264808505773,-0.0078659122809767
1770452347927,-0.082672119140625,-0.2249908447265625,-0.944244384765625,0.0242747124284505,0.0383609719574451,-0.0105522433295845
1770452347937,-0.081878662109375,-0.2403564453125,-0.9471282958984376,0.01312006264925,0.0106659596785902,-0.0059873186983168
1770452347947,-0.0838165283203125,-0.2189788818359375,-0.95294189453125,0.0016215987270697,0.0215502995997667,-0.0188871379941701
1770452347958,-0.0927581787109375,-0.2247467041015625,-0.950439453125,-0.0153872119262814,0.0201484113931655,-0.0257903188467025
1770452347968,-0.0819091796875,-0.2370147705078125,-0.945220947265625,-0.0263061728328466,0.0228366069495677,-0.0189595762640237
1770452347978,-0.0748138427734375,-0.2403717041015625,-0.954010009765625,-0.0287719927728176,0.013848970644176,-0.0119211077690124
1770452347988,-0.078369140625,-0.229339599609375,-0.9666595458984376,-0.0262838024646043,0.0093048186972737,-0.011673167347908
1770452347998,-0.080841064453125,-0.2214813232421875,-0.965911865234375,-0.0184738151729106,0.0066424561664462,-0.0167539454996585
1770452348008,-0.0796356201171875,-0.22381591796875,-0.9666748046875,-0.0154074523597955,-0.008167115971446,-0.0225969217717647
1770452348018,-0.080352783203125,-0.2269439697265625,-0.967132568359375,-0.0081756385043263,-0.012852681800723,-0.0241490118205547
1770452348028,-0.0782318115234375,-0.2340850830078125,-0.970550537109375,-0.0101114902645349,-0.0160330291837453,-0.0208267178386449
1770452348038,-0.0789337158203125,-0.237884521484375,-0.9661865234375,-0.0094323838129639,0.0004740426666103,-0.0191167034208774
1770452348048,-0.081298828125,-0.2349395751953125,-0.9711761474609376,-0.0053335125558078,0.0105879297479987,-0.0185651630163192
1770452348058,-0.084014892578125,-0.232025146484375,-0.972869873046875,-0.0023374564480036,0.0170594099909067,-0.0189643707126379
1770452348068,-0.0812225341796875,-0.2259368896484375,-0.97113037109375,0.0100329266861081,0.0257847253233194,-0.018893264234066
1770452348078,-0.0838775634765625,-0.2223358154296875,-0.9804534912109376,0.0324285142123699,-0.0004724447790067,-0.0199633222073316
1770452348088,-0.083770751953125,-0.224090576171875,-0.9912109375,0.0474383570253849,-0.0461389981210231,-0.0160093270242214
1770452348098,-0.08203125,-0.2322998046875,-0.9852752685546876,0.0517566725611686,-0.051212053745985,-0.0156300924718379
1770452348108,-0.078094482421875,-0.2358856201171875,-0.9716644287109376,0.046865776181221,-0.0307901371270418,-0.0162431523203849
1770452348118,-0.0796051025390625,-0.2387237548828125,-0.96270751953125,0.042250782251358,-0.0139794647693634,-0.0111621068790555
1770452348129,-0.0751190185546875,-0.2397918701171875,-0.960418701171875,0.0292220674455165,-0.0132044851779937,-0.0108720883727073
1770452348139,-0.08026123046875,-0.2387542724609375,-0.9595489501953124,0.0231873448938131,-0.0098947091028094,-0.0078070568852126
1770452348148,-0.0840301513671875,-0.23309326171875,-0.963134765625,0.0164538081735372,-0.0077439397573471,-0.0081487400457263
1770452348159,-0.0865325927734375,-0.2320556640625,-0.9604644775390624,0.0188040472567081,0.0075319521129131,-0.0070248860865831
1770452348169,-0.0807952880859375,-0.2357177734375,-0.966949462890625,0.0206405632197856,-0.0043665189296007,-0.0038485340774059
1770452348179,-0.0804901123046875,-0.235504150390625,-0.9678192138671876,0.0201819669455289,-0.0069300779141485,-0.0081370221450924
1770452348189,-0.085235595703125,-0.2315521240234375,-0.9713897705078124,0.0258507709950208,-0.0066075688228011,-0.0121053988113999
1770452348199,-0.085601806640625,-0.2333831787109375,-0.9701080322265624,0.0353800952434539,-0.0066347331739962,-0.0120707778260111
1770452348209,-0.0842132568359375,-0.2348175048828125,-0.9700927734375,0.0467403419315815,-0.0086653931066393,-0.0132662709802389
1770452348219,-0.0828399658203125,-0.2343597412109375,-0.972930908203125,0.047729704529047,-0.0234414096921682,-0.0167494192719459
1770452348229,-0.079071044921875,-0.237762451171875,-0.968719482421875,0.0443586744368076,-0.0212150067090988,-0.0175638142973184
1770452348241,-0.0775909423828125,-0.2383575439453125,-0.9615631103515624,0.0368110127747058,-0.0032237565610557,-0.0207572095096111
1770452348249,-0.0815582275390625,-0.23931884765625,-0.95428466796875,0.0273650456219911,0.0082581965252757,-0.0167206563055515
1770452348259,-0.07916259765625,-0.2406005859375,-0.9529876708984376,0.0124454842880368,0.0077671092003583,-0.00997353810817
1770452348269,-0.0799102783203125,-0.2422332763671875,-0.951171875,-0.0021007014438509,0.0221401900053024,-0.0030762173701077
1770452348279,-0.080230712890625,-0.2398681640625,-0.950347900390625,-0.0190575812011957,0.0250917710363864,0.0010482202051207
1770452348289,-0.078826904296875,-0.2384185791015625,-0.9512786865234376,-0.0335124209523201,0.0199990086257457,0.0019536949694156
1770452348299,-0.083709716796875,-0.233673095703125,-0.9505767822265624,-0.039351399987936,0.0203063376247882,0.0021182782948017
1770452348309,-0.08282470703125,-0.2335662841796875,-0.958343505859375,-0.0422305427491664,0.0171217285096645,0.0039907470345497
1770452348319,-0.0826568603515625,-0.2377471923828125,-0.963653564453125,-0.0371713377535343,0.0088536785915493,0.005493835080415
1770452348329,-0.080718994140625,-0.23760986328125,-0.970062255859375,-0.0341382622718811,0.0004330299852881,0.0033803503029048
1770452348339,-0.082763671875,-0.2398681640625,-0.9705352783203124,-0.0288319140672683,0.0141821317374706,0.0014623417519032
1770452348349,-0.08099365234375,-0.2404327392578125,-0.973541259765625,-0.0196168441325426,0.0218030326068401,0.0020037624053657
1770452348360,-0.082550048828125,-0.239776611328125,-0.9777069091796876,-0.0150663014501333,0.001488174428232,0.0017321199411526
1770452348369,-0.084503173828125,-0.239715576171875,-0.975738525390625,-0.0083958813920617,0.0011472897604107,-0.0005211806274019
1770452348380,-0.0828094482421875,-0.2408294677734375,-0.9727783203125,-0.0080198431387543,0.0104619618505239,-0.0015965650090947
1770452348390,-0.0836334228515625,-0.238983154296875,-0.9646148681640624,-0.0066411248408257,0.0212144739925861,0.0013134710025042
1770452348400,-0.07977294921875,-0.2376556396484375,-0.96539306640625,-0.0049920952878892,0.0196285620331764,0.0029819414485245
1770452348410,-0.0787811279296875,-0.2368316650390625,-0.96502685546875,-0.0075772260315716,0.0045116613619029,0.0040618530474603
1770452348420,-0.0811767578125,-0.2333526611328125,-0.96429443359375,-0.0110092414543032,-0.0027289411518722,-0.0005352954030968
1770452348430,-0.086883544921875,-0.230072021484375,-0.9572906494140624,-0.007292800117284,0.006255499087274,0.0036410738248378
1770452348440,-0.0779876708984375,-0.231903076171875,-0.966217041015625,0.0025638251099735,-0.0057356501929461,0.0045734466984868
1770452348450,-0.0809478759765625,-0.236602783203125,-0.975494384765625,0.0111858090385794,-0.0255785975605249,0.0033558493014425
1770452348460,-0.0817413330078125,-0.2373199462890625,-0.9738006591796876,0.017797639593482,-0.0230368766933679,0.0022005699574947
1770452348470,-0.0777587890625,-0.2356414794921875,-0.970245361328125,0.0222600325942039,-0.0233442038297653,0.0038533278275281
1770452348480,-0.0803985595703125,-0.238861083984375,-0.970489501953125,0.0255634170025587,-0.0205798428505659,0.0039702407084405
1770452348490,-0.083343505859375,-0.2417144775390625,-0.968231201171875,0.0194256287068128,-0.0145717523992061,0.0047878311015665
1770452348502,-0.0849609375,-0.241729736328125,-0.95892333984375,0.0203188546001911,-0.0046701193787157,0.0015640745405107
1770452348510,-0.08782958984375,-0.24078369140625,-0.9617767333984376,0.0193004608154296,-0.0023222763556987,-0.0006788397440686
1770452348521,-0.0865936279296875,-0.2382659912109375,-0.9656982421875,0.0204584039747715,-0.0167712569236755,-0.0030945930629968
1770452348530,-0.0846710205078125,-0.2394256591796875,-0.96600341796875,0.0163771081715822,-0.0212325844913721,0.0016508935950696
1770452348540,-0.081634521484375,-0.2393035888671875,-0.9595947265625,0.0050900997593998,-0.01419198513031,-0.0001994707708945
1770452348550,-0.082916259765625,-0.2368927001953125,-0.9488067626953124,-0.0093125412240624,-0.0048008803278207,0.0016583503456786
1770452348560,-0.0805816650390625,-0.2397003173828125,-0.9438934326171876,-0.030253242701292,0.0009688580175861,0.0042000710964202
1770452348571,-0.0816802978515625,-0.238983154296875,-0.9403533935546876,-0.0513169839978218,0.0140811977908015,0.0079229045659303
1770452348581,-0.0827484130859375,-0.2345733642578125,-0.942230224609375,-0.0641036182641983,0.0339683517813682,0.0120737068355083
1770452348591,-0.0803070068359375,-0.2380218505859375,-0.9551544189453124,-0.0806551650166511,0.0304335393011569,0.0192160382866859
1770452348601,-0.0808868408203125,-0.239959716796875,-0.9551239013671876,-0.0865687131881713,0.0480135977268219,0.025350097566843
1770452348611,-0.0792999267578125,-0.242279052734375,-0.9602508544921876,-0.0837185978889465,0.0515220463275909,0.0260840654373168
1770452348621,-0.08587646484375,-0.2313385009765625,-0.970184326171875,-0.0788295641541481,0.0494061633944511,0.0156639143824577
1770452348631,-0.0877532958984375,-0.2426300048828125,-0.9836883544921876,-0.0600755885243415,0.0220826659351587,0.0266385357826948
1770452348641,-0.0756683349609375,-0.232879638671875,-0.986480712890625,-0.0442862398922443,0.0126444222405552,0.0106992498040199
1770452348651,-0.094329833984375,-0.218963623046875,-0.9855804443359376,-0.0164074692875146,0.0141746746376156,-0.0040959417819976
1770452348661,-0.093353271484375,-0.2274932861328125,-0.991607666015625,0.0032533176708966,-0.0180272031575441,-0.0075948028825223
1770452348671,-0.078948974609375,-0.251007080078125,-0.9868316650390624,0.0091658011078834,-0.0471022650599479,0.0050916974432766
1770452348681,-0.07623291015625,-0.2428436279296875,-0.98065185546875,0.01507562212646,-0.0386683009564876,0.0172242596745491
1770452348691,-0.074554443359375,-0.2375335693359375,-0.9693450927734376,0.0200860928744077,-0.0240763071924448,-0.0115477330982685
1770452348701,-0.097015380859375,-0.2198944091796875,-0.9563751220703124,0.0015598133904859,-0.0124856978654861,-0.0126497484743595
1770452348711,-0.083953857421875,-0.227264404296875,-0.9355010986328124,-0.0136039592325687,0.0108305430039763,-0.017129186540842
1770452348721,-0.0821075439453125,-0.2364501953125,-0.9382781982421876,-0.0347393378615379,0.0177481044083833,-0.0133730629459023
1770452348731,-0.0770721435546875,-0.2392120361328125,-0.946380615234375,-0.060950968414545,0.0259453132748603,-0.0042083272710442
1770452348741,-0.0789031982421875,-0.2342071533203125,-0.9482421875,-0.0859082490205764,0.0388805530965328,0.0015736619243398
1770452348753,-0.0820159912109375,-0.2306365966796875,-0.9491424560546876,-0.0961089581251144,0.0545402057468891,0.0061822622083127
1770452348761,-0.081268310546875,-0.2312469482421875,-0.955322265625,-0.0997830554842948,0.0609552301466465,0.0057324543595314
1770452348771,-0.081146240234375,-0.22857666015625,-0.960235595703125,-0.0993175357580185,0.0598345696926116,0.0001411475386703
1770452348781,-0.080322265625,-0.2257537841796875,-0.9667205810546876,-0.0960232019424438,0.0508019290864467,-0.0011124024167656
1770452348792,-0.0810546875,-0.2229766845703125,-0.971954345703125,-0.0883258655667305,0.041060883551836,-9.00148443179205e-05
1770452348802,-0.0831451416015625,-0.225006103515625,-0.9753875732421876,-0.0788950845599174,0.0334343910217285,-0.0018562232144176
1770452348812,-0.08563232421875,-0.227386474609375,-0.9789581298828124,-0.06663229316473,0.015435148961842,-0.0004982774262316
1770452348822,-0.080169677734375,-0.2339324951171875,-0.9836273193359376,-0.0514267049729824,0.0042727757245302,0.0021816615480929
1770452348832,-0.0772857666015625,-0.23370361328125,-0.9864044189453124,-0.0362152606248855,-0.0061457767151296,0.0064328657463192
1770452348842,-0.0763702392578125,-0.229766845703125,-0.98834228515625,-0.0209902357310056,-0.0101746069267392,0.0093170693144202
1770452348853,-0.0771026611328125,-0.225250244140625,-0.987213134765625,-0.0013227921444922,-0.0096054896712303,0.0060040964744985
1770452348862,-0.0832977294921875,-0.2258453369140625,-0.9892425537109376,0.0154170393943786,-0.0224158260971307,0.0053178002126514
1770452348872,-0.0800018310546875,-0.2285919189453125,-0.989013671875,0.0322327725589275,-0.026821494102478,0.005690642632544
1770452348882,-0.079071044921875,-0.2299346923828125,-0.987945556640625,0.0351390801370143,-0.0307912025600671,0.0043723778799176
1770452348892,-0.07952880859375,-0.2265777587890625,-0.9781036376953124,0.0422635674476623,-0.0255064256489276,-3.51537273672875e-05
1770452348902,-0.08544921875,-0.2201690673828125,-0.9743804931640624,0.0528477691113948,-0.0216608196496963,-0.0024458470288664
1770452348912,-0.0841217041015625,-0.2266845703125,-0.9730072021484376,0.0559120029211044,-0.0232123788446187,-0.0036575854755938
1770452348922,-0.0800933837890625,-0.22869873046875,-0.9720001220703124,0.0527979657053947,-0.0246936287730932,-0.0080723073333501
1770452348932,-0.0793304443359375,-0.2293548583984375,-0.96405029296875,0.0463003851473331,-0.0233178399503231,-0.0092584798112511
1770452348942,-0.079681396484375,-0.22955322265625,-0.9591217041015624,0.0390544570982456,-0.0125634623691439,-0.0091998903080821
1770452348954,-0.075592041015625,-0.2298583984375,-0.956268310546875,0.0354948788881301,-0.0088835060596466,-0.0051809134893119
1770452348962,-0.078094482421875,-0.2273712158203125,-0.9580535888671876,0.0281227137893438,-0.0062464443035423,-0.0033404028508812
1770452348972,-0.084014892578125,-0.225738525390625,-0.9644012451171876,0.0214818567037582,-0.0086555397137999,-0.0033715618774294
1770452348982,-0.0823974609375,-0.2280731201171875,-0.9610137939453124,0.0163781736046075,0.0054166032932698,-0.0016378440195694
1770452348993,-0.077911376953125,-0.2318115234375,-0.9594268798828124,0.0104065686464309,0.0189196281135082,0.0015329155139625
1770452349003,-0.0746612548828125,-0.2344207763671875,-0.959320068359375,0.0050506847910583,0.0212091486901044,0.0026075011119246
1770452349013,-0.07769775390625,-0.232574462890625,-0.9591217041015624,-0.0009861685102805,0.0172149389982223,0.0067266123369336
1770452349023,-0.0810089111328125,-0.2277679443359375,-0.96435546875,-0.0005502090789377,0.0072922678664326,0.0038786276709288
1770452349033,-0.0851898193359375,-0.2293853759765625,-0.9668426513671876,-0.0029244171455502,-0.0100015010684728,0.0070584421046078
1770452349043,-0.081024169921875,-0.2277984619140625,-0.96649169921875,-0.0006985471700318,-0.0064291371963918,0.007717574480921
1770452349053,-0.0801544189453125,-0.226715087890625,-0.970855712890625,0.0038764972705394,-0.0047825048677623,0.0072954632341861
1770452349063,-0.0800323486328125,-0.230224609375,-0.972625732421875,0.0047012781724333,-0.0054749264381825,0.0090859066694974
1770452349073,-0.0799560546875,-0.2299957275390625,-0.9706573486328124,0.0070256851613521,0.0024876587558537,0.0030581078026443
1770452349083,-0.08233642578125,-0.2335662841796875,-0.9689178466796876,0.0015592807903885,-0.001341700553894,0.0040259007364511
1770452349093,-0.078369140625,-0.233123779296875,-0.9660797119140624,0.0023007048293948,0.0002418150252196,0.0086217178031802
1770452349103,-0.0776519775390625,-0.2294158935546875,-0.96905517578125,0.0128803784027695,-0.0058738682419061,0.0090379696339368
1770452349113,-0.0851898193359375,-0.227081298828125,-0.9789581298828124,0.0257333256304264,-0.0239508729428052,0.0089407647028565
1770452349123,-0.0838470458984375,-0.228515625,-0.9805908203125,0.0309531223028898,-0.0328066833317279,0.0117488009855151
1770452349133,-0.07830810546875,-0.2299652099609375,-0.9678955078125,0.0245532803237438,-0.0113317500799894,0.0105903260409832
1770452349143,-0.079559326171875,-0.234649658203125,-0.957489013671875,0.0245721880346536,0.0052426988258957,0.0094912396743893
1770452349153,-0.0771636962890625,-0.2346038818359375,-0.964141845703125,0.0229359418153762,-0.0044583980925381,0.010537595488131
1770452349163,-0.07928466796875,-0.2311248779296875,-0.966827392578125,0.0224882643669843,-0.0153379430994391,0.0132497586309909
1770452349173,-0.0792694091796875,-0.2309417724609375,-0.9687042236328124,0.0256398487836122,-0.0242281071841716,0.0141150197014212
1770452349186,-0.0827484130859375,-0.2303924560546875,-0.9710845947265624,0.0277357567101717,-0.0306002534925937,0.0153717659413814
1770452349193,-0.0854339599609375,-0.231170654296875,-0.969024658203125,0.0305954590439796,-0.0263842027634382,0.0171235930174589
1770452349203,-0.081024169921875,-0.234222412109375,-0.96551513671875,0.0255556944757699,-0.0236347559839487,0.0171712636947631
1770452349213,-0.0828399658203125,-0.23455810546875,-0.9609527587890624,0.0179997738450765,-0.0128721231594681,0.0170735251158475
1770452349224,-0.0828704833984375,-0.2347869873046875,-0.95703125,0.0102912532165646,0.0139879873022437,0.019621904939413
1770452349234,-0.0829010009765625,-0.233154296875,-0.9551544189453124,0.0044770399108529,0.0304471217095851,0.0164016094058752
1770452349244,-0.08282470703125,-0.2332611083984375,-0.9600067138671876,-0.005764412228018,0.0156106511130929,0.0183071009814739
1770452349254,-0.0824432373046875,-0.235595703125,-0.9591522216796876,-0.0124787734821438,0.017624532803893,0.0172690022736787
1770452349264,-0.087982177734375,-0.2314300537109375,-0.9591522216796876,-0.0178096238523721,0.0287570804357528,0.0123802367597818
1770452349274,-0.087249755859375,-0.232330322265625,-0.957672119140625,-0.0205015465617179,0.0303174257278442,0.0097423754632473
1770452349284,-0.0835723876953125,-0.2368621826171875,-0.9584808349609376,-0.0314982719719409,0.0179728753864765,0.0070198262110352
1770452349294,-0.08758544921875,-0.233612060546875,-0.960662841796875,-0.0307483244687318,0.0263083036988973,0.0060272659175097
1770452349304,-0.0849456787109375,-0.2295684814453125,-0.9641876220703124,-0.0316018685698509,0.0187832750380039,0.0056056878529489
1770452349314,-0.0851898193359375,-0.233428955078125,-0.9639129638671876,-0.0360133945941925,0.0011672634864225,0.0115365469828248
1770452349324,-0.081634521484375,-0.23699951171875,-0.96514892578125,-0.0402707234025001,-0.0074001257307827,0.0194149762392044
1770452349334,-0.0796051025390625,-0.2369842529296875,-0.9637603759765624,-0.0439754463732242,0.0056445701047778,0.0230981279164552
1770452349344,-0.0816497802734375,-0.2282562255859375,-0.96343994140625,-0.0453411154448986,0.0178088247776031,0.0205939579755067
1770452349354,-0.0852813720703125,-0.2408599853515625,-0.970123291015625,-0.0329931043088436,0.0056190034374594,0.0307573806494474
1770452349364,-0.0785675048828125,-0.23016357421875,-0.9761810302734376,-0.0233567208051681,0.0072706961072981,0.0156077221035957
1770452349374,-0.0957489013671875,-0.2127685546875,-0.976226806640625,-0.0056536244228482,0.0090864393860101,-0.0023595606908202
1770452349386,-0.096771240234375,-0.22064208984375,-0.9781646728515624,-0.0013339773286134,-0.0047667920589447,-0.0070627033710479
1770452349394,-0.08148193359375,-0.2441558837890625,-0.971038818359375,-0.0050810449756681,-0.0187052451074123,0.0061039649881422
1770452349404,-0.0756378173828125,-0.246368408203125,-0.966400146484375,-0.0050906324759125,-0.0197321586310863,0.0099756689742207
1770452349414,-0.083099365234375,-0.2316131591796875,-0.9693756103515624,-6.125270374468528e-06,-0.0028000476304441,0.0130225913599133
1770452349425,-0.083404541015625,-0.2221832275390625,-0.9665679931640624,0.0039803604595363,0.0145991826429963,0.0143784070387482
1770452349435,-0.0807037353515625,-0.2266387939453125,-0.96258544921875,0.0079383505508303,0.0015105449128895,0.0064637581817805
1770452349445,-0.0793609619140625,-0.229217529296875,-0.966339111328125,0.0034850125666707,-0.0028519791085273,-0.0004029362753499
1770452349455,-0.081207275390625,-0.2353973388671875,-0.9668121337890624,0.0021925806067883,-0.0058706724084913,0.0076259616762399
1770452349465,-0.0795440673828125,-0.2383880615234375,-0.9668121337890624,-0.0001581917604198,-0.0115456022322177,0.0148231545463204
1770452349475,-0.08514404296875,-0.2364959716796875,-0.96728515625,-0.0043643885292112,0.0009712548344396,0.0199963450431823
1770452349486,-0.082427978515625,-0.2300567626953125,-0.9634857177734376,-0.0105405254289507,0.0140580283477902,0.0219657532870769
1770452349495,-0.0808563232421875,-0.2315521240234375,-0.9622344970703124,-0.0178674142807722,0.0138692101463675,0.0256824605166912
1770452349505,-0.081878662109375,-0.228668212890625,-0.9598388671875,-0.0211172699928283,0.0178447775542736,0.0262760780751705
1770452349515,-0.087493896484375,-0.22674560546875,-0.9611968994140624,-0.0158543307334184,0.0302058383822441,0.0230222288519144
1770452349525,-0.09197998046875,-0.2288055419921875,-0.9655303955078124,-0.0110044479370117,0.028555478900671,0.0231282226741313
1770452349535,-0.0869598388671875,-0.2332611083984375,-0.972900390625,-0.0059516322799026,0.0114569189026951,0.0208589434623718
1770452349545,-0.0881805419921875,-0.235107421875,-0.97552490234375,-0.0048650624230504,-0.0032964607235044,0.0180644877254962
1770452349555,-0.0927581787109375,-0.2324066162109375,-0.9740447998046876,0.004538026638329,-0.0109397331252694,0.018663965165615
1770452349565,-0.0863189697265625,-0.236083984375,-0.976104736328125,0.0056789247319102,-0.018099108710885,0.0217026323080062
1770452349575,-0.0829620361328125,-0.23773193359375,-0.96942138671875,0.0025113609153777,-0.013291303999722,0.0239876247942447
1770452349585,-0.0838470458984375,-0.2361907958984375,-0.96343994140625,-0.0033012544736266,0.0012088088551536,0.0245716553181409
1770452349595,-0.0845794677734375,-0.232696533203125,-0.96051025390625,-0.0022959110792726,0.0123552028089761,0.0276529323309659
1770452349605,-0.0808258056640625,-0.23388671875,-0.964599609375,-0.0043550673872232,0.0017286578658968,0.0278745088726282
1770452349615,-0.086669921875,-0.231842041015625,-0.9680328369140624,0.0011859056539833,-0.0055550877004861,0.0234478022903203
1770452349625,-0.0916748046875,-0.2243194580078125,-0.9693756103515624,0.0102811334654688,-0.0054474961943924,0.0218283329159021
1770452349635,-0.0874786376953125,-0.2305450439453125,-0.9698028564453124,0.0104260090738534,-0.0104118948802351,0.0191830154508352
1770452349646,-0.0885162353515625,-0.230743408203125,-0.9647369384765624,0.0091066788882017,-0.0030312100425362,0.0135232657194137
1770452349656,-0.0887298583984375,-0.229034423828125,-0.9634246826171876,0.0081729749217629,-0.012760535813868,0.0123035376891493
1770452349666,-0.0844879150390625,-0.2326507568359375,-0.9643402099609376,0.0098230699077248,-0.0253053568303585,0.0110188284888863
1770452349676,-0.086639404296875,-0.2341461181640625,-0.9658966064453124,0.0112960636615753,-0.0059708072803914,0.0143035715445876
1770452349686,-0.0847320556640625,-0.2354888916015625,-0.966705322265625,0.0072989254258573,0.0026620957069098,0.0236198417842388
1770452349696,-0.076934814453125,-0.2377777099609375,-0.9653167724609376,0.0052064796909689,0.0139485727995634,0.0303001143038272
1770452349706,-0.0781707763671875,-0.2372589111328125,-0.9696502685546876,0.0062424493953585,0.0156114501878619,0.0312343519181013
1770452349716,-0.0867919921875,-0.2342376708984375,-0.97247314453125,0.012932576239109,0.0061764032579958,0.0331819206476211
1770452349726,-0.0854949951171875,-0.235260009765625,-0.97637939453125,0.0213311221450567,-0.009729060344398,0.0374786667525768
1770452349736,-0.0816650390625,-0.2331085205078125,-0.9761810302734376,0.0286287143826484,-0.013252155855298,0.0422904640436172
1770452349746,-0.0851287841796875,-0.232818603515625,-0.973876953125,0.0430992655456066,-0.0126865003257989,0.0424979254603385
1770452349756,-0.0848541259765625,-0.2366180419921875,-0.9811553955078124,0.0577341355383396,-0.0257152169942855,0.0391047932207584
1770452349766,-0.0919342041015625,-0.23663330078125,-0.981719970703125,0.0679745227098465,-0.0376003719866275,0.037838190793991
1770452349776,-0.0915985107421875,-0.2380828857421875,-0.978240966796875,0.072397232055664,-0.0418595671653747,0.035647477954626
1770452349786,-0.0908355712890625,-0.2379608154296875,-0.971466064453125,0.0747376233339309,-0.03218350186944,0.0325965583324432
1770452349796,-0.0908050537109375,-0.238739013671875,-0.9678192138671876,0.0757871717214584,-0.0211726631969213,0.0325925648212432
1770452349806,-0.090728759765625,-0.2389373779296875,-0.9610595703125,0.0686879828572273,-0.0127536123618483,0.0301754791289567
1770452349816,-0.0887451171875,-0.2385101318359375,-0.9583282470703124,0.0712267756462097,-0.0045164548791944,0.0316303633153438
1770452349826,-0.088836669921875,-0.239990234375,-0.9631195068359376,0.0753000825643539,-0.0152748264372348,0.0283645298331975
1770452349836,-0.0916748046875,-0.23590087890625,-0.964019775390625,0.07355597615242,-0.0209281854331493,0.0251058861613273
1770452349846,-0.092681884765625,-0.2338104248046875,-0.9602203369140624,0.069942332804203,-0.0314671136438846,0.0206264480948448
1770452349857,-0.09295654296875,-0.239227294921875,-0.9553680419921876,0.0640599429607391,-0.029766684398055,0.0193771608173847
1770452349867,-0.09210205078125,-0.23883056640625,-0.953857421875,0.0502386689186096,-0.0265357363969087,0.0190168339759111
1770452349877,-0.0919952392578125,-0.2420654296875,-0.94586181640625,0.0353041961789131,-0.0205454882234334,0.0153350140899419
1770452349887,-0.09197998046875,-0.2461090087890625,-0.9483489990234376,0.0200615916401147,-0.0278247073292732,0.0128508172929286
1770452349897,-0.093963623046875,-0.2445831298828125,-0.9461822509765624,-0.0017925737192854,-0.0202813036739826,0.0087753823027014
1770452349907,-0.0919036865234375,-0.24261474609375,-0.9367218017578124,-0.0224869325757026,0.0051153996028006,0.0165933575481176
1770452349917,-0.085235595703125,-0.2442779541015625,-0.94354248046875,-0.0320692546665668,0.0097442399710416,0.0215787943452596
1770452349927,-0.0888214111328125,-0.2414398193359375,-0.956756591796875,-0.0354085899889469,0.0039659794420003,0.0219359248876571
1770452349937,-0.096099853515625,-0.2390289306640625,-0.963653564453125,-0.0325893685221672,0.0091221258044242,0.0241860300302505
1770452349947,-0.092315673828125,-0.2401123046875,-0.96368408203125,-0.0314218401908874,0.0118332235142588,0.0258912518620491
1770452349957,-0.0876617431640625,-0.24456787109375,-0.960906982421875,-0.0314106531441211,0.0229772217571735,0.0328197330236434
1770452349967,-0.0860443115234375,-0.242706298828125,-0.960205078125,-0.0230230279266834,0.0328879095613956,0.0271341484040021
1770452349977,-0.0921783447265625,-0.2386932373046875,-0.969818115234375,-0.0102851279079914,0.022300511598587,0.0217023659497499
1770452349987,-0.097869873046875,-0.2414703369140625,-0.9786834716796876,0.0020485036075115,0.0030738206114619,0.0188722237944602
1770452349997,-0.0986175537109375,-0.240325927734375,-0.97698974609375,0.0087032103911042,-0.0096449041739106,0.0139568280428648
1770452350007,-0.0974884033203125,-0.239166259765625,-0.975006103515625,0.0160095933824777,-0.0146082369610667,0.0092318477109074
1770452350017,-0.0977020263671875,-0.24151611328125,-0.974212646484375,0.0189830120652914,-0.0160679165273904,0.0055518918670713
1770452350027,-0.0961151123046875,-0.2437896728515625,-0.9687042236328124,0.0218397844582796,-0.0161898881196975,0.0006048039067536
1770452350037,-0.09649658203125,-0.2421722412109375,-0.96673583984375,0.0178226735442876,-0.0192969981580972,-0.0037587855476886
1770452350054,-0.0948486328125,-0.2414398193359375,-0.964935302734375,0.0164492800831794,-0.0082435486838221,-0.0041433461010456
1770452350057,-0.092437744140625,-0.2425384521484375,-0.9648590087890624,0.0164492800831794,-0.0082435486838221,-0.0041433461010456
1770452350067,-0.08929443359375,-0.2458648681640625,-0.9707794189453124,0.031469777226448,-0.0170929674059152,0.0076752300374209
1770452350078,-0.08758544921875,-0.2470550537109375,-0.9737701416015624,0.0354080572724342,-0.0161336958408355,0.0089394329115748
1770452350088,-0.090179443359375,-0.2382965087890625,-0.968963623046875,0.0317557975649833,-0.0099948430433869,0.0037374801468104
1770452350098,-0.094635009765625,-0.2489013671875,-0.962738037109375,0.0223732162266969,-0.011354386806488,0.0110473250970244
1770452350108,-0.0891265869140625,-0.240753173828125,-0.949615478515625,0.0148907983675599,0.0156897474080324,0.0007507451227866
1770452350121,-0.1022796630859375,-0.22930908203125,-0.9481048583984376,0.0148119693621993,0.032828252762556,-0.0132582811638712
1770452350128,-0.1007232666015625,-0.2337493896484375,-0.95654296875,0.0114649087190628,0.0239548683166503,-0.0225202217698097
1770452350138,-0.0951080322265625,-0.256591796875,-0.95758056640625,-0.0096273273229599,-0.0051369713619351,-0.0054251253604888
1770452350148,-0.08203125,-0.2568359375,-0.9518585205078124,-0.0205066073685884,0.0049817091785371,0.0007065366371534
1770452350158,-0.0873870849609375,-0.2448883056640625,-0.9561614990234376,-0.0188980568200349,0.0287134032696485,-9.986854274757206e-05
1770452350168,-0.0889129638671875,-0.2350616455078125,-0.960205078125,-0.0116127142682671,0.040948498994112,-0.0077806916087865
1770452350178,-0.0910797119140625,-0.23663330078125,-0.9646148681640624,-0.004489823244512,0.0372323244810104,-0.0152790872380137
1770452350188,-0.0902252197265625,-0.2373504638671875,-0.9650421142578124,0.0021473066881299,0.0248656682670116,-0.0197164472192525
1770452350198,-0.089599609375,-0.2418060302734375,-0.974639892578125,0.0056304549798369,-0.0066166236065328,-0.0133110117167234
1770452350208,-0.0904388427734375,-0.246063232421875,-0.9734649658203124,0.0047825048677623,-0.0095141427591443,-0.0093927029520273
1770452350221,-0.091949462890625,-0.2416839599609375,-0.9636688232421876,0.0075679048895835,0.006582801695913,-0.0085580684244632
1770452350228,-0.0893402099609375,-0.2439422607421875,-0.9625396728515624,0.0037678403314203,0.0153808202594518,-0.0143792051821947
1770452350238,-0.0875396728515625,-0.245758056640625,-0.9575653076171876,-0.0067838700488209,0.0321848355233669,-0.016896691173315
1770452350248,-0.0924835205078125,-0.2408447265625,-0.9486236572265624,-0.0224134307354688,0.057908572256565,-0.0227489881217479
1770452350258,-0.09344482421875,-0.2373199462890625,-0.9434967041015624,-0.0351851508021354,0.0725080221891403,-0.0239404868334531
1770452350268,-0.0948333740234375,-0.2368621826171875,-0.9450225830078124,-0.0390227660536766,0.0703964009881019,-0.0231772251427173
1770452350279,-0.091400146484375,-0.237457275390625,-0.9586639404296876,-0.0400352999567985,0.0555213168263435,-0.0192179027944803
1770452350289,-0.0880126953125,-0.24151611328125,-0.9681243896484376,-0.0372855849564075,0.035026691854,-0.0151006560772657
1770452350298,-0.0878143310546875,-0.245758056640625,-0.9731903076171876,-0.0336690135300159,0.0233026593923568,-0.0117128491401672
1770452350309,-0.08709716796875,-0.245147705078125,-0.971710205078125,-0.0300082322210073,0.0157182421535253,-0.0099788643419742
1770452350321,-0.0847930908203125,-0.243896484375,-0.9690704345703124,-0.0313533954322338,0.0127943586558103,-0.0111147025600075
1770452350329,-0.0867919921875,-0.240570068359375,-0.9634246826171876,-0.0313147790729999,0.0170642044395208,-0.0143997119739651
1770452350339,-0.0902557373046875,-0.2404632568359375,-0.96099853515625,-0.0348269566893577,0.0227545816451311,-0.015222362242639
1770452350349,-0.0855865478515625,-0.24456787109375,-0.966217041015625,-0.0341798067092895,0.0182690192013978,-0.015623434446752
1770452350359,-0.08282470703125,-0.23748779296875,-0.96337890625,-0.0385529845952987,0.024122379720211,-0.0190794188529253
1770452350369,-0.086334228515625,-0.2354736328125,-0.957427978515625,-0.0428111143410205,0.039371907711029,-0.0186535790562629
1770452350379,-0.083160400390625,-0.235687255859375,-0.9571075439453124,-0.0551607236266136,0.0718227922916412,-0.0174261275678873
1770452350389,-0.082244873046875,-0.2352752685546875,-0.958465576171875,-0.0531865209341049,0.0497768782079219,-0.0167118683457374
1770452350399,-0.0796051025390625,-0.2392730712890625,-0.9602813720703124,-0.0584622435271739,0.0447341799736022,-0.0152407381683588
1770452350410,-0.077545166015625,-0.23565673828125,-0.961395263671875,-0.0588846206665039,0.0421794131398201,-0.0118529312312603
1770452350420,-0.0807952880859375,-0.2333984375,-0.964752197265625,-0.0547774955630302,0.0352549254894256,-0.0120998062193393
1770452350429,-0.083831787109375,-0.2379150390625,-0.970733642578125,-0.044344563037157,0.0389878787100315,-0.0068858694285154
1770452350439,-0.078155517578125,-0.2319183349609375,-0.9773712158203124,-0.0289831813424825,0.0307150352746248,-0.0042663840577006
1770452350449,-0.075439453125,-0.2404327392578125,-0.9837188720703124,-0.0199971441179513,0.0190743580460548,-0.0004732437082566
1770452350459,-0.0776519775390625,-0.241455078125,-0.974853515625,-0.0173182692378759,0.0282257795333862,-0.0035491946619004
1770452350469,-0.082244873046875,-0.2378997802734375,-0.9680023193359376,-0.0146369999274611,0.0475302338600158,-0.003614175831899
1770452350479,-0.08099365234375,-0.2380218505859375,-0.9676361083984376,-0.0120862238109111,0.0530954413115978,-0.0038173750508576
1770452350490,-0.0809326171875,-0.2427825927734375,-0.9663543701171876,-0.020636036992073,0.0629187747836113,-0.004661064594984
1770452350499,-0.0795745849609375,-0.2360687255859375,-0.9584197998046876,-0.0264558419585227,0.0776841416954994,0.0009946906939148
1770452350510,-0.0719451904296875,-0.2325897216796875,-0.9587249755859376,-0.0366640053689479,0.0638751164078712,0.0037468012887984
1770452350520,-0.0785369873046875,-0.230926513671875,-0.959503173828125,-0.0383204892277717,0.0422177612781524,0.0032802154310047
1770452350530,-0.088043212890625,-0.227447509765625,-0.967926025390625,-0.0324442274868488,0.0108387991786003,0.0102028362452983
1770452350540,-0.0818634033203125,-0.233306884765625,-0.97674560546875,-0.0187475886195898,-0.0068323398008942,0.0100686131045222
1770452350550,-0.083038330078125,-0.23388671875,-0.9801177978515624,-0.0072539183311164,-0.0143584329634904,0.0052624060772359
1770452350560,-0.0829620361328125,-0.231536865234375,-0.9785308837890624,-0.0023643544409424,-0.0157355535775423,0.0007757788407616
1770452350570,-0.0826568603515625,-0.2332916259765625,-0.967620849609375,-0.00054035539506,0.0096502304077148,-0.0011020160745829
1770452350580,-0.080810546875,-0.235382080078125,-0.9620819091796876,-0.0013355752453207,0.0286406986415386,-0.0035324168857187
1770452350590,-0.0796661376953125,-0.238800048828125,-0.96612548828125,-0.0056874467991292,0.046385608613491,-0.0074760257266461
1770452350600,-0.0787506103515625,-0.232147216796875,-0.961151123046875,-0.0136084863916039,0.0839225947856903,-0.0076635121367871
1770452350610,-0.075836181640625,-0.233612060546875,-0.9577789306640624,-0.0176061578094959,0.1002304628491401,-0.0026581010315567
1770452350620,-0.0688323974609375,-0.239532470703125,-0.960723876953125,-0.0202962160110473,0.1056824848055839,0.0120380204170942
1770452350630,-0.048492431640625,-0.2410736083984375,-0.9695281982421876,-0.0169635377824306,0.093300387263298,0.0077966703101992
1770452350640,-0.07867431640625,-0.2336883544921875,-0.9757843017578124,-0.0221713483333587,0.0185534451156854,0.0058008972555398
1770452350650,-0.085968017578125,-0.2203369140625,-0.964935302734375,-0.0182567685842514,-0.0111543834209442,0.0221851971000432
1770452350660,-0.07403564453125,-0.236785888671875,-0.9703369140625,-0.0253005623817443,-0.0095194689929485,0.0334711410105228
1770452350670,-0.075408935546875,-0.23553466796875,-0.959564208984375,-0.0203928891569376,-0.0190708972513675,0.0326618067920208
1770452350680,-0.075714111328125,-0.23236083984375,-0.969818115234375,-0.0180386546999216,-0.0117477364838123,0.0330149419605731
1770452350690,-0.0709381103515625,-0.2357635498046875,-0.9710693359375,-0.012615393847227,-0.0223638955503702,0.0324282459914684
1770452350700,-0.0762176513671875,-0.2342681884765625,-0.9761505126953124,0.0001872202265076,-0.0128785138949751,0.024492559954524
1770452350711,-0.0830841064453125,-0.235931396484375,-0.9803619384765624,0.0105581022799015,-0.0102158859372138,0.0215654801577329
1770452350721,-0.08038330078125,-0.2370758056640625,-0.9774932861328124,0.0184623636305332,0.0068879998289048,0.0181401222944259
1770452350731,-0.078460693359375,-0.23529052734375,-0.97467041015625,0.0259269382804632,0.0262217503041028,0.0172133408486843
1770452350741,-0.07794189453125,-0.2379150390625,-0.9790496826171876,0.032011728733778,0.0226909313350915,0.0189694296568632
1770452350751,-0.074859619140625,-0.23699951171875,-0.978759765625,0.034142255783081,0.0060813282616436,0.0224214196205139
1770452350761,-0.07598876953125,-0.23486328125,-0.972259521484375,0.0291427057236433,-0.0094017572700977,0.0198970083147287
1770452350771,-0.0801849365234375,-0.2372589111328125,-0.962615966796875,0.02206402271986,0.0083985449746251,0.0216496344655752
1770452350781,-0.08062744140625,-0.237640380859375,-0.953399658203125,0.0163709837943315,0.0200392212718725,0.0220317989587783
1770452350791,-0.0793914794921875,-0.2376861572265625,-0.9585113525390624,0.0104566356167197,0.007767641916871,0.0208104737102985
1770452350801,-0.0784759521484375,-0.2342071533203125,-0.9593505859375,0.0013744573807343,-0.0072840116918087,0.0216749347746372
1770452350811,-0.079071044921875,-0.237823486328125,-0.9642181396484376,0.0025694177020341,-0.0177038963884115,0.0258481092751026
1770452350821,-0.079559326171875,-0.2389984130859375,-0.9718017578125,0.0107256146147847,-0.0254808589816093,0.0269077811390161
1770452350831,-0.0815277099609375,-0.237823486328125,-0.97174072265625,0.0162596628069877,-0.0042413501068949,0.0229471269994974
1770452350841,-0.0829620361328125,-0.237274169921875,-0.9697723388671876,0.0102726109325885,0.0273727681487798,0.0184722170233726
1770452350853,-0.07861328125,-0.251373291015625,-0.9684600830078124,0.0118364198133349,0.0221159551292657,0.0241671223193407
1770452350861,-0.0744476318359375,-0.23663330078125,-0.96649169921875,0.0149880042299628,0.0409543588757514,0.0061761368997395
1770452350871,-0.092193603515625,-0.224365234375,-0.9649658203125,0.0201252419501543,0.0449163429439067,-0.0065516424365341
1770452350881,-0.0858306884765625,-0.2338104248046875,-0.96636962890625,0.0196136478334665,0.0270563848316669,-0.0082025360316038
1770452350891,-0.0770263671875,-0.253448486328125,-0.9636993408203124,0.007433415390551,0.0232379436492919,0.0005547364708036
1770452350901,-0.0714111328125,-0.2477264404296875,-0.9579620361328124,0.0020900487434118,0.0324961580336093,0.0098502337932586
1770452350912,-0.0708465576171875,-0.2364044189453125,-0.9633941650390624,0.0045971488580107,0.0250526219606399,0.007195328362286
1770452350922,-0.0795745849609375,-0.2312164306640625,-0.96014404296875,0.0066246129572391,0.0291051547974348,-0.0032013859599828
1770452350932,-0.081634521484375,-0.2301788330078125,-0.9575958251953124,0.0046972832642495,0.0345209576189518,-0.0085820369422435
1770452350942,-0.0744476318359375,-0.2354583740234375,-0.9539337158203124,0.0021779332309961,0.0309270229190588,-0.009343434125185
1770452350954,-0.0732421875,-0.2420196533203125,-0.961517333984375,0.0031140341889113,0.0208120718598365,-0.0096486322581768
1770452350962,-0.0824432373046875,-0.2408294677734375,-0.9688720703125,0.0055798552930355,0.0179270692169666,-0.0052136704325675
1770452350972,-0.0787811279296875,-0.2379913330078125,-0.96429443359375,0.0054288539104163,0.0362634658813476,-0.0034320156555622
1770452350982,-0.0735626220703125,-0.2382965087890625,-0.9602813720703124,0.0076057217083871,0.0580728910863399,-0.0102614257484674
1770452350992,-0.0727081298828125,-0.2373504638671875,-0.9649200439453124,0.0208829119801521,0.069788672029972,-0.0202003438025712
1770452351002,-0.076385498046875,-0.238922119140625,-0.976165771484375,0.0306785497814416,0.0613003745675087,-0.0255421120673418
1770452351012,-0.080780029296875,-0.2396392822265625,-0.9746246337890624,0.0401263795793056,0.0555982813239097,-0.0326349101960659
1770452351022,-0.080596923828125,-0.2383880615234375,-0.9733428955078124,0.0510200411081314,0.0237101223319768,-0.0308239590376615
1770452351032,-0.0774993896484375,-0.2430572509765625,-0.9846649169921876,0.0642279908061027,-0.0088667282834649,-0.0213662758469581
1770452351042,-0.07196044921875,-0.246734619140625,-0.993408203125,0.080749437212944,-0.0334154814481735,-0.0070983893238008
1770452351053,-0.064788818359375,-0.248748779296875,-0.986785888671875,0.0861790925264358,-0.0543186329305172,-0.0001989381271414
1770452351062,-0.071502685546875,-0.252410888671875,-0.9738922119140624,0.0805414468050003,-0.03436915948987,-0.0006037385901436
1770452351074,-0.075592041015625,-0.24542236328125,-0.95550537109375,0.0772537738084793,0.0053923684172332,-0.0065532405860722
1770452351084,-0.078094482421875,-0.244140625,-0.957550048828125,0.0776921287178993,-0.0006849650526419,-0.0129855731502175
1770452351092,-0.078704833984375,-0.2490234375,-0.9608154296875,0.076254554092884,-0.0096840523183345,-0.0202488116919994
1770452351102,-0.0787353515625,-0.2459716796875,-0.96197509765625,0.0697740241885185,-0.0054775895550847,-0.0309267565608024
1770452351112,-0.0795440673828125,-0.24395751953125,-0.951995849609375,0.0618676282465457,0.0149600412696599,-0.0349798202514648
1770452351122,-0.0730438232421875,-0.2475128173828125,-0.94970703125,0.0422257520258426,0.0059130163863301,-0.0351593196392059
1770452351132,-0.0752105712890625,-0.249420166015625,-0.9429931640625,0.032802153378725,0.0048440238460898,-0.0392701737582683
1770452351143,-0.0785675048828125,-0.25146484375,-0.9547271728515624,0.0253785941749811,-0.0031097731553018,-0.0353859551250934
1770452351153,-0.0699462890625,-0.25421142578125,-0.957733154296875,0.0230805519968271,0.0021004350855946,-0.028162395581603
1770452351163,-0.069122314453125,-0.255584716796875,-0.9632720947265624,0.023504527285695,-0.0031894017010927,-0.0279030036181211
1770452351173,-0.076934814453125,-0.248870849609375,-0.9614715576171876,0.0188796818256378,-0.0035198999103158,-0.019839484244585
1770452351183,-0.066253662109375,-0.25067138671875,-0.9567108154296876,0.0101559646427631,-0.0084134582430124,-0.0086821718141436
1770452351193,-0.0620574951171875,-0.25347900390625,-0.9508056640625,-0.0093793869018554,-0.0074568511918187,-0.0026565031148493
1770452351203,-0.065460205078125,-0.251983642578125,-0.941741943359375,-0.0286055449396371,-0.0003145193331874,0.0050032804720103
1770452351213,-0.0655364990234375,-0.252349853515625,-0.9443511962890624,-0.0415610261261463,0.0146132977679371,0.0078661786392331
1770452351223,-0.066009521484375,-0.2555389404296875,-0.9506072998046876,-0.0514602623879909,0.0015273229219019,0.0035286883357912
1770452351233,-0.071563720703125,-0.2504119873046875,-0.953125,-0.0630047991871833,-0.0042991410009562,0.004259193316102
1770452351243,-0.0753326416015625,-0.246856689453125,-0.9516143798828124,-0.0675369650125503,0.0089665967971086,0.0074222297407686
1770452351254,-0.0725250244140625,-0.2460174560546875,-0.9591064453125,-0.0634032040834426,0.0027843348216265,0.0060885190032422
1770452351263,-0.0773468017578125,-0.251556396484375,-0.969879150390625,-0.0583732947707176,-0.0067481836304068,0.0028969866689294
1770452351273,-0.079864501953125,-0.2475738525390625,-0.9735565185546876,-0.0481403656303882,-0.0037289580795913,-0.0025646241847425
1770452351283,-0.0799407958984375,-0.243743896484375,-0.9746856689453124,-0.0461296774446964,-0.0208192616701126,-0.0041521345265209
1770452351293,-0.080718994140625,-0.247711181640625,-0.9718170166015624,-0.0462764166295528,-0.0184607654809951,-0.0009725864510983
1770452351303,-0.0749359130859375,-0.2445220947265625,-0.97076416015625,-0.0410627461969852,-0.0307174324989318,0.0070696272887289
1770452351313,-0.0682220458984375,-0.2399444580078125,-0.9702911376953124,-0.0348179005086422,-0.0210333801805973,0.0086107989773154
1770452351324,-0.0706634521484375,-0.246734619140625,-0.972808837890625,-0.0273192394524812,-0.0043617254123091,0.0080901505425572
1770452351333,-0.0684661865234375,-0.2520904541015625,-0.967926025390625,-0.0267674326896667,0.016563531011343,0.0140601592138409
1770452351344,-0.06243896484375,-0.245391845703125,-0.964263916015625,-0.0181662198156118,0.0269969962537288,0.0034181671217083
1770452351354,-0.07818603515625,-0.243499755859375,-0.9769134521484376,-0.0173499621450901,-0.0096936402842402,0.0104028396308422
1770452351364,-0.068023681640625,-0.2481842041015625,-0.9681854248046876,-0.0130375046283006,-0.0215841215103864,0.0055449674837291
1770452351374,-0.0792236328125,-0.241363525390625,-0.967315673828125,-0.0201982129365205,-0.0335307940840721,0.002322010230273
1770452351384,-0.07830810546875,-0.2380218505859375,-0.95361328125,-0.027498735114932,-0.010252371430397,0.0070706927217543
1770452351394,-0.0728607177734375,-0.2442626953125,-0.9487457275390624,-0.0323030799627304,0.0032972597982734,0.0090992227196693
1770452351404,-0.073577880859375,-0.2423858642578125,-0.955078125,-0.0298750754445791,-0.0097485007718205,0.0061811967752873
1770452351414,-0.077911376953125,-0.2380828857421875,-0.9660186767578124,-0.0378959812223911,-0.0345598421990871,0.0013219931861385
1770452351424,-0.0780792236328125,-0.2346038818359375,-0.9607696533203124,-0.046076413244009,-0.0372895821928978,-0.0069188922643661
1770452351434,-0.08514404296875,-0.2369842529296875,-0.9577789306640624,-0.0485704652965068,-0.0175345186144113,-0.0047276434488594
1770452351444,-0.0745697021484375,-0.2413330078125,-0.96337890625,-0.0410406440496444,-0.0051159323193132,-0.0096518285572528
1770452351454,-0.0764617919921875,-0.2405853271484375,-0.9728240966796876,-0.0239596609026193,0.0003496730350889,-0.0115147093310952
1770452351464,-0.0752410888671875,-0.2414093017578125,-0.985565185546875,-0.0058056912384927,-0.0206014160066843,-0.0073141055181622
1770452351474,-0.068328857421875,-0.2479248046875,-0.98919677734375,0.0035183019936084,-0.0250542201101779,-0.0051063448190689
1770452351484,-0.070709228515625,-0.2474822998046875,-0.9756622314453124,0.0062802662141621,-0.0037404096219688,-0.0066589680500328
1770452351494,-0.07318115234375,-0.242279052734375,-0.9645233154296876,0.0018098842119798,0.0072706961072981,-0.0048067392781376
1770452351504,-0.0736846923828125,-0.2415618896484375,-0.95574951171875,-0.0072374064475297,0.0052030179649591,-0.0072661684826016
1770452351514,-0.079925537109375,-0.2418365478515625,-0.9554595947265624,-0.0130502879619598,0.0101410513743758,-0.0094443680718541
1770452351524,-0.08465576171875,-0.2370758056640625,-0.9622650146484376,-0.0047084689140319,0.001741973683238,-0.0096126794815063
1770452351534,-0.079010009765625,-0.23492431640625,-0.9737701416015624,-0.0005406216951087,-0.0258353259414434,-0.0163036063313484
1770452351544,-0.0821685791015625,-0.2399749755859375,-0.970855712890625,-0.0085396924987435,-0.047092143446207,-0.016006663441658
1770452351555,-0.080413818359375,-0.2418670654296875,-0.9614410400390624,-0.0099953757598996,-0.0484378412365913,-0.0100763365626335
1770452351564,-0.07196044921875,-0.2434539794921875,-0.9616851806640624,-0.0087492829188704,-0.0372861176729202,-0.0080571277067065
1770452351575,-0.07623291015625,-0.2322235107421875,-0.961212158203125,-0.0176695417612791,-0.0213468335568904,-0.0149725582450628
1770452351587,-0.0776519775390625,-0.2496185302734375,-0.9557952880859376,-0.0279884915798902,-0.016735304147005,-0.003124420531094
1770452351595,-0.06536865234375,-0.237762451171875,-0.950103759765625,-0.0354988723993301,0.0056658750399947,-0.0042085936293005
1770452351606,-0.0751953125,-0.230255126953125,-0.9563446044921876,-0.0347952656447887,0.0171329136937856,-0.0022554311435669
1770452351615,-0.073486328125,-0.2397918701171875,-0.9661407470703124,-0.032908946275711,0.0145387286320328,0.0057574878446757
1770452351625,-0.0665740966796875,-0.2468109130859375,-0.9646759033203124,-0.0321206524968147,0.0126779787242412,0.0092600770294666
1770452351635,-0.0734405517578125,-0.2368927001953125,-0.9607696533203124,-0.0257234722375869,0.0281093996018171,0.0046269758604466
1770452351645,-0.07781982421875,-0.2324676513671875,-0.965972900390625,-0.0133464317768812,0.0464479252696037,0.0046261772513389
1770452351655,-0.073577880859375,-0.2334442138671875,-0.97265625,-0.0053236591629683,0.0351875498890876,0.0028360001742839
1770452351665,-0.0756378173828125,-0.2299346923828125,-0.9718017578125,-0.0093498257920145,0.0181622263044118,-0.007350324653089
1770452351675,-0.0831298828125,-0.2357330322265625,-0.961669921875,-0.0067897289991378,0.0215963721275329,-0.0105690211057662
1770452351686,-0.07861328125,-0.2415924072265625,-0.973358154296875,-0.0040602553635835,-0.001481250161305,-0.0141501734033226
1770452351695,-0.0824737548828125,-0.2408599853515625,-0.9753875732421876,-0.0058640143834054,-0.0113093797117471,-0.012483567930758
1770452351705,-0.08245849609375,-0.2347869873046875,-0.970550537109375,7.110639853635803e-05,0.0037670412566512,-0.0123826339840888
1770452351715,-0.0762176513671875,-0.2309722900390625,-0.970947265625,0.0136146117001771,0.0156183745712041,-0.0084155891090631
1770452351725,-0.0693817138671875,-0.2352294921875,-0.9737091064453124,0.0290825180709362,0.0144569696858525,-0.0053409696556627
1770452351735,-0.070404052734375,-0.2375030517578125,-0.9769287109375,0.0430950075387954,0.009387376718223,-0.0056480318307876
1770452351745,-0.0706024169921875,-0.240325927734375,-0.9795684814453124,0.0426981933414936,-0.0089349057525396,0.0039468049071729
1770452351755,-0.0652923583984375,-0.2419891357421875,-0.969268798828125,0.0395186468958854,-0.0063031697645783,0.011503524146974
1770452351765,-0.070465087890625,-0.2424163818359375,-0.96240234375,0.032578982412815,-0.0001563275582157,0.0195502657443285
1770452351776,-0.07208251953125,-0.24261474609375,-0.958282470703125,0.0221899915486574,0.0033563817851245,0.0215654801577329
1770452351787,-0.0735321044921875,-0.2431640625,-0.957855224609375,0.0121866250410676,0.0080675138160586,0.0212781243026256
1770452351796,-0.0756988525390625,-0.244842529296875,-0.9562225341796876,0.0109591744840145,0.0207428280264139,0.0157235693186521
1770452351806,-0.081756591796875,-0.2378387451171875,-0.95758056640625,0.0050147324800491,0.0234083868563175,0.0132532212883234
1770452351816,-0.079498291015625,-0.2370147705078125,-0.9560089111328124,-0.004578772932291,0.0254265312105417,0.013066267594695
1770452351826,-0.0815277099609375,-0.23968505859375,-0.956512451171875,-0.008732771500945,0.0151989264413714,0.0103461146354675
1770452351836,-0.082794189453125,-0.236297607421875,-0.9606475830078124,-0.0083367591723799,-0.0025734126102179,0.0095714004710316
1770452351846,-0.0793304443359375,-0.2384796142578125,-0.9618682861328124,-0.0172935035079717,-0.016225840896368,0.0101391868665814
1770452351856,-0.0744781494140625,-0.2431793212890625,-0.956298828125,-0.0182783398777246,-0.0036852823104709,0.0066531090997159
1770452351866,-0.0750885009765625,-0.242462158203125,-0.9604034423828124,-0.0191971305757761,0.0002524676674511,0.0037076529115438
1770452351876,-0.076141357421875,-0.2376861572265625,-0.9639739990234376,-0.0150079783052206,0.0058935754932463,0.0016168050933629
1770452351887,-0.0743255615234375,-0.238861083984375,-0.969970703125,-0.0116284266114234,0.0008231831016018,0.0029395972378551
1770452351896,-0.074127197265625,-0.2405242919921875,-0.97100830078125,-0.0063737435266375,-0.0039542615413665,0.0014767227694392
1770452351906,-0.0794830322265625,-0.24114990234375,-0.9691925048828124,-0.0051846420392394,-0.003581419121474,0.0044528055004775
1770452351916,-0.0765838623046875,-0.24371337890625,-0.96435546875,-0.0071660336107015,0.0049433596432209,0.0076832198537886
1770452351926,-0.0763092041015625,-0.240478515625,-0.964447021484375,-0.0030384005513042,0.0185190886259078,0.0035459990613162
1770452351936,-0.0807342529296875,-0.243743896484375,-0.9686737060546876,0.0008599347202107,0.0178839247673749,0.0060658818110823
1770452351946,-0.0716705322265625,-0.2444915771484375,-0.969818115234375,0.0027963190805166,0.0057622818276286,0.0152415372431278
1770452351956,-0.067108154296875,-0.246002197265625,-0.968353271484375,0.0047382963821291,0.0081170490011572,0.0151411360129714
1770452351966,-0.0750274658203125,-0.2455291748046875,-0.9675750732421876,0.0114912735298275,0.0010186590952798,0.0196112524718046
1770452351977,-0.071929931640625,-0.24462890625,-0.9720458984375,0.0188831444829702,-0.0080789653584361,0.0199404191225767
1770452351987,-0.0771942138671875,-0.2429962158203125,-0.9720458984375,0.0266984552145004,-0.0039832899346947,0.0116172414273023
1770452351997,-0.0843658447265625,-0.2344207763671875,-0.9744873046875,0.034843735396862,-0.0206693261861801,0.0052682650275528
1770452352007,-0.083099365234375,-0.232391357421875,-0.9739227294921876,0.0380081012845039,-0.0397266410291194,0.0052898367866873
1770452352017,-0.0800933837890625,-0.2395782470703125,-0.9716644287109376,0.0340583696961402,-0.0382874682545661,0.0046914243139326
1770452352027,-0.07916259765625,-0.2440185546875,-0.9589080810546876,0.0237716417759656,-0.0184205528348684,0.0001856223243521
1770452352037,-0.079193115234375,-0.2453155517578125,-0.94952392578125,0.0066943881101906,0.0109184281900525,-0.0003579288604669
1770452352047,-0.076904296875,-0.25164794921875,-0.9480743408203124,-0.0036461339332163,0.0276225730776786,6.578007742064074e-05
1770452352057,-0.0736541748046875,-0.2488555908203125,-0.9553375244140624,-0.0111698303371667,0.0286902338266372,0.001211738330312
1770452352067,-0.0749664306640625,-0.24432373046875,-0.958648681640625,-0.0183491799980402,0.0215737354010343,0.004431233741343
1770452352077,-0.076019287109375,-0.2431640625,-0.95928955078125,-0.0254752654582262,0.0169153343886137,0.0040706414729356
1770452352087,-0.0778350830078125,-0.2429962158203125,-0.955413818359375,-0.0291578844189643,0.0220842640846967,0.0026146916206926
1770452352097,-0.07806396484375,-0.2415618896484375,-0.9569091796875,-0.0281898267567157,0.0216256659477949,-0.0015286544803529
1770452352107,-0.0811767578125,-0.240997314453125,-0.962310791015625,-0.027280356734991,0.0179193448275327,-0.0105895269662141
1770452352117,-0.0841522216796875,-0.2407073974609375,-0.9626007080078124,-0.0282622650265693,0.0175153445452451,-0.0155547251924872
1770452352128,-0.082244873046875,-0.24127197265625,-0.9579315185546876,-0.0354336239397525,0.0199827626347541,-0.0209324453026056
1770452352137,-0.08270263671875,-0.241790771484375,-0.9541778564453124,-0.0449448376893997,0.0231924038380384,-0.0234339535236358
1770452352147,-0.0792083740234375,-0.2428741455078125,-0.95489501953125,-0.0570763349533081,0.028595158830285,-0.0228121057152748
1770452352157,-0.074249267578125,-0.2441558837890625,-0.9517669677734376,-0.0686943754553794,0.034812044352293,-0.0206908974796533
1770452352167,-0.0757598876953125,-0.246063232421875,-0.9510498046875,-0.0803765952587127,0.0405564792454242,-0.0198037978261709
1770452352177,-0.0726165771484375,-0.24609375,-0.9525604248046876,-0.0959108173847198,0.0488663427531719,-0.0127914287149906
1770452352187,-0.069061279296875,-0.23687744140625,-0.9524383544921876,-0.1031207889318466,0.0447451025247573,-0.0090960264205932
1770452352197,-0.072601318359375,-0.2355194091796875,-0.9613800048828124,-0.1013476625084877,0.0284385662525892,-0.0043284357525408
1770452352208,-0.0735015869140625,-0.2368316650390625,-0.9701690673828124,-0.0923845246434211,0.0179206766188144,-0.0017094830982387
1770452352218,-0.07183837890625,-0.231903076171875,-0.9805450439453124,-0.0711958855390548,0.0172940362244844,-0.0002998719282913
1770452352227,-0.0739898681640625,-0.23126220703125,-0.9888916015625,-0.0476516745984554,0.008372445590794,-0.0024849956389516
1770452352238,-0.0725250244140625,-0.2337188720703125,-0.9880218505859376,-0.0297738742083311,-0.0019824570044875,0.0008777778712101
1770452352248,-0.0666656494140625,-0.2441253662109375,-0.990325927734375,-0.0215971712023019,-0.0105903260409832,0.0056067528203129
1770452352258,-0.065582275390625,-0.248870849609375,-0.98291015625,-0.0118702417239546,0.0019686087034642,0.0099804624915122
1770452352268,-0.066070556640625,-0.2445831298828125,-0.976898193359375,-0.0056251287460327,0.0179398525506258,0.0057481667026877
1770452352279,-0.0747528076171875,-0.22784423828125,-0.97174072265625,-0.0048554753884673,0.0268036518245935,-0.0051489556208252
1770452352288,-0.083953857421875,-0.2393646240234375,-0.9715576171875,-0.0033856767695397,0.0087769795209169,-0.0024088292848318
1770452352298,-0.0771026611328125,-0.2335357666015625,-0.96588134765625,-0.0026724820490926,0.0094904405996203,-0.0098390486091375
1770452352308,-0.0858917236328125,-0.2212371826171875,-0.9664306640625,0.0026421220973134,0.0020301276817917,-0.0232382100075483
1770452352318,-0.086334228515625,-0.2331085205078125,-0.9681549072265624,0.0009110674145631,-0.0106888636946678,-0.0272555891424417
1770452352328,-0.074249267578125,-0.24066162109375,-0.9619293212890624,-0.010808172635734,-0.0167749859392642,-0.0239271707832813
1770452352338,-0.0690460205078125,-0.2338714599609375,-0.9498138427734376,-0.024368455633521,0.0030591732356697,-0.0220874585211277
1770452352348,-0.0725860595703125,-0.2308807373046875,-0.9462890625,-0.0339827351272106,0.0358016714453697,-0.025588983669877
1770452352358,-0.0707244873046875,-0.226348876953125,-0.948089599609375,-0.0426545180380344,0.0441096723079681,-0.0252704694867134
1770452352368,-0.0663299560546875,-0.2270965576171875,-0.9523773193359376,-0.0426630415022373,0.0412134826183319,-0.0299648232758045
1770452352378,-0.0668182373046875,-0.2332305908203125,-0.9612274169921876,-0.0455134212970733,0.0295704081654548,-0.023767115548253
1770452352388,-0.0661468505859375,-0.23382568359375,-0.9657745361328124,-0.0467712320387363,0.0298172831535339,-0.0195324216037988
1770452352398,-0.0670013427734375,-0.235015869140625,-0.9664459228515624,-0.050863180309534,0.0313595198094844,-0.0112784868106246
1770452352408,-0.06951904296875,-0.2313690185546875,-0.965362548828125,-0.0449035577476024,0.0330815203487873,-0.0119874207302927
1770452352419,-0.0742645263671875,-0.2299346923828125,-0.9737396240234376,-0.0319107957184314,0.0226392652839422,-0.0091439634561538
1770452352429,-0.0664215087890625,-0.227630615234375,-0.9795684814453124,-0.0185316056013107,0.0213750638067722,-0.0125352330505847
1770452352439,-0.0700531005859375,-0.2284698486328125,-0.983154296875,-0.0037822213489562,0.0113682355731725,-0.0144926561042666
1770452352449,-0.0682220458984375,-0.2340087890625,-0.982391357421875,0.0066448533907532,0.0003235740587115,-0.0094973649829626
1770452352459,-0.0640716552734375,-0.234832763671875,-0.9778289794921876,0.0113751599565148,-0.0012535499408841,-0.011920042335987
1770452352469,-0.071136474609375,-0.2360992431640625,-0.9776611328125,0.0140809314325451,0.0004087952256668,-0.0117024620994925
1770452352479,-0.0737457275390625,-0.235321044921875,-0.9756622314453124,0.014110492542386,-0.0098169445991516,-0.0116156432777643
1770452352489,-0.07421875,-0.234588623046875,-0.9753265380859376,0.0121179157868027,-0.0109890019521117,-0.0094832498580217
1770452352499,-0.076416015625,-0.2337799072265625,-0.97314453125,0.0148665644228458,-0.0054640076123178,-0.0124406907707452
1770452352509,-0.07574462890625,-0.2333984375,-0.9689788818359376,0.0151512557640671,-0.0118193747475743,-0.0102403871715068
1770452352520,-0.070953369140625,-0.23321533203125,-0.96630859375,0.0065337992273271,-0.0106862001121044,-0.0057020941749215
1770452352529,-0.0690765380859375,-0.23516845703125,-0.96234130859375,0.0002370213333051,-0.0024154870770871,-0.0055225971154868
1770452352539,-0.0675048828125,-0.2322235107421875,-0.962158203125,-0.0036272252909839,0.0142532382160425,-0.0036591833923012
1770452352549,-0.0641632080078125,-0.227264404296875,-0.96099853515625,-0.007472563534975,0.0231583155691623,-0.0058901133015751
1770452352559,-0.0694732666015625,-0.2312469482421875,-0.958953857421875,-0.0121940821409225,0.0261272080242633,-0.0047143278643488
1770452352570,-0.0671539306640625,-0.2340240478515625,-0.9585113525390624,-0.0259200148284435,0.0327755250036716,-0.0069433934986591
1770452352579,-0.0667724609375,-0.2324066162109375,-0.953887939453125,-0.0379913225769996,0.0493632890284061,-0.0093724625185132
1770452352589,-0.0655975341796875,-0.2321624755859375,-0.9542694091796876,-0.0392856188118457,0.0401266478002071,-0.0121346935629844
1770452352599,-0.06866455078125,-0.2338409423828125,-0.9665985107421876,-0.0402574092149734,0.0269804839044809,-0.012074239552021
1770452352609,-0.0712432861328125,-0.2289886474609375,-0.97113037109375,-0.0381817407906055,0.0145009122788906,-0.0048568067140877
1770452352619,-0.0645599365234375,-0.2318267822265625,-0.973052978515625,-0.0336037650704383,0.0012548814993351,0.0038743666373193
1770452352629,-0.06378173828125,-0.235137939453125,-0.974884033203125,-0.0274302922189235,0.0016085492679849,0.0050573428161442
1770452352640,-0.071075439453125,-0.2337188720703125,-0.9749298095703124,-0.0193633120507001,-0.0009374326909892,0.0035388083197176
1770452352650,-0.0702667236328125,-0.2295684814453125,-0.97772216796875,-0.0102028362452983,-0.0083751091733574,0.0062626893632113
1770452352660,-0.066009521484375,-0.232574462890625,-0.979461669921875,-0.0001712412631604,-0.0101791340857744,0.0078121167607605
1770452352670,-0.0691680908203125,-0.2320098876953125,-0.9804534912109376,0.0143994456157088,-0.019171830266714,0.0082837622612714
1770452352680,-0.06903076171875,-0.2327117919921875,-0.9864349365234376,0.0268798172473907,-0.0364549458026886,0.0073204971849918
1770452352690,-0.0701904296875,-0.23297119140625,-0.9826202392578124,0.0328205302357673,-0.0279568005353212,0.0083868270739912
1770452352700,-0.0665740966796875,-0.229766845703125,-0.97308349609375,0.0386536531150341,-0.0034306840971112,0.0074712322093546
1770452352710,-0.0664520263671875,-0.231719970703125,-0.9725341796875,0.0437211170792579,0.0065015750005841,0.0052016861736774
1770452352720,-0.07275390625,-0.2318115234375,-0.9746551513671876,0.0479989498853683,-0.001481250161305,0.0043548010289669
1770452352730,-0.07000732421875,-0.2299957275390625,-0.973388671875,0.0416893884539604,-0.018412297591567,0.0030804784037172
1770452352740,-0.068359375,-0.236602783203125,-0.96197509765625,0.0257895197719335,-0.007716775406152,0.0033316144254058
1770452352750,-0.0703887939453125,-0.2324371337890625,-0.9523162841796876,0.0158695112913846,0.0079415459185838,0.0008045409340411
1770452352760,-0.074493408203125,-0.22979736328125,-0.9509735107421876,0.0042259041219949,0.0112537201493978,-0.0019169433508068
1770452352770,-0.0731201171875,-0.230377197265625,-0.9553680419921876,-0.0074888090603053,0.0120199108496308,-0.0006743124104104
1770452352780,-0.06951904296875,-0.2300262451171875,-0.957427978515625,-0.0091282511129975,0.016015451401472,-0.0053212619386613
1770452352790,-0.07171630859375,-0.2320098876953125,-0.963409423828125,-0.0066901268437504,0.0039800941012799,-0.0035420041531324
1770452352800,-0.0651092529296875,-0.2350616455078125,-0.9694671630859376,-0.0004729774082079,-0.0035627768374979,-0.0024996430147439
1770452352810,-0.0690765380859375,-0.231689453125,-0.97491455078125,0.0067029101774096,-0.0118135157972574,-0.0006841660942882
1770452352820,-0.0700225830078125,-0.231201171875,-0.977386474609375,0.0167086720466613,-0.0255109518766403,0.0025265410076826
1770452352830,-0.0662994384765625,-0.2347564697265625,-0.976715087890625,0.0278228428214788,-0.0201358944177627,0.0008370315190404
1770452352841,-0.0706787109375,-0.2321014404296875,-0.97772216796875,0.0367537550628185,-0.0187177620828151,0.0038085866253823
1770452352851,-0.0694122314453125,-0.2337493896484375,-0.97674560546875,0.0405527539551258,-0.0101322624832391,0.0027662254869937
1770452352861,-0.0673675537109375,-0.2382354736328125,-0.9686126708984376,0.0318412855267524,0.0055111455731093,0.0096872486174106
1770452352871,-0.0618133544921875,-0.2393951416015625,-0.95794677734375,0.0245929602533578,0.0168849732726812,0.0148950600996613
1770452352881,-0.0630035400390625,-0.23681640625,-0.959808349609375,0.0186170935630798,0.0085285073146224,0.0142923863604664
1770452352891,-0.074066162109375,-0.23162841796875,-0.964630126953125,0.0160631220787763,-0.0006378270918503,0.0171169359236955
1770452352901,-0.071746826171875,-0.2315216064453125,-0.966033935546875,0.0174109488725662,-0.0027342673856765,0.0204855669289827
1770452352911,-0.06744384765625,-0.2311553955078125,-0.9653167724609376,0.0118811605498194,0.0034165694378316,0.0156854856759309
1770452352921,-0.0758209228515625,-0.235992431640625,-0.9576873779296876,0.0029467877466231,0.0091058807447552,0.0032565132714807
1770452352931,-0.082244873046875,-0.23211669921875,-0.956573486328125,0.0008820389630272,0.0150524526834487,0.0028850024100393
1770452352941,-0.0729827880859375,-0.2308349609375,-0.9633331298828124,0.0003563309437595,0.0183912571519613,0.0030131004750728
1770452352951,-0.071380615234375,-0.2350616455078125,-0.969818115234375,0.0028088360559195,0.0135395107790827,0.0046136602759361
1770452352961,-0.0722503662109375,-0.2392425537109375,-0.9755706787109376,0.0079015986993908,-0.0025984463281929,0.0123424204066395
1770452352971,-0.0664215087890625,-0.243011474609375,-0.9751434326171876,0.0120681142434477,-0.0054232613183557,0.0175851192325353
1770452352981,-0.0667724609375,-0.234771728515625,-0.9694366455078124,0.012206332758069,0.0177885852754116,0.0066547067835927
1770452352991,-0.074737548828125,-0.2388763427734375,-0.968170166015625,0.0075505943968892,0.0083410209044814,0.0107306744903326
1770452353001,-0.0699005126953125,-0.2433319091796875,-0.9654541015625,0.000778175657615,-0.0151938665658235,0.0119333583861589
1770452353011,-0.0762176513671875,-0.2184906005859375,-0.9591827392578124,-0.0019217369845137,0.0005520732956938,-0.0009145294898189
1770452353021,-0.084869384765625,-0.226898193359375,-0.958343505859375,-0.0120939472690224,0.0200112592428922,-0.0081133199855685
1770452353031,-0.0753173828125,-0.24249267578125,-0.9503326416015624,-0.0288532190024852,0.0351460017263889,0.0013877731980755
1770452353042,-0.0630340576171875,-0.2492828369140625,-0.9501953125,-0.0278010051697492,0.0319222472608089,0.006107160821557
1770452353052,-0.0670318603515625,-0.2377166748046875,-0.9680023193359376,-0.0154244964942336,0.0168298464268445,0.0022466427180916
1770452353062,-0.0756378173828125,-0.22662353515625,-0.978668212890625,-0.0058166100643575,0.0080395508557558,0.0004546015989035
1770452353072,-0.06866455078125,-0.2242584228515625,-0.97265625,0.0049894321709871,0.0096092177554965,-0.0058243330568075
1770452353082,-0.0689239501953125,-0.230010986328125,-0.96826171875,0.0076422072015702,0.0121179157868027,-0.0145485829561948
1770452353092,-0.0720367431640625,-0.2344207763671875,-0.96630859375,-0.0021321268286556,0.011420433409512,-0.0086858998984098
1770452353102,-0.0652008056640625,-0.2389068603515625,-0.9599456787109376,-0.0174666084349155,0.0215052925050258,-0.0043606599792838
1770452353112,-0.0681915283203125,-0.240509033203125,-0.954345703125,-0.0272489320486783,0.0441038124263286,0.0059931776486337
1770452353122,-0.065399169921875,-0.2382659912109375,-0.956573486328125,-0.0358645245432853,0.0602478943765163,0.0068043763749301
1770452353132,-0.0669097900390625,-0.2345428466796875,-0.9603118896484376,-0.0380142256617546,0.074714720249176,0.0028226843569427
1770452353142,-0.0700225830078125,-0.2286376953125,-0.9675140380859376,-0.0286175291985273,0.0935967937111854,0.0003030677326023
1770452353152,-0.0711212158203125,-0.2297821044921875,-0.97772216796875,-0.0148210236802697,0.0780575200915336,0.0021528995130211
1770452353163,-0.067138671875,-0.236846923828125,-0.9819488525390624,-0.0038464034441858,0.0502578429877758,-0.0005001416429877
1770452353172,-0.0709075927734375,-0.2344818115234375,-0.9808807373046876,0.0057087522000074,0.0225311424583196,-0.0063524381257593
1770452353182,-0.070770263671875,-0.2298431396484375,-0.9857177734375,0.0184636954218149,-0.0013121394440531,-0.0083676520735025
1770452353192,-0.0694732666015625,-0.232208251953125,-0.982269287109375,0.0191047191619873,-0.011887552216649,-0.0153975980356335
1770452353202,-0.0772705078125,-0.2386627197265625,-0.963897705078125,0.0106571717187762,0.0042717102915048,-0.0183409247547388
1770452353212,-0.070220947265625,-0.239776611328125,-0.9582061767578124,-0.0006852313526906,0.0156276952475309,-0.0167994871735572
1770452353222,-0.062164306640625,-0.2377166748046875,-0.9525146484375,-0.0189475920051336,0.0270744934678077,-0.0203928891569376
1770452353232,-0.06512451171875,-0.23553466796875,-0.94757080078125,-0.0331507623195648,0.0401487499475479,-0.0209263209253549
1770452353242,-0.065826416015625,-0.235931396484375,-0.9504852294921876,-0.0492301285266876,0.0398864299058914,-0.0192293543368577
1770452353253,-0.0648345947265625,-0.229248046875,-0.9511260986328124,-0.0507145747542381,0.0521777160465717,-0.0189649034291505
1770452353262,-0.065582275390625,-0.2255706787109375,-0.9589080810546876,-0.0429932735860347,0.050166230648756,-0.0216946434229612
1770452353273,-0.064971923828125,-0.230499267578125,-0.9737396240234376,-0.0350956693291664,0.0382864028215408,-0.0157155804336071
1770452353283,-0.0567169189453125,-0.2303924560546875,-0.975555419921875,-0.0253074876964092,0.0256497040390968,-0.0234592538326978
1770452353293,-0.0617218017578125,-0.23138427734375,-0.97686767578125,-0.0178935136646032,0.0232379436492919,-0.0243649948388338
1770452353303,-0.058135986328125,-0.2352447509765625,-0.9770050048828124,-0.0104941865429282,0.0129775842651724,-0.021874938160181
1770452353313,-0.056640625,-0.2374267578125,-0.976318359375,-0.0129003524780273,0.0122777055948972,-0.0178146827965974
1770452353323,-0.0605926513671875,-0.2367401123046875,-0.967315673828125,-0.0216544289141893,0.0281493458896875,-0.0194951388984918
1770452353333,-0.06268310546875,-0.233367919921875,-0.96112060546875,-0.0239684488624334,0.034360371530056,-0.0168644674122333
1770452353343,-0.05963134765625,-0.235443115234375,-0.9660491943359376,-0.0352951399981975,0.0339270755648613,-0.0121205784380435
1770452353353,-0.0588836669921875,-0.2336273193359375,-0.9627227783203124,-0.0377106256783008,0.0403077416121959,-0.0122252404689788
1770452353363,-0.0599365234375,-0.2346649169921875,-0.967193603515625,-0.0385878719389438,0.0315091907978057,-0.008992962539196
1770452353373,-0.0599822998046875,-0.233428955078125,-0.9678497314453124,-0.035714853554964,0.0244699232280254,-0.0095346495509147
1770452353383,-0.063812255859375,-0.228302001953125,-0.9714202880859376,-0.0372432433068752,0.0063180834986269,-0.0120843593031167
1770452353393,-0.0623016357421875,-0.2309112548828125,-0.966461181640625,-0.0368022210896015,0.0011976235546171,-0.0046882289461791
1770452353403,-0.0541534423828125,-0.2315673828125,-0.9691314697265624,-0.027566647157073,0.0027233485598117,-0.0009632653673179
1770452353413,-0.0555419921875,-0.2288970947265625,-0.9767608642578124,-0.0151762897148728,-0.0008335694437846,0.0027087011840194
1770452353423,-0.0554046630859375,-0.230560302734375,-0.98260498046875,-0.0062272693030536,-0.003630687482655,0.0030570426024496
1770452353433,-0.05621337890625,-0.231201171875,-0.9767608642578124,-2.663161103555467e-05,0.0062491074204444,-0.0004338289436418
1770452353443,-0.0598602294921875,-0.231719970703125,-0.9720001220703124,0.0041231061331927,0.0103525063022971,-0.0026889936998486
1770452353453,-0.0571136474609375,-0.235687255859375,-0.9711456298828124,0.0036293559242039,0.0115807559341192,-0.0018389127217233
1770452353463,-0.0576629638671875,-0.2310333251953125,-0.970428466796875,0.0015608787070959,0.0116321546956896,-0.0004514057945925
1770452353473,-0.0616302490234375,-0.225128173828125,-0.9661865234375,-0.0025057683233171,0.0085330344736576,-0.0020407803822308
1770452353484,-0.0623779296875,-0.229888916015625,-0.9608154296875,-0.0107093695551157,0.0148513838648796,0.0012226572725921
1770452353494,-0.05731201171875,-0.231689453125,-0.956634521484375,-0.01726527325809,0.0145642952993512,-1.810949470382184e-05
1770452353504,-0.0598602294921875,-0.2314453125,-0.96014404296875,-0.0229961294680833,0.0108683602884411,-0.0045521412976086
1770452353514,-0.061004638671875,-0.2308502197265625,-0.9586944580078124,-0.0278606601059436,0.0096446378156542,-0.0073018549010157
1770452353524,-0.061431884765625,-0.2259979248046875,-0.961578369140625,-0.0298705473542213,0.0005150553770363,-0.0085530085489153
1770452353534,-0.059539794921875,-0.2291107177734375,-0.9680938720703124,-0.0312362164258956,-0.0087767131626605,-0.0069314092397689
1770452353544,-0.0566864013671875,-0.2314605712890625,-0.9709320068359376,-0.0331619493663311,-0.0038448055274784,-0.0044533377513289
1770452353554,-0.056549072265625,-0.232330322265625,-0.9680328369140624,-0.0335640870034694,0.0069074407219886,0.0004442152567207
1770452353564,-0.05010986328125,-0.2346038818359375,-0.96875,-0.035851739346981,0.0130122052505612,0.0038163098506629
1770452353574,-0.0570831298828125,-0.230926513671875,-0.9691619873046876,-0.0299869272857904,0.0120452111586928,0.0029457225464284
1770452353584,-0.0590057373046875,-0.2305145263671875,-0.9772796630859376,-0.0201494768261909,0.0020983046852052,0.0067979851737618
1770452353594,-0.055145263671875,-0.2321624755859375,-0.9804840087890624,-0.0099983057007193,-0.002871686592698,0.0055731972679495
1770452353604,-0.05706787109375,-0.228790283203125,-0.977569580078125,-0.0066818711347877,-0.0027531760279089,0.0065929214470088
1770452353614,-0.056396484375,-0.2305755615234375,-0.971343994140625,-0.0068352692760527,0.0082629900425672,0.0096755307167768
1770452353624,-0.0572967529296875,-0.227752685546875,-0.965972900390625,-0.0071788169443607,0.0137019632384181,0.0075825522653758
1770452353634,-0.06024169921875,-0.2296295166015625,-0.9683685302734376,-0.0054621435701847,0.0122177843004465,0.00734952557832
1770452353644,-0.0590362548828125,-0.2275848388671875,-0.970367431640625,-0.0030224213842302,0.0001275654212804,-2.5566347176209092e-05
1770452353654,-0.0692596435546875,-0.2214813232421875,-0.9708251953125,-0.0107706226408481,-0.0027188211679458,-0.0050102048553526
1770452353664,-0.065032958984375,-0.2284088134765625,-0.9637603759765624,-0.0176615510135889,-0.0021505025215446,0.0031686290167272
1770452353674,-0.0526275634765625,-0.2371368408203125,-0.9641571044921876,-0.0252313204109668,0.0005427522119134,0.0132063496857881
1770452353684,-0.0520477294921875,-0.2355499267578125,-0.9658966064453124,-0.0257660839706659,0.0116302911192178,0.0155414091423153
1770452353695,-0.056488037109375,-0.22760009765625,-0.96734619140625,-0.0343550443649292,0.015117167495191,0.0145480502396821
1770452353705,-0.0555267333984375,-0.2327117919921875,-0.96826171875,-0.0323329046368598,0.0062341936863958,0.0276590585708618
1770452353715,-0.0504608154296875,-0.2316741943359375,-0.9735565185546876,-0.0257034990936517,0.0072959959506988,0.0153746949508786
1770452353725,-0.06890869140625,-0.208221435546875,-0.9796600341796876,-0.0045281727798283,0.0036882117856293,-0.0014053500490263
1770452353735,-0.072998046875,-0.214508056640625,-0.983642578125,0.0058219362981617,0.0019678096286952,-0.0099668800830841
1770452353745,-0.0582427978515625,-0.236297607421875,-0.9773406982421876,0.0019164107507094,-0.0027726169209927,-0.0031712921336293
1770452353755,-0.049835205078125,-0.244293212890625,-0.9700775146484376,0.0016466324450448,0.0058198058977723,0.0062256716191768
1770452353765,-0.0513763427734375,-0.233123779296875,-0.977142333984375,0.0102153532207012,0.0060280649922788,0.0043537355959415
1770452353775,-0.05908203125,-0.2247772216796875,-0.9777984619140624,0.0108806109055876,0.010413758456707,0.0026112294290214
1770452353785,-0.0584869384765625,-0.222198486328125,-0.9643707275390624,0.0103474464267492,0.0134713342413306,0.00304292794317
1770452353795,-0.0528717041015625,-0.225555419921875,-0.9639434814453124,0.0059468387626111,0.0099056279286742,-0.0023385216481983
1770452353805,-0.0601654052734375,-0.2274169921875,-0.9607391357421876,-0.0036503949668258,0.0121437478810548,-0.0017033577896654
1770452353815,-0.0573272705078125,-0.2296142578125,-0.961090087890625,-0.0145227499306201,0.008780974894762,0.0071681644767522
1770452353825,-0.053314208984375,-0.2321624755859375,-0.956329345703125,-0.0258419830352067,0.023798806592822,0.0158503353595733
1770452353835,-0.0520782470703125,-0.22613525390625,-0.95916748046875,-0.0349119119346141,0.0380046404898166,0.0163004100322723
1770452353845,-0.0556793212890625,-0.2233734130859375,-0.9613037109375,-0.036596093326807,0.0396992079913616,0.0145525773987174
1770452353855,-0.05499267578125,-0.2236785888671875,-0.9664764404296876,-0.0333837904036045,0.0263626314699649,0.0128654651343822
1770452353865,-0.0585174560546875,-0.22454833984375,-0.9747467041015624,-0.0252584852278232,0.0178655497729778,0.0127618676051497
1770452353875,-0.0616912841796875,-0.2227630615234375,-0.979583740234375,-0.0156322233378887,0.01117595564574,0.009825199842453
1770452353885,-0.0615081787109375,-0.226654052734375,-0.9789581298828124,-0.0072363414801657,0.0042290999554097,0.0095098819583654
1770452353895,-0.0577545166015625,-0.228057861328125,-0.9776153564453124,-0.0036352148745208,0.000981907476671,0.010963968001306
1770452353906,-0.0587310791015625,-0.2300262451171875,-0.97589111328125,-0.0124827688559889,-0.0011992214713245,0.0028477180749177
1770452353915,-0.0675506591796875,-0.2303466796875,-0.961517333984375,-0.0123022058978676,0.0035918052308261,0.0023355921730399
1770452353926,-0.0518646240234375,-0.228424072265625,-0.967987060546875,-0.0067713535390794,0.0124052707105875,0.0108031127601861
1770452353936,-0.0566864013671875,-0.2312164306640625,-0.971588134765625,-0.0220823995769023,-0.0170807167887687,0.0002047970920102
1770452353946,-0.0739898681640625,-0.2181396484375,-0.9578399658203124,-0.0245375670492649,-0.0140076950192451,0.0004490089486353
1770452353956,-0.06048583984375,-0.225860595703125,-0.967864990234375,-0.0311225000768899,-0.029234318062663,0.0007547398563474
1770452353966,-0.0576324462890625,-0.2178192138671875,-0.963653564453125,-0.0310641750693321,-0.0138447089120745,-0.0043622576631605
1770452353976,-0.0587005615234375,-0.22265625,-0.964385986328125,-0.0249122735112905,-0.0080198431387543,-0.0052160671912133
1770452353986,-0.051177978515625,-0.2287139892578125,-0.9725799560546876,-0.0190304163843393,-0.0152244931086897,-0.0050988881848752
1770452353996,-0.0499725341796875,-0.2252349853515625,-0.9722137451171876,-0.0140247391536831,-0.014339524321258,-0.0120627880096435
1770452354006,-0.057952880859375,-0.22503662109375,-0.9735107421875,-0.0099921803921461,-0.0182655565440654,-0.0136798592284321
1770452354016,-0.0573272705078125,-0.22430419921875,-0.9702911376953124,-0.0068312743678689,-0.0109336078166961,-0.0066682891920208
1770452354026,-0.0514373779296875,-0.2277374267578125,-0.9717559814453124,-0.0115589182823896,-0.0117296269163489,0.0008130630594678
1770452354036,-0.0551300048828125,-0.2268218994140625,-0.9650421142578124,-0.0178234726190567,-0.0025148231070488,0.0057170079089701
1770452354046,-0.0519561767578125,-0.2231597900390625,-0.96624755859375,-0.0206131339073181,-0.0092251896858215,0.0124031398445367
1770452354056,-0.0517120361328125,-0.228118896484375,-0.9728851318359376,-0.0205012802034616,-0.0210333801805973,0.012852681800723
1770452354066,-0.0601043701171875,-0.2229766845703125,-0.9697113037109376,-0.0196179095655679,-0.019727099686861,0.0130092753097414
1770452354076,-0.0604095458984375,-0.22357177734375,-0.971435546875,-0.0235809590667486,-0.0138487042859196,0.0122974123805761
1770452354086,-0.0590667724609375,-0.2241973876953125,-0.9630279541015624,-0.0251479633152484,0.0051654670387506,0.0118164457380771
1770452354096,-0.05902099609375,-0.2230682373046875,-0.967376708984375,-0.0239607263356447,0.0041260356083512,0.0052360408008098
1770452354107,-0.0605621337890625,-0.2232666015625,-0.9712066650390624,-0.0239396877586841,-0.0081822965294122,0.0030048445332795
1770452354116,-0.0632781982421875,-0.2198944091796875,-0.973358154296875,-0.019653595983982,-0.0182479787617921,0.0013832458062097
1770452354127,-0.0650634765625,-0.222381591796875,-0.973419189453125,-0.0177771318703889,-0.0306282173842191,0.0045425537973642
1770452354137,-0.065185546875,-0.2217559814453125,-0.9761810302734376,-0.0101623563095927,-0.043442815542221,0.0027033747173845
1770452354147,-0.0624542236328125,-0.2214508056640625,-0.97833251953125,-0.0047963531687855,-0.0525217987596988,-0.0022543659433722
1770452354157,-0.064239501953125,-0.2232666015625,-0.977020263671875,0.0006996124284341,-0.0534954480826854,-0.0029097697697579
1770452354167,-0.0604248046875,-0.225006103515625,-0.9781951904296876,0.0076773609034717,-0.0501968562602996,0.0029142971616238
1770452354177,-0.05859375,-0.2236175537109375,-0.9756011962890624,0.0067455205135047,-0.0464287512004375,0.0034402713645249
1770452354187,-0.058258056640625,-0.2232513427734375,-0.9691314697265624,0.007013700902462,-0.0359404236078262,0.0028557076584547
1770452354197,-0.0574951171875,-0.2233734130859375,-0.970428466796875,0.0077367490157485,-0.0330000258982181,0.0029771476984024
1770452354207,-0.0603179931640625,-0.223968505859375,-0.970428466796875,0.0128974225372076,-0.0289304517209529,0.0034922030754387
1770452354217,-0.0621490478515625,-0.223663330078125,-0.9734344482421876,0.0173441022634506,-0.0380893275141716,0.0070472569204866
1770452354227,-0.0618743896484375,-0.2247161865234375,-0.97509765625,0.0250014904886484,-0.0403074771165847,0.0061026336625218
1770452354237,-0.0645294189453125,-0.221710205078125,-0.97943115234375,0.0306391362100839,-0.0553548671305179,0.0031939290929585
1770452354247,-0.06610107421875,-0.21978759765625,-0.979644775390625,0.0369146093726158,-0.0738390684127807,0.0015670040156692
1770452354257,-0.06732177734375,-0.2246551513671875,-0.9787139892578124,0.0401311740279197,-0.0989098027348518,0.0011385013349354
1770452354267,-0.0705413818359375,-0.2252655029296875,-0.9728851318359376,0.0440617352724075,-0.0992251187562942,-0.0007020092452876
1770452354277,-0.0701904296875,-0.2281646728515625,-0.9723663330078124,0.0458969175815582,-0.0845790654420852,0.0004540689697023
1770452354288,-0.06536865234375,-0.2299346923828125,-0.972930908203125,0.0451024957001209,-0.0591858252882957,0.0020719394087791
1770452354297,-0.0657196044921875,-0.2283782958984375,-0.9717864990234376,0.053309828042984,-0.0514767728745937,0.0012423646403476
1770452354307,-0.065093994140625,-0.227386474609375,-0.9795684814453124,0.0599434934556484,-0.0743301585316658,0.0042251050472259
1770452354318,-0.068634033203125,-0.230560302734375,-0.9786376953125,0.0643241256475448,-0.0911168605089187,0.0051303133368492
1770452354327,-0.0714569091796875,-0.2305450439453125,-0.9759521484375,0.0725322589278221,-0.1059828922152519,0.0032517197541892
1770452354338,-0.0746307373046875,-0.2261810302734375,-0.9744873046875,0.0773128941655159,-0.1080042272806167,0.0063428506255149
1770452354348,-0.0720062255859375,-0.226715087890625,-0.9717864990234376,0.0801323875784874,-0.1042289361357688,0.0072224927134811
1770452354358,-0.0740203857421875,-0.2292327880859375,-0.967681884765625,0.0772047713398933,-0.0954450294375419,0.0052536176517605
1770452354368,-0.0759124755859375,-0.232452392578125,-0.9629669189453124,0.0637057423591613,-0.0744553282856941,0.0007414240390062
1770452354378,-0.0735626220703125,-0.232330322265625,-0.950592041015625,0.0548003986477851,-0.0387183688580989,0.0016740630380809
1770452354388,-0.0687408447265625,-0.2352447509765625,-0.9558868408203124,0.0491350553929805,-0.0282476171851158,0.005413407459855
1770452354398,-0.0758209228515625,-0.2373809814453125,-0.96527099609375,0.052803561091423,-0.0497758127748966,0.0102912532165646
1770452354408,-0.0777587890625,-0.2345123291015625,-0.973175048828125,0.0737447962164878,-0.0741605162620544,0.0144798727706074
1770452354418,-0.081329345703125,-0.2262115478515625,-0.9871063232421876,0.0847135558724403,-0.1083882600069046,0.0051809134893119
1770452354428,-0.0901336669921875,-0.2350616455078125,-0.983245849609375,0.099725529551506,-0.1150405704975128,0.0048778457567095
1770452354438,-0.0844879150390625,-0.24151611328125,-0.981689453125,0.1098362207412719,-0.1270167976617813,-0.0005198490689508
1770452354448,-0.0915374755859375,-0.2248077392578125,-0.971771240234375,0.1133686378598213,-0.1121278703212738,-0.0184628963470459
1770452354458,-0.09478759765625,-0.234100341796875,-0.9628143310546876,0.1112117394804954,-0.0740428045392036,-0.0268055144697427
1770452354468,-0.08331298828125,-0.2515411376953125,-0.957366943359375,0.0863476693630218,-0.0577173568308353,-0.022349514067173
1770452354478,-0.07330322265625,-0.258880615234375,-0.943511962890625,0.0578899309039115,-0.0288731940090656,-0.0063263392075896
1770452354488,-0.069000244140625,-0.2457733154296875,-0.9438018798828124,0.0388469994068145,-0.0233071874827146,-0.0092377066612243
1770452354498,-0.0900726318359375,-0.232940673828125,-0.9403533935546876,0.0254318565130233,-0.0160346273332834,-0.010022540576756
1770452354508,-0.0909423828125,-0.226318359375,-0.9385223388671876,0.0186999179422855,-0.0181403886526823,-0.0167022813111543
1770452354518,-0.09027099609375,-0.2340087890625,-0.946502685546875,0.0102305328473448,-0.0234632473438978,-0.0135336518287658
1770452354529,-0.0811004638671875,-0.2419281005859375,-0.949432373046875,-0.0050280480645596,0.0045183189213275,-0.0038685076870024
1770452354539,-0.071563720703125,-0.2454681396484375,-0.9502716064453124,-0.0144982486963272,0.0147722885012626,0.0041476069018244
1770452354549,-0.077728271484375,-0.2421112060546875,-0.95635986328125,-0.0228129047900438,0.007653126027435,0.0128345722332596
1770452354559,-0.078643798828125,-0.2426300048828125,-0.9603424072265624,-0.0330117456614971,0.0091029508039355,0.0178724732249975
1770452354569,-0.0795135498046875,-0.2432098388671875,-0.9569854736328124,-0.0442572087049484,0.0181955154985189,0.0191116426140069
1770452354579,-0.081695556640625,-0.23907470703125,-0.9541015625,-0.0428422726690769,0.0315043963491916,0.0203976836055517
1770452354589,-0.0853118896484375,-0.241851806640625,-0.96319580078125,-0.039497073739767,0.0190783534198999,0.0178314615041017
1770452354599,-0.08990478515625,-0.2429962158203125,-0.9710845947265624,-0.0307360738515853,0.0126646626740694,0.0182351972907781
1770452354609,-0.0879364013671875,-0.2404632568359375,-0.98052978515625,-0.0191497262567281,-0.0071591096930205,0.0167440921068191
1770452354619,-0.0924835205078125,-0.2385101318359375,-0.9813232421875,0.0031923311762511,-0.0113447997719049,0.0189462602138519
1770452354629,-0.0949249267578125,-0.2383270263671875,-0.9915313720703124,0.0228275507688522,-0.0294103529304265,0.0170948300510644
1770452354639,-0.092529296875,-0.2438201904296875,-0.98638916015625,0.0295717399567365,-0.0321542061865329,0.0145994490012526
1770452354649,-0.0885467529296875,-0.2482452392578125,-0.9698486328125,0.0198962092399597,-0.0173915065824985,0.0106145609170198
1770452354659,-0.086669921875,-0.2461395263671875,-0.95465087890625,0.0096057560294866,0.0044884914532303,0.005584648810327
1770452354669,-0.0872802734375,-0.24456787109375,-0.95343017578125,-0.0049066077917814,0.0045417547225952,0.002125735161826
1770452354681,-0.0924072265625,-0.23974609375,-0.949798583984375,-0.0168636683374643,0.0005688511882908,0.0020852552261203
1770452354689,-0.0970001220703125,-0.234344482421875,-0.9493560791015624,-0.0142337968572974,0.0005994775565341,0.0021675468888133
1770452354701,-0.0976715087890625,-0.2376251220703125,-0.9655609130859376,-0.0135981002822518,-0.0178532991558313,0.0085801724344491
1770452354709,-0.081146240234375,-0.2386627197265625,-0.964813232421875,-0.0182080324739217,0.0018152105621993,0.0098635498434305
1770452354719,-0.0788421630859375,-0.242034912109375,-0.9599456787109376,-0.0111911352723836,0.0073441993445158,0.0059487028047442
1770452354729,-0.0811614990234375,-0.2426605224609375,-0.9703826904296876,-0.0111280186101794,0.0259692817926406,0.0140324616804718
1770452354740,-0.0699615478515625,-0.2447357177734375,-0.9651031494140624,-0.0078027956187725,0.0364978238940238,0.0194306895136833
1770452354750,-0.0781707763671875,-0.2469940185546875,-0.9682159423828124,-0.0056861150078475,0.0169193278998136,0.0174876470118761
1770452354759,-0.0892791748046875,-0.2425079345703125,-0.9698333740234376,-0.0058744004927575,-0.0180780701339244,0.0174117479473352
1770452354770,-0.0956878662109375,-0.238189697265625,-0.96807861328125,-0.0101786013692617,-0.0096134785562753,0.024493359029293
1770452354780,-0.08941650390625,-0.2396697998046875,-0.9611358642578124,-0.0014639396686106,0.0050549460574984,0.0283911619335412
1770452354790,-0.086639404296875,-0.24188232421875,-0.968292236328125,0.0017563547007739,-0.0008562062866985,0.0305240862071514
1770452354800,-0.0882415771484375,-0.242523193359375,-0.9733428955078124,0.0053636063821613,0.0093671362847089,0.0262758117169141
1770452354810,-0.0872955322265625,-0.243865966796875,-0.969970703125,0.0024719461798667,0.0113565176725387,0.0227330084890127
1770452354820,-0.090087890625,-0.242584228515625,-0.9646759033203124,-0.0054331147111952,0.0229149032384157,0.0199529360979795
1770452354830,-0.0918731689453125,-0.24176025390625,-0.957275390625,-0.014632205478847,0.0236507337540388,0.0158498026430606
1770452354840,-0.092529296875,-0.2416229248046875,-0.9528045654296876,-0.0272651761770248,0.0248462278395891,0.0133032882586121
1770452354850,-0.09051513671875,-0.239471435546875,-0.952911376953125,-0.0398952178657054,0.0251924376934766,0.0123224463313817
1770452354860,-0.0930023193359375,-0.23675537109375,-0.949249267578125,-0.0563506223261356,0.0139024993404746,0.0067135626450181
1770452354870,-0.0974273681640625,-0.2346649169921875,-0.949432373046875,-0.0647720694541931,0.0215226020663976,0.0070086410269141
1770452354880,-0.0944061279296875,-0.2354736328125,-0.9546966552734376,-0.0604281909763813,0.0281964838504791,0.0058192731812596
1770452354890,-0.090179443359375,-0.2379302978515625,-0.96600341796875,-0.0513934157788753,0.0007819040911272,0.0008815063047222
1770452354900,-0.09112548828125,-0.2357940673828125,-0.977386474609375,-0.0469475351274013,0.006286924239248,-0.002315352205187
1770452354911,-0.0887908935546875,-0.235931396484375,-0.9749298095703124,-0.0331931076943874,-0.0117573235183954,-0.003646400058642
1770452354920,-0.0864715576171875,-0.2396087646484375,-0.972076416015625,-0.0247926972806453,0.0015092133544385,-0.0021209414117038
1770452354930,-0.0835113525390625,-0.2422332763671875,-0.9680023193359376,-0.0238459445536136,0.0224227514117956,0.0012490225490182
1770452354941,-0.0861663818359375,-0.2360687255859375,-0.96197509765625,-0.0300018414855003,0.0201002079993486,0.0010314423125237
1770452354951,-0.0883026123046875,-0.23785400390625,-0.962493896484375,-0.0322349034249782,0.016597619280219,0.0044677192345261
1770452354960,-0.089080810546875,-0.2368621826171875,-0.9650115966796876,-0.0365353748202323,0.0170226600021123,0.0072621740400791
1770452354970,-0.0867767333984375,-0.2384033203125,-0.962554931640625,-0.0397418215870857,0.0286843758076429,0.0088049434125423
1770452354981,-0.0880889892578125,-0.238189697265625,-0.9609375,-0.0431040599942207,0.0366008877754211,0.0057521616108715
1770452354991,-0.0886688232421875,-0.2343597412109375,-0.964813232421875,-0.0420108325779438,0.0241016075015068,0.002036252990365
1770452355001,-0.090667724609375,-0.2340545654296875,-0.96673583984375,-0.0444433651864528,0.0176865849643945,-0.0007382282637991
1770452355011,-0.092803955078125,-0.2328643798828125,-0.9622802734375,-0.0511987395584583,0.0217015668749809,-0.0068903965875506
1770452355021,-0.092864990234375,-0.231109619140625,-0.9596099853515624,-0.0521524176001548,0.0316679142415523,-0.0035678369458764
1770452355031,-0.08197021484375,-0.2353363037109375,-0.967529296875,-0.0464841462671756,0.0315478071570396,0.0029710223898291
1770452355041,-0.0792083740234375,-0.2358245849609375,-0.9726715087890624,-0.0404859073460102,0.0227905325591564,-0.0011070760665461
1770452355051,-0.087677001953125,-0.235198974609375,-0.9744873046875,-0.0302481837570667,0.0046876962296664,-0.004269313532859
1770452355061,-0.08636474609375,-0.2344970703125,-0.9777069091796876,-0.0191808845847845,-0.0062443139031529,-0.0043188482522964
1770452355072,-0.0831756591796875,-0.237518310546875,-0.9781646728515624,-0.0107352025806903,0.0111029846593737,-0.0023206786718219
1770452355081,-0.0841217041015625,-0.2347259521484375,-0.9729156494140624,-0.0027425233274698,0.006924485322088,-0.0019379822770133
1770452355091,-0.085784912109375,-0.2312469482421875,-0.9783172607421876,0.0004114583716727,-0.0064653563313186,-0.0054831821471452
1770452355101,-0.087615966796875,-0.237091064453125,-0.9725189208984376,-0.0036570527590811,-0.0140811977908015,-0.0015968313673511
1770452355111,-0.085296630859375,-0.2393951416015625,-0.9685821533203124,-0.0097828563302755,0.0143997119739651,-0.0014602112350985
1770452355121,-0.0889739990234375,-0.237060546875,-0.9659576416015624,-0.0072746905498206,0.0350288227200508,0.00183278741315
1770452355131,-0.086090087890625,-0.2394256591796875,-0.963043212890625,-0.0034930021502077,0.0259599611163139,-0.0040559940971434
1770452355141,-0.0890655517578125,-0.228973388671875,-0.9696502685546876,-0.0103863282129168,0.0213849171996116,-0.0137067576870322
1770452355151,-0.0944976806640625,-0.2346038818359375,-0.971527099609375,-0.0148532483726739,0.0016852483386173,-0.0066946544684469
1770452355162,-0.082733154296875,-0.2270355224609375,-0.9646148681640624,-0.0166175924241542,0.0098997689783573,-0.0161611270159482
1770452355171,-0.095672607421875,-0.22021484375,-0.9608917236328124,-0.0111000556498765,0.0330655425786972,-0.0286542810499668
1770452355181,-0.0895843505859375,-0.2321624755859375,-0.9634857177734376,-0.0122750420123338,0.0334647484123706,-0.031882032752037
1770452355192,-0.0778961181640625,-0.2464599609375,-0.9596710205078124,-0.0200815666466951,0.0205569397658109,-0.0242267753928899
1770452355202,-0.075347900390625,-0.2416534423828125,-0.960205078125,-0.02418096922338,0.0151712298393249,-0.0242403578013181
1770452355212,-0.0841217041015625,-0.2294769287109375,-0.9656219482421876,-0.0185481179505586,0.0093599455431103,-0.0241570007055997
1770452355222,-0.083251953125,-0.2249298095703125,-0.9649200439453124,-0.0166306421160697,0.0146316736936569,-0.0235801599919796
1770452355232,-0.07769775390625,-0.226837158203125,-0.9626617431640624,-0.0172873772680759,0.018950255587697,-0.0246776491403579
1770452355242,-0.0800628662109375,-0.2276611328125,-0.9668426513671876,-0.011994345113635,0.0117322895675897,-0.033604297786951
1770452355252,-0.0848541259765625,-0.2344512939453125,-0.9740753173828124,-0.0145118311047554,-0.0082342280074954,-0.0210797190666198
1770452355262,-0.0771636962890625,-0.237701416015625,-0.9709320068359376,-0.0155749646946787,-0.0069188922643661,-0.016839699819684
1770452355272,-0.0808868408203125,-0.234222412109375,-0.9702911376953124,-0.01143747754395,0.015981363132596,-0.0172397065907716
1770452355282,-0.0825958251953125,-0.2283782958984375,-0.97418212890625,-0.0032945964485406,0.0302348677068948,-0.0207697264850139
1770452355292,-0.084442138671875,-0.2258148193359375,-0.973846435546875,0.0058805258013308,0.0188088417053222,-0.0247373040765523
1770452355302,-0.0829010009765625,-0.2328643798828125,-0.9746246337890624,0.0145810730755329,0.008666724897921,-0.0230824165046215
1770452355312,-0.082489013671875,-0.2315673828125,-0.978424072265625,0.0207899659872055,-0.0025792715605348,-0.0243253130465745
1770452355323,-0.08099365234375,-0.2357635498046875,-0.9731292724609376,0.0139989061281085,-0.0057449708692729,-0.0171241257339715
1770452355332,-0.076812744140625,-0.237884521484375,-0.9626922607421876,0.005633118096739,0.0148180946707725,-0.0151917356997728
1770452355342,-0.0798492431640625,-0.237579345703125,-0.961212158203125,-0.0031931300181895,0.0194836854934692,-0.0120002040639519
1770452355352,-0.0791015625,-0.2354736328125,-0.9595794677734376,-0.0065207500010728,0.0139307295903563,-0.0115743642672896
1770452355362,-0.0809326171875,-0.2326507568359375,-0.965850830078125,-0.0074467309750616,-0.0052594766020774,-0.0127677265554666
1770452355372,-0.0839080810546875,-0.2320098876953125,-0.9668121337890624,-0.0108158960938453,-0.0168522167950868,-0.0135861160233616
1770452355382,-0.081329345703125,-0.230377197265625,-0.9637451171875,-0.0112031195312738,-0.0113093797117471,-0.0197377521544694
1770452355392,-0.085418701171875,-0.2304229736328125,-0.963775634765625,-0.0110156331211328,-0.010660633444786,-0.0196530632674694
1770452355402,-0.0836181640625,-0.2230224609375,-0.9636993408203124,-0.0068866680376231,-0.0043840957805514,-0.0238054636865854
1770452355413,-0.080780029296875,-0.2270965576171875,-0.9600830078125,-0.0084305023774504,0.0040245689451694,-0.0262880623340606
1770452355423,-0.080718994140625,-0.2316741943359375,-0.95916748046875,-0.0131666678935289,0.0112465294077992,-0.0320127941668033
1770452355433,-0.07928466796875,-0.232452392578125,-0.956298828125,-0.0216016992926597,0.0281160566955804,-0.0348791554570198
1770452355443,-0.0744171142578125,-0.233612060546875,-0.95758056640625,-0.0276747699826955,0.036584910005331,-0.0371012948453426
1770452355453,-0.074371337890625,-0.233123779296875,-0.958953857421875,-0.0391007959842681,0.0272185709327459,-0.0376677513122558
1770452355463,-0.0789031982421875,-0.2324371337890625,-0.956207275390625,-0.051318846642971,0.0234778951853513,-0.0349060520529747
1770452355473,-0.078887939453125,-0.2313995361328125,-0.9578399658203124,-0.0606404431164264,0.0347965955734252,-0.0299368593841791
1770452355483,-0.0771636962890625,-0.2305145263671875,-0.959442138671875,-0.0598500184714794,0.0323651283979415,-0.0296939797699451
1770452355493,-0.0819244384765625,-0.2272491455078125,-0.9701385498046876,-0.0577692911028862,0.0345664992928504,-0.0296857245266437
1770452355503,-0.0804443359375,-0.2244415283203125,-0.97515869140625,-0.0533327311277389,0.0218847915530204,-0.0277501381933689
1770452355513,-0.0781707763671875,-0.2298431396484375,-0.97442626953125,-0.0382081046700477,0.0012245214311406,-0.0270731635391712
1770452355523,-0.073455810546875,-0.2314910888671875,-0.982421875,-0.0273133795708417,-0.0056299227289855,-0.029095035046339
1770452355533,-0.0754241943359375,-0.228485107421875,-0.9816436767578124,-0.0162295699119567,-0.0001062601295416,-0.0283890310674905
1770452355543,-0.074310302734375,-0.2283477783203125,-0.9795989990234376,-0.0102166850119829,0.0062325960025191,-0.0292015615850687
1770452355553,-0.0785064697265625,-0.2318267822265625,-0.9762115478515624,-0.0106909936293959,0.0155203696340322,-0.0257471743971109
1770452355563,-0.075408935546875,-0.23004150390625,-0.9714202880859376,-0.0042669167742133,0.0233141109347343,-0.0226605720818042
1770452355573,-0.07281494140625,-0.2299652099609375,-0.98187255859375,0.0085463505238294,0.0036064526066184,-0.0249223932623863
1770452355583,-0.07586669921875,-0.2273101806640625,-0.98345947265625,0.0145853338763117,-0.0080664483830332,-0.022963372990489
1770452355593,-0.076446533203125,-0.2231903076171875,-0.9750213623046876,0.0183851327747106,-0.0035382758360356,-0.0207625366747379
1770452355603,-0.0731353759765625,-0.226226806640625,-0.96856689453125,0.0210288520902395,-0.0052118063904345,-0.0188258849084377
1770452355614,-0.0746002197265625,-0.225494384765625,-0.9718475341796876,0.0251189358532428,-0.0185329373925924,-0.0201255083084106
1770452355624,-0.0781402587890625,-0.224945068359375,-0.9731292724609376,0.0268276184797287,-0.0176756661385297,-0.0194983333349227
1770452355634,-0.0755157470703125,-0.2280426025390625,-0.9698028564453124,0.0254371836781501,-0.0081114564090967,-0.0127267139032483
1770452355644,-0.0675811767578125,-0.229644775390625,-0.966461181640625,0.02149916626513,0.0064203487709164,-0.0100252032279968
1770452355654,-0.071380615234375,-0.2326202392578125,-0.9634246826171876,0.0120286997407674,0.0148031804710626,-0.0134644098579883
1770452355664,-0.0757293701171875,-0.23077392578125,-0.9576416015625,0.0065766763873398,0.0293006300926208,-0.0139757366850972
1770452355674,-0.07305908203125,-0.229034423828125,-0.9593353271484376,-0.0026865969412028,0.02776132337749,-0.0138524323701858
1770452355684,-0.0763397216796875,-0.2298583984375,-0.9612579345703124,-0.0103269396349787,0.0174881797283887,-0.0168857723474502
1770452355694,-0.082061767578125,-0.2316741943359375,-0.95928955078125,-0.0237162485718727,0.0066845342516899,-0.0154071860015392
1770452355704,-0.0789337158203125,-0.231781005859375,-0.9574737548828124,-0.0293626822531223,0.0079162465408444,-0.011241203173995
1770452355714,-0.076324462890625,-0.2335052490234375,-0.961334228515625,-0.0257229395210742,0.011952799744904,-0.0129400333389639
1770452355724,-0.08050537109375,-0.2312774658203125,-0.9745635986328124,-0.0157653801143169,0.0051356400363147,-0.013276657089591
1770452355734,-0.0783843994140625,-0.2289276123046875,-0.980255126953125,-0.006182528566569,-0.0180013701319694,-0.0146676255390048
1770452355744,-0.080474853515625,-0.227874755859375,-0.975128173828125,0.0023257385473698,-0.0429312214255332,-0.0203308369964361
1770452355754,-0.0828094482421875,-0.225128173828125,-0.974365234375,0.0071311462670564,-0.0400582030415535,-0.0248182639479637
1770452355764,-0.0789947509765625,-0.2256927490234375,-0.9672393798828124,0.0062901200726628,-0.0113775571808218,-0.0285352375358343
1770452355774,-0.0758514404296875,-0.2283782958984375,-0.962890625,0.0098507665097713,0.0123309679329395,-0.0306380707770586
1770452355784,-0.079193115234375,-0.2314605712890625,-0.971221923828125,0.0113858124241232,-0.0115349497646093,-0.0367604121565818
1770452355794,-0.081695556640625,-0.2304534912109375,-0.9722747802734376,-0.0002735066518653,-0.0167717896401882,-0.0413535647094249
1770452355804,-0.0826263427734375,-0.2313995361328125,-0.9592132568359376,-0.0148439267650246,-0.006483731791377,-0.0399540737271308
1770452355814,-0.0780487060546875,-0.229583740234375,-0.9534454345703124,-0.0274135153740644,0.0010125337867066,-0.0327800512313842
1770452355825,-0.0721282958984375,-0.233154296875,-0.9563446044921876,-0.0325680635869503,0.0076328860595822,-0.0231798868626356
1770452355835,-0.070709228515625,-0.225494384765625,-0.9568939208984376,-0.03152996301651,0.0149741554632782,-0.0321640633046627
1770452355844,-0.0779266357421875,-0.2183837890625,-0.9678802490234376,-0.0206554774194955,0.004849350079894,-0.0269115082919597
1770452355856,-0.069671630859375,-0.232421875,-0.9800872802734376,-0.0145994490012526,-0.0241825673729181,-0.0160921514034271
1770452355865,-0.068084716796875,-0.2220306396484375,-0.9714508056640624,-0.0061622885987162,-0.0097333211451768,-0.017183780670166
1770452355875,-0.072906494140625,-0.227264404296875,-0.9759368896484376,-0.0011893677292391,0.0089761847630143,-0.0114579843357205
1770452355885,-0.0633392333984375,-0.2329559326171875,-0.975433349609375,0.0133882435038685,0.0128801120445132,-0.0041729072108864
1770452355895,-0.063720703125,-0.230804443359375,-0.9758148193359376,0.0290401726961135,0.0170069467276334,-0.0045944852754473
1770452355905,-0.070587158203125,-0.2283935546875,-0.9768829345703124,0.038571361452341,0.0007270429632626,-0.0040251016616821
1770452355915,-0.07403564453125,-0.2296600341796875,-0.9705657958984376,0.0343491844832897,-0.0014993597287684,-0.009803095832467
1770452355925,-0.0797271728515625,-0.223663330078125,-0.96002197265625,0.0251921713352203,0.019187543541193,-0.0198288317769765
1770452355935,-0.082672119140625,-0.2193450927734375,-0.950286865234375,0.0053175338543951,0.0369646772742271,-0.0267703607678413
1770452355945,-0.0824432373046875,-0.224273681640625,-0.944183349609375,-0.0090970918536186,0.0413652844727039,-0.0204458869993686
1770452355955,-0.0767364501953125,-0.229278564453125,-0.949462890625,-0.0243974849581718,0.0374331250786781,-0.020216055214405
1770452355965,-0.077911376953125,-0.230072021484375,-0.9532928466796876,-0.0371758639812469,0.0410832539200782,-0.0217937119305133
1770452355975,-0.0743255615234375,-0.223968505859375,-0.9538116455078124,-0.0417141579091548,0.0460806749761104,-0.023340743035078
1770452355985,-0.0710906982421875,-0.2229156494140625,-0.9595794677734376,-0.0381785444915294,0.0373202078044414,-0.0272087175399065
1770452355995,-0.074493408203125,-0.2221832275390625,-0.9661865234375,-0.0345848761498928,0.0240781717002391,-0.0246315766125917
1770452356005,-0.0722503662109375,-0.225341796875,-0.9669647216796876,-0.0339584983885288,0.0200413521379232,-0.01988928578794
1770452356015,-0.0710906982421875,-0.231689453125,-0.96368408203125,-0.033760093152523,0.0334125496447086,-0.0105426553636789
1770452356025,-0.065643310546875,-0.23223876953125,-0.9647979736328124,-0.0353611856698989,0.0354421474039554,9.00148443179205e-05
1770452356035,-0.06744384765625,-0.233795166015625,-0.9713134765625,-0.0301882624626159,0.0262379962950944,0.0025009745731949
1770452356046,-0.0723419189453125,-0.231109619140625,-0.9817657470703124,-0.0237383525818586,0.0109927300363779,0.0055241947993636
1770452356056,-0.0743865966796875,-0.2305145263671875,-0.983734130859375,-0.0056680059060454,0.005771336145699,0.0020772656425833
1770452356066,-0.072784423828125,-0.2268829345703125,-0.9893341064453124,0.0110910004004836,0.0042946133762598,-0.0024655545130372
1770452356076,-0.0762481689453125,-0.226409912109375,-0.9847564697265624,0.0223713517189025,-0.0022655511274933,-0.010483001358807
1770452356086,-0.0749053955078125,-0.22796630859375,-0.9801025390625,0.0191758256405591,-0.0135347172617912,-0.0179611574858427
1770452356096,-0.0761260986328125,-0.22869873046875,-0.96875,0.0046863644383847,-0.0110766198486089,-0.0185185559093952
1770452356106,-0.077117919921875,-0.2228240966796875,-0.94952392578125,-0.0048759817145764,0.0131056820973753,-0.0183822028338909
1770452356116,-0.075927734375,-0.2269287109375,-0.9516143798828124,-0.01887515373528,0.0168807134032249,-0.017591243609786
1770452356126,-0.0713958740234375,-0.2253875732421875,-0.9537200927734376,-0.0237170476466417,0.0350397415459156,-0.0176700744777917
1770452356136,-0.0678558349609375,-0.226348876953125,-0.9664306640625,-0.0211761258542537,0.0132652055472135,-0.0139685459434986
1770452356146,-0.070220947265625,-0.2277374267578125,-0.9784698486328124,-0.0125578697770833,0.0011480887187644,-0.013587181456387
1770452356156,-0.068359375,-0.2273712158203125,-0.9819793701171876,-0.0044240429997444,0.0035968653392046,-0.0032700954470783
1770452356166,-0.06109619140625,-0.2317657470703125,-0.97955322265625,0.0071556475013494,0.0139048965647816,0.0059870523400604
1770452356176,-0.060760498046875,-0.2360992431640625,-0.98162841796875,0.0204853005707263,0.0202181860804557,0.0128734540194273
1770452356186,-0.0607757568359375,-0.235595703125,-0.9874420166015624,0.0355478748679161,0.0194493308663368,0.0142790703102946
1770452356196,-0.066070556640625,-0.2370147705078125,-0.9875946044921876,0.0421394631266593,0.0069918632507324,0.0145411258563399
1770452356206,-0.0723876953125,-0.2348175048828125,-0.98004150390625,0.0388456657528877,-0.003098854329437,0.0141030354425311
1770452356216,-0.0755615234375,-0.231964111328125,-0.9689483642578124,0.0284596048295497,-0.0034400052390992,0.0114119118079543
1770452356226,-0.079376220703125,-0.230712890625,-0.9562835693359376,0.0138361873105168,0.0115900766104459,0.0103644905611872
1770452356236,-0.0793304443359375,-0.23162841796875,-0.9524383544921876,0.0021478394046425,0.0264819413423538,0.0053521548397839
1770452356246,-0.0789642333984375,-0.228607177734375,-0.9525299072265624,-0.0102268047630786,0.0324586071074008,-0.0034730283077806
1770452356257,-0.0805816650390625,-0.2273712158203125,-0.9545745849609376,-0.0157992038875818,0.028351480141282,-0.0064893243834376
1770452356267,-0.0755157470703125,-0.2261810302734375,-0.96142578125,-0.0183033738285303,0.0182919222861528,-0.0099586248397827
1770452356277,-0.073028564453125,-0.2252044677734375,-0.9651641845703124,-0.0140047650784254,0.0117517309263348,-0.0096297245472669
1770452356287,-0.0719757080078125,-0.2306671142578125,-0.9683380126953124,-0.0180330630391836,0.0049612028524279,-0.0056291236542165
1770452356297,-0.0675506591796875,-0.231170654296875,-0.965087890625,-0.0139927808195352,0.0106838028877973,-0.0009755159262567
1770452356307,-0.064788818359375,-0.2314300537109375,-0.9695892333984376,-0.0078256987035274,0.0175467692315578,0.0052184639498591
1770452356317,-0.05859375,-0.2336578369140625,-0.9733123779296876,0.0024770060554146,0.0136982351541519,0.0122771728783845
1770452356327,-0.0601348876953125,-0.232879638671875,-0.978729248046875,0.0083293030038475,-0.0025078987237066,0.0153957344591617
1770452356337,-0.067535400390625,-0.2326812744140625,-0.97418212890625,0.0090712588280439,0.0051207263022661,0.0193132441490888
1770452356347,-0.0673065185546875,-0.2310638427734375,-0.9694366455078124,0.0060107544995844,0.01697738468647,0.0253743324428796
1770452356357,-0.063079833984375,-0.233245849609375,-0.9638214111328124,0.0052437642589211,0.030966704711318,0.0274380166083574
1770452356367,-0.068145751953125,-0.230682373046875,-0.9688873291015624,0.0098963063210248,0.0310407392680645,0.0244864337146282
1770452356377,-0.0722198486328125,-0.229766845703125,-0.975341796875,0.0125749139115214,0.0214440394192934,0.0215031616389751
1770452356387,-0.0775299072265625,-0.2288055419921875,-0.9715728759765624,0.0204056724905967,0.0147025128826498,0.0161376912146806
1770452356397,-0.0770263671875,-0.22650146484375,-0.9758148193359376,0.0234198383986949,-0.002599777886644,0.0126446885988116
