timestamp_ms,acc_x,acc_y,acc_z,gyro_x,gyro_y,gyro_z
1768619731286,-0.058319091796875,-0.9939727783203124,0.0466461181640625,0.0678629353642463,0.0215052925050258,-0.0033587787766009
1768619731296,-0.0633087158203125,-0.99786376953125,0.0523681640625,0.0732928588986396,0.0144982486963272,-0.0097703393548727
1768619731306,-0.0623321533203125,-0.997894287109375,0.0592498779296875,0.0724672749638557,0.0060488376766443,-0.0139941126108169
1768619731316,-0.0565185546875,-0.99853515625,0.0649871826171875,0.0724672749638557,0.0060488376766443,-0.0139941126108169
1768619731327,-0.0521240234375,-0.9965362548828124,0.0693359375,0.0709668472409248,0.0035848810803145,-0.0117991352453827
1768619731336,-0.049652099609375,-0.9921875,0.0789031982421875,0.0375186130404472,0.0029491845052689,-0.0044602621346712
1768619731346,-0.0447998046875,-0.98846435546875,0.084320068359375,0.024281371384859,-0.0064757424406707,0.0053958306089043
1768619731356,-0.0412750244140625,-0.9855499267578124,0.0796661376953125,0.0084763094782829,0.0002639192680362,0.013506487943232
1768619731366,-0.0430450439453125,-0.9852142333984376,0.074676513671875,-0.0073306169360876,0.0040344228036701,0.0166167933493852
1768619731376,-0.049407958984375,-0.9879608154296876,0.0739898681640625,-0.0269804839044809,0.0074528562836349,0.0103594306856393
1768619731386,-0.0545806884765625,-0.9922943115234376,0.0786285400390625,-0.0483395680785179,0.0014112089993432,-0.0006836334359832
1768619731396,-0.0609130859375,-0.995941162109375,0.080841064453125,-0.0649214759469032,-0.0132745262235403,-0.0129695944488048
1768619731406,-0.0665435791015625,-1.0029296875,0.078948974609375,-0.0812756791710853,-0.0207228548824787,-0.0233729667961597
1768619731417,-0.0641021728515625,-1.001190185546875,0.077728271484375,-0.0844022333621978,-0.0343017801642417,-0.024474449455738
1768619731426,-0.0506134033203125,-0.9926605224609376,0.0659332275390625,-0.0709703117609024,-0.0376911871135234,-0.0293222032487392
1768619731437,-0.0568084716796875,-0.9995574951171876,0.0422515869140625,-0.0683761313557624,-0.0030522488523274,-0.0201731789857149
1768619731446,-0.0460968017578125,-0.995513916015625,0.041107177734375,-0.0622990615665912,0.0083295684307813,-0.008370847441256
1768619731457,-0.0429840087890625,-0.9878387451171876,0.0430908203125,-0.0558637976646423,0.0069812103174626,0.0010966897243633
1768619731467,-0.0449676513671875,-0.99200439453125,0.04742431640625,-0.0445608086884021,0.0026184199377894,0.004619519226253
1768619731477,-0.045745849609375,-0.9926910400390624,0.0451507568359375,-0.0335060283541679,0.0004761732125189,0.005600893869996
1768619731487,-0.0474853515625,-0.9912872314453124,0.043975830078125,-0.0206016805022954,-0.0040669133886694,0.0054972972720861
1768619731497,-0.0490570068359375,-0.992950439453125,0.0428466796875,-0.006458964664489,-0.0057851849123835,0.0038421424105763
1768619731507,-0.04962158203125,-0.9934844970703124,0.0390167236328125,0.0048778457567095,0.0024437166284769,0.0013819142477586
1768619731517,-0.051971435546875,-0.9958648681640624,0.0397796630859375,0.0166969541460275,0.007970574311912,-0.0005925533478148
1768619731527,-0.0538482666015625,-0.99639892578125,0.04144287109375,0.0226784143596887,0.0108361365273594,0.0020098877139389
1768619731537,-0.050018310546875,-0.9958953857421876,0.0489654541015625,0.0304071735590696,0.0057465690188109,0.0056807887740433
1768619731547,-0.048828125,-0.9949951171875,0.0497589111328125,0.0409679375588893,0.0013265205780044,0.0039348206482827
1768619731557,-0.0498199462890625,-0.996307373046875,0.049652099609375,0.0452588237822055,0.0043476102873682,0.0066349995322525
1768619731567,-0.04840087890625,-0.9932708740234376,0.0511322021484375,0.0487544909119606,0.0048616006970405,0.0099610211327672
1768619731577,-0.05267333984375,-0.991119384765625,0.054595947265625,0.0450963713228702,0.0094193341210484,0.008436094969511
1768619731589,-0.0518035888671875,-0.989227294921875,0.0579986572265625,0.0418164208531379,0.014158695936203,0.0087122647091746
1768619731597,-0.055084228515625,-0.9929656982421876,0.0602874755859375,0.0290473643690347,0.0245671290904283,0.004570250865072
1768619731608,-0.0568084716796875,-0.993988037109375,0.06793212890625,0.0132441660389304,0.0238829627633094,0.002184324664995
1768619731617,-0.055572509765625,-0.997039794921875,0.0745849609375,-0.0025984463281929,0.0140441795811057,-0.0030450583435595
1768619731627,-0.0540771484375,-1.00042724609375,0.079498291015625,-0.0157555267214775,0.0027686222456395,-0.0091508878394961
1768619731638,-0.0564117431640625,-1.0017547607421875,0.0813446044921875,-0.02899463288486,-0.0103650232776999,-0.0125024756416678
1768619731648,-0.05413818359375,-0.998992919921875,0.077301025390625,-0.0348493270576,-0.0192903410643339,-0.0129056787118315
1768619731658,-0.0517578125,-0.998687744140625,0.0688018798828125,-0.0493347942829132,-0.0129946283996105,-0.0137794613838195
1768619731668,-0.0522918701171875,-0.9958343505859376,0.0664215087890625,-0.0523063465952873,-0.0133991623297333,-0.0163360964506864
1768619731678,-0.0533905029296875,-0.989532470703125,0.05816650390625,-0.0533777363598346,-0.0050147324800491,-0.0091375717893242
1768619731688,-0.0467987060546875,-0.97998046875,0.0532379150390625,-0.0510815605521202,0.0018863170407712,0.0019491675775498
1768619731698,-0.0441436767578125,-0.96832275390625,0.050445556640625,-0.0412209406495094,0.0074991951696574,0.0195507984608411
1768619731708,-0.0403289794921875,-0.9796600341796876,0.04815673828125,-0.0357982106506824,0.0108646322041749,0.0173446349799633
1768619731718,-0.047027587890625,-0.99920654296875,0.0498809814453125,-0.0372320562601089,0.0144385937601327,0.0013129384024068
1768619731728,-0.0548095703125,-1.0108642578125,0.056915283203125,-0.0438324362039566,0.006844856776297,-0.0141661530360579
1768619731738,-0.059326171875,-1.0016937255859375,0.0629730224609375,-0.0407466292381286,-0.0038000645581632,-0.0103152217343449
1768619731748,-0.050323486328125,-0.9986572265625,0.060546875,-0.0274169761687517,-0.0262033753097057,-0.0165920257568359
1768619731758,-0.058380126953125,-1.0075225830078125,0.0516815185546875,-0.0186655633151531,-0.0214219354093074,-0.0137815922498703
1768619731768,-0.05487060546875,-0.99310302734375,0.048492431640625,-0.0117831565439701,-0.0170293170958757,-0.0080115878954529
1768619731778,-0.0513458251953125,-0.993194580078125,0.0472412109375,-0.003835484618321,-0.0117565244436264,-0.0057851849123835
1768619731788,-0.04779052734375,-0.99468994140625,0.047119140625,-0.0003781688574235,-0.0029790119733661,-0.0044501419179141
1768619731798,-0.0463104248046875,-0.991912841796875,0.04534912109375,0.010104832239449,0.0005581985460594,-0.0008607336785644
1768619731808,-0.0443572998046875,-0.9855804443359376,0.0416107177734375,0.0101961782202124,0.0153906745836138,0.0113109778612852
1768619731818,-0.0424346923828125,-0.9785919189453124,0.0467681884765625,0.0027417242527008,0.0194213688373565,0.0206624008715152
1768619731828,-0.0441741943359375,-0.9819793701171876,0.052032470703125,-0.0093924365937709,0.0166415609419345,0.0265860706567764
1768619731838,-0.0487060546875,-0.988067626953125,0.0585479736328125,-0.0209396369755268,0.0117871509864926,0.022325811907649
1768619731848,-0.05438232421875,-0.9954986572265624,0.0612640380859375,-0.0276670474559068,0.0010114685865119,0.0137315243482589
1768619731859,-0.0590057373046875,-1.0044403076171875,0.058319091796875,-0.0276859570294618,-0.0035124430432915,0.0049034119583666
1768619731869,-0.057220458984375,-1.0055389404296875,0.0529632568359375,-0.0290758591145277,-0.0014141384745016,0.0041236383840441
1768619731879,-0.05267333984375,-1.001678466796875,0.051361083984375,-0.030442327260971,-0.0032477248460054,0.0052679991349577
1768619731889,-0.050048828125,-0.9971771240234376,0.053009033203125,-0.025727467611432,-0.0112278871238231,0.0114169716835021
1768619731899,-0.0457000732421875,-0.9969329833984376,0.0483551025390625,-0.0142729450017213,-0.0100102899596095,0.0149613721296191
1768619731909,-0.0460357666015625,-0.9951629638671876,0.03997802734375,0.0034927357919514,0.0007470166892744,0.0202307030558586
1768619731919,-0.0473785400390625,-0.995086669921875,0.0325775146484375,0.0171829815953969,0.0231801532208919,0.0231599137187004
1768619731929,-0.0479583740234375,-0.9951629638671876,0.0360107421875,0.0221218131482601,0.0320002771914005,0.025136511772871
1768619731939,-0.050628662109375,-0.99383544921875,0.0478973388671875,0.0311989318579435,0.0223479159176349,0.0230469964444637
1768619731949,-0.0556793212890625,-0.9961395263671876,0.0536041259765625,0.0421490520238876,0.0102553004398942,0.016032762825489
1768619731959,-0.057373046875,-0.9991607666015624,0.054534912109375,0.050844270735979,0.0056887785904109,0.009303486905992
1768619731969,-0.0597686767578125,-1.000823974609375,0.0557098388671875,0.0472066588699817,0.0080528669059276,-0.0003976099542342
1768619731979,-0.06103515625,-0.9975738525390624,0.06109619140625,0.0346682332456111,0.0065335328690707,-0.0078731030225753
1768619731989,-0.061859130859375,-0.9957427978515624,0.0731658935546875,0.021927136927843,-0.0108915297314524,-0.0125418910756707
1768619731999,-0.0601806640625,-0.9964447021484376,0.073577880859375,0.0144644267857074,-0.0219622906297445,-0.0116108497604727
1768619732009,-0.0547332763671875,-0.99432373046875,0.0661468505859375,0.0092923017218709,-0.0174596831202507,-0.0075367456302046
1768619732019,-0.0482635498046875,-0.9908905029296876,0.0594940185546875,0.0079615199938416,-0.0087021449580788,-0.0033814155030995
1768619732029,-0.04913330078125,-0.99176025390625,0.05572509765625,-0.0033049827907234,0.0042405514977872,-0.0030583741609007
1768619732039,-0.0546722412109375,-0.9950408935546876,0.059539794921875,-0.0161709804087877,0.00778388697654,-0.0098590226843953
1768619732049,-0.05889892578125,-0.9980010986328124,0.0630950927734375,-0.0352389477193355,0.0132010234519839,-0.0122678512707352
1768619732059,-0.058380126953125,-0.9915771484375,0.0697479248046875,-0.0489885807037353,0.0009813748765736,-0.0145371314138174
1768619732070,-0.0586395263671875,-0.9969482421875,0.06854248046875,-0.0553993433713912,-0.0054336474277079,-0.0155382128432393
1768619732080,-0.0612640380859375,-0.9964599609375,0.063201904296875,-0.0542541854083538,-0.0051345746032893,-0.0133520243689417
1768619732090,-0.052825927734375,-0.987060546875,0.0563201904296875,-0.0465278215706348,-0.0083079971373081,-0.0099021652713418
1768619732100,-0.046417236328125,-0.9891815185546876,0.0498046875,-0.0410433076322078,-0.0035854137968271,-0.0125759793445467
1768619732110,-0.044891357421875,-0.9933319091796876,0.0482330322265625,-0.0319161228835582,0.0032509206794202,-0.010564493946731
1768619732120,-0.0428466796875,-0.9912872314453124,0.0457916259765625,-0.0239657871425151,0.0049806437455117,-0.0066152922809123
1768619732130,-0.043121337890625,-0.989471435546875,0.047027587890625,-0.0139038311317563,-0.0024098944850265,0.0002375539625063
1768619732140,-0.04852294921875,-0.989776611328125,0.044219970703125,-0.0079729715362191,-0.003745203372091,0.0038876824546605
1768619732150,-0.054290771484375,-0.9960174560546876,0.042236328125,-0.0074744280427694,0.0041465419344604,0.0009752495680004
1768619732160,-0.0593414306640625,-0.9993743896484376,0.0445556640625,-0.0139099564403295,0.0153954681009054,-0.004546548705548
1768619732170,-0.059844970703125,-0.9994964599609376,0.049102783203125,-0.0240973457694053,0.0147935934364795,-0.0143067678436636
1768619732180,-0.0591583251953125,-0.998626708984375,0.0551605224609375,-0.0289786551147699,0.0038376150187104,-0.0173377115279436
1768619732190,-0.0550537109375,-1.0001678466796875,0.0576171875,-0.0288185980170965,-0.0067836036905646,-0.0162868276238441
1768619732200,-0.0506744384765625,-0.9980010986328124,0.0547027587890625,-0.021442973986268,-0.0142476456239819,-0.0156503319740295
1768619732210,-0.048553466796875,-0.99578857421875,0.046630859375,-0.0119815617799758,-0.009811352007091,-0.0099919140338897
1768619732220,-0.045135498046875,-0.9946136474609376,0.04107666015625,0.0004506068653427,-0.0032549153547734,-0.0033912693616002
1768619732230,-0.0433502197265625,-0.99462890625,0.0351715087890625,0.0160263702273368,0.0096225338056683,0.0005765743553638
1768619732240,-0.0425872802734375,-0.9917755126953124,0.0318756103515625,0.0325235873460769,0.0301784090697765,0.007686149328947
1768619732251,-0.043853759765625,-0.987274169921875,0.0358428955078125,0.0413437113165855,0.0389077179133892,0.0089756520465016
1768619732261,-0.04901123046875,-0.9897308349609376,0.0433349609375,0.0411519631743431,0.0464018546044826,0.0098984371870756
1768619732270,-0.0532379150390625,-0.9919891357421876,0.0537872314453125,0.0464876070618629,0.0331457033753395,0.0017877799691632
1768619732280,-0.06207275390625,-0.997467041015625,0.058746337890625,0.0243125297129154,0.033220537006855,-0.0008447546861134
1768619732291,-0.06011962890625,-1.0070037841796875,0.081390380859375,0.028563467785716,-0.0107003152370452,-0.0039422772824764
1768619732300,-0.0543975830078125,-0.99853515625,0.0725555419921875,0.0340344011783599,-0.0204075369983911,0.0039923447184264
1768619732311,-0.0369110107421875,-0.988922119140625,0.0572967529296875,0.0297014359384775,0.0031739552505314,-0.0013409015955403
1768619732321,-0.048187255859375,-0.9885406494140624,0.05419921875,0.0237154494971036,0.0090611390769481,-0.0002074602525681
1768619732331,-0.0555419921875,-0.9958343505859376,0.05615234375,0.0111477263271808,0.0164431557059288,0.0061460430733859
1768619732341,-0.05438232421875,-0.989471435546875,0.06494140625,-0.0001539307122584,0.0135275265201926,0.0074802869930863
1768619732351,-0.051849365234375,-0.9890899658203124,0.0666961669921875,-0.0046163233928382,0.0072805495001375,0.0077729681506752
1768619732361,-0.048187255859375,-0.9907989501953124,0.058929443359375,-0.0148572428151965,0.0192977972328662,0.0025654230266809
1768619732371,-0.049835205078125,-0.990447998046875,0.06024169921875,-0.0236294288188219,0.0194266941398382,-0.0020759340841323
1768619732381,-0.0576019287109375,-0.9959259033203124,0.06103515625,-0.0358176529407501,0.013920608907938,-0.0063881245441734
1768619732391,-0.060943603515625,-0.9986572265625,0.0697174072265625,-0.0478348992764949,-0.0045348308049142,-0.0103530390188097
1768619732401,-0.059356689453125,-0.99847412109375,0.072723388671875,-0.0478410236537456,-0.030809311196208,-0.0124436197802424
1768619732411,-0.055877685546875,-1.0009918212890625,0.061676025390625,-0.0404081419110298,-0.0326801836490631,-0.007889081723988
1768619732421,-0.0503692626953125,-0.9976959228515624,0.048187255859375,-0.0323523469269275,-0.0209923665970563,-0.0051537491381168
1768619732431,-0.048492431640625,-0.992218017578125,0.0422515869140625,-0.0268065799027681,-0.0088845714926719,-0.005224322900176
1768619732441,-0.050689697265625,-0.993560791015625,0.0404205322265625,-0.0211510919034481,0.001136637176387,-0.0080805635079741
1768619732451,-0.0541534423828125,-0.994049072265625,0.040618896484375,-0.0204261783510446,0.009156746789813,-0.0067977188155055
1768619732461,-0.0506134033203125,-0.991729736328125,0.045806884765625,-0.0120606571435928,0.007749798707664,-0.0051082093268632
1768619732471,-0.0475616455078125,-0.9904937744140624,0.0428619384765625,0.0008138620178215,0.0090502202510833,-0.0052514872513711
1768619732481,-0.0472869873046875,-0.9928436279296876,0.042022705078125,0.0077974693849682,0.0195529293268919,-0.0047588027082383
1768619732491,-0.0494384765625,-0.9953460693359376,0.046722412109375,0.0079420786350965,0.0208533499389886,-0.0114854145795106
1768619732501,-0.053497314453125,-0.9968109130859376,0.0535888671875,0.0083937514573335,0.0097258640453219,-0.0106731504201889
1768619732511,-0.0533599853515625,-0.9998016357421876,0.0590972900390625,0.0096326535567641,-0.0052301818504929,-0.0080677801743149
1768619732522,-0.0512542724609375,-0.9959869384765624,0.059356689453125,0.0121408188715577,-0.0169640704989433,-0.0047614658251404
1768619732532,-0.0469207763671875,-0.99285888671875,0.0567169189453125,0.0119719738140702,-0.0124763771891593,0.0027089675422757
1768619732542,-0.0436859130859375,-0.99017333984375,0.0529632568359375,0.0107932593673467,-0.0038325551431626,0.0075271585956215
1768619732552,-0.0437469482421875,-0.9867706298828124,0.052337646484375,0.0063247410580515,0.0044637243263423,0.0117709059268236
1768619732562,-0.0446929931640625,-0.987640380859375,0.05072021484375,0.0003507383225951,0.0163307692855596,0.011069162748754
1768619732572,-0.04888916015625,-0.989776611328125,0.0578460693359375,-0.0019094864837825,0.0124713173136115,0.0114185698330402
1768619732582,-0.052276611328125,-0.99127197265625,0.057708740234375,-0.004604339133948,0.0098443748429417,0.0110643692314624
1768619732592,-0.053802490234375,-0.9925689697265624,0.0599365234375,-0.0045428201556205,0.0034730283077806,0.0043824976310133
1768619732602,-0.0558624267578125,-0.996795654296875,0.058624267578125,-0.0038879488129168,0.0013566142879426,-0.0002532666258048
1768619732612,-0.055023193359375,-1.0011444091796875,0.05609130859375,-0.0019283948931843,0.0044999434612691,-0.0041425470262765
1768619732622,-0.056121826171875,-1.001556396484375,0.0546722412109375,-0.0071593760512769,0.0084715150296688,-0.007840346544981
1768619732632,-0.0565032958984375,-0.9991455078125,0.05755615234375,-0.0105109643191099,-0.0015981629258021,-0.0128383003175258
1768619732642,-0.056732177734375,-1.00067138671875,0.059295654296875,-0.0100148171186447,-0.0107850031927227,-0.0143389916047453
1768619732652,-0.056732177734375,-1.0041351318359375,0.0560150146484375,-0.0098547609522938,-0.0160838942974805,-0.0161017384380102
1768619732662,-0.0531768798828125,-0.997406005859375,0.0514373779296875,-0.0122659876942634,-0.0067191552370786,-0.0110281500965356
1768619732672,-0.0475616455078125,-0.986114501953125,0.0500946044921875,-0.0091391699388623,-0.0054192664101719,-0.0042794337496161
1768619732682,-0.0455169677734375,-0.978790283203125,0.0478057861328125,-0.0032964607235044,0.0080997385084629,0.0124665228649973
1768619732692,-0.0406494140625,-0.9692535400390624,0.0447540283203125,0.0038472025189548,0.0179664827883243,0.0221436507999897
1768619732702,-0.042694091796875,-0.9862518310546876,0.0461273193359375,0.003778759157285,0.022244319319725,0.0152023890987038
1768619732712,-0.04937744140625,-0.9993438720703124,0.05303955078125,0.0027276095934212,0.0184248127043247,0.0033095101825892
1768619732722,-0.052093505859375,-1.0110931396484375,0.05767822265625,0.0002492718631401,0.019544405862689,-0.0079348888248205
1768619732732,-0.055999755859375,-0.9961700439453124,0.059539794921875,-0.001799231627956,0.0105692874640226,-0.0017164073651656
1768619732743,-0.0495452880859375,-1.000030517578125,0.065673828125,-0.0035420041531324,-0.0122614596039056,-0.0049276468344032
1768619732753,-0.0564422607421875,-1.0016326904296875,0.065673828125,-0.0005685848882421,-0.0195952728390693,-0.0017728663515299
1768619732763,-0.0487060546875,-0.9905853271484376,0.0603485107421875,0.0067085027694702,-0.023048061877489,0.0045697181485593
1768619732773,-0.0478668212890625,-0.986480712890625,0.0522613525390625,0.0117216370999813,-0.0179816633462905,0.006099437829107
1768619732783,-0.050048828125,-0.991241455078125,0.0471038818359375,0.011863050982356,-0.0047233826480805,0.000548078562133
1768619732793,-0.052947998046875,-0.9907684326171876,0.0469970703125,0.0089373020455241,0.0095463674515485,0.005150553304702
1768619732803,-0.0504302978515625,-0.9842376708984376,0.0480499267578125,0.0012572783743962,0.0215465705841779,0.0152175687253475
1768619732813,-0.0478973388671875,-0.9815216064453124,0.0534820556640625,-0.0159789659082889,0.0224933251738548,0.0215886496007442
1768619732823,-0.0508880615234375,-0.9879608154296876,0.0619049072265625,-0.0348661057651042,0.0164383612573146,0.0179885886609554
1768619732833,-0.05548095703125,-0.9969024658203124,0.06817626953125,-0.0467541888356208,0.0043944818899035,0.0132550848647952
1768619732843,-0.055816650390625,-1.0018157958984375,0.067169189453125,-0.049444779753685,-0.0101082939654588,0.0093479612842202
1768619732853,-0.0541229248046875,-1.0032958984375,0.0588531494140625,-0.042252380400896,-0.0205050092190504,0.0055244611576199
1768619732863,-0.0505523681640625,-1.000244140625,0.0460357666015625,-0.0284963566809892,-0.0171688664704561,0.0053715957328677
1768619732873,-0.0493316650390625,-0.99969482421875,0.0345458984375,-0.0133466981351375,-0.0031153657473623,0.0072826803661882
1768619732883,-0.0490570068359375,-0.99774169921875,0.0269012451171875,-0.0032423986122012,0.0150657687336206,0.0130367064848542
1768619732893,-0.04864501953125,-0.9934234619140624,0.0308837890625,0.0110939303413033,0.0207367036491632,0.0134817203506827
1768619732903,-0.0492706298828125,-0.9922332763671876,0.0363616943359375,0.0227873381227254,0.0293264631181955,0.0155829545110464
1768619732913,-0.050323486328125,-0.9918212890625,0.0409698486328125,0.0307597760111093,0.0285629350692033,0.0124683873727917
1768619732923,-0.0558319091796875,-0.9960784912109376,0.0477142333984375,0.044918205589056,0.0218962430953979,0.00981215108186
1768619732933,-0.0570068359375,-0.9994049072265624,0.053131103515625,0.0571455769240856,0.0163864307105541,0.0055921054445207
1768619732943,-0.0554656982421875,-1.0000762939453125,0.0540924072265625,0.066680759191513,0.0124433534219861,0.0060746702365577
1768619732954,-0.0548858642578125,-0.99798583984375,0.0571746826171875,0.069646455347538,0.0083082634955644,0.0065718824043869
1768619732964,-0.053985595703125,-0.9972076416015624,0.061981201171875,0.0683971643447876,0.0062368568032979,0.0042096585966646
1768619732974,-0.0565185546875,-0.9970550537109376,0.06549072265625,0.0588534623384475,-0.0008828379213809,0.0031121699139475
1768619732984,-0.055999755859375,-0.994049072265625,0.0693206787109375,0.0429796911776065,-0.0034245587885379,-0.0022823291365057
1768619732994,-0.0532379150390625,-0.9903106689453124,0.0752410888671875,0.0232491306960582,-0.0068081049248576,-0.0041665155440568
1768619733004,-0.055419921875,-0.9907379150390624,0.0745086669921875,0.0063913203775882,-0.0066629624925553,-0.0100989732891321
1768619733014,-0.0583343505859375,-0.9939727783203124,0.0706329345703125,-0.0075527247972786,0.0004607268783729,-0.018204303458333
1768619733024,-0.0592803955078125,-0.9958648681640624,0.0693817138671875,-0.0227258186787366,0.004187820944935,-0.0262435879558324
1768619733034,-0.059661865234375,-1.00238037109375,0.0689239501953125,-0.0358975455164909,0.0072893383912742,-0.0347763560712337
1768619733044,-0.0611724853515625,-1.00067138671875,0.0692138671875,-0.0441951565444469,0.0009861685102805,-0.0326612740755081
1768619733054,-0.0561065673828125,-0.998565673828125,0.065399169921875,-0.0441514812409877,-0.0047779772430658,-0.0284388326108455
1768619733064,-0.0556182861328125,-0.9980316162109376,0.0559844970703125,-0.0453147515654563,0.004007258452475,-0.021976938471198
1768619733074,-0.049957275390625,-0.9875946044921876,0.05450439453125,-0.048575259745121,0.005510879214853,-0.0137216709554195
1768619733084,-0.04345703125,-0.981475830078125,0.0561065673828125,-0.0439690537750721,-0.0008239820599555,-0.0095202680677175
1768619733094,-0.04205322265625,-0.986114501953125,0.052764892578125,-0.0404169298708438,0.0017462347168475,-0.0103304013609886
1768619733104,-0.0448150634765625,-0.9904022216796876,0.05224609375,-0.0324423611164093,0.0041920817457139,-0.0098060257732868
1768619733114,-0.0462188720703125,-0.9927825927734376,0.050750732421875,-0.027678232640028,0.0015478292480111,-0.0093298517167568
1768619733124,-0.047210693359375,-0.9924468994140624,0.0509490966796875,-0.0227447263896465,-0.0046309707686305,-0.0031198931392282
1768619733134,-0.048492431640625,-0.991485595703125,0.049530029296875,-0.0161568652838468,-0.0029720878228545,0.0028314727824181
1768619733144,-0.048492431640625,-0.9935302734375,0.046539306640625,-0.0111756892874836,0.0029606360476464,0.0075729647651314
1768619733154,-0.046173095703125,-0.995941162109375,0.04119873046875,-0.0002340918581467,0.0128367030993103,0.0107040433213114
1768619733164,-0.048095703125,-0.9963836669921876,0.03753662109375,0.0006234460161067,0.0237881541252136,0.0166796445846557
1768619733175,-0.0450439453125,-0.9902496337890624,0.0426483154296875,0.0056640109978616,0.0142636243253946,0.0199348255991935
1768619733185,-0.04571533203125,-0.9897003173828124,0.04742431640625,0.0168732553720474,0.0056056878529489,0.0206035450100898
1768619733195,-0.0506744384765625,-0.99761962890625,0.0408935546875,0.0292441714555025,0.0112681007012724,0.0171294528990983
1768619733205,-0.053375244140625,-1.000732421875,0.041748046875,0.0356733091175556,0.016516126692295,0.011591674759984
1768619733215,-0.057220458984375,-0.9991912841796876,0.047332763671875,0.0413876548409462,0.0158972069621086,0.0025787388440221
1768619733225,-0.061187744140625,-0.997802734375,0.0523834228515625,0.0506738312542438,0.0078139808028936,-0.006443784572184
1768619733235,-0.06292724609375,-0.9993133544921876,0.051300048828125,0.0562877729535102,0.0139717422425746,-0.0118486694991588
1768619733245,-0.063018798828125,-1.00164794921875,0.0527496337890625,0.0587322898209095,0.0255895163863897,-0.0177715402096509
1768619733255,-0.0624847412109375,-1.00042724609375,0.058807373046875,0.0516541376709938,0.0258433148264884,-0.0211367104202508
1768619733265,-0.0576934814453125,-0.99609375,0.069244384765625,0.0415961779654026,0.0192626435309648,-0.0191649068146944
1768619733275,-0.0499725341796875,-0.9921112060546876,0.0755767822265625,0.0300937201827764,0.0108704911544919,-0.0160386208444833
1768619733285,-0.04620361328125,-0.9874267578125,0.08026123046875,0.0158202424645423,0.003263437654823,-0.008821721188724
1768619733295,-0.044952392578125,-0.989166259765625,0.08160400390625,0.0045068673789501,-0.0107107013463974,-0.0020754013676196
1768619733305,-0.0457916259765625,-0.9891510009765624,0.0792694091796875,-0.0055175372399389,-0.0129853067919611,0.0043561323545873
1768619733315,-0.0455169677734375,-0.98687744140625,0.075286865234375,-0.0204607993364334,-0.0124374944716691,0.0009233179152943
1768619733325,-0.0474853515625,-0.9873504638671876,0.0725860595703125,-0.0298867933452129,-0.0113943349570035,0.0049542784690856
1768619733335,-0.0505523681640625,-0.9942169189453124,0.0649566650390625,-0.0374871864914894,-0.0020474381744861,0.0025462482590228
1768619733345,-0.052398681640625,-0.9966888427734376,0.0635223388671875,-0.0434992723166942,0.0002817624481394,0.0010077401529997
1768619733355,-0.050567626953125,-0.996490478515625,0.0629119873046875,-0.0451533645391464,0.0004308994684834,0.0033404028508812
1768619733365,-0.0481719970703125,-0.9940338134765624,0.05841064453125,-0.0432215072214603,-0.0016759273130446,0.0068887989036738
1768619733375,-0.04498291015625,-0.99005126953125,0.054901123046875,-0.0335659496486187,-0.004644020460546,0.01084172911942
1768619733385,-0.0480804443359375,-0.991790771484375,0.0486907958984375,-0.0251780580729246,-0.0015558187151327,0.0129293808713555
1768619733396,-0.052581787109375,-0.9946441650390624,0.0435638427734375,-0.0194842182099819,0.0080435452982783,0.0098821921274065
1768619733406,-0.057708740234375,-0.994049072265625,0.04473876953125,-0.01209048461169,0.011259845457971,0.0014514228096231
1768619733416,-0.05963134765625,-0.99737548828125,0.0442047119140625,-0.0054906392470002,0.0139999715611338,-0.0065953182056546
1768619733426,-0.06292724609375,-1.00079345703125,0.0465240478515625,-0.0020453077740967,0.0128702586516737,-0.0161352939903736
1768619733436,-0.0633392333984375,-1.0025787353515625,0.053558349609375,0.0009432916413061,0.0078222369775176,-0.0241804365068674
1768619733446,-0.06036376953125,-1.0005645751953125,0.0552978515625,0.0029009813442826,0.0010972223244607,-0.028405275195837
1768619733456,-0.0548095703125,-0.9955596923828124,0.0572052001953125,0.0060911821201443,-0.0082661854103207,-0.0257564950734376
1768619733466,-0.05108642578125,-0.994964599609375,0.0520477294921875,0.0160825625061988,-0.0061391186900436,-0.0199899524450302
1768619733476,-0.0446319580078125,-0.991485595703125,0.0490264892578125,0.0270534548908472,0.0019246664596721,-0.0061702779494225
1768619733486,-0.0392303466796875,-0.9863433837890624,0.0439910888671875,0.0347598455846309,0.0142481783404946,0.0052799829281866
1768619733496,-0.037994384765625,-0.98590087890625,0.0462188720703125,0.0412859208881855,0.0218509696424007,0.0173182692378759
1768619733506,-0.039093017578125,-0.986572265625,0.0506744384765625,0.0425796844065189,0.023991884663701,0.0250904392451047
1768619733516,-0.0419158935546875,-0.98919677734375,0.0565032958984375,0.0421775467693805,0.022733274847269,0.0277392193675041
1768619733526,-0.0473175048828125,-0.988433837890625,0.060760498046875,0.0359425544738769,0.0181925855576992,0.0280412212014198
1768619733536,-0.048919677734375,-0.9872894287109376,0.06781005859375,0.0338594280183315,0.0004463458026293,0.0249066818505525
1768619733546,-0.054412841796875,-0.9949493408203124,0.068634033203125,0.0323044098913669,0.0005558017292059,0.0191766247153282
1768619733556,-0.059051513671875,-0.9996185302734376,0.0662994384765625,0.0231529902666807,0.0047401604242622,0.0088009480386972
1768619733566,-0.05731201171875,-0.999114990234375,0.0665435791015625,0.0177891161292791,0.0047737164422869,-0.0003736414946615
1768619733576,-0.0608367919921875,-1.002166748046875,0.0651092529296875,0.0140638872981071,0.0113988621160388,-0.0069774822331964
1768619733586,-0.06060791015625,-1.0033111572265625,0.062103271484375,0.0124875623732805,0.0157302264124155,-0.006793191190809
1768619733596,-0.058990478515625,-1.000946044921875,0.06488037109375,0.0082147866487503,0.0084068002179265,-0.0058445734903216
1768619733606,-0.0566558837890625,-0.9981231689453124,0.0702972412109375,-0.0033723609521985,0.0030570426024496,-0.0117344204336404
1768619733617,-0.056610107421875,-0.994049072265625,0.0738525390625,-0.015255119651556,0.0008881642133928,-0.0157872196286916
1768619733627,-0.055999755859375,-0.9897613525390624,0.0730438232421875,-0.0192032549530267,-0.0006950850365683,-0.0152492607012391
1768619733637,-0.05194091796875,-0.9825592041015624,0.0671234130859375,-0.0239146538078784,0.0055356468074023,-0.0042818305082619
1768619733647,-0.045501708984375,-0.97247314453125,0.068511962890625,-0.0250880420207977,-0.003237604862079,0.0041577271185815
1768619733657,-0.0450439453125,-0.98516845703125,0.06640625,-0.0180719438940286,-0.0067820060066878,0.0040434775874018
1768619733667,-0.047698974609375,-0.9982757568359376,0.058990478515625,-0.0151017215102911,0.0015518239233642,0.0011459582019597
1768619733677,-0.0492095947265625,-1.018829345703125,0.058258056640625,-0.0157984048128128,0.0113708991557359,-0.0093383742496371
1768619733687,-0.0548248291015625,-1.00006103515625,0.0605621337890625,-0.0205654632300138,0.0129083413630723,-0.0012548814993351
1768619733697,-0.0430755615234375,-0.9862823486328124,0.0681304931640625,-0.0112409368157386,-0.0126169919967651,0.0044408212415874
1768619733707,-0.0460205078125,-0.9913787841796876,0.0609283447265625,-0.0020857877098023,-0.0133445672690868,0.0120529346168041
1768619733717,-0.0486907958984375,-0.9847564697265624,0.052581787109375,0.0039550606161355,0.0023888554424047,0.0145384622737765
1768619733727,-0.05523681640625,-0.9895477294921876,0.05230712890625,0.0006492786924354,0.0080233057960867,0.0059716058894991
1768619733737,-0.0622406005859375,-0.996795654296875,0.0605926513671875,-0.0061140852048993,0.0020711403340101,-0.004644020460546
1768619733747,-0.0590057373046875,-0.9941864013671876,0.066864013671875,-0.0109671633690595,-0.0092539517208933,-0.0088390316814184
1768619733757,-0.0547637939453125,-0.98712158203125,0.0652313232421875,-0.0145967854186892,-0.0122579978778958,-0.0035939358640462
1768619733767,-0.0513153076171875,-0.9866485595703124,0.058563232421875,-0.0184407923370599,-0.0100529007613658,0.004317516926676
1768619733777,-0.0500335693359375,-0.98834228515625,0.0556488037109375,-0.0188053790479898,0.0008532768115401,0.0118140485137701
1768619733787,-0.0483856201171875,-0.99151611328125,0.0514984130859375,-0.0250686015933752,0.0139983734115958,0.0183422546833753
1768619733797,-0.0452423095703125,-0.991729736328125,0.052825927734375,-0.0211873110383749,0.0118414796888828,0.0180591624230146
1768619733807,-0.0471038818359375,-0.99627685546875,0.0518646240234375,-0.0165286436676979,0.0159296970814466,0.0164218507707119
1768619733818,-0.04937744140625,-1.0000152587890625,0.0512847900390625,-0.0147834736853837,0.0175734013319015,0.0127959558740258
1768619733827,-0.0528717041015625,-0.9979248046875,0.0543670654296875,-0.0094456998631358,0.0114364130422472,0.0089724557474255
1768619733838,-0.0566253662109375,-1.00177001953125,0.0528717041015625,-0.0030248183757066,0.0099450424313545,0.0062845274806022
1768619733848,-0.0539703369140625,-1.00079345703125,0.054168701171875,0.0096235992386937,0.0046064695343375,0.0049023469910025
1768619733858,-0.05316162109375,-1.0008087158203125,0.0509033203125,0.0206517484039068,0.010293117724359,0.0065540391951799
1768619733868,-0.051239013671875,-0.996551513671875,0.05438232421875,0.0262105651199817,0.0127192568033933,0.0108941933140158
1768619733878,-0.0477142333984375,-0.99359130859375,0.0608978271484375,0.0329773910343647,0.0019707391038537,0.0195228345692157
1768619733888,-0.0460968017578125,-0.9955291748046876,0.058013916015625,0.0483805835247039,0.002330532297492,0.0245455559343099
1768619733898,-0.046661376953125,-0.995849609375,0.052581787109375,0.0560225211083889,0.0116979349404573,0.0280204489827156
1768619733908,-0.049896240234375,-0.9917144775390624,0.0553436279296875,0.0537865310907363,0.0192666389048099,0.0332146771252155
1768619733918,-0.050872802734375,-0.9880218505859376,0.066650390625,0.0519140623509883,0.0089426282793283,0.0241253096610307
1768619733928,-0.0575408935546875,-0.9934844970703124,0.0682830810546875,0.0504421330988407,0.003810983384028,0.0117458719760179
1768619733938,-0.0659942626953125,-0.99749755859375,0.066925048828125,0.0393463410437107,0.0071806809864938,-0.0038027276750653
1768619733948,-0.0701751708984375,-0.9984130859375,0.0745086669921875,0.0208373703062534,0.0027465180028229,-0.0213497634977102
1768619733958,-0.0721435546875,-0.9971466064453124,0.08453369140625,0.0067630973644554,-0.0175787266343832,-0.0295440442860126
1768619733968,-0.066436767578125,-0.9956817626953124,0.081695556640625,-0.0030549119692295,-0.020373448729515,-0.0339901894330978
1768619733978,-0.0611724853515625,-0.998931884765625,0.07421875,-0.0123360287398099,-0.0067497817799448,-0.0289285872131586
1768619733988,-0.055145263671875,-1.0003204345703125,0.07073974609375,-0.0304806772619485,0.005911152344197,-0.0227969251573085
1768619733998,-0.04931640625,-0.9898223876953124,0.076812744140625,-0.0467688366770744,0.003304183948785,-0.0069367354735732
1768619734008,-0.0417022705078125,-0.9893646240234376,0.0764312744140625,-0.0548262298107147,-0.0011960256379097,-0.0007771103992126
1768619734018,-0.0482025146484375,-0.9947662353515624,0.0667572021484375,-0.0539290122687816,0.0032850091811269,0.0015305186389014
1768619734028,-0.049774169921875,-0.9870452880859376,0.061187744140625,-0.0505667701363563,0.0045657232403755,0.0045484127476811
1768619734038,-0.0488433837890625,-0.9878692626953124,0.0576324462890625,-0.0438787750899791,0.0011640676530078,-0.0036740971263498
1768619734048,-0.0525054931640625,-0.990325927734375,0.0543212890625,-0.0307874735444784,0.0013704627053812,-0.0099876532331109
1768619734059,-0.053009033203125,-0.993438720703125,0.049560546875,-0.0151376742869615,0.0020141487475484,-0.0111961951479315
1768619734069,-0.0512237548828125,-0.9932098388671876,0.0485076904296875,-0.0026365295052528,0.0026895264163613,-0.0089141326025128
1768619734079,-0.050079345703125,-0.9904022216796876,0.049224853515625,0.0006559365428984,0.0047385622747242,-0.001694303122349
1768619734089,-0.04931640625,-0.986724853515625,0.0568084716796875,0.0043127229437232,-0.005559348501265,0.000711330329068
1768619734099,-0.0559234619140625,-0.9937286376953124,0.05682373046875,0.0088275801390409,-0.0067029101774096,0.0013803163310512
1768619734109,-0.05816650390625,-0.99847412109375,0.0529632568359375,0.0107759488746523,0.0048046088777482,-0.0003680488734971
1768619734119,-0.05548095703125,-0.99798583984375,0.0515289306640625,0.01016182359308,0.0091716600582003,-0.0055489623919129
1768619734129,-0.0558624267578125,-0.9981842041015624,0.056549072265625,0.0011528824688866,0.0098068239167332,-0.0066925236023962
1768619734139,-0.054473876953125,-0.9963836669921876,0.0597686767578125,7.430219557136297e-05,0.0079050613567233,-0.006204632576555
1768619734149,-0.0522918701171875,-0.99713134765625,0.0572967529296875,-0.0016759273130446,0.0153201008215546,-0.006761766038835
1768619734159,-0.05010986328125,-0.9939422607421876,0.058624267578125,-0.0007329019135795,0.014177338220179,-0.0062509714625775
1768619734169,-0.0499420166015625,-0.9922332763671876,0.0591583251953125,0.0039659794420003,0.0114736966788768,-0.0036930055357515
1768619734179,-0.0498199462890625,-0.993865966796875,0.058197021484375,0.0134140755981206,0.0120127210393548,0.0004892227007076
1768619734189,-0.0497589111328125,-0.9920654296875,0.05731201171875,0.0251998957246541,0.0124052707105875,0.0049332394264638
1768619734199,-0.0505523681640625,-0.99188232421875,0.05908203125,0.0294044949114322,0.014201040379703,0.0046400255523622
1768619734209,-0.0517578125,-0.9921417236328124,0.0664215087890625,0.0314852222800254,0.0041729072108864,0.0015097459545359
1768619734219,-0.0533599853515625,-0.99493408203125,0.0686187744140625,0.0375614911317825,-0.0015867113834246,-0.0009150621481239
1768619734229,-0.0559234619140625,-0.996917724609375,0.0657196044921875,0.0367524214088916,3.621898940764368e-05,0.0001427454262739
1768619734239,-0.0554962158203125,-0.994293212890625,0.06756591796875,0.0372767969965934,-0.0043425504118204,-0.0013984258985146
1768619734249,-0.0560150146484375,-0.9942169189453124,0.067962646484375,0.0353963412344455,-0.0016176040517166,-0.0037401434965431
1768619734259,-0.055023193359375,-0.9936065673828124,0.066192626953125,0.0302276778966188,0.0066784089431166,-0.0031278827227652
1768619734270,-0.0539093017578125,-0.987701416015625,0.068267822265625,0.020001670345664,0.011444135569036,-0.0027606326621025
1768619734280,-0.051483154296875,-0.9853515625,0.0729827880859375,0.0078696412965655,0.0134644098579883,-0.0019606191199272
1768619734290,-0.05255126953125,-0.98907470703125,0.0775146484375,-0.0063708140514791,0.0140247391536831,-0.0031936627347022
1768619734300,-0.054595947265625,-0.9924163818359376,0.080596923828125,-0.0233388785272836,0.0154207674786448,-0.0048932922072708
1768619734310,-0.054595947265625,-0.991607666015625,0.084991455078125,-0.0473818965256214,0.0080328928306698,-0.0072941319085657
1768619734320,-0.0563812255859375,-0.9925079345703124,0.0880889892578125,-0.0602020882070064,-0.0157904140651226,-0.0093008233234286
1768619734330,-0.0570068359375,-0.9974822998046876,0.0807647705078125,-0.0619110390543937,-0.0234225019812583,-0.008608934469521
1768619734340,-0.0536346435546875,-0.9976348876953124,0.06915283203125,-0.057406835258007,-0.0211779903620481,-0.0039076562970876
1768619734350,-0.0480499267578125,-0.9937286376953124,0.0596771240234375,-0.050806988030672,-0.0174652766436338,0.0009848369518294
1768619734360,-0.0439300537109375,-0.9923095703125,0.0488739013671875,-0.040640901774168,-0.0046184537932276,0.008078166283667
1768619734370,-0.0447235107421875,-0.9931182861328124,0.0444183349609375,-0.0274752993136644,0.0036005936563014,0.0105573032051324
1768619734380,-0.0506744384765625,-0.994049072265625,0.042938232421875,-0.019651198759675,0.0053891725838184,0.0095543563365936
1768619734390,-0.05364990234375,-0.996307373046875,0.0474395751953125,-0.0096965692937374,0.0061489725485444,0.0063247410580515
1768619734400,-0.0553741455078125,-0.994110107421875,0.0503387451171875,0.000859668420162,0.0019923108629882,-9.081379539566116e-05
1768619734410,-0.05914306640625,-0.998291015625,0.050384521484375,0.0078579233959317,0.00595109956339,-0.0044602621346712
1768619734420,-0.0595703125,-1.001678466796875,0.05133056640625,0.0190874077379703,0.008353803306818,-0.0079018650576472
1768619734430,-0.055938720703125,-0.994720458984375,0.0516815185546875,0.0256747361272573,0.0090608727186918,-0.0048235175199806
1768619734440,-0.0517425537109375,-0.993896484375,0.05352783203125,0.033572606742382,0.0100038982927799,-0.005879727192223
1768619734450,-0.0516357421875,-0.9913787841796876,0.0553436279296875,0.0299893245100975,0.0199563968926668,-0.0048384312540292
1768619734460,-0.0523223876953125,-0.989776611328125,0.0626678466796875,0.0164913590997457,0.022972960025072,-0.0044256411492824
1768619734470,-0.0519866943359375,-0.990631103515625,0.0726318359375,0.0088022798299789,0.0074424697086215,-0.0045066010206937
1768619734480,-0.0525665283203125,-0.993865966796875,0.07513427734375,0.0083279712125658,-0.0063577643595635,-0.0021885856986045
1768619734491,-0.0491943359375,-0.98944091796875,0.0684356689453125,0.0149352736771106,-0.0081050647422671,0.0045737125910818
1768619734501,-0.0463409423828125,-0.9882965087890624,0.0626220703125,0.0216112863272428,-0.0039372174069285,0.0084355622529983
1768619734511,-0.04931640625,-0.9922027587890624,0.0590057373046875,0.0211492273956537,0.0116638466715812,0.0098217381164431
1768619734521,-0.050506591796875,-0.99481201171875,0.060760498046875,0.0166476853191852,0.0196525305509567,0.0100523680448532
1768619734531,-0.0507659912109375,-0.9947357177734376,0.0648040771484375,0.0111557152122259,0.0196344219148159,0.0045678536407649
1768619734541,-0.0541839599609375,-0.99713134765625,0.0716094970703125,0.0050301784649491,0.0126034095883369,0.0007672567153349
1768619734551,-0.0561676025390625,-0.999786376953125,0.07452392578125,-0.000484429008793,0.0034708979073911,-0.0037742317654192
1768619734561,-0.0572357177734375,-0.998809814453125,0.0782012939453125,-0.0045409561134874,-0.0105591677129268,-0.0086187878623604
1768619734571,-0.0588226318359375,-1.0015106201171875,0.076690673828125,-0.0125573370605707,-0.0158383511006832,-0.0131727932021021
1768619734581,-0.058746337890625,-0.99749755859375,0.072845458984375,-0.0162812359631061,-0.0117272296920418,-0.0153555199503898
1768619734591,-0.0564117431640625,-0.991119384765625,0.0664520263671875,-0.0201393570750951,-0.0073505910113453,-0.007146859075874
1768619734601,-0.051544189453125,-0.980865478515625,0.0632781982421875,-0.0188977904617786,0.0044882255606353,0.0078462054952979
1768619734611,-0.0417022705078125,-0.9672393798828124,0.0622406005859375,-0.0150652360171079,0.0086294412612915,0.0173358470201492
1768619734621,-0.0411529541015625,-0.98345947265625,0.0610809326171875,-0.015435948036611,0.0128574753180146,0.0140210101380944
1768619734631,-0.04766845703125,-0.9951934814453124,0.063018798828125,-0.0158050619065761,0.0089444927871227,0.0027324033435434
1768619734641,-0.0531005859375,-1.01153564453125,0.0660400390625,-0.016940901055932,0.0044221789576113,-0.0114726312458515
1768619734651,-0.0625152587890625,-0.9962310791015624,0.0660400390625,-0.0135411089286208,0.0004673847579397,-0.009344233199954
1768619734661,-0.0566253662109375,-0.9996337890625,0.06591796875,-0.0154905430972576,-0.0064568337984383,-0.018386198207736
1768619734671,-0.0647735595703125,-1.0032501220703125,0.0686798095703125,-0.0213963687419891,-0.0046224487014114,-0.0185348019003868
1768619734681,-0.0602874755859375,-0.992919921875,0.071258544921875,-0.0204384289681911,-0.0108763501048088,-0.012558402493596
1768619734692,-0.0553741455078125,-0.992156982421875,0.0675811767578125,-0.0200240425765514,-0.0136335203424096,-0.0048344363458454
1768619734701,-0.0482635498046875,-0.991973876953125,0.06597900390625,-0.0170199964195489,-0.0150969270616769,0.0022692794445902
1768619734711,-0.0423431396484375,-0.98614501953125,0.0627593994140625,-0.0132044851779937,-0.0145773449912667,0.0125860990956425
1768619734722,-0.0382232666015625,-0.9792938232421876,0.05792236328125,-0.0084491446614265,-0.010906177572906,0.0298215448856353
1768619734732,-0.03900146484375,-0.976104736328125,0.0519256591796875,-0.0088733863085508,0.0001810949470382,0.0396757721900939
1768619734742,-0.0442657470703125,-0.9807891845703124,0.051361083984375,-0.011945342645049,0.0116281602531671,0.0400819070637226
1768619734752,-0.051483154296875,-0.99029541015625,0.04986572265625,-0.0157193075865507,0.0267527848482131,0.0307475253939628
1768619734762,-0.0576171875,-0.9984893798828124,0.0527801513671875,-0.0159656498581171,0.0278063304722309,0.0182527732104063
1768619734772,-0.064361572265625,-1.00390625,0.0584564208984375,-0.0158873535692691,0.0200075302273035,0.0034269557800143
1768619734782,-0.067108154296875,-1.0075531005859375,0.0628204345703125,-0.0168061442673206,0.0128497518599033,-0.0056102150119841
1768619734792,-0.063385009765625,-1.0031280517578125,0.06646728515625,-0.0200490746647119,0.0001965412811841,-0.0096337189897894
1768619734802,-0.0580902099609375,-1.0003509521484375,0.0687408447265625,-0.0139983734115958,-0.0109453257173299,-0.0088036116212606
1768619734812,-0.055816650390625,-1.0007781982421875,0.0595855712890625,-0.0055316518992185,-0.0054104779846966,-0.0052187303081154
1768619734822,-0.0501556396484375,-0.99493408203125,0.0540008544921875,-0.0022631543688476,0.0052128713577985,0.0008207862265408
1768619734832,-0.049041748046875,-0.992767333984375,0.0566864013671875,0.0033792851027101,0.0069950590841472,0.0080360881984233
1768619734842,-0.0501708984375,-0.9947357177734376,0.0603179931640625,0.0120398849248886,0.0033523871097713,0.0110305463895201
1768619734852,-0.0506591796875,-0.9967193603515624,0.0574951171875,0.0239950809627771,0.0007014766451902,0.0141056990250945
1768619734862,-0.051910400390625,-0.996826171875,0.0563507080078125,0.0352181755006313,0.0034354778472334,0.0145674906671047
1768619734872,-0.050689697265625,-0.9949951171875,0.05792236328125,0.0404579453170299,0.0061162156052887,0.013654826208949
1768619734882,-0.0503082275390625,-0.9951171875,0.058441162109375,0.0458511114120483,0.0039041941054165,0.0116204367950558
1768619734892,-0.0523834228515625,-0.99591064453125,0.0628814697265625,0.0462058447301387,0.006090116687119,0.0105407917872071
1768619734902,-0.0507965087890625,-0.991302490234375,0.066314697265625,0.0410547591745853,0.0067822723649442,0.0112910037860274
1768619734912,-0.051422119140625,-0.9897003173828124,0.07110595703125,0.0306021180003881,0.0007757788407616,0.0063657537102699
1768619734923,-0.0581512451171875,-0.992919921875,0.076568603515625,0.0126004805788397,-0.0022040321491658,9.081379539566116e-05
1768619734933,-0.060699462890625,-0.9938201904296876,0.0831298828125,0.0004282362933736,-0.0152473961934447,-0.0023438481148332
1768619734943,-0.06048583984375,-0.9972686767578124,0.0787506103515625,-0.0078243669122457,-0.0179398525506258,-0.0038946068380028
1768619734953,-0.0591888427734375,-0.9977874755859376,0.0720062255859375,-0.0184261444956064,-0.0082962792366743,-0.0125099327415227
1768619734963,-0.060455322265625,-0.995330810546875,0.0683135986328125,-0.0291099492460489,0.0002447445003781,-0.0139491045847535
1768619734973,-0.06072998046875,-0.9953155517578124,0.0673675537109375,-0.0362115353345871,0.0029142971616238,-0.0150561807677149
1768619734983,-0.0634918212890625,-0.99981689453125,0.0648345947265625,-0.0398222468793392,0.0056616142392158,-0.0171773880720138
1768619734993,-0.0619964599609375,-0.9950103759765624,0.0623016357421875,-0.0410020276904106,0.0134790567681193,-0.017105484381318
1768619735003,-0.0546875,-0.9856414794921876,0.0631256103515625,-0.0411367826163768,0.0116518624126911,-0.0189364068210124
1768619735013,-0.0521697998046875,-0.9891510009765624,0.065216064453125,-0.0369787886738777,0.0042450786568224,-0.0272023268043994
1768619735023,-0.0546417236328125,-0.994964599609375,0.06427001953125,-0.0325084067881107,0.0044416198506951,-0.0278758388012647
1768619735033,-0.049468994140625,-0.991668701171875,0.0659332275390625,-0.0346381366252899,-0.0019856528379023,-0.018100706860423
1768619735043,-0.04376220703125,-0.982879638671875,0.0703277587890625,-0.0308971963822841,-0.0177848562598228,-0.0047675911337137
1768619735053,-0.0437469482421875,-0.9858856201171876,0.06341552734375,-0.0197108536958694,-0.0232507269829511,0.0088350372388958
1768619735063,-0.046234130859375,-0.9924468994140624,0.053436279296875,-0.0086169242858886,-0.014323279261589,0.0173614136874675
1768619735073,-0.04620361328125,-0.9922637939453124,0.0448455810546875,-0.0012178635224699,0.003123088972643,0.021819544956088
1768619735083,-0.0468292236328125,-0.995086669921875,0.0432586669921875,0.0039393478073179,0.0188746210187673,0.0165294408798217
1768619735093,-0.0529327392578125,-0.99578857421875,0.045623779296875,0.0051196608692407,0.0272356159985065,0.0108507834374904
1768619735103,-0.054962158203125,-0.9978485107421876,0.0484619140625,0.0068190237507224,0.0278143212199211,0.003074353095144
1768619735113,-0.0589447021484375,-0.9985504150390624,0.0545196533203125,0.0105530424043536,0.0234488677233457,-0.004922320600599
1768619735123,-0.062103271484375,-1.0004119873046875,0.0605926513671875,0.0108052436262369,0.0161004066467285,-0.0106244143098592
1768619735133,-0.0626220703125,-1.0003509521484375,0.0650482177734375,0.0118979383260011,0.0077364831231534,-0.0188583768904209
1768619735143,-0.0612030029296875,-0.99700927734375,0.070037841796875,0.0142875928431749,-0.0063103600405156,-0.0206333734095096
1768619735154,-0.0580596923828125,-0.9934234619140624,0.0673828125,0.0215433742851018,-0.0109202917665243,-0.0149563122540712
1768619735164,-0.0534210205078125,-0.9959869384765624,0.0592803955078125,0.0313049256801605,-0.0054469634778797,-0.0100153498351573
1768619735174,-0.0501251220703125,-0.994171142578125,0.056610107421875,0.0338138900697231,0.0040826257318258,0.0012703278334811
1768619735184,-0.0451507568359375,-0.988800048828125,0.060577392578125,0.036247219890356,0.0085562039166688,0.0055710668675601
1768619735194,-0.043853759765625,-0.98809814453125,0.064361572265625,0.0375955775380134,0.0120984744280576,0.009924535639584
1768619735204,-0.047027587890625,-0.990753173828125,0.06671142578125,0.0305073093622922,0.0181853957474231,0.0108345383778214
1768619735214,-0.049346923828125,-0.9911651611328124,0.072601318359375,0.0174927078187465,0.0164708513766527,0.0077479346655309
1768619735224,-0.0525665283203125,-0.99041748046875,0.08099365234375,0.0093354452401399,0.0046839676797389,0.0066339340992271
1768619735234,-0.0584869384765625,-0.99395751953125,0.0791473388671875,0.0017656758427619,0.0007741809240542,-0.000107325387944
1768619735244,-0.0589447021484375,-0.9943389892578124,0.0796356201171875,-0.0157262329012155,-0.0042820968665182,-0.0061974423006176
1768619735254,-0.0579376220703125,-0.99285888671875,0.08465576171875,-0.0250547528266906,-0.0169630050659179,-0.0092118745669722
1768619735264,-0.0556488037109375,-0.9936981201171876,0.079681396484375,-0.0310250278562307,-0.0187028478831052,-0.007381749805063
1768619735274,-0.05340576171875,-0.9932403564453124,0.0717315673828125,-0.0349396094679832,-0.0120111228898167,-0.0032945964485406
1768619735284,-0.053192138671875,-0.98895263671875,0.063934326171875,-0.0411652810871601,-0.0001227717293659,-0.0003472761891316
1768619735294,-0.0517578125,-0.9897003173828124,0.0620574951171875,-0.0385575108230114,-0.0017947042360901,0.0021318604703992
1768619735304,-0.0539703369140625,-0.99365234375,0.0584259033203125,-0.0392049252986907,0.0019225359428673,0.0004428836982697
1768619735314,-0.0573272705078125,-0.9937591552734376,0.0591888427734375,-0.0437890253961086,0.0021715415641665,-0.0057524279691278
1768619735324,-0.0604095458984375,-0.99359130859375,0.0619049072265625,-0.0442087389528751,-0.0035579830873757,-0.0175622161477804
1768619735334,-0.0621490478515625,-0.9972076416015624,0.061920166015625,-0.04121108725667,-0.0072597772814333,-0.0214504301548004
1768619735344,-0.0595550537109375,-1.000213623046875,0.05804443359375,-0.0318482108414173,-0.0060813282616436,-0.0260060336440801
1768619735354,-0.0559539794921875,-0.9995880126953124,0.0531158447265625,-0.0251594148576259,0.0011752529535442,-0.0246137343347072
1768619735365,-0.0537109375,-0.995452880859375,0.05255126953125,-0.0197542626410722,0.0047625307925045,-0.0166442245244979
1768619735375,-0.046112060546875,-0.99090576171875,0.0557403564453125,-0.0184325370937585,0.0045968824997544,-0.0057795923203229
1768619735385,-0.0398406982421875,-0.988494873046875,0.0604248046875,-0.0094978976994752,-0.0026053704787045,0.0069362032227218
1768619735395,-0.0389556884765625,-0.9898681640625,0.0572662353515625,0.0031039142049849,-0.0090574109926819,0.0151222273707389
1768619735405,-0.0390777587890625,-0.9911041259765624,0.04840087890625,0.0215060915797948,-0.0078986696898937,0.0268129725009202
1768619735415,-0.039306640625,-0.990753173828125,0.041229248046875,0.0394909493625164,0.0043707797303795,0.030654314905405
1768619735425,-0.0446929931640625,-0.99102783203125,0.0393218994140625,0.0493033677339553,0.017587250098586,0.0285341721028089
1768619735435,-0.05218505859375,-0.9921112060546876,0.0424041748046875,0.0591951459646225,0.022651782259345,0.0218688137829303
1768619735445,-0.0597381591796875,-0.9951934814453124,0.0495452880859375,0.0617882646620273,0.021281586959958,0.0136247323825955
1768619735455,-0.062774658203125,-0.9977874755859376,0.058685302734375,0.0646948367357254,0.0197215061634778,0.0070254188030958
1768619735465,-0.061309814453125,-0.9974517822265624,0.066070556640625,0.0606953054666519,0.0180937834084033,0.0041164481081068
1768619735475,-0.0589447021484375,-0.99615478515625,0.0758056640625,0.0572917833924293,0.0063913203775882,0.0079604545608162
1768619735485,-0.0562896728515625,-0.994720458984375,0.0776824951171875,0.0494455806910991,0.0040549291297793,0.0112862102687358
1768619735495,-0.05303955078125,-0.987579345703125,0.078369140625,0.0378541722893714,0.0027984497137367,0.0141850607469677
1768619735505,-0.0529022216796875,-0.9858856201171876,0.0787353515625,0.0264111012220382,-0.000121440141811,0.0143302036449313
1768619735515,-0.0553131103515625,-0.98883056640625,0.0777435302734375,0.0163488797843456,0.0050107375718653,0.0125845009461045
1768619735526,-0.05572509765625,-0.991119384765625,0.0751495361328125,0.003466104157269,0.0100358566269278,0.0030972564127296
1768619735535,-0.0609588623046875,-0.9982757568359376,0.0751190185546875,-0.0133070172742009,0.0169009529054164,-0.0083324983716011
1768619735545,-0.0638885498046875,-1.001556396484375,0.083404541015625,-0.0347859449684619,0.0109804794192314,-0.0188692957162857
1768619735555,-0.0653076171875,-1.0007476806640625,0.091796875,-0.0495646223425865,-0.0095676723867654,-0.0217140838503837
1768619735565,-0.06268310546875,-0.9997711181640624,0.0926513671875,-0.0593208484351635,-0.0319701842963695,-0.0239956136792898
1768619735575,-0.059234619140625,-1.00213623046875,0.082061767578125,-0.0592590607702732,-0.0317033343017101,-0.0208336431533098
1768619735585,-0.054107666015625,-0.9967193603515624,0.068511962890625,-0.0591243058443069,-0.0163547378033399,-0.0119871543720364
1768619735596,-0.0466766357421875,-0.984130859375,0.0575408935546875,-0.0533918514847755,-0.0051790494471788,0.0038163098506629
1768619735606,-0.040863037109375,-0.9710693359375,0.0527191162109375,-0.0437813028693199,0.0033313480671495,0.0228539165109395
1768619735616,-0.038787841796875,-0.9733123779296876,0.0518646240234375,-0.0261301379650831,0.0025047028902918,0.0277464091777801
1768619735626,-0.043701171875,-0.991119384765625,0.0486907958984375,-0.0183425210416317,0.0131810493767261,0.0210469625890254
1768619735636,-0.0483856201171875,-0.99774169921875,0.051727294921875,-0.0204117987304925,0.0147115681320428,-0.0007797735743224
1768619735646,-0.0592193603515625,-1.003448486328125,0.06085205078125,-0.01985839381814,0.0155986668542027,-0.0044967476278543
1768619735656,-0.0603179931640625,-0.99078369140625,0.0673675537109375,-0.0119152488186955,-0.0115906093269586,-0.0160087943077087
1768619735666,-0.065765380859375,-1.009918212890625,0.062347412109375,0.0039406795985996,-0.0217686779797077,-0.0212858468294143
1768619735676,-0.0680999755859375,-1.0049591064453125,0.0548095703125,0.0181220117956399,-0.0125133944675326,-0.0208448283374309
1768619735686,-0.060699462890625,-0.9952850341796876,0.0547943115234375,0.0264712888747453,-0.0066789416596293,-0.0140718771144747
1768619735696,-0.0535430908203125,-0.9918212890625,0.0565185546875,0.0334085561335086,-0.0065146246924996,-0.0075535238720476
1768619735706,-0.04656982421875,-0.9922637939453124,0.0579681396484375,0.0330698043107986,0.0043492084369063,0.0017339842161163
1768619735716,-0.04473876953125,-0.986175537109375,0.061370849609375,0.0304561760276556,0.0065258098766207,0.0134063530713319
1768619735726,-0.0395660400390625,-0.978546142578125,0.064483642578125,0.0246313102543354,0.0080179786309599,0.034168355166912
1768619735736,-0.0373687744140625,-0.9744415283203124,0.063995361328125,0.0140577619895339,0.0145408594980835,0.0437062010169029
1768619735746,-0.0448150634765625,-0.982757568359375,0.0641632080078125,0.0024080302100628,0.0224797427654266,0.041081391274929
1768619735756,-0.0531463623046875,-0.99285888671875,0.068359375,-0.0133650740608572,0.0256771333515644,0.0290273912250995
1768619735766,-0.06182861328125,-0.999542236328125,0.0721588134765625,-0.0269722286611795,0.0166562087833881,0.0144620295614004
1768619735776,-0.066864013671875,-1.0028228759765625,0.07763671875,-0.0347819477319717,-0.0011353056179359,-0.0010269149206578
1768619735786,-0.0694122314453125,-1.005828857421875,0.0780181884765625,-0.0409919060766696,-0.0133437681943178,-0.0115503957495093
1768619735797,-0.0622100830078125,-1.001495361328125,0.0733489990234375,-0.0395173169672489,-0.0136481681838631,-0.013652428984642
1768619735807,-0.0576324462890625,-0.997833251953125,0.0651702880859375,-0.0344099067151546,-0.0088904304429888,-0.0115613145753741
1768619735817,-0.055419921875,-0.9969329833984376,0.0571746826171875,-0.0280614625662565,0.0039436090737581,-0.0045569348149001
1768619735827,-0.050018310546875,-0.9937286376953124,0.05255126953125,-0.0262201521545648,0.0180775374174118,0.008127168752253
1768619735837,-0.0484771728515625,-0.990814208984375,0.0580291748046875,-0.018955847248435,0.0167374350130558,0.0113826170563697
1768619735847,-0.053131103515625,-0.9954681396484376,0.0594940185546875,-0.0085748462006449,0.0135341845452785,0.0159866902977228
1768619735857,-0.0546417236328125,-0.9977264404296876,0.0599212646484375,0.000794154650066,0.0124374944716691,0.0121043333783745
1768619735867,-0.0554351806640625,-0.9952239990234376,0.060455322265625,0.0066648270003497,0.0092843119055032,0.0087554082274436
1768619735877,-0.05487060546875,-0.99395751953125,0.064849853515625,0.0070219566114246,0.0047034085728228,0.0006556702428497
1768619735887,-0.056396484375,-0.9937896728515624,0.0703582763671875,0.0089484872296452,-0.0099389171227812,-0.0040658479556441
1768619735897,-0.0604095458984375,-0.996246337890625,0.0689849853515625,0.0131179327145218,-0.0150439301505684,-0.0077234334312379
1768619735907,-0.057952880859375,-0.996856689453125,0.0656280517578125,0.0193667728453874,-0.0149440616369247,-0.0004615258076228
1768619735917,-0.0518035888671875,-0.991180419921875,0.060302734375,0.0248022861778736,-0.010022540576756,0.0086315711960196
1768619735927,-0.047576904296875,-0.9883575439453124,0.0545654296875,0.027089674025774,0.0019145464757457,0.0150572462007403
1768619735937,-0.050384521484375,-0.9911651611328124,0.056793212890625,0.0246132016181945,0.0059231366030871,0.0175720695406198
1768619735947,-0.0559844970703125,-0.994781494140625,0.0606842041015625,0.0228797495365142,1.3315805063029984e-06,0.0107759488746523
1768619735957,-0.0615234375,-0.9988861083984376,0.063201904296875,0.0219732094556093,-0.0012389025650918,-0.0015680692158639
1768619735967,-0.0660247802734375,-0.99737548828125,0.06134033203125,0.0165171921253204,0.0079103875905275,-0.0115826204419136
1768619735977,-0.0652618408203125,-0.99786376953125,0.0645904541015625,0.0066533754579722,0.0128177944570779,-0.0256560947746038
1768619735987,-0.070343017578125,-0.999481201171875,0.0657958984375,0.0024101608432829,0.0186642315238714,-0.0343068391084671
1768619735997,-0.06982421875,-0.996368408203125,0.06622314453125,-0.0062738750129938,0.0276097897440195,-0.032654084265232
1768619736007,-0.0606536865234375,-0.988525390625,0.074676513671875,-0.013979198411107,0.018524682149291,-0.032682579010725
1768619736018,-0.05517578125,-0.99517822265625,0.076141357421875,-0.0157355535775423,0.011322695761919,-0.0317560657858848
1768619736028,-0.0480804443359375,-0.9913787841796876,0.07666015625,-0.0158053282648324,0.0041795647703111,-0.0208344422280788
1768619736038,-0.0423431396484375,-0.9852752685546876,0.0728759765625,-0.0160151850432157,-0.0042045987211167,-0.0066855996847152
1768619736048,-0.04010009765625,-0.983795166015625,0.0708465576171875,-0.0144383274018764,-0.0146995838731527,0.0100901843979954
1768619736058,-0.0407257080078125,-0.9849090576171876,0.064666748046875,-0.0128319086506962,-0.0053758569993078,0.0220999754965305
1768619736068,-0.0428619384765625,-0.987091064453125,0.06005859375,-0.016834907233715,0.0035752938129007,0.0225902646780014
1768619736078,-0.0498199462890625,-0.993377685546875,0.0592193603515625,-0.0184607654809951,0.0076459352858364,0.0173795223236084
1768619736088,-0.057281494140625,-0.9986419677734376,0.05999755859375,-0.0215212702751159,0.0125240478664636,0.0113101787865161
1768619736098,-0.057220458984375,-0.9965667724609376,0.0610809326171875,-0.0245149303227663,0.0101655516773462,0.002707635750994
1768619736108,-0.06109619140625,-0.99798583984375,0.0628204345703125,-0.0249639395624399,0.0085095986723899,-0.0041944785043597
1768619736118,-0.0627593994140625,-1.001434326171875,0.0638427734375,-0.0199785009026527,0.0017536915838718,-0.0073125078342854
1768619736128,-0.0605926513671875,-0.999908447265625,0.061614990234375,-0.0049811764620244,-0.0050903661176562,-0.0064640245400369
1768619736138,-0.0547027587890625,-0.99853515625,0.052032470703125,0.01726527325809,-0.002182993106544,-0.0041992724873125
1768619736148,-0.0514068603515625,-0.9940185546875,0.045135498046875,0.0359295047819614,0.0134929055348038,-0.0001459412305848
1768619736158,-0.0521697998046875,-0.9907379150390624,0.042938232421875,0.0460828058421611,0.0274942088872194,0.0020511667244136
1768619736168,-0.0572662353515625,-0.9900970458984376,0.0526885986328125,0.0484452955424785,0.0243761800229549,-0.0012860405258834
1768619736178,-0.0622406005859375,-0.9934844970703124,0.0648956298828125,0.0453421808779239,0.0120659843087196,-0.010227071121335
1768619736188,-0.0638580322265625,-0.9951324462890624,0.07293701171875,0.0472002699971199,0.0022735407110303,-0.0205707885324955
1768619736198,-0.0634002685546875,-0.99517822265625,0.0726776123046875,0.0424385368824005,0.0039105857722461,-0.0276555959135293
1768619736208,-0.060882568359375,-0.9971771240234376,0.07635498046875,0.036404613405466,0.0057585532777011,-0.032841570675373
1768619736218,-0.05804443359375,-0.9983367919921876,0.0780181884765625,0.028407672420144,0.0087255807593464,-0.0267333425581455
1768619736229,-0.0506591796875,-0.9930419921875,0.080657958984375,0.0170578137040138,0.0042994073592126,-0.0134090157225728
1768619736239,-0.042388916015625,-0.9869232177734376,0.0845794677734375,0.0054392400197684,0.0012197277974337,0.0023076289799064
1768619736249,-0.0372161865234375,-0.980255126953125,0.08709716796875,-0.0050853062421083,-0.0032301479950547,0.0149382026866078
1768619736259,-0.03741455078125,-0.9808349609375,0.0818634033203125,-0.0149038480594754,-0.0018855180824175,0.0214584209024906
1768619736269,-0.0432891845703125,-0.9854278564453124,0.076690673828125,-0.0299866609275341,0.0001206411980092,0.0208213925361633
1768619736279,-0.051910400390625,-0.9904937744140624,0.0763702392578125,-0.0403136014938354,-0.0018066884949803,0.0112198973074555
1768619736289,-0.0625152587890625,-0.9958648681640624,0.075439453125,-0.0488698035478591,-0.0023105584550648,-0.0004609931784216
1768619736299,-0.0660400390625,-0.9976654052734376,0.071380615234375,-0.0488341189920902,-0.0031148332636803,-0.0091500887647271
1768619736309,-0.0662994384765625,-1.0007781982421875,0.06500244140625,-0.0465334132313728,0.0021544971968978,-0.0183180216699838
1768619736319,-0.067230224609375,-1.0016021728515625,0.061065673828125,-0.0440132655203342,0.0057785268872976,-0.0209606755524873
1768619736329,-0.0646514892578125,-1.0000457763671875,0.0644989013671875,-0.0434446781873703,0.0019851203542202,-0.0210504233837127
1768619736339,-0.0569915771484375,-0.9955902099609376,0.0648956298828125,-0.0398978814482688,-0.0044948831200599,-0.0139080919325351
1768619736349,-0.048797607421875,-0.991485595703125,0.06207275390625,-0.0302082356065511,-0.0058783954009413,-0.0055433697998523
1768619736359,-0.04376220703125,-0.98919677734375,0.055877685546875,-0.0175925754010677,-0.0016500946367159,0.0025486452504992
1768619736369,-0.0434722900390625,-0.987823486328125,0.0509033203125,-0.0030154972337186,0.0032120386604219,0.0051383031532168
1768619736379,-0.0469512939453125,-0.9901580810546876,0.0466766357421875,0.0131605435162782,0.0064054350368678,0.0058024954050779
1768619736389,-0.0491943359375,-0.9930572509765624,0.044158935546875,0.0256592910736799,0.014781342819333,0.0003182477375958
1768619736399,-0.055938720703125,-0.994537353515625,0.0453338623046875,0.0344655662775039,0.0206235200166702,-0.0058728028088808
1768619736409,-0.0596771240234375,-0.995941162109375,0.056365966796875,0.0394688472151756,0.0145658934488892,-0.0106635633856058
1768619736419,-0.05865478515625,-0.9969635009765624,0.060333251953125,0.0422009825706481,0.0074422038160264,-0.0131874410435557
1768619736429,-0.0549774169921875,-0.99365234375,0.0653228759765625,0.0506485290825367,0.0010676612146198,-0.0121496068313717
1768619736439,-0.04705810546875,-0.9909210205078124,0.0655975341796875,0.0570853911340236,0.0034764904994517,-0.0068890652619302
1768619736450,-0.048004150390625,-0.9906463623046876,0.064239501953125,0.0521705262362957,0.0166894979774951,0.0064325993880629
1768619736460,-0.0448150634765625,-0.990142822265625,0.068603515625,0.0477725826203823,0.021416075527668,0.0167070738971233
1768619736470,-0.0438385009765625,-0.9866180419921876,0.071929931640625,0.0452473722398281,0.0220227446407079,0.0260686185210943
1768619736479,-0.04522705078125,-0.9863739013671876,0.07330322265625,0.0404584780335426,0.0256049614399671,0.0284422934055328
1768619736490,-0.0476531982421875,-0.988372802734375,0.0758514404296875,0.032343290746212,0.0244507472962141,0.025326395407319
1768619736500,-0.0537261962890625,-0.9927520751953124,0.0804290771484375,0.0204195212572813,0.0208051465451717,0.0192946027964353
1768619736510,-0.0572052001953125,-0.9992218017578124,0.084625244140625,0.0033859428949654,0.0167720559984445,0.0034724958240985
1768619736520,-0.064666748046875,-1.0011749267578125,0.0900421142578125,-0.0141118243336677,0.0045598642900586,-0.0096262618899345
1768619736530,-0.0699005126953125,-1.0037078857421875,0.0945587158203125,-0.0282779764384031,-0.0115495966747403,-0.0223923902958631
1768619736540,-0.068084716796875,-1.002227783203125,0.0906829833984375,-0.0378861278295517,-0.020935108885169,-0.0262854006141424
1768619736550,-0.060546875,-0.9985809326171876,0.0842742919921875,-0.0436010062694549,-0.0221167542040348,-0.0235713720321655
1768619736560,-0.055877685546875,-0.99853515625,0.075958251953125,-0.0470841564238071,-0.0143661564216017,-0.0182751435786485
1768619736570,-0.0537872314453125,-0.994842529296875,0.0695037841796875,-0.0482231900095939,-0.0020570256747305,-0.0106694223359227
1768619736580,-0.04644775390625,-0.982879638671875,0.0628662109375,-0.045671347528696,0.0050914315506815,0.003376621985808
1768619736590,-0.04205322265625,-0.971466064453125,0.06121826171875,-0.0350658409297466,0.0081332940608263,0.0198352243751287
1768619736600,-0.0417938232421875,-0.9696502685546876,0.0575408935546875,-0.0182730127125978,0.0070001189596951,0.0259405206888914
1768619736610,-0.0457916259765625,-0.9869232177734376,0.0555877685546875,-0.0081130536273121,0.0117927435785532,0.0166633985936641
1768619736620,-0.0525360107421875,-0.9963226318359376,0.0560302734375,-0.0033310819417238,0.0094608794897794,-0.0006532734259963
1768619736630,-0.0614776611328125,-1.0110931396484375,0.0608978271484375,0.0034485273063182,0.0173622127622365,-0.0147416619583964
1768619736640,-0.0625152587890625,-0.9938507080078124,0.06201171875,0.0113027216866612,0.0132183339446783,-0.0188738219439983
1768619736650,-0.0598602294921875,-0.9996490478515624,0.0649261474609375,0.0171299837529659,0.0018785938154906,-0.0265578404068946
1768619736660,-0.0678558349609375,-0.9977874755859376,0.0696258544921875,0.0212895758450031,-0.0050568100996315,-0.0218048971146345
1768619736670,-0.0612335205078125,-0.9893035888671876,0.07305908203125,0.0215401798486709,-0.0140465768054127,-0.0172013565897941
1768619736681,-0.055572509765625,-0.9926605224609376,0.0725860595703125,0.0203952863812446,-0.016414925456047,-0.0122281704097986
1768619736691,-0.0499267578125,-0.9931182861328124,0.0698089599609375,0.0187507849186658,-0.0111991250887513,-0.0045172539539635
1768619736701,-0.042327880859375,-0.9872589111328124,0.0659942626953125,0.0149959940463304,0.002264752285555,0.0103953825309872
1768619736711,-0.0365753173828125,-0.9790802001953124,0.064056396484375,0.0029542446136474,0.0098457066342234,0.0304188914597034
1768619736721,-0.0385589599609375,-0.9800567626953124,0.0682220458984375,-0.0075998627580702,0.0155531270429492,0.0416201464831829
1768619736731,-0.043182373046875,-0.9856109619140624,0.0697174072265625,-0.0197529327124357,0.0223918575793504,0.0409237295389175
1768619736741,-0.04888916015625,-0.99188232421875,0.0730743408203125,-0.0318695157766342,0.0207774508744478,0.0345108397305011
1768619736751,-0.0539703369140625,-0.996826171875,0.075531005859375,-0.0410963036119937,0.0128886345773935,0.0214285925030708
1768619736761,-0.0587158203125,-0.9996337890625,0.0772247314453125,-0.0413218736648559,-0.0017158746486529,0.0121195130050182
1768619736771,-0.061614990234375,-1.0030364990234375,0.0740509033203125,-0.0360906273126602,-0.0101407850161194,0.0040578586049377
1768619736781,-0.0604095458984375,-1.0032958984375,0.067352294921875,-0.0246568769216537,-0.0159182455390691,0.0046237800270318
1768619736791,-0.05615234375,-1.0025634765625,0.0593109130859375,-0.0103716803714632,-0.009917345829308,0.0062456452287733
1768619736801,-0.05615234375,-0.998321533203125,0.053680419921875,0.0025377261918038,0.0031414648983627,0.0090646017342805
1768619736811,-0.0512847900390625,-0.9946746826171876,0.0535736083984375,0.0154569866135716,0.0131237916648387,0.0152830826118588
1768619736821,-0.0502166748046875,-0.99310302734375,0.0522613525390625,0.0238914843648672,0.0220768060535192,0.017321465536952
1768619736831,-0.0526580810546875,-0.99273681640625,0.0572967529296875,0.0371716022491455,0.0207814443856477,0.0156109174713492
1768619736841,-0.0571136474609375,-0.99505615234375,0.0587921142578125,0.0463914684951305,0.0288233924657106,0.0107810087502002
1768619736851,-0.061492919921875,-0.9975433349609376,0.0628662109375,0.048282578587532,0.0339486449956893,0.0040762345306575
1768619736861,-0.0632781982421875,-0.995574951171875,0.0725555419921875,0.0420126989483833,0.0227284822613,-0.0026112294290214
1768619736871,-0.0619049072265625,-0.9927825927734376,0.0826873779296875,0.0363127328455448,0.0063729444518685,-0.0115828868001699
1768619736881,-0.06488037109375,-0.9945068359375,0.0872955322265625,0.0259479768574237,-0.0088552767410874,-0.0222326014190912
1768619736891,-0.063934326171875,-0.995880126953125,0.0901336669921875,0.0144772101193666,-0.0219473764300346,-0.0299922544509172
1768619736902,-0.0611114501953125,-0.99676513671875,0.087646484375,0.0035238948184996,-0.0234139803797006,-0.0301680229604244
1768619736911,-0.0549163818359375,-0.994903564453125,0.083038330078125,-0.0094299865886569,-0.0135363154113292,-0.0271999295800924
1768619736922,-0.0522003173828125,-0.9925537109375,0.0820770263671875,-0.0225252825766801,-0.0090928310528397,-0.0223252791911363
1768619736932,-0.055389404296875,-0.996307373046875,0.07952880859375,-0.0343848727643489,-0.0058568236418068,-0.0183577015995979
1768619736942,-0.0521697998046875,-0.9979095458984376,0.0773773193359375,-0.0415714122354984,-0.0041012680158019,-0.0086129289120435
1768619736952,-0.0473785400390625,-0.9906768798828124,0.071258544921875,-0.0434454791247844,-0.0010966897243633,0.0025070998817682
1768619736962,-0.045135498046875,-0.99365234375,0.0630035400390625,-0.0415556989610195,0.0141807999461889,0.0031459920573979
1768619736972,-0.048095703125,-0.9920654296875,0.0600128173828125,-0.0436015389859676,0.0239002723246812,0.0047968858852982
1768619736982,-0.0522918701171875,-0.987152099609375,0.065216064453125,-0.0382941253483295,0.0141746746376156,-0.0008807073463685
1768619736992,-0.056182861328125,-0.9893798828125,0.067840576171875,-0.030465230345726,0.0001121190798585,-0.0062009040266275
1768619737002,-0.054901123046875,-0.9915924072265624,0.065948486328125,-0.0126380305737257,-0.0110441287979483,-0.0090712588280439
1768619737012,-0.0524139404296875,-0.9925689697265624,0.0591583251953125,0.0062802662141621,-0.0082099931314587,-0.0075271585956215
1768619737022,-0.0502777099609375,-0.9931640625,0.0523223876953125,0.0198424141854047,0.0039105857722461,0.000190149701666
1768619737032,-0.0489501953125,-0.987213134765625,0.0522918701171875,0.0272177718579769,0.0116305574774742,0.0063271382823586
1768619737042,-0.0513763427734375,-0.98651123046875,0.05413818359375,0.029977073892951,0.0204400271177291,0.0069750850088894
1768619737052,-0.0541534423828125,-0.994720458984375,0.056365966796875,0.0280579999089241,0.0305214244872331,0.0076113143004477
1768619737062,-0.055755615234375,-0.9971771240234376,0.0634307861328125,0.022650184109807,0.0301776099950075,0.0049140648916363
1768619737072,-0.058502197265625,-0.9965667724609376,0.0681304931640625,0.0117306914180517,0.0207883697003126,-0.0013560815714299
1768619737082,-0.05767822265625,-0.9961700439453124,0.0777435302734375,0.0083058672025799,0.0002308960683876,-0.0044109937734901
1768619737093,-0.057830810546875,-1.0001068115234375,0.077880859375,0.009630256332457,-0.0136598860844969,-0.0073809507302939
1768619737102,-0.0566864013671875,-0.9994049072265624,0.073577880859375,0.0167315751314163,-0.0165776442736387,-0.00408022897318
1768619737112,-0.0525665283203125,-0.994354248046875,0.0643310546875,0.0213356483727693,-0.0002362223895033,-0.0009864348685368
1768619737123,-0.051513671875,-0.9931182861328124,0.0629425048828125,0.0183630287647247,0.0182037707418203,0.003506850451231
1768619737133,-0.0537567138671875,-0.99359130859375,0.069488525390625,0.0131256552413105,0.0242310371249914,0.0050522829405963
1768619737143,-0.053314208984375,-0.9940185546875,0.0762481689453125,0.009925334714353,0.0193073842674493,0.0036834180355072
1768619737153,-0.0531158447265625,-0.9928741455078124,0.0799102783203125,0.0136401783674955,0.0124300383031368,0.0008117315010167
1768619737163,-0.053741455078125,-0.9938507080078124,0.079193115234375,0.0125088673084974,0.0125445537269115,-0.0039982036687433
1768619737173,-0.056976318359375,-0.99346923828125,0.080108642578125,0.0073822825215756,0.0117434747517108,-0.0112308161333203
1768619737183,-0.0603485107421875,-0.9941253662109376,0.0821380615234375,-0.0013443636707961,0.0064560351893305,-0.019095130264759
1768619737193,-0.0626678466796875,-0.9961700439453124,0.084808349609375,-0.0060504358261823,-0.0037673076149076,-0.023184947669506
1768619737203,-0.0626068115234375,-0.996490478515625,0.0853118896484375,-0.0138058271259069,-0.0105370627716183,-0.0232605822384357
1768619737213,-0.0571746826171875,-0.9921112060546876,0.0847930908203125,-0.0214807912707328,-0.0198844913393259,-0.016653811559081
1768619737223,-0.05255126953125,-0.988433837890625,0.08282470703125,-0.0195811577141284,-0.0264105685055255,-0.0110244220122694
1768619737233,-0.04864501953125,-0.9898223876953124,0.0731658935546875,-0.0186927281320095,-0.0170455630868673,-0.00567466346547
1768619737243,-0.0472259521484375,-0.986328125,0.0655059814453125,-0.0186543781310319,-0.0012394351651892,0.0007068029372021
1768619737253,-0.0450286865234375,-0.9840240478515624,0.0641937255859375,-0.0232605822384357,0.0129147330299019,0.0005544701125472
1768619737263,-0.046051025390625,-0.9862213134765624,0.0643768310546875,-0.0247703269124031,0.0201667863875627,-0.000614391232375
1768619737273,-0.052215576171875,-0.990325927734375,0.06683349609375,-0.0285267159342765,0.0256305281072855,-0.0029044435359537
1768619737283,-0.05657958984375,-0.992767333984375,0.070709228515625,-0.0307264868170022,0.0146231511607766,-0.0080371536314487
1768619737293,-0.0587005615234375,-0.996673583984375,0.0735321044921875,-0.0274856872856616,5.459480235003866e-05,-0.0096736662089824
1768619737303,-0.05755615234375,-0.9971160888671876,0.073089599609375,-0.0258449129760265,-0.0116835543885827,-0.0100901843979954
1768619737313,-0.0559844970703125,-0.9964752197265624,0.0702972412109375,-0.0151917356997728,-0.0197412148118019,-0.0077332872897386
1768619737323,-0.0515899658203125,-0.997772216796875,0.0631866455078125,-0.0061276671476662,-0.0121189812198281,0.0005645901546813
1768619737334,-0.0462799072265625,-0.992919921875,0.056243896484375,0.0035025894176214,-0.0038530614692717,0.004472779110074
1768619737344,-0.0466156005859375,-0.9919586181640624,0.05419921875,0.0116529278457164,0.0030530479270964,0.0064179520122706
1768619737354,-0.051300048828125,-0.993560791015625,0.0544891357421875,0.0227047801017761,0.0076491311192512,0.0052296495996415
1768619737364,-0.053619384765625,-0.993682861328125,0.0528564453125,0.0345747545361518,0.0126393623650074,0.0036128442734479
1768619737374,-0.054290771484375,-0.99407958984375,0.05523681640625,0.0382144972681999,0.0236006677150726,0.0002870887692552
1768619737384,-0.055908203125,-0.9947662353515624,0.0638885498046875,0.0365580096840858,0.0243082698434591,-0.0084803039208054
1768619737394,-0.05718994140625,-0.996002197265625,0.0713653564453125,0.0397889576852321,0.0166002810001373,-0.0106731504201889
1768619737404,-0.0583343505859375,-0.9956207275390624,0.0731658935546875,0.0378640256822109,0.0176572911441326,-0.0127932932227849
1768619737414,-0.0550079345703125,-0.992645263671875,0.0772857666015625,0.0265884678810834,0.0163677874952554,-0.0109269497916102
1768619737424,-0.054168701171875,-0.99102783203125,0.0866851806640625,0.0149477906525135,-0.000572579621803,-0.0093580819666385
1768619737434,-0.052581787109375,-0.9933929443359376,0.0912322998046875,0.0052504218183457,-0.011797803454101,-0.0039132488891482
1768619737444,-0.0464630126953125,-0.990997314453125,0.0872802734375,0.0015656723408028,-0.0149826779961586,0.001292698434554
1768619737454,-0.0431060791015625,-0.986724853515625,0.0814666748046875,0.0011305118678137,-0.0090864393860101,0.0085865641012787
1768619737464,-0.04400634765625,-0.98583984375,0.0758514404296875,-0.0013257216196507,-0.0011158644920215,0.0103855291381478
1768619737474,-0.048583984375,-0.98760986328125,0.074462890625,-0.0052181975916028,0.0059231366030871,0.0148117030039429
1768619737484,-0.0506591796875,-0.9913330078125,0.0731048583984375,-0.0086238477379083,0.007809187285602,0.0119514679536223
1768619737494,-0.055389404296875,-0.9947509765625,0.0735321044921875,-0.0093519566580653,0.0066520436666905,9.82706405920908e-05
1768619737504,-0.06158447265625,-0.9999847412109376,0.072723388671875,-0.0083492761477828,0.0075873457826673,-0.0104459831491112
1768619737514,-0.063873291015625,-1.0001068115234375,0.072998046875,-0.0114976651966571,0.0048189898952841,-0.0200852937996387
1768619737524,-0.0639495849609375,-0.9978179931640624,0.0771331787109375,-0.0116145778447389,0.0002479403046891,-0.0216850545257329
1768619737534,-0.0587158203125,-0.9977569580078124,0.077728271484375,-0.0146114332601428,-0.004324440844357,-0.0204932913184165
1768619737544,-0.0563507080078125,-0.998077392578125,0.0781097412109375,-0.0187481213361024,-0.0039031289052218,-0.0188208259642124
1768619737555,-0.0529632568359375,-0.9898223876953124,0.0763092041015625,-0.022594790905714,0.0009281116072088,-0.0079039959236979
1768619737565,-0.0433502197265625,-0.97906494140625,0.0744781494140625,-0.0238637868314981,-0.0017627463676035,0.0075119785033166
1768619737575,-0.03997802734375,-0.968292236328125,0.0713653564453125,-0.0164202526211738,-0.0003536677977535,0.0220158193260431
1768619737585,-0.038604736328125,-0.9701690673828124,0.0653076171875,-0.0094699347391724,0.0042498726397752,0.0211015567183494
1768619737595,-0.0467376708984375,-0.9858551025390624,0.0618896484375,-0.0046227150596678,0.0153712332248687,0.0137842558324337
1768619737605,-0.0529937744140625,-1.0049285888671875,0.0633697509765625,-0.0033190976828336,0.0117735685780644,-0.0169784501194953
1768619737615,-0.07000732421875,-1.016754150390625,0.06646728515625,-0.0023688818328082,0.0212030224502086,-0.0231644418090581
1768619737625,-0.060882568359375,-0.9954986572265624,0.0737762451171875,0.0021827267482876,0.0069724218919873,-0.0190996583551168
1768619737635,-0.0572662353515625,-1.0000762939453125,0.0771942138671875,0.0059257997199893,-0.0117360185831785,-0.0127938259392976
1768619737645,-0.0554962158203125,-0.996307373046875,0.0788421630859375,0.0103791374713182,-0.0164096001535654,-0.0024008397012948
1768619737655,-0.0476837158203125,-0.9884796142578124,0.0773773193359375,0.0128175280988216,-0.0183776747435331,0.0053968960419297
1768619737665,-0.047454833984375,-0.989044189453125,0.07366943359375,0.0099477050825953,-0.0147224869579076,0.0091977594420313
1768619737675,-0.0481109619140625,-0.990264892578125,0.070648193359375,0.0104640927165746,-0.0092361085116863,0.0118393488228321
1768619737685,-0.046875,-0.9834442138671876,0.0685882568359375,0.0034245587885379,0.0004753742541652,0.016978183761239
1768619737695,-0.0440826416015625,-0.975860595703125,0.0700836181640625,-0.0057343184016644,0.0005427522119134,0.0203486811369657
1768619737705,-0.0511932373046875,-0.9822540283203124,0.0697021484375,-0.0126697225496172,0.0100198769941926,0.0180639550089836
1768619737715,-0.0551300048828125,-0.986236572265625,0.06787109375,-0.0222059693187475,0.0233809556812047,0.0160484742373228
1768619737725,-0.055206298828125,-0.992279052734375,0.0722808837890625,-0.031295072287321,0.025276593863964,0.0141347274184226
1768619737735,-0.055938720703125,-1.0005035400390625,0.077178955078125,-0.0364629365503788,0.017535051330924,0.0066669574007391
1768619737745,-0.0589599609375,-1.0048980712890625,0.0802154541015625,-0.0351534597575664,0.0015835155500099,0.0063380571082234
1768619737755,-0.0545501708984375,-1.0033111572265625,0.079254150390625,-0.0283251143991947,-0.0114691695198416,0.0092877745628356
1768619737765,-0.0511627197265625,-1.000518798828125,0.0693359375,-0.0178676806390285,-0.0117852864786982,0.0109666306525468
1768619737776,-0.05120849609375,-0.9974517822265624,0.0640106201171875,-0.0096712689846754,-0.0044386903755366,0.0093096122145652
1768619737785,-0.0533294677734375,-0.996826171875,0.060882568359375,-0.0031830100342631,0.0026232136879116,0.0066933226771652
1768619737796,-0.052825927734375,-0.9959564208984376,0.060333251953125,0.0038709046784788,0.0075306207872927,0.0059055597521364
1768619737806,-0.052490234375,-0.9933319091796876,0.0630340576171875,0.0165845695883035,0.0042205778881907,0.0078629832714796
1768619737816,-0.05194091796875,-0.997222900390625,0.0606231689453125,0.0308335460722446,0.011624963954091,0.0065772091038525
1768619737826,-0.0547332763671875,-0.9984893798828124,0.062591552734375,0.0380981154739856,0.0154252955690026,0.0076744314283132
1768619737836,-0.052581787109375,-0.9964752197265624,0.0683441162109375,0.0393607206642627,0.0108438590541481,0.0075644426979124
1768619737846,-0.0531463623046875,-0.995941162109375,0.0734100341796875,0.0436119250953197,0.0028905950020998,0.0080499369651079
1768619737856,-0.0537109375,-0.9953765869140624,0.0726776123046875,0.0454021021723747,0.0114209661260247,0.0037420075386762
1768619737866,-0.0574798583984375,-0.9917144775390624,0.077484130859375,0.0344080403447151,0.0088262483477592,-0.0064741447567939
1768619737876,-0.062957763671875,-0.993804931640625,0.0865325927734375,0.0207241866737604,-0.0032716933637857,-0.0142495092004537
1768619737886,-0.06390380859375,-0.997161865234375,0.0919189453125,0.0060246028006076,-0.0134335169568657,-0.0226781480014324
1768619737896,-0.0648651123046875,-0.99786376953125,0.0910797119140625,-0.0083327647298574,-0.0150798829272389,-0.0272854175418615
1768619737906,-0.0595703125,-0.9935455322265624,0.090301513671875,-0.0224821399897336,-0.0147893326357007,-0.0300146248191595
1768619737916,-0.054901123046875,-0.99530029296875,0.0858306884765625,-0.0340152233839035,-0.0132082132622599,-0.0322474166750907
1768619737926,-0.0535430908203125,-0.9945831298828124,0.0810089111328125,-0.047247938811779,0.0018354506464675,-0.0253666099160909
1768619737936,-0.0503082275390625,-0.98785400390625,0.0780181884765625,-0.0603120774030685,0.0069726882502436,-0.0192903410643339
1768619737946,-0.049560546875,-0.9936065673828124,0.075775146484375,-0.065271146595478,0.0154529921710491,-0.0194922089576721
1768619737956,-0.0517425537109375,-0.989837646484375,0.0726776123046875,-0.0593805015087127,0.0153680369257926,-0.016838900744915
1768619737966,-0.0505828857421875,-0.986785888671875,0.0704345703125,-0.055356465280056,0.0112910037860274,-0.0147627005353569
1768619737976,-0.048553466796875,-0.988189697265625,0.0726165771484375,-0.0482618063688278,0.0002980077115353,-0.0142958490177989
1768619737986,-0.0484619140625,-0.98773193359375,0.07220458984375,-0.0449056886136531,-0.0091921668499708,-0.0145744150504469
1768619737996,-0.046630859375,-0.990509033203125,0.0706024169921875,-0.0323238521814346,-0.0149959940463304,-0.0099232047796249
1768619738007,-0.045745849609375,-0.9914398193359376,0.064666748046875,-0.0231402069330215,-0.0159909501671791,-0.0095913745462894
1768619738017,-0.0481109619140625,-0.9907073974609376,0.0608673095703125,-0.0184091012924909,-0.0101895201951265,-0.0011209244839847
1768619738027,-0.0475616455078125,-0.989593505859375,0.05975341796875,-0.0130710611119866,-0.0030503845773637,0.0057036918587982
1768619738037,-0.0482940673828125,-0.9925994873046876,0.0557403564453125,-0.0068930597044527,0.0058142133057117,0.0060890512540936
1768619738047,-0.0486907958984375,-0.996917724609375,0.0526123046875,-8.415588672505692e-05,0.0162996109575033,0.0114116454496979
1768619738057,-0.0465545654296875,-0.99371337890625,0.05474853515625,0.0065822689794003,0.016622919589281,0.0142396558076143
1768619738067,-0.0457611083984375,-0.9930877685546876,0.055816650390625,0.015931561589241,0.013790912926197,0.0118252336978912
1768619738077,-0.05108642578125,-0.998809814453125,0.055755615234375,0.0274534616619348,0.0122287031263113,0.0058192731812596
1768619738087,-0.0560455322265625,-1.00018310546875,0.0548858642578125,0.034290861338377,0.0168498195707798,0.0014756575692445
1768619738097,-0.056243896484375,-0.9950408935546876,0.06146240234375,0.0389138422906398,0.0130273848772048,-0.0019419770687818
1768619738107,-0.058380126953125,-0.995513916015625,0.0661773681640625,0.0487805902957916,0.0070709590800106,-0.0044051348231732
1768619738117,-0.05712890625,-0.9997711181640624,0.06549072265625,0.0600268505513668,0.0097508979961276,-0.003402987262234
1768619738127,-0.055419921875,-0.9955291748046876,0.0660552978515625,0.063854344189167,0.0167030803859233,0.0003254382754676
1768619738137,-0.0505828857421875,-0.99371337890625,0.0731353759765625,0.0610849261283874,0.020210463553667,0.0051958272233605
1768619738147,-0.047637939453125,-0.9891357421875,0.08319091796875,0.0487486310303211,0.0164593998342752,0.0090893683955073
1768619738157,-0.0447998046875,-0.9860992431640624,0.0909881591796875,0.0360211171209812,0.0123879602178931,0.0092936335131526
1768619738167,-0.049041748046875,-0.9881744384765624,0.09271240234375,0.0232520587742328,0.0053747915662825,0.0061292652972042
1768619738177,-0.0559539794921875,-0.9914093017578124,0.094482421875,0.0107306744903326,-0.0023827301338315,-0.0004934837343171
1768619738187,-0.0583648681640625,-0.9925537109375,0.0936126708984375,0.0023369237314909,-0.0152745600789785,-0.0052757221274077
1768619738197,-0.0589447021484375,-0.9938201904296876,0.0890045166015625,-0.0021244036033749,-0.0139562953263521,-0.0096470350399613
1768619738207,-0.05828857421875,-0.99468994140625,0.084503173828125,-0.0111695639789104,-0.0060752029530704,-0.0152439335361123
1768619738218,-0.0584716796875,-0.992523193359375,0.08319091796875,-0.0237545985728502,0.001888447557576,-0.0193864814937114
1768619738228,-0.05438232421875,-0.9909515380859376,0.085723876953125,-0.0379662923514843,0.0013193299528211,-0.01833719573915
1768619738238,-0.0504302978515625,-0.990203857421875,0.0854644775390625,-0.0462207570672035,0.0010668623726814,-0.0139674805104732
1768619738248,-0.0491180419921875,-0.9904632568359376,0.081146240234375,-0.0512725077569484,0.0058363173156976,-0.012410064227879
1768619738258,-0.0494537353515625,-0.99188232421875,0.0773468017578125,-0.062490276992321,0.0105216167867183,-0.0053737265989184
1768619738268,-0.0471343994140625,-0.98687744140625,0.08233642578125,-0.0752313733100891,-0.0028032432310283,3.808320252574049e-05
1768619738278,-0.04681396484375,-0.9889678955078124,0.085174560546875,-0.0682568177580833,-0.0279586631804704,0.0035824843216687
1768619738288,-0.0501861572265625,-0.9949798583984376,0.0708770751953125,-0.0551402159035205,-0.0286247208714485,0.0035601137205958
1768619738298,-0.04913330078125,-0.996124267578125,0.0584564208984375,-0.0408773906528949,-0.0159028004854917,0.0045654568821191
1768619738308,-0.0497894287109375,-0.99456787109375,0.050872802734375,-0.033887393772602,-0.0013337110867723,0.0014612764352932
1768619738318,-0.0523529052734375,-0.9955291748046876,0.0530548095703125,-0.028074512258172,0.0054951664060354,-0.0023664848413318
1768619738328,-0.05548095703125,-0.9982452392578124,0.0546722412109375,-0.0171395726501941,0.0093799196183681,-0.0025270734913647
1768619738338,-0.05438232421875,-0.9960479736328124,0.05743408203125,-0.0054296529851853,0.0088893650099635,-0.0022383867762982
1768619738348,-0.051849365234375,-0.992950439453125,0.0592193603515625,0.0104702180251479,0.0019952403381466,-0.0014213290996849
1768619738358,-0.0504913330078125,-0.9944915771484376,0.05657958984375,0.0232810880988836,0.0070754862390458,0.0027007116004824
1768619738368,-0.04913330078125,-0.991729736328125,0.0568389892578125,0.0313824228942394,0.0128822429105639,0.0061385864391922
1768619738378,-0.048095703125,-0.9894866943359376,0.061309814453125,0.0406054817140102,0.0072166337631642,0.0084712486714124
1768619738388,-0.0487823486328125,-0.9899749755859376,0.062408447265625,0.0491584911942482,0.0051092742942273,0.0117181753739714
1768619738398,-0.0497283935546875,-0.9911651611328124,0.0603179931640625,0.0586843527853488,0.0098004331812262,0.0073942667804658
1768619738408,-0.0549163818359375,-0.991455078125,0.0657806396484375,0.057219348847866,0.0125690549612045,0.0029004486277699
1768619738418,-0.05889892578125,-0.993927001953125,0.073944091796875,0.0509499981999397,0.0107916612178087,-0.0055540222674608
1768619738429,-0.058563232421875,-0.99639892578125,0.077484130859375,0.0377716124057769,0.0157906804233789,-0.0093588810414075
1768619738439,-0.058135986328125,-0.9935760498046876,0.0871734619140625,0.0243165250867605,0.006548979319632,-0.0083444826304912
1768619738449,-0.0542449951171875,-0.9944000244140624,0.0906524658203125,0.0137568246573209,0.0043049999512732,-0.0053239255212247
1768619738459,-0.0472412109375,-0.99200439453125,0.0924835205078125,0.0022562299855053,0.0014650048688054,0.0024288028944283
1768619738469,-0.0443572998046875,-0.9847869873046876,0.092498779296875,-0.0095889773219823,-0.0015864450251683,0.0109306778758764
1768619738479,-0.0430908203125,-0.9832305908203124,0.09228515625,-0.0225167609751224,-0.0038621162530034,0.0186770148575305
1768619738489,-0.0428009033203125,-0.9872589111328124,0.09130859375,-0.0310708340257406,-0.006736465729773,0.0207678619772195
1768619738499,-0.0486907958984375,-0.991546630859375,0.085601806640625,-0.0392720401287078,-0.0085309036076068,0.0160447470843791
1768619738509,-0.0534515380859375,-0.997100830078125,0.082427978515625,-0.0443094074726104,-0.0097479680553078,0.0092792520299553
1768619738519,-0.0574951171875,-1.0006866455078125,0.0768890380859375,-0.042488869279623,-0.0124566694721579,-0.0007965514669194
1768619738529,-0.0623626708984375,-1.0031585693359375,0.0697174072265625,-0.0367963649332523,-0.0093690007925033,-0.0104680871590971
1768619738539,-0.0644073486328125,-1.0013885498046875,0.0662841796875,-0.036562006920576,-0.0042000710964202,-0.0196567922830581
1768619738549,-0.064544677734375,-1.0015106201171875,0.063720703125,-0.0339465141296386,-0.0010032127611339,-0.0276113878935575
1768619738559,-0.062774658203125,-0.99688720703125,0.0635223388671875,-0.0292388461530208,0.0062459115870296,-0.0274076554924249
1768619738569,-0.05450439453125,-0.9876708984375,0.0634765625,-0.0223686881363391,0.0029558425303548,-0.0199263039976358
1768619738579,-0.0473785400390625,-0.9751434326171876,0.0641632080078125,-0.0110510531812906,0.0034525219816714,-0.0007717840489931
1768619738589,-0.0409698486328125,-0.9708099365234376,0.06402587890625,-4.6339002437889576e-05,0.0075255604460835,0.009760751388967
1768619738599,-0.0390625,-0.987030029296875,0.0647430419921875,0.004250671248883,0.0091261202469468,0.014659903012216
1768619738609,-0.0400238037109375,-0.996490478515625,0.069488525390625,0.0015108112711459,0.002683401107788,0.0051377704367041
1768619738619,-0.048980712890625,-1.0058135986328125,0.0721588134765625,0.0034373418893665,0.0085053378716111,0.0092654032632708
1768619738629,-0.0474853515625,-0.98858642578125,0.0723114013671875,0.0113051189109683,-0.0036410738248378,0.0127671938389539
1768619738639,-0.0494232177734375,-1.0021820068359375,0.0698089599609375,0.0174847170710563,-0.0054003582336008,0.0081090591847896
1768619738650,-0.05615234375,-0.9965972900390624,0.0697479248046875,0.0189784839749336,0.0015078817959874,0.0063894558697938
1768619738660,-0.05682373046875,-0.9893798828125,0.0723876953125,0.0218989066779613,5.858954318682663e-05,0.0015307849971577
1768619738670,-0.0604095458984375,-0.993499755859375,0.0731658935546875,0.0190208293497562,0.0032365396618843,-0.0007478156476281
1768619738680,-0.05517578125,-0.9915313720703124,0.07574462890625,0.009819340892136,0.0030120352748781,-0.0005507417372427
1768619738690,-0.051300048828125,-0.9865875244140624,0.0810699462890625,0.0046264436095952,-0.0044285706244409,0.0091242557391524
1768619738700,-0.0477294921875,-0.98101806640625,0.0807952880859375,-0.0002151834196411,-0.0087388968095183,0.0249636732041835
1768619738710,-0.0433807373046875,-0.980712890625,0.078948974609375,-0.0063559003174304,-0.0127392308786511,0.0372797288000583
1768619738720,-0.0458526611328125,-0.9857940673828124,0.070159912109375,-0.0095764612779021,-0.0012636699248105,0.0434489399194717
1768619738730,-0.04949951171875,-0.99053955078125,0.0674896240234375,-0.0210565496236085,0.0126050077378749,0.0385274179279804
1768619738740,-0.0544891357421875,-0.9955291748046876,0.0701904296875,-0.0304258167743682,0.0148604391142725,0.0243095997720956
1768619738750,-0.065460205078125,-1.0015411376953125,0.071533203125,-0.0348719619214534,0.010588995181024,0.0079990709200501
1768619738760,-0.0669403076171875,-1.0039825439453125,0.07330322265625,-0.0390563234686851,0.0052144695073366,-0.0064288708381354
1768619738770,-0.0641937255859375,-1.0036773681640625,0.0761260986328125,-0.0356083288788795,-0.0034671693574637,-0.0145355332642793
1768619738780,-0.06146240234375,-1.002899169921875,0.0716705322265625,-0.0302375312894582,-0.0027624969370663,-0.0126833049580454
1768619738790,-0.052093505859375,-0.999664306640625,0.0675506591796875,-0.0212102141231298,0.0001366201613564,-0.0031358720734715
1768619738800,-0.044769287109375,-0.99298095703125,0.06500244140625,-0.0104851312935352,0.0028389296494424,0.0116113824769854
1768619738810,-0.0428619384765625,-0.9913177490234376,0.0675048828125,0.0016085492679849,-0.0002340918581467,0.0198831614106893
1768619738821,-0.0448150634765625,-0.9903564453125,0.0652923583984375,0.0139160817489027,-0.0020181434229016,0.0272942055016756
1768619738830,-0.0479736328125,-0.99169921875,0.06256103515625,0.0225681588053703,0.0037595843896269,0.0272702369838953
1768619738840,-0.0525665283203125,-0.9937896728515624,0.06396484375,0.0324671305716037,0.0023648869246244,0.0196091216057539
1768619738850,-0.058319091796875,-0.99578857421875,0.063873291015625,0.0413724742829799,0.0050458912737667,0.0082273036241531
1768619738860,-0.0634918212890625,-0.997161865234375,0.066802978515625,0.0415903218090534,0.0077173081226646,-0.0010727213229984
1768619738871,-0.0639801025390625,-0.994354248046875,0.0734100341796875,0.0368150062859058,0.0063953148201107,-0.0137834567576646
1768619738881,-0.0657958984375,-0.9979095458984376,0.0807647705078125,0.0286454930901527,-0.0040594562888145,-0.0146604357287287
1768619738891,-0.06256103515625,-0.99774169921875,0.0866851806640625,0.020847225561738,-0.012206332758069,-0.0140404514968395
1768619738901,-0.054534912109375,-0.99481201171875,0.0867767333984375,0.010415356606245,-0.0110065788030624,-0.0092760566622018
1768619738911,-0.05133056640625,-0.9902496337890624,0.0855255126953125,-0.008853412233293,-0.0050269826315343,-0.0040759681724011
1768619738921,-0.049102783203125,-0.9881591796875,0.088226318359375,-0.0240307673811912,-0.00789893604815,-0.0029150960035622
1768619738931,-0.0539703369140625,-0.9938507080078124,0.0879974365234375,-0.0388254262506961,-0.0086957532912492,-0.0045801042579114
1768619738941,-0.0543060302734375,-0.9922943115234376,0.0849609375,-0.0495851300656795,-0.0091977594420313,-0.001774197909981
1768619738951,-0.05078125,-0.98828125,0.0797576904296875,-0.0544046536087989,-0.0096233328804373,-0.0035193674266338
1768619738961,-0.0562286376953125,-0.9955902099609376,0.0711822509765625,-0.0563194639980793,0.0018911106744781,-0.0125485491007566
1768619738971,-0.0630950927734375,-0.9933319091796876,0.0647430419921875,-0.0537985153496265,0.0117413448169827,-0.0156593862920999
1768619738982,-0.0581512451171875,-0.988525390625,0.06365966796875,-0.045290783047676,0.0147693585604429,-0.0142897237092256
1768619738991,-0.0541229248046875,-0.9920196533203124,0.0641937255859375,-0.0324189253151416,0.0104060359299182,-0.0115096494555473
1768619739001,-0.0489044189453125,-0.995513916015625,0.0625152587890625,-0.01603196375072,0.0061697452329099,-0.0088539449498057
1768619739011,-0.046783447265625,-0.9936676025390624,0.062957763671875,0.0028549085836857,0.0026522420812398,0.0023885890841484
1768619739021,-0.0449371337890625,-0.986846923828125,0.0624542236328125,0.0092520881444215,0.0016176040517166,0.010081130079925
1768619739031,-0.0482635498046875,-0.983917236328125,0.065521240234375,0.0083873597905039,0.003590473672375,0.0129940956830978
1768619739041,-0.0538787841796875,-0.9897918701171876,0.06915283203125,-0.0002372876479057,0.004700212739408,0.0093476949259638
1768619739051,-0.05767822265625,-0.9948272705078124,0.073974609375,-0.0103847300633788,6.205165118444711e-05,0.002346244873479
1768619739061,-0.05828857421875,-0.996612548828125,0.0754547119140625,-0.0159233063459396,-0.003589941188693,-0.007154582068324
1768619739071,-0.0599822998046875,-0.9988555908203124,0.07220458984375,-0.0203976836055517,-0.0013243899447843,-0.0138447089120745
1768619739081,-0.0583953857421875,-0.9981231689453124,0.0717926025390625,-0.0215372499078512,-0.0048413607291877,-0.0137408459559082
1768619739092,-0.05487060546875,-0.99920654296875,0.0675201416015625,-0.014071344397962,-0.0039404132403433,-0.0096643455326557
1768619739102,-0.05084228515625,-0.994476318359375,0.06182861328125,-0.013989052735269,0.008967662230134,-0.0054099452681839
1768619739112,-0.0469818115234375,-0.9917144775390624,0.0644378662109375,-0.0105146924033761,0.012598349712789,-0.0014756575692445
1768619739122,-0.04833984375,-0.992156982421875,0.0662994384765625,-0.0024442493449896,0.0096403770148754,0.0047894287854433
1768619739132,-0.05126953125,-0.99090576171875,0.0674896240234375,0.004652542527765,0.0087958881631493,0.0068951901048421
1768619739142,-0.0511016845703125,-0.99090576171875,0.0687255859375,0.0155725684016942,0.0027326694689691,0.0069841397926211
1768619739152,-0.0524444580078125,-0.992218017578125,0.06781005859375,0.0183124281466007,0.0045406897552311,0.0041782334446907
1768619739162,-0.0545654296875,-0.994842529296875,0.0717620849609375,0.0223444532603025,0.0018407768802717,-0.0014170679496601
1768619739172,-0.0602569580078125,-0.998779296875,0.074249267578125,0.0206458903849124,-0.0012261193478479,-0.0087138628587126
1768619739182,-0.0621337890625,-0.9988861083984376,0.0751495361328125,0.0198695790022611,-0.0038027276750653,-0.0119581259787082
1768619739192,-0.0601654052734375,-0.9965972900390624,0.078125,0.0095871137455105,-0.0009158611064776,-0.0128705250099301
1768619739202,-0.0571441650390625,-0.99298095703125,0.0801544189453125,0.0013438310706987,-0.0015582155901938,-0.0088299764320254
1768619739212,-0.0506744384765625,-0.9886932373046876,0.0811767578125,-0.0046730488538742,-0.0036338833160698,0.0003012035158462
1768619739222,-0.0453643798828125,-0.9842681884765624,0.079132080078125,-0.0056190034374594,-0.0031393342651426,0.008943160995841
1768619739232,-0.044647216796875,-0.984344482421875,0.0736083984375,-0.0066355322487652,0.001865011639893,0.0131735922768712
1768619739242,-0.0482940673828125,-0.9877166748046876,0.0703277587890625,-0.0092747248709201,0.0051034153439104,0.0126841031014919
1768619739252,-0.0525970458984375,-0.9894256591796876,0.0695037841796875,-0.0140657518059015,0.0065013086423277,0.0104981809854507
1768619739262,-0.052703857421875,-0.989837646484375,0.0722503662109375,-0.0194732993841171,0.006213154643774,0.0027095000259578
1768619739272,-0.0566253662109375,-0.992950439453125,0.0742950439453125,-0.0268651694059371,0.0006237123161554,-0.0022445120848715
1768619739282,-0.0611419677734375,-0.9970245361328124,0.077972412109375,-0.0220650881528854,-0.0144415237009525,-0.0106233498081564
1768619739293,-0.0644378662109375,-1.0009307861328125,0.0700225830078125,-0.0216656140983104,-0.012957077473402,-0.0121171167120337
1768619739302,-0.0617218017578125,-0.999786376953125,0.0663604736328125,-0.0217002350836992,-0.0057103498838841,-0.0138777326792478
1768619739312,-0.0550689697265625,-0.9959564208984376,0.0673370361328125,-0.0197103209793567,-0.0020136160310357,-0.0132886413484811
1768619739323,-0.05303955078125,-0.994110107421875,0.06640625,-0.0215947739779949,0.0026117621455341,-0.0090680634602904
1768619739333,-0.0503997802734375,-0.9906158447265624,0.06915283203125,-0.0193297564983367,0.0009406284661963,0.0022879217285662
1768619739343,-0.0460968017578125,-0.9888458251953124,0.06842041015625,-0.011607120744884,-0.0010175938950851,0.0062312642112374
1768619739353,-0.0471343994140625,-0.9906005859375,0.06256103515625,-0.0063313990831375,0.0092765893787145,0.0092363748699426
1768619739363,-0.0489044189453125,-0.9899444580078124,0.0625762939453125,-0.0037225666455924,0.0120420157909393,0.0096305226907134
1768619739373,-0.052825927734375,-0.989227294921875,0.066162109375,-0.00490607554093,0.0130902351811528,0.0020881847012788
1768619739383,-0.0564727783203125,-0.9943389892578124,0.068450927734375,-0.0050288471393287,0.0088715218007564,-0.0015078817959874
1768619739393,-0.058624267578125,-0.99755859375,0.070526123046875,-0.0015110776294022,0.0024980450980365,-0.0062741413712501
1768619739403,-0.05841064453125,-0.998291015625,0.0716705322265625,-0.0020754013676196,-0.0012868394842371,-0.0105304047465324
1768619739413,-0.0570220947265625,-0.99810791015625,0.0732421875,0.0006452839006669,-0.0056341835297644,-0.0107868677005171
1768619739423,-0.0538787841796875,-0.9940643310546876,0.0694122314453125,0.001856489572674,-0.0047369645908474,-0.0083013391122221
1768619739433,-0.04962158203125,-0.9909820556640624,0.069091796875,0.0034898063167929,-0.0002964098239317,-0.0011179950088262
1768619739443,-0.048095703125,-0.98797607421875,0.068359375,0.0058099520392715,0.0019555592443794,0.007831291295588
1768619739453,-0.04754638671875,-0.987945556640625,0.06634521484375,0.0056482981890439,0.0097194723784923,0.0152218295261263
1768619739463,-0.0480804443359375,-0.98797607421875,0.0686187744140625,0.0061857243999838,0.0116707710549235,0.0154149085283279
1768619739473,-0.0511474609375,-0.9898681640625,0.0692901611328125,0.0118928784504532,0.0131006222218275,0.012091283686459
1768619739483,-0.0536041259765625,-0.992156982421875,0.0685272216796875,0.0112859439104795,0.0142127582803368,0.0095381112769246
1768619739493,-0.056732177734375,-0.990325927734375,0.074249267578125,0.0106158927083015,0.0068139638751745,0.001334776286967
1768619739503,-0.0611419677734375,-0.9945526123046876,0.075408935546875,0.00584750296548,0.0043928842060267,-0.0049806437455117
1768619739513,-0.0609588623046875,-0.9987335205078124,0.07965087890625,-0.0017089504981413,1.6777914424892515e-05,-0.0078808264806866
1768619739524,-0.0577850341796875,-1.00177001953125,0.07965087890625,-0.0064046359620988,-0.0013233247445896,-0.006989998742938
1768619739533,-0.0539703369140625,-0.9992523193359376,0.07891845703125,-0.0054512242786586,-0.007799067068845,0.0009579390170983
1768619739544,-0.0494537353515625,-0.9972686767578124,0.073516845703125,-0.0060826600529253,-0.0024945829063653,0.0068073058500885
1768619739554,-0.0496978759765625,-0.9933929443359376,0.071441650390625,-0.015327556990087,0.0034804851748049,0.0099767344072461
1768619739564,-0.0520477294921875,-0.991729736328125,0.07537841796875,-0.0278875567018985,0.0021638183388859,0.0074824173934757
1768619739574,-0.0540008544921875,-0.9918975830078124,0.076812744140625,-0.0313217043876647,-0.0054640076123178,0.0033949976786971
1768619739584,-0.0562286376953125,-0.9897003173828124,0.0705108642578125,-0.028473986312747,-0.0047015445306897,0.0049257827922701
1768619739594,-0.054962158203125,-0.980377197265625,0.0649871826171875,-0.0151818823069334,-0.0018375811632722,0.0132337799295783
1768619739604,-0.0497894287109375,-0.972320556640625,0.0583953857421875,-0.0045982138253748,0.0041052629239857,0.016308132559061
1768619739614,-0.0506744384765625,-0.9889678955078124,0.0575408935546875,0.0061207432299852,0.0095775257796049,0.0077356840483844
1768619739624,-0.0557861328125,-1.0022735595703125,0.0610809326171875,0.0062549663707613,0.0159400850534439,-0.0006612628931179
1768619739634,-0.05810546875,-1.00909423828125,0.068084716796875,0.0086235823109745,0.013442039489746,-0.0060970410704612
1768619739644,-0.0594329833984375,-0.9926605224609376,0.074798583984375,0.0125464182347059,0.0040512005798518,0.001759816892445
1768619739654,-0.0538787841796875,-0.9989013671875,0.0775299072265625,0.019578494131565,-0.0165693890303373,-0.0022112226579338
1768619739664,-0.0617523193359375,-1.0012054443359375,0.0734405517578125,0.0244882982224226,-0.0126090021803975,0.0043313652276992
1768619739674,-0.055572509765625,-0.9908599853515624,0.071746826171875,0.0235013309866189,-0.0078110513277351,0.0093133402988314
1768619739684,-0.052886962890625,-0.98553466796875,0.072357177734375,0.0234352853149175,-0.0074485950171947,0.010857974179089
1768619739694,-0.053192138671875,-0.9906768798828124,0.069671630859375,0.0193491969257593,0.0024594292044639,0.0095255943015217
1768619739704,-0.05322265625,-0.989959716796875,0.0720367431640625,0.0138052944093942,0.0100049637258052,0.0103282714262604
1768619739714,-0.050140380859375,-0.98309326171875,0.074462890625,0.0044248420745134,0.0114760939031839,0.0213202014565467
1768619739724,-0.0487213134765625,-0.9821929931640624,0.0768585205078125,-0.0052970275282859,0.0080962758511304,0.0276036653667688
1768619739735,-0.0521240234375,-0.9877166748046876,0.077880859375,-0.0200661197304725,0.0106917927041649,0.0250587482005357
1768619739744,-0.0576629638671875,-0.9942474365234376,0.0805816650390625,-0.0309805534780025,0.0067772124893963,0.0202935542911291
1768619739755,-0.0606842041015625,-0.9993896484375,0.0811920166015625,-0.0426340140402317,0.0026439863722771,0.0103298695757985
1768619739765,-0.0622711181640625,-1.001708984375,0.081512451171875,-0.0537705533206462,-0.0083572659641504,0.0048386971466243
1768619739775,-0.059112548828125,-0.9994354248046876,0.0812530517578125,-0.0536067709326744,-0.0234073214232921,0.0021766014397144
1768619739785,-0.057403564453125,-1.000213623046875,0.072418212890625,-0.0471416786313056,-0.0247287824749946,0.0016327840276062
1768619739795,-0.05316162109375,-0.9953460693359376,0.0589752197265625,-0.0357268378138542,-0.0125799737870693,0.0047079361975193
1768619739805,-0.0520782470703125,-0.9956512451171876,0.0509796142578125,-0.0277948789298534,0.0096038915216922,0.0060267336666584
1768619739815,-0.0543212890625,-0.9952545166015624,0.05084228515625,-0.0245434269309043,0.0273011289536952,0.0076025258749723
1768619739825,-0.0552825927734375,-0.9932403564453124,0.0567474365234375,-0.0130508206784725,0.0297839939594268,0.0101208109408617
1768619739835,-0.05694580078125,-0.9946746826171876,0.0602569580078125,-0.0004804342461284,0.0252675395458936,0.0090518184006214
1768619739845,-0.0578155517578125,-0.9982452392578124,0.063690185546875,0.0109439939260482,0.0191896725445985,0.0064754760824143
1768619739855,-0.0595550537109375,-0.9977569580078124,0.0711669921875,0.0202267076820135,0.0012269183062016,0.0010386328212916
1768619739865,-0.0595855712890625,-0.999969482421875,0.075164794921875,0.0311632454395294,-0.0115690380334854,-0.0012841762509196
1768619739875,-0.0567169189453125,-0.995758056640625,0.072723388671875,0.0384576432406902,-0.012271580286324,-0.0043524042703211
1768619739885,-0.0569000244140625,-0.99127197265625,0.068206787109375,0.0397282391786575,-0.0099461078643798,-0.0071433968842029
1768619739895,-0.05731201171875,-0.9915771484375,0.0701751708984375,0.0377071648836135,-0.0081708440557122,-0.0086574042215943
1768619739905,-0.0585784912109375,-0.995697021484375,0.0714569091796875,0.0312069207429885,-0.0038155107758939,-0.0089841736480593
1768619739915,-0.0593109130859375,-0.9930419921875,0.074249267578125,0.0184322707355022,0.0004378236772026,-0.0096659427508711
1768619739925,-0.0563507080078125,-0.9913482666015624,0.0792999267578125,0.0058014299720525,-3.1957933970261365e-06,-0.0105184214189648
1768619739935,-0.0569305419921875,-0.993804931640625,0.081146240234375,-0.0057686730287969,-9.187905379803853e-05,-0.0125429555773735
1768619739945,-0.0592803955078125,-0.9966583251953124,0.082763671875,-0.0145674906671047,-0.0018546254141256,-0.0175124146044254
1768619739955,-0.0587158203125,-0.99700927734375,0.080902099609375,-0.0263743493705987,0.0011076086666435,-0.0180964451283216
1768619739966,-0.0576019287109375,-0.991973876953125,0.0789642333984375,-0.039636094123125,0.002934803487733,-0.0119986059144139
1768619739976,-0.056365966796875,-0.9942626953125,0.0770416259765625,-0.0394270345568656,-0.0008250473183579,-0.0121299000456929
1768619739986,-0.0587921142578125,-0.99462890625,0.070068359375,-0.0343779474496841,0.0047279098071157,-0.0098608862608671
1768619739996,-0.0545654296875,-0.984832763671875,0.0657958984375,-0.026953587308526,0.0096262618899345,-0.0038725025951862
1768619740006,-0.0484161376953125,-0.9854278564453124,0.0666656494140625,-0.0243354327976703,0.0054972972720861,-0.0084603298455476
1768619740016,-0.0532989501953125,-0.99371337890625,0.0679168701171875,-0.0243317056447267,0.0086832363158464,-0.014763499610126
1768619740026,-0.0536956787109375,-0.992034912109375,0.0709228515625,-0.0186985861510038,0.0004255731473676,-0.0128252506256103
1768619740036,-0.0505218505859375,-0.9879150390625,0.0713958740234375,-0.0105027081444859,-0.0095223989337682,-0.0021188110113143
1768619740046,-0.0492706298828125,-0.98876953125,0.0670318603515625,-0.0050022155046463,-0.0078131817281246,0.0047707869671285
1768619740056,-0.0506439208984375,-0.9883575439453124,0.0638885498046875,-0.0075095817446708,0.0034493261482566,0.0123932864516973
1768619740066,-0.052825927734375,-0.993927001953125,0.0641937255859375,-0.0101415840908885,0.0070363376289606,0.0111330784857273
1768619740076,-0.0562591552734375,-0.9991912841796876,0.06494140625,-0.0114531908184289,0.0099058942869305,0.0108177606016397
1768619740086,-0.055694580078125,-0.9952239990234376,0.064727783203125,-0.015082280151546,0.0110108396038413,0.0063409865833818
1768619740096,-0.056732177734375,-0.992279052734375,0.06768798828125,-0.0152660384774208,0.0009528790251351,-0.0009020126308314
1768619740106,-0.058807373046875,-0.9973297119140624,0.06878662109375,-0.0104795387014746,-0.0029670277144759,-0.0062485747039318
1768619740116,-0.0580291748046875,-0.9990081787109376,0.0624542236328125,-0.0018714033067226,0.0019025622168555,-0.0078786956146359
1768619740126,-0.055572509765625,-0.9947967529296876,0.060211181640625,0.0089719230309128,-0.0020418455824255,-0.0096028260886669
1768619740136,-0.057342529296875,-0.996185302734375,0.0600738525390625,0.0211193989962339,0.0026631611399352,-0.0109674297273159
1768619740146,-0.06048583984375,-0.9971923828125,0.0583038330078125,0.0276729073375463,0.0130753219127655,-0.0120715769007802
1768619740156,-0.056976318359375,-0.9906158447265624,0.0630645751953125,0.0275003332644701,0.0187278818339109,-0.0082075959071516
1768619740166,-0.0536041259765625,-0.9888916015625,0.069061279296875,0.0345491878688335,0.0151334125548601,-0.0048205880448222
1768619740176,-0.05322265625,-0.994049072265625,0.0694427490234375,0.0359145924448967,0.0204677246510982,-0.0017715347930788
1768619740187,-0.053985595703125,-0.993865966796875,0.0734405517578125,0.0310524571686983,0.02146827429533,0.0021712752059102
1768619740197,-0.053314208984375,-0.9928131103515624,0.081878662109375,0.0215359181165695,0.0106792757287621,0.0030812772456556
1768619740207,-0.053375244140625,-0.9912872314453124,0.0889129638671875,0.0122026037424802,-0.0021526331547647,0.0054799863137304
1768619740217,-0.053619384765625,-0.992919921875,0.0895843505859375,0.0016002934426069,-0.0092688659206032,0.0026897927746176
1768619740227,-0.0547027587890625,-0.9900054931640624,0.0869140625,-0.0065681543201208,-0.0128782475367188,0.0032141690608114
1768619740237,-0.0546875,-0.9891357421875,0.0836029052734375,-0.0148202246055006,-0.0167741868644952,0.0014450311427935
1768619740247,-0.0569305419921875,-0.9907379150390624,0.08026123046875,-0.020740432664752,-0.0132745262235403,-0.0008554073283448
1768619740257,-0.0562591552734375,-0.990325927734375,0.077606201171875,-0.0255572907626628,-0.0105421226471662,-0.0047947550192475
1768619740267,-0.0575103759765625,-0.9908294677734376,0.074462890625,-0.0359249785542488,-0.0015904398169368,-0.0078264977782964
1768619740277,-0.0580596923828125,-0.99267578125,0.07464599609375,-0.0418973825871944,-0.0016476977616548,-0.0123645244166255
1768619740287,-0.0593109130859375,-0.9935150146484376,0.0725860595703125,-0.0452356562018394,0.0020106865558773,-0.0139155490323901
1768619740297,-0.060516357421875,-0.9957122802734376,0.0725555419921875,-0.048708152025938,0.0076757627539336,-0.0116175077855587
1768619740307,-0.0555267333984375,-0.9936981201171876,0.0732574462890625,-0.0516181886196136,0.0057657435536384,-0.0080099897459149
1768619740317,-0.053863525390625,-0.9938812255859376,0.072906494140625,-0.0499694235622882,-0.0043225768022239,-0.0031390679068863
1768619740327,-0.051971435546875,-0.99432373046875,0.068359375,-0.0418481156229972,-0.007603058591485,0.000728108221665
1768619740337,-0.05023193359375,-0.991424560546875,0.0618743896484375,-0.0360144600272178,-0.0084600634872913,0.0016783240716904
1768619740347,-0.05322265625,-0.9940032958984376,0.05914306640625,-0.0323289111256599,-0.0052309809252619,0.0025172198656946
1768619740357,-0.05157470703125,-0.9917449951171876,0.0623931884765625,-0.0211100783199071,-0.0121634555980563,0.0012136024888604
1768619740367,-0.0503387451171875,-0.9925994873046876,0.055816650390625,-0.004577973857522,-0.0103327985852956,0.002813097089529
1768619740377,-0.0507354736328125,-0.992889404296875,0.0504302978515625,0.0154178384691476,0.0002482066047377,0.00477558048442
1768619740387,-0.052032470703125,-0.9951324462890624,0.045562744140625,0.0307347420603036,0.0120563963428139,0.0058997008018195
1768619740397,-0.053131103515625,-0.994781494140625,0.0497589111328125,0.0411777980625629,0.0175638142973184,0.0063092950731515
1768619740408,-0.0547332763671875,-0.9942169189453124,0.054534912109375,0.0466095805168151,0.0237093232572078,0.0085945529863238
1768619740418,-0.053955078125,-0.9932403564453124,0.0623626708984375,0.0447933040559291,0.0241442173719406,0.0102129559963941
1768619740428,-0.0540313720703125,-0.9911346435546876,0.072662353515625,0.0400438234210014,0.0107799433171749,0.0096707371994853
1768619740438,-0.0573577880859375,-0.9938201904296876,0.077117919921875,0.0356701128184795,0.004317782819271,0.0081319622695446
1768619740448,-0.05810546875,-0.995880126953125,0.0787200927734375,0.031681764870882,0.0013542174128815,0.0056440373882651
1768619740458,-0.0563507080078125,-0.9945526123046876,0.0805511474609375,0.0219913180917501,-0.0034317492973059,0.0066741481423377
1768619740468,-0.05487060546875,-0.991943359375,0.0785675048828125,0.0173488967120647,0.0016418388113379,0.0090544810518622
1768619740478,-0.053985595703125,-0.98785400390625,0.0777587890625,0.0078896144405007,0.0089375684037804,0.0100505035370588
1768619740488,-0.0540924072265625,-0.9861297607421876,0.0789947509765625,0.0008820389630272,0.0085333008319139,0.0086882971227169
1768619740498,-0.0571136474609375,-0.9908294677734376,0.078277587890625,-0.0107743507251143,0.0108699584379792,0.0028290760237723
1768619740508,-0.0596466064453125,-0.9951019287109376,0.08148193359375,-0.0147014483809471,0.0028109664563089,-0.0060309944674372
1768619740518,-0.060882568359375,-1.0009613037109375,0.0809478759765625,-0.0179963111877441,-0.0019323896849527,-0.0120651852339506
1768619740528,-0.060455322265625,-1.0019378662109375,0.07861328125,-0.0208320450037717,-0.0011691277613863,-0.0106651615351438
1768619740538,-0.0558929443359375,-0.9964752197265624,0.0760040283203125,-0.0238475427031517,-0.0003249056462664,-0.01039245352149
1768619740549,-0.0547943115234375,-0.9964141845703124,0.073333740234375,-0.0295744035392999,-0.001937449676916,-0.0088089378550648
1768619740558,-0.0554046630859375,-0.9979095458984376,0.0732879638671875,-0.0327193289995193,-0.0047734500840306,-0.0066906595602631
1768619740568,-0.05731201171875,-0.9925079345703124,0.07403564453125,-0.0363002158701419,-0.0074901403859257,-0.0045092641375958
1768619740578,-0.05389404296875,-0.9843597412109376,0.0717010498046875,-0.0268318802118301,-0.0172596797347068,0.00159443449229
1768619740588,-0.0494842529296875,-0.976806640625,0.0623321533203125,-0.0098531637340784,-0.0091120060533285,0.0160290338099002
1768619740598,-0.0442352294921875,-0.97491455078125,0.05401611328125,0.0046538738533854,0.006442186422646,0.0183521099388599
1768619740608,-0.049713134765625,-0.993316650390625,0.0528411865234375,0.0062871905975043,0.0230872090905904,0.008167115971446
1768619740619,-0.0548248291015625,-1.0015411376953125,0.060302734375,0.0041963430121541,0.0251418389379978,-0.0051782503724098
1768619740629,-0.05926513671875,-1.005279541015625,0.07135009765625,0.004701810888946,0.0189457274973392,-0.0031390679068863
1768619740639,-0.0563812255859375,-0.99090576171875,0.074859619140625,0.0091612739488482,0.0029092370532453,-0.0003651193692348
1768619740649,-0.0554351806640625,-1.00323486328125,0.076873779296875,0.0121725099161267,-0.0114566525444388,0.0004476773901842
1768619740659,-0.0601959228515625,-0.9974822998046876,0.0736083984375,0.0220733433961868,-0.012646553106606,0.0038301581516861
1768619740669,-0.0551300048828125,-0.988250732421875,0.068878173828125,0.0266798138618469,-0.0101722097024321,0.0057074204087257
1768619740679,-0.0548095703125,-0.9893798828125,0.0675201416015625,0.0238701794296503,-0.0012583435745909,0.0018469021888449
