timestamp_ms,acc_x,acc_y,acc_z,gyro_x,gyro_y,gyro_z
1769234427996,-0.086456298828125,0.0588226318359375,-0.993804931640625,-0.0600028820335865,0.0023574302904307,0.0141941159963607
1769234428005,-0.08428955078125,0.0604095458984375,-1.000457763671875,-0.0489395782351493,0.0118478713557124,0.0172849800437688
1769234428014,-0.0838623046875,0.0624237060546875,-1.007232666015625,-0.0287767872214317,0.0235878843814134,0.0215332545340061
1769234428024,-0.0818328857421875,0.0633087158203125,-1.0135345458984375,-0.0119733056053519,0.0309840142726898,0.0251841824501752
1769234428034,-0.08111572265625,0.0649871826171875,-1.014129638671875,0.0012247877893969,0.0330200009047985,0.0236225053668022
1769234428044,-0.0848541259765625,0.0654754638671875,-1.0125885009765625,0.0087796431034803,0.0315291620790958,0.0192421376705169
1769234428056,-0.08782958984375,0.0664215087890625,-1.0079803466796875,0.0152636412531137,0.0297437813133001,0.0130686638876795
1769234428064,-0.08660888671875,0.064788818359375,-1.001617431640625,0.0184881966561079,0.0213969014585018,0.0098366513848304
1769234428074,-0.0822906494140625,0.0620880126953125,-0.9980621337890624,0.0214355178177356,0.0219375230371952,0.0108904642984271
1769234428084,-0.0791778564453125,0.0600738525390625,-0.9962310791015624,0.0241599306464195,0.0187646336853504,0.014085192233324
1769234428095,-0.0769195556640625,0.059234619140625,-0.9947357177734376,0.0281333681195974,0.0179646201431751,0.0226981211453676
1769234428105,-0.07659912109375,0.0591888427734375,-0.991729736328125,0.0332080200314521,0.0159462094306945,0.0221388582140207
1769234428114,-0.0814208984375,0.061614990234375,-0.99334716796875,0.0390608496963977,0.0199041999876499,0.0198562629520893
1769234428125,-0.085906982421875,0.0618133544921875,-0.9906158447265624,0.0399053394794464,0.0273485332727432,0.0168628692626953
1769234428135,-0.084259033203125,0.0606231689453125,-0.9822235107421876,0.0361287109553813,0.0397221110761165,0.0166072063148021
1769234428145,-0.0838623046875,0.057769775390625,-0.97332763671875,0.0227503199130296,0.0385953299701213,0.0170093439519405
1769234428155,-0.081695556640625,0.0567779541015625,-0.969970703125,0.0081551317125558,0.0267445296049118,0.0137893157079815
1769234428165,-0.0807647705078125,0.058990478515625,-0.9729156494140624,-0.0031758195254951,0.0128369685262441,0.0133861126378178
1769234428175,-0.0790252685546875,0.0602264404296875,-0.9767303466796876,-0.0056922403164207,0.00604351144284,0.0112143047153949
1769234428185,-0.0803985595703125,0.06097412109375,-0.9842681884765624,-0.0054874434135854,-0.0051596080884337,0.0113932695239782
1769234428195,-0.0833740234375,0.065338134765625,-0.98760986328125,-0.0111362747848033,-0.0134361805394291,0.0058914450928568
1769234428205,-0.0873565673828125,0.065704345703125,-0.987396240234375,-0.0143685527145862,-0.0271370783448219,-0.0020269318483769
1769234428215,-0.089447021484375,0.0639190673828125,-0.986358642578125,-0.0212602820247411,-0.0308567155152559,-0.0101929828524589
1769234428225,-0.0885772705078125,0.0625,-0.98712158203125,-0.0219590943306684,-0.0300351306796073,-0.0123176528140902
1769234428235,-0.0858612060546875,0.064239501953125,-0.9915008544921876,-0.0155227668583393,-0.0273440070450305,-0.0129964919760823
1769234428245,-0.0828857421875,0.0606536865234375,-0.996124267578125,-0.0131384385749697,-0.0210807844996452,-0.012784237973392
1769234428255,-0.0814208984375,0.0562896728515625,-0.995147705078125,-0.0132508240640163,-0.0172365102916955,-0.014183996245265
1769234428265,-0.0771331787109375,0.057708740234375,-0.9969329833984376,-0.0111005883663892,-0.0199816972017288,-0.0137941092252731
1769234428275,-0.0746307373046875,0.0574493408203125,-1.0021514892578125,-0.0061031663790345,-0.0259929839521646,-0.0106467856094241
1769234428285,-0.07672119140625,0.0606689453125,-1.0083160400390625,0.006664294283837,-0.0230882745236158,-0.0071215592324733
1769234428295,-0.0804290771484375,0.0639801025390625,-1.0081787109375,0.0229122396558523,-0.0124883614480495,0.0004324973560869
1769234428305,-0.0851593017578125,0.06365966796875,-1.0024871826171875,0.0280761085450649,-0.000140082265716,2.3435817638528533e-05
1769234428315,-0.0880279541015625,0.0641021728515625,-0.991180419921875,0.0229420680552721,0.0118441423401236,-0.0010753844399005
1769234428325,-0.085723876953125,0.061737060546875,-0.984405517578125,0.0181521065533161,0.0091767208650708,-0.0064712152816355
1769234428336,-0.0794677734375,0.0601348876953125,-0.98455810546875,0.0077157104387879,-0.0037808897905051,-0.0062858592718839
1769234428346,-0.0729827880859375,0.056732177734375,-0.984100341796875,-0.006426740437746,-0.0177883189171552,-0.0074137076735496
1769234428356,-0.07598876953125,0.05584716796875,-0.9850006103515624,-0.0165243819355964,-0.029846578836441,-0.0102907205000519
1769234428366,-0.0797271728515625,0.055511474609375,-0.9890289306640624,-0.0181198809295892,-0.0293408446013927,-0.0117980698123574
1769234428376,-0.081634521484375,0.0564727783203125,-0.9906005859375,-0.014200241304934,-0.028194885700941,-0.0100907171145081
1769234428386,-0.08111572265625,0.0566864013671875,-0.99578857421875,-0.0042480081319808,-0.0268188305199146,-0.0046341666020452
1769234428396,-0.08245849609375,0.0567474365234375,-0.9975738525390624,0.0101831285282969,-0.0233788266777992,-0.002436526119709
1769234428406,-0.08636474609375,0.056549072265625,-0.997314453125,0.0195547919720411,-0.0211734622716903,0.0011347729014232
1769234428416,-0.087310791015625,0.0553131103515625,-0.991363525390625,0.0202488116919994,-0.0124124614521861,0.006664294283837
1769234428426,-0.087646484375,0.0541839599609375,-0.9832305908203124,0.0167808439582586,-0.005732188001275,0.0121133876964449
1769234428436,-0.0879669189453125,0.0542755126953125,-0.977752685546875,0.0103178853169083,-0.0084709823131561,0.0097716702148318
1769234428446,-0.094573974609375,0.0561370849609375,-0.9770660400390624,-0.0034708979073911,-0.0174152087420225,0.0078264977782964
1769234428456,-0.0929718017578125,0.057830810546875,-0.9778289794921876,-0.0149832107126712,-0.0295275319367647,-6.924218723725062e-06
1769234428466,-0.0941162109375,0.06072998046875,-0.9857177734375,-0.0208733230829238,-0.0400342345237731,-0.0009403621661476
1769234428476,-0.090667724609375,0.0608367919921875,-0.991241455078125,-0.0229058489203453,-0.0354075245559215,0.001096423366107
1769234428486,-0.088775634765625,0.0631561279296875,-0.996337890625,-0.0190988592803478,-0.0222677551209926,-0.0022964437957853
1769234428496,-0.0944061279296875,0.0636749267578125,-0.99774169921875,-0.0207561440765857,-0.0193641111254692,-0.0071982578374445
1769234428506,-0.0877227783203125,0.061187744140625,-0.995025634765625,-0.0218480415642261,-0.0167155973613262,-0.0095788575708866
1769234428516,-0.0867919921875,0.0587310791015625,-1.000030517578125,-0.0186700914055109,-0.0173044223338365,-0.0108936605975031
1769234428526,-0.0830841064453125,0.059051513671875,-1.0005645751953125,-0.0161328967660665,-0.0196144469082355,-0.006392118986696
1769234428536,-0.0802459716796875,0.057525634765625,-0.9995269775390624,-0.0101511711254715,-0.0161297004669904,-0.0031020499300211
1769234428547,-0.080413818359375,0.0593109130859375,-1.002716064453125,0.008159658871591,-0.0101178819313645,0.0008503473363816
1769234428557,-0.08160400390625,0.058197021484375,-1.0059814453125,0.0211636088788509,-0.0109700933098793,0.0051886364817619
1769234428567,-0.0833892822265625,0.058746337890625,-1.000274658203125,0.0278361588716506,-0.0141147533431649,0.0025451830588281
1769234428577,-0.0857391357421875,0.056610107421875,-0.99139404296875,0.0241689849644899,-0.0146077051758766,0.0015627428656443
1769234428587,-0.0867156982421875,0.0555877685546875,-0.9796600341796876,0.0140500385314226,-0.0116694392636418,-0.001055943313986
1769234428597,-0.08807373046875,0.0548858642578125,-0.9756622314453124,0.0017600831342861,-0.0103282714262604,-0.0006926882197149
1769234428607,-0.0897216796875,0.0517578125,-0.9747467041015624,-0.0119032645598053,-0.0102417189627885,-0.0001326254277955
1769234428617,-0.0891876220703125,0.0540618896484375,-0.974090576171875,-0.0259128231555223,-0.0114875454455614,-0.0028032432310283
1769234428628,-0.09405517578125,0.05694580078125,-0.9789886474609376,-0.0375447124242782,-0.0060629523359239,-0.0103399893268942
1769234428637,-0.0954742431640625,0.0573577880859375,-0.9819488525390624,-0.0417437180876731,-0.0049521480686962,-0.0128233870491385
1769234428647,-0.0908355712890625,0.05792236328125,-0.9875335693359376,-0.0393692441284656,-0.0041800974868237,-0.008446748368442
1769234428657,-0.0864410400390625,0.0585784912109375,-0.9959259033203124,-0.0327425003051757,-0.0022224078420549,-0.0036402747500687
1769234428667,-0.0851287841796875,0.05841064453125,-1.0023193359375,-0.0221460480242967,0.0008378304773941,0.001334510045126
1769234428677,-0.08544921875,0.05841064453125,-1.0059051513671875,-0.0125072700902819,0.001284708851017,0.0039699743501842
1769234428687,-0.08709716796875,0.058685302734375,-1.0017852783203125,-0.0081119881942868,0.0025257419329136,0.0072954632341861
1769234428697,-0.08489990234375,0.0579833984375,-0.9987030029296876,-0.0018642127979546,0.0003826962492894,0.0063306000083684
1769234428707,-0.0850372314453125,0.057342529296875,-1.000091552734375,0.000768588273786,-0.0021824603900313,0.0084310350939631
1769234428717,-0.0885009765625,0.057525634765625,-0.9951171875,-0.0009195895399898,0.0007960188668221,0.0067476513795554
1769234428727,-0.0887603759765625,0.0585174560546875,-0.987579345703125,-0.0043902210891246,0.0018373148050159,0.0063321981579065
1769234428737,-0.0897216796875,0.0563812255859375,-0.9853057861328124,-0.0083498088642954,0.0015006912872195,0.0039151129312813
1769234428748,-0.0891876220703125,0.058502197265625,-0.9864501953125,-0.0082866922020912,0.0006040049483999,0.0021680793724954
1769234428758,-0.090850830078125,0.060577392578125,-0.988433837890625,-0.0089245187118649,-8.335694292327389e-05,-0.0031188279390335
1769234428767,-0.0899200439453125,0.060333251953125,-0.9888763427734376,-0.0093785878270864,-0.0027505126781761,-0.0047886297106742
1769234428778,-0.0886688232421875,0.0589141845703125,-0.9874267578125,-0.0115717016160488,-0.0026226809713989,-0.0050906324759125
1769234428788,-0.0872955322265625,0.0572052001953125,-0.9869384765625,-0.0162575338035821,-0.0025566346012055,-0.0006026733317412
1769234428798,-0.08331298828125,0.0562286376953125,-0.9871826171875,-0.0189838111400604,-0.0007627293234691,0.0042629218660295
1769234428808,-0.08489990234375,0.053131103515625,-0.986846923828125,-0.023936491459608,0.0007025419035926,0.0108292121440172
1769234428818,-0.08563232421875,0.0532379150390625,-0.985809326171875,-0.0315832272171974,0.0035507925786077,0.01188675314188
1769234428828,-0.087371826171875,0.0543975830078125,-0.9872589111328124,-0.0361249819397926,-0.0034956652671098,0.0120481410995125
1769234428838,-0.0923614501953125,0.057037353515625,-0.989105224609375,-0.0382411293685436,-0.0084438184276223,0.0133613450452685
1769234428848,-0.093109130859375,0.0607757568359375,-0.9919586181640624,-0.029019134119153,-0.0016700683627277,0.0111418673768639
1769234428858,-0.0949249267578125,0.0633392333984375,-0.998748779296875,-0.01678510569036,-0.0004439489566721,0.009599364362657
1769234428868,-0.0964202880859375,0.0659942626953125,-1.00274658203125,-0.0052485577762126,0.0009084042394533,0.0043777041137218
1769234428878,-0.0966339111328125,0.0656280517578125,-0.9999542236328124,0.0041665155440568,0.0040677119977772,0.0028993834275752
1769234428888,-0.093994140625,0.063018798828125,-0.9960174560546876,0.0088691255077719,0.005469333846122,0.000353401468601
1769234428898,-0.0922088623046875,0.06005859375,-0.9921112060546876,0.0061772023327648,0.0010378338629379,-0.000981907476671
1769234428908,-0.089141845703125,0.058990478515625,-0.988311767578125,-0.001750229508616,-0.0046307044103741,-2.370213405811228e-05
1769234428918,-0.0880889892578125,0.056182861328125,-0.9862060546875,-0.0102587630972266,-0.0050786482170224,8.81506348378025e-05
1769234428928,-0.0895538330078125,0.055023193359375,-0.9821319580078124,-0.0176639482378959,0.0007283745799213,0.001252218382433
1769234428938,-0.090728759765625,0.0576629638671875,-0.982421875,-0.0167707242071628,0.0072051822207868,0.0061044977046549
1769234428948,-0.08746337890625,0.058135986328125,-0.9893035888671876,-0.0120516028255224,0.0042828954756259,0.006727943662554
1769234428959,-0.0882110595703125,0.0554656982421875,-0.9890594482421876,-0.0135645447298884,-0.0022690133191645,0.0069295451976358
1769234428968,-0.0861968994140625,0.0530548095703125,-0.985504150390625,-0.0187505185604095,-0.0137427104637026,0.0115381451323628
1769234428979,-0.0782623291015625,0.05474853515625,-0.9879302978515624,-0.0234158430248498,-0.018764367327094,0.0098742023110389
1769234428989,-0.08404541015625,0.0576324462890625,-0.988739013671875,-0.022945262491703,-0.0179190784692764,0.004448277875781
1769234428999,-0.0892181396484375,0.06280517578125,-0.9959259033203124,-0.0098622180521488,-0.0054791877046227,0.0091207940131425
1769234429009,-0.0909423828125,0.06866455078125,-0.9998779296875,0.0057995659299194,0.0130910342559218,0.0089490199461579
1769234429019,-0.0982208251953125,0.069366455078125,-1.0016021728515625,0.0239207781851291,0.0288620088249444,0.0042890207841992
1769234429029,-0.0946502685546875,0.0673370361328125,-0.99884033203125,0.0302732177078723,0.0247985571622848,-0.0006082659820094
1769234429039,-0.0932769775390625,0.0656890869140625,-0.99285888671875,0.018663166090846,0.0185097679495811,-0.0051052798517048
1769234429049,-0.084564208984375,0.0619964599609375,-0.9878082275390624,0.006436061579734,0.0089133335277438,-0.0047721182927489
1769234429059,-0.0831451416015625,0.057891845703125,-0.989532470703125,-0.0055660065263509,-8.708536915946752e-05,-0.0084693850949406
1769234429070,-0.0818328857421875,0.054779052734375,-0.9908294677734376,-0.0105815380811691,0.0006215817993506,-0.0075985309667885
1769234429079,-0.0828704833984375,0.0543365478515625,-0.99688720703125,-0.0011326423846185,0.0012759204255416,-0.0002998719282913
1769234429089,-0.08526611328125,0.05657958984375,-1.0042572021484375,0.0170855093747377,0.0028306739404797,0.0043601272627711
1769234429099,-0.0872802734375,0.0577545166015625,-1.0113525390625,0.0342035107314586,0.0056712012737989,0.0076387450098991
1769234429109,-0.0922698974609375,0.0577850341796875,-1.00555419921875,0.0426537208259105,0.0124209830537438,0.0113637084141373
1769234429119,-0.0955810546875,0.060516357421875,-1.0001678466796875,0.0436292365193367,0.0131328459829092,0.0054669370874762
1769234429129,-0.1002349853515625,0.0622406005859375,-0.9935455322265624,0.0430542603135108,0.0121544003486633,-0.0018666095566004
1769234429139,-0.10284423828125,0.0613555908203125,-0.988983154296875,0.0392363518476486,0.0156444739550352,-0.0060640177689492
1769234429149,-0.0977783203125,0.0602264404296875,-0.9869232177734376,0.0331193357706069,0.0110657010227441,-0.0082534020766615
1769234429159,-0.0941314697265625,0.05828857421875,-0.9875030517578124,0.0291032902896404,0.0037803570739924,-0.0048456215299665
1769234429169,-0.0897064208984375,0.0565338134765625,-0.984893798828125,0.0214440394192934,-0.0078089209273457,-0.0017294568242505
1769234429179,-0.0864105224609375,0.0542755126953125,-0.9830322265625,0.0164721831679344,-0.0116377472877502,0.0023672839161008
1769234429190,-0.085723876953125,0.0540924072265625,-0.9844818115234376,0.0131227262318134,-0.0106768794357776,0.014338725246489
1769234429200,-0.0834503173828125,0.052398681640625,-0.9835968017578124,0.0035715652629733,-0.0084749776870012,0.0205707885324955
1769234429210,-0.0834808349609375,0.051605224609375,-0.980682373046875,-0.0053023537620902,-0.0056996974162757,0.0239125229418277
1769234429220,-0.0852508544921875,0.05340576171875,-0.979766845703125,-0.0121357589960098,-0.0045923548750579,0.0243271775543689
1769234429230,-0.087554931640625,0.053924560546875,-0.984832763671875,-0.0173917729407548,-0.0061628208495676,0.0215047597885131
1769234429240,-0.0906829833984375,0.0574493408203125,-0.9904937744140624,-0.0164498127996921,-0.0027981833554804,0.0188325438648462
1769234429250,-0.0904998779296875,0.0602264404296875,-0.99871826171875,-0.0068408618681132,0.0012042814632877,0.0184309389442205
1769234429260,-0.08990478515625,0.0629119873046875,-1.0052032470703125,0.0096355834975838,0.0063298013992607,0.0175923090428113
1769234429270,-0.091705322265625,0.0628509521484375,-1.0070648193359375,0.0187188256531953,0.0012990899849683,0.0146306082606315
1769234429280,-0.091827392578125,0.0603790283203125,-1.0036468505859375,0.0263098999857902,0.000208791825571,0.0125219170004129
1769234429290,-0.091339111328125,0.0570068359375,-1.001312255859375,0.0292095504701137,0.0052879727445542,0.0145464520901441
1769234429300,-0.090484619140625,0.0530853271484375,-0.9958343505859376,0.0285536143928766,0.0002676477015484,0.0105394599959254
1769234429310,-0.0950164794921875,0.0525054931640625,-0.9913177490234376,0.0243926905095577,-0.0032173648942261,0.0025276062078773
1769234429320,-0.0960693359375,0.0535430908203125,-0.9900665283203124,0.0210538860410451,-0.0040037962608039,-0.0041761030443012
1769234429330,-0.098297119140625,0.0525360107421875,-0.9880523681640624,0.0170492902398109,0.0027273432351648,-0.0017686053179204
1769234429340,-0.0939483642578125,0.051849365234375,-0.987274169921875,0.0175795257091522,0.0073846792802214,-0.0005869606975466
1769234429350,-0.09417724609375,0.05224609375,-0.9905853271484376,0.017722537741065,0.0062203453853726,-0.0001800296886358
1769234429360,-0.093719482421875,0.054229736328125,-0.99188232421875,0.0169262532144784,0.0068709556944668,0.0032434638123959
1769234429371,-0.0955657958984375,0.0559539794921875,-0.9904327392578124,0.0136668095365166,0.0001131843455368,-0.0023481091484427
1769234429380,-0.096405029296875,0.05902099609375,-0.9918212890625,0.0141834635287523,-0.0073188990354537,-0.008486695587635
1769234429392,-0.09814453125,0.0595550537109375,-0.9937591552734376,0.0154655091464519,-0.016331834718585,-0.0170162674039602
1769234429401,-0.09808349609375,0.05987548828125,-0.99029541015625,0.0130918333306908,-0.0198301635682582,-0.0242246463894844
1769234429411,-0.095184326171875,0.0570526123046875,-0.98565673828125,0.0051401671953499,-0.0235663130879402,-0.025455292314291
1769234429421,-0.0912933349609375,0.0550384521484375,-0.9815216064453124,-0.0022493058349937,-0.0278233755379915,-0.0256992373615503
1769234429431,-0.089691162109375,0.0516204833984375,-0.979400634765625,-0.0062190135940909,-0.0169683303683996,-0.0228427313268184
1769234429441,-0.0910491943359375,0.0518341064453125,-0.9797515869140624,-0.0092512890696525,-0.007791344076395,-0.0164671242237091
1769234429451,-0.0894012451171875,0.0500030517578125,-0.980621337890625,-0.0173608809709548,-0.0011688614031299,-0.0111562479287385
1769234429461,-0.087158203125,0.0505828857421875,-0.9823455810546876,-0.0193063206970691,0.0088147968053817,-0.0078230360522866
1769234429471,-0.0885467529296875,0.0519256591796875,-0.9858551025390624,-0.0224669594317674,0.0098478365689516,-0.0055167381651699
1769234429481,-0.08819580078125,0.052886962890625,-0.9872589111328124,-0.0257386527955532,0.0071993232704699,-0.0073942667804658
1769234429491,-0.0881500244140625,0.0561981201171875,-0.992034912109375,-0.0205324385315179,0.0073998593725264,-0.0065119615755975
1769234429501,-0.08880615234375,0.0580596923828125,-0.999420166015625,-0.0095863146707415,0.0099639510735869,-0.0030903320293873
1769234429511,-0.08636474609375,0.05804443359375,-1.006500244140625,0.0057529606856405,0.0074611119925975,0.0028823392931371
1769234429521,-0.08837890625,0.057769775390625,-1.0086212158203125,0.0148481884971261,0.004479703027755,0.0040615871548652
1769234429531,-0.095001220703125,0.0591583251953125,-1.00128173828125,0.0185353346168994,0.0049662627279758,0.0006159891490824
1769234429541,-0.098785400390625,0.0585174560546875,-0.99658203125,0.0159075930714607,0.0021150824613869,-0.0046799727715551
1769234429551,-0.0995635986328125,0.0569000244140625,-0.9916229248046876,0.007899735122919,0.0010612696642056,-0.0084478128701448
1769234429561,-0.0986328125,0.0565185546875,-0.9895477294921876,0.0020911141764372,-0.001792041119188,-0.0105144260451197
1769234429572,-0.09637451171875,0.057586669921875,-0.9896392822265624,-0.0019393138354644,-0.0053524211980402,-0.0137022295966744
1769234429581,-0.0945587158203125,0.0579986572265625,-0.9946746826171876,0.0064405887387692,-0.0054320497438311,-0.0156117165461182
1769234429591,-0.093414306640625,0.05755615234375,-0.99462890625,0.01093041151762,-0.0044104610569775,-0.0165637973695993
1769234429601,-0.0947723388671875,0.056304931640625,-0.9930419921875,0.0168468914926052,-0.0016857809387147,-0.0147499172016978
1769234429612,-0.09149169921875,0.0535125732421875,-0.991058349609375,0.0187561102211475,0.0001097222339012,-0.0129701271653175
1769234429622,-0.0902862548828125,0.05181884765625,-0.9857940673828124,0.0133458990603685,-0.000471645820653,-0.0120201772078871
1769234429632,-0.0882110595703125,0.05078125,-0.98419189453125,0.0065303370356559,-0.0052235242910683,-0.0091112069785594
1769234429642,-0.0889892578125,0.0506744384765625,-0.9838714599609376,0.0042554652318358,-0.0104142911732196,-0.0087655279785394
1769234429652,-0.0923004150390625,0.0536956787109375,-0.986358642578125,0.0017156084068119,-0.0114734303206205,-0.0123227126896381
1769234429662,-0.096282958984375,0.0552215576171875,-0.9869232177734376,0.0038125813007354,0.0007965514669194,-0.0179728753864765
1769234429672,-0.0992584228515625,0.055511474609375,-0.9877471923828124,0.0061742723919451,0.0092614088207483,-0.0177715402096509
1769234429682,-0.0956573486328125,0.05242919921875,-0.9882965087890624,0.0005145227187313,0.008879511617124,-0.020266655832529
1769234429692,-0.087371826171875,0.0500946044921875,-0.9882659912109376,-0.0067311394959688,0.000105993807665,-0.0199521370232105
1769234429703,-0.082427978515625,0.0499420166015625,-0.9901123046875,-0.0104363951832056,-0.0048884986899793,-0.0231207646429538
1769234429712,-0.081085205078125,0.051116943359375,-0.9929046630859376,-0.0134692033752799,-0.0095932390540838,-0.0196171104907989
1769234429722,-0.0848541259765625,0.05303955078125,-0.9925537109375,-0.0126971527934074,-0.0040828920900821,-0.0170815158635377
1769234429732,-0.091033935546875,0.05596923828125,-0.9925689697265624,-0.0078496672213077,0.0120286997407674,-0.0165092013776302
1769234429742,-0.0963592529296875,0.0577545166015625,-0.9900665283203124,-0.008485896512866,0.0265921950340271,-0.0193670392036438
1769234429752,-0.0952911376953125,0.05865478515625,-0.9864959716796876,-0.0113903395831584,0.039603866636753,-0.0222043711692094
1769234429762,-0.0898895263671875,0.0572662353515625,-0.987030029296875,-0.0137749342247843,0.0401341021060943,-0.0209433641284704
1769234429772,-0.08367919921875,0.0519256591796875,-0.9868011474609376,-0.0227175634354352,0.023911191150546,-0.0175345186144113
1769234429782,-0.079254150390625,0.0474700927734375,-0.9880218505859376,-0.032181903719902,0.0028003137558698,-0.0160649865865707
1769234429792,-0.0790557861328125,0.0468292236328125,-0.991973876953125,-0.0348493270576,-0.0148639008402824,-0.0125749139115214
1769234429803,-0.083221435546875,0.047332763671875,-0.9985198974609376,-0.0354757010936737,-0.0270499940961599,-0.0106340022757649
1769234429812,-0.089935302734375,0.051055908203125,-1.00103759765625,-0.0322322398424148,-0.0273959375917911,-0.0130652021616697
1769234429823,-0.0972747802734375,0.0544586181640625,-0.99945068359375,-0.0286417640745639,-0.01783012971282,-0.0171507578343153
1769234429833,-0.1010894775390625,0.0560455322265625,-0.9962158203125,-0.0242006778717041,-0.0095756622031331,-0.0163185186684131
1769234429843,-0.0984039306640625,0.0564117431640625,-0.99615478515625,-0.0155097171664237,-0.0015313175972551,-0.0171126741915941
1769234429853,-0.0968780517578125,0.0550994873046875,-0.99957275390625,-0.0079170456156134,0.0043116579763591,-0.0176935102790594
1769234429863,-0.0943756103515625,0.0556640625,-1.0010223388671875,-0.0026194851379841,0.0096526276320219,-0.0146372662857174
1769234429873,-0.0910797119140625,0.0542144775390625,-0.99951171875,0.0034879420418292,0.0073772226460278,-0.0078603196889162
1769234429883,-0.0875701904296875,0.0528717041015625,-0.9991912841796876,0.0053518884815275,0.0002530002966523,0.0024956483393907
1769234429893,-0.0838165283203125,0.05072021484375,-0.9954833984375,-0.0012492889072746,-0.0023214775137603,0.0048549426719546
1769234429903,-0.0868682861328125,0.053070068359375,-0.9920196533203124,-0.0019502328941598,0.0022098910994827,0.0059963734820485
1769234429913,-0.088104248046875,0.0546875,-0.99261474609375,0.0013717942638322,0.0090731233358383,0.0074573834426701
1769234429924,-0.08868408203125,0.05487060546875,-0.993133544921875,0.0039784964174032,0.0128433601930737,0.0035036546178162
1769234429933,-0.0901641845703125,0.0545196533203125,-0.993255615234375,0.0005672533297911,0.0036346821580082,0.00070307450369
1769234429943,-0.085906982421875,0.0528717041015625,-0.9897003173828124,-0.0081490064039826,-0.0070328759029507,0.0008239820599555
1769234429953,-0.0864105224609375,0.0506591796875,-0.9882659912109376,-0.012048939242959,-0.0096651446074247,0.0016586167039349
1769234429963,-0.08514404296875,0.0499114990234375,-0.986785888671875,-0.0091045489534735,0.0045260423794388,0.0080075925216078
1769234429973,-0.086944580078125,0.051055908203125,-0.988311767578125,-0.0002945456071756,0.0261045712977647,0.0127504160627722
1769234429983,-0.0876312255859375,0.0526275634765625,-0.9906463623046876,0.0057132793590426,0.0357318967580795,0.0164487473666667
1769234429993,-0.086151123046875,0.0537109375,-0.990509033203125,0.0041545312851667,0.0322231836616992,0.0147861363366246
1769234430003,-0.0888519287109375,0.05206298828125,-0.98980712890625,-4.394215648062527e-05,0.0257698111236095,0.0119538651779294
1769234430013,-0.0884246826171875,0.0509490966796875,-0.9861907958984376,-0.0104582337662577,0.0205596033483743,0.0107122994959354
1769234430024,-0.0898895263671875,0.052764892578125,-0.9845733642578124,-0.0160093270242214,0.016808008775115,0.0099453087896108
1769234430034,-0.091766357421875,0.055206298828125,-0.98712158203125,-0.0242928229272365,0.011043862439692,0.0025643578264862
1769234430044,-0.0939788818359375,0.0555419921875,-0.9876861572265624,-0.0316857583820819,0.0113682355731725,0.0008985505555756
1769234430054,-0.093231201171875,0.0538330078125,-0.9917144775390624,-0.0307046491652727,0.0167853720486164,0.0018469021888449
1769234430064,-0.087738037109375,0.0535888671875,-0.9960784912109376,-0.0242070686072111,0.0237703099846839,0.0095349159091711
1769234430074,-0.081512451171875,0.0532989501953125,-1.000579833984375,-0.0158362202346324,0.0230973288416862,0.0162926875054836
1769234430084,-0.081695556640625,0.0543975830078125,-1.0056304931640625,-0.0056128781288862,0.0206024795770645,0.0197598561644554
1769234430094,-0.0861968994140625,0.0549163818359375,-1.0043792724609375,-0.0005472796037793,0.015902267768979,0.0173499621450901
1769234430106,-0.0892486572265625,0.056732177734375,-1.0015106201171875,0.0052040829323232,0.0139869218692183,0.0154093159362673
1769234430114,-0.0894775390625,0.057037353515625,-1.00006103515625,0.0125671904534101,0.0197574589401483,0.0173502285033464
1769234430124,-0.0872955322265625,0.0566864013671875,-1.0005950927734375,0.024225179105997,0.0230398047715425,0.0165387634187936
1769234430134,-0.089385986328125,0.05694580078125,-0.999603271484375,0.0266302786767482,0.0282718520611524,0.0165110658854246
1769234430144,-0.089385986328125,0.0565185546875,-0.9918975830078124,0.0241170544177293,0.0251287892460823,0.0127831734716892
1769234430154,-0.0919342041015625,0.0564422607421875,-0.9866180419921876,0.0215159449726343,0.0227055791765451,0.0100710103288292
1769234430164,-0.0903472900390625,0.055084228515625,-0.9871368408203124,0.0180871244519948,0.0198994055390357,0.0072376728057861
1769234430174,-0.08624267578125,0.0545654296875,-0.9846343994140624,0.0122934179380536,0.0204669255763292,0.0090717915445566
1769234430184,-0.086669921875,0.0535430908203125,-0.98162841796875,0.003336408175528,0.0132636073976755,0.0094390418380498
1769234430194,-0.086639404296875,0.0539398193359375,-0.9808502197265624,-0.0056594833731651,0.0109716905280947,0.0091394362971186
1769234430204,-0.087677001953125,0.0555419921875,-0.9835052490234376,-0.0111282849684357,0.0119551960378885,0.0075095817446708
1769234430214,-0.088134765625,0.0559234619140625,-0.9858551025390624,-0.0168756525963544,0.010645986534655,0.0070163640193641
1769234430225,-0.0875396728515625,0.0555267333984375,-0.9854583740234376,-0.0206663962453603,0.007456318475306,0.0092763230204582
1769234430234,-0.0860595703125,0.0559844970703125,-0.98846435546875,-0.0192738287150859,0.006680273450911,0.009769007563591
1769234430245,-0.086151123046875,0.05743408203125,-0.9920806884765624,-0.0122942170128226,0.0103913880884647,0.0052932989783585
1769234430255,-0.0891876220703125,0.0574951171875,-0.9950714111328124,-0.0132742598652839,0.0114534571766853,0.0034261567052453
1769234430265,-0.0886993408203125,0.0590972900390625,-0.9943084716796876,-0.0074448669329285,0.0152250258252024,0.00375372543931
1769234430275,-0.0882415771484375,0.055999755859375,-0.996795654296875,0.000720917712897,0.0161829646676778,0.0038975363131612
1769234430285,-0.0850830078125,0.05523681640625,-1.0020904541015625,0.0082560656592249,0.0179688800126314,0.005005411338061
1769234430295,-0.0832977294921875,0.0541839599609375,-0.9982757568359376,0.0083117261528968,0.0144857317209243,0.008061921223998
1769234430305,-0.0851287841796875,0.05224609375,-0.992767333984375,0.0027443873696029,0.0105764782056212,0.0093705989420413
1769234430315,-0.0867462158203125,0.054107666015625,-0.989501953125,-0.0016125440597534,0.0125056719407439,0.0094464989379048
1769234430325,-0.0866241455078125,0.0559844970703125,-0.989044189453125,-0.0009699232759885,0.0058978362940251,0.00753008807078
1769234430335,-0.087127685546875,0.0582733154296875,-0.99493408203125,-0.0005741775385104,0.0027326694689691,0.0076222331263124
1769234430345,-0.088104248046875,0.056976318359375,-0.9953765869140624,0.0023952471092343,0.0012128035305067,0.0051678642630577
1769234430355,-0.0875701904296875,0.0578460693359375,-0.995849609375,0.0059907808899879,0.0033949976786971,0.0028290760237723
1769234430365,-0.08709716796875,0.0574798583984375,-0.99658203125,0.008675780147314,0.0051108724437654,0.002192314248532
1769234430375,-0.08905029296875,0.056365966796875,-0.991851806640625,0.0125285750254988,0.0115565210580825,0.0014804512029513
1769234430385,-0.0860748291015625,0.05535888671875,-0.98895263671875,0.0113408053293824,0.014175740070641,0.0028383971657603
1769234430395,-0.082366943359375,0.0518646240234375,-0.987152099609375,0.0033886062446981,0.0093048186972737,0.0071239559911191
1769234430405,-0.0810699462890625,0.0531005859375,-0.984619140625,-0.0015249260468408,-0.0006966829532757,0.0099863214418292
1769234430415,-0.0853729248046875,0.0547637939453125,-0.9875335693359376,-0.0050823767669498,-0.0066344668157398,0.007252852898091
1769234430425,-0.0927734375,0.056671142578125,-0.9864349365234376,-0.0131450966000556,0.0025153555907309,0.0045010084286332
1769234430435,-0.0953826904296875,0.0601806640625,-0.9831085205078124,-0.0143879940733313,0.0062565645202994,-0.000974184309598
1769234430446,-0.0936737060546875,0.0567779541015625,-0.9847412109375,-0.0145304733887314,0.0133717320859432,-0.0050578755326569
1769234430455,-0.08941650390625,0.05517578125,-0.9864654541015624,-0.0167153310030698,0.0189561136066913,-0.002068477217108
1769234430466,-0.07904052734375,0.0511474609375,-0.989898681640625,-0.0220823995769023,0.0049958238378167,-0.0007978830835781
1769234430476,-0.070892333984375,0.0513916015625,-0.993682861328125,-0.024336764588952,-0.0122212460264563,0.0026743463240563
1769234430486,-0.0751800537109375,0.0542144775390625,-0.999359130859375,-0.0179827287793159,-0.0142258070409297,0.009261941537261
1769234430496,-0.0819854736328125,0.0576629638671875,-1.00421142578125,-0.0007310376968234,0.0009760485263541,0.0154956029728055
1769234430506,-0.0874481201171875,0.06201171875,-1.005157470703125,0.0169776510447263,0.0197252351790666,0.0171590130776166
1769234430516,-0.0901947021484375,0.063507080078125,-1.0003204345703125,0.0218650847673416,0.0284372344613075,0.015633288770914
1769234430526,-0.09100341796875,0.062957763671875,-0.9909210205078124,0.0142942508682608,0.0299523063004016,0.0107330717146396
1769234430536,-0.0882568359375,0.059326171875,-0.980133056640625,0.0009872338268905,0.0179497059434652,0.005698365624994
1769234430546,-0.085540771484375,0.0543365478515625,-0.9766998291015624,-0.0200884900987148,0.0019840549211949,0.0001986718125408
1769234430556,-0.0802459716796875,0.04974365234375,-0.974609375,-0.0416166856884956,-0.0202027391642332,0.0001520664955023
1769234430566,-0.0791473388671875,0.046478271484375,-0.9759674072265624,-0.0567951053380966,-0.0321896262466907,0.0005957491230219
1769234430576,-0.081451416015625,0.0491943359375,-0.9825439453125,-0.0614218153059482,-0.0367694646120071,0.0009749832679517
1769234430586,-0.0879669189453125,0.05548095703125,-0.98895263671875,-0.0573312006890773,-0.0318037346005439,-0.0033009881153702
1769234430596,-0.0966644287109375,0.057586669921875,-0.9954376220703124,-0.0496559701859951,-0.0295144822448492,-0.0110443951562047
1769234430606,-0.097747802734375,0.059844970703125,-0.9944305419921876,-0.0411338545382022,-0.0191329475492239,-0.0120438793674111
1769234430616,-0.095062255859375,0.0578155517578125,-0.996734619140625,-0.0297602917999029,-0.0172056183218956,-0.0085775088518857
1769234430626,-0.0892181396484375,0.057525634765625,-0.9996490478515624,-0.0179140195250511,-0.0184341352432966,0.0030322752427309
1769234430636,-0.08343505859375,0.0545196533203125,-1.00518798828125,0.0010532801970839,-0.0102414526045322,0.0123908892273902
1769234430646,-0.0825958251953125,0.0548248291015625,-1.0091705322265625,0.0144923897460103,-0.0086643286049366,0.0178735386580228
1769234430657,-0.0862579345703125,0.0552215576171875,-0.9993743896484376,0.016547018662095,-0.0068898638710379,0.0183513108640909
1769234430666,-0.0919036865234375,0.0556793212890625,-0.9940643310546876,0.0149643020704388,-0.0040701092220842,0.0147728212177753
1769234430677,-0.092437744140625,0.057342529296875,-0.990020751953125,0.013441240414977,0.0045891590416431,0.0144468499347567
1769234430687,-0.09197998046875,0.05853271484375,-0.9905853271484376,0.0123887592926621,0.009093097411096,0.0177209395915269
1769234430697,-0.0902557373046875,0.057220458984375,-0.988922119140625,0.0042509376071393,0.0050626690499484,0.0166346374899148
1769234430707,-0.0883331298828125,0.05792236328125,-0.98760986328125,-0.007169762160629,-0.0029334719292819,0.0151134394109249
1769234430717,-0.0850677490234375,0.0580902099609375,-0.9903717041015624,-0.014782141894102,-0.0144084999337792,0.0127128660678863
1769234430727,-0.087249755859375,0.0574798583984375,-0.993682861328125,-0.0150196962058544,-0.0190735589712858,0.0074520572088658
1769234430737,-0.088714599609375,0.0580291748046875,-0.99493408203125,-0.0108217550441622,-0.0135123468935489,0.0063092950731515
1769234430747,-0.0887451171875,0.05963134765625,-1.0000762939453125,0.0029840720817446,-0.0062829297967255,0.0094009581953287
1769234430758,-0.0843963623046875,0.0590057373046875,-1.0058441162109375,0.0184525102376937,-0.0031257520895451,0.0145049067214131
1769234430767,-0.0831756591796875,0.0594482421875,-1.00311279296875,0.0221084970980882,-0.0010708570480346,0.0182937867939472
1769234430777,-0.0848846435546875,0.0575714111328125,-0.9956207275390624,0.0244049411267042,-0.000295610865578,0.0171321146190166
1769234430787,-0.0881195068359375,0.0549774169921875,-0.990875244140625,0.0237492714077234,0.0009249158320017,0.0157291609793901
1769234430797,-0.0861053466796875,0.0554656982421875,-0.988006591796875,0.0222363304346799,-0.004283694550395,0.0146913276985287
1769234430807,-0.0843353271484375,0.0519866943359375,-0.987518310546875,0.0166434254497289,-0.0120079265907406,0.013677729293704
1769234430817,-0.0864715576171875,0.0501861572265625,-0.985595703125,0.0090249199420213,-0.0081625888124108,0.0195103175938129
1769234430827,-0.0836944580078125,0.0486907958984375,-0.9848175048828124,0.0039406795985996,-0.0024011060595512,0.0237817615270614
1769234430838,-0.0854339599609375,0.05108642578125,-0.98455810546875,-0.0019622170366346,0.0068632322363555,0.0265519823879003
1769234430847,-0.0868377685546875,0.051971435546875,-0.9868316650390624,-0.0051090084016323,0.0101269362494349,0.0282127298414707
1769234430857,-0.0898590087890625,0.0545654296875,-0.991546630859375,-0.0074472636915743,0.0078169107437133,0.0295826587826013
1769234430868,-0.0895843505859375,0.055816650390625,-0.9983062744140624,0.0018101505702361,0.0062379222363233,0.0299571007490158
1769234430878,-0.08843994140625,0.058929443359375,-1.005706787109375,0.0117828901857137,-0.0004290352517273,0.0225093029439449
1769234430888,-0.09112548828125,0.0593719482421875,-1.00714111328125,0.0196482688188552,-0.004741758108139,0.021494373679161
1769234430898,-0.091766357421875,0.0575103759765625,-1.003265380859375,0.0261650253087282,-0.0061961105093359,0.0176772642880678
1769234430908,-0.0910186767578125,0.0568084716796875,-0.9991607666015624,0.0249855108559131,-0.0019270633347332,0.0213281922042369
1769234430918,-0.089569091796875,0.054290771484375,-0.9958038330078124,0.0244057402014732,-0.0007038734620437,0.0182964485138654
1769234430928,-0.0900421142578125,0.051971435546875,-0.9923858642578124,0.0201310999691486,-0.0051271175034344,0.0180977769196033
1769234430938,-0.091400146484375,0.0504302978515625,-0.9876556396484376,0.0114758275449275,-0.0014058827655389,0.0173134766519069
1769234430948,-0.09210205078125,0.0507965087890625,-0.984619140625,0.0070195598527789,-0.0065223476849496,0.0139602907001972
1769234430958,-0.0918121337890625,0.05120849609375,-0.984283447265625,0.0056240637786686,-0.0061926483176648,0.0159957446157932
1769234430968,-0.0888519287109375,0.053558349609375,-0.98699951171875,0.0047995490022003,-0.0131770549342036,0.016463927924633
1769234430978,-0.0933685302734375,0.0532073974609375,-0.98907470703125,0.0041872882284224,-0.013946708291769,0.0156929437071084
1769234430988,-0.0929412841796875,0.0526123046875,-0.9886474609375,0.0017462347168475,-0.017190171405673,0.0108670284971594
1769234430998,-0.095855712890625,0.0519256591796875,-0.98907470703125,0.0002330265997443,-0.0162032041698694,0.0047092675231397
1769234431008,-0.094146728515625,0.0515899658203125,-0.9897003173828124,-0.0006849650526419,-0.0181808676570653,-0.0014530207263305
1769234431018,-0.0948333740234375,0.0510101318359375,-0.9896392822265624,-0.0025385250337421,-0.0145472511649131,-0.0029334719292819
1769234431028,-0.0916595458984375,0.049591064453125,-0.991455078125,-0.002895921235904,-0.0118819596245884,-0.0045505431480705
1769234431038,-0.0911407470703125,0.0488739013671875,-0.9938507080078124,-0.0036035231314599,-0.0004830974212381,-0.0035832831636071
1769234431048,-0.090057373046875,0.050262451171875,-0.9929351806640624,-0.0008956210804171,0.0071255536749958,0.0029033781029284
1769234431058,-0.090423583984375,0.051025390625,-0.996337890625,0.0022868562955409,0.0062557654455304,0.0031630364246666
1769234431068,-0.09197998046875,0.0523529052734375,-0.9986419677734376,0.0100046973675489,0.0070001189596951,0.0013305152533575
1769234431079,-0.0924224853515625,0.0522308349609375,-1.0033111572265625,0.0206504166126251,0.0070861391723155,0.0017675400013104
1769234431089,-0.089508056640625,0.0522003173828125,-0.9996795654296876,0.0293317902833223,0.0098635498434305,0.00631222454831
1769234431099,-0.0856170654296875,0.0517425537109375,-1.002197265625,0.0380760133266449,0.0051952945068478,0.0132753252983093
1769234431109,-0.08160400390625,0.0504302978515625,-0.9999542236328124,0.0379106290638446,-0.0054533551447093,0.0171310491859912
1769234431119,-0.08441162109375,0.0508575439453125,-0.99481201171875,0.0341566391289234,-0.0081639206036925,0.0125256450846791
1769234431129,-0.0911712646484375,0.0507965087890625,-0.988067626953125,0.0277797002345323,-0.0063942498527467,0.0061995727010071
1769234431139,-0.0948486328125,0.0506134033203125,-0.984710693359375,0.0166679266840219,-0.0005169195355847,-0.001309742568992
1769234431149,-0.0980987548828125,0.0517120361328125,-0.981109619140625,0.0096880476921796,0.008476841263473,-0.0042890207841992
1769234431159,-0.0912933349609375,0.0500640869140625,-0.981689453125,0.0036988644860684,0.0099370526149868,-0.0031028490047901
1769234431169,-0.0878448486328125,0.0507965087890625,-0.983734130859375,-0.0022192120086401,0.0111772874370217,-0.0036067189648747
1769234431179,-0.091766357421875,0.05157470703125,-0.984527587890625,-0.000654871284496,0.0128907645121216,-0.0026410568971186
1769234431189,-0.08905029296875,0.0512237548828125,-0.987335205078125,0.0039731701835989,0.0162183847278356,0.0006000102148391
1769234431199,-0.083587646484375,0.0477294921875,-0.9925537109375,0.0080978740006685,0.0175385139882564,0.0109008513391017
1769234431209,-0.0806884765625,0.0466766357421875,-0.9931182861328124,0.0076952041126787,0.0067433901131153,0.0176274627447128
1769234431219,-0.086669921875,0.04730224609375,-0.9883575439453124,-0.002616822021082,0.0050773164257407,0.0154982656240463
1769234431229,-0.092987060546875,0.0462799072265625,-0.9845733642578124,-0.0096989665180444,0.0055910404771566,0.0086084017530083
1769234431239,-0.09375,0.0469970703125,-0.984527587890625,-0.0134542901068925,0.0112675679847598,0.0132819833233952
1769234431249,-0.0903472900390625,0.0493621826171875,-0.9882049560546876,-0.0106457201763987,0.0105469170957803,0.015376559458673
1769234431260,-0.0932464599609375,0.048492431640625,-0.992462158203125,-0.0118239028379321,0.0111240241676568,0.0101671498268842
1769234431269,-0.0925445556640625,0.0482330322265625,-0.9908599853515624,-0.0178509019315242,0.0112502574920654,0.006793990265578
1769234431279,-0.0894317626953125,0.04925537109375,-0.992431640625,-0.0180216114968061,0.0070773507468402,0.0017643441678956
1769234431289,-0.0882110595703125,0.0515289306640625,-0.9964752197265624,-0.0145312724635005,0.0051148673519492,0.0006034722900949
1769234431300,-0.0849456787109375,0.05194091796875,-0.999725341796875,-0.0072240908630192,0.0124819697812199,0.0037220339290797
1769234431310,-0.08782958984375,0.0543670654296875,-0.999542236328125,0.0021797972731292,0.0334391817450523,0.0086347674950957
1769234431320,-0.09014892578125,0.0546875,-0.9971160888671876,0.003760915948078,0.0429258942604064,0.0121994083747267
1769234431330,-0.0888824462890625,0.055145263671875,-0.9959716796875,0.0040493365377187,0.0351888798177242,0.006288522388786
1769234431340,-0.0877227783203125,0.0520477294921875,-0.9939117431640624,-0.0035681033041328,0.024868331849575,0.0014450311427935
1769234431350,-0.0851898193359375,0.04962158203125,-0.9905242919921876,-0.0228153001517057,0.0083380909636616,-0.0054435012862086
1769234431360,-0.0777130126953125,0.0448150634765625,-0.9856109619140624,-0.0412803292274475,-0.0181590300053358,-0.0076557891443371
1769234431370,-0.07562255859375,0.041656494140625,-0.986053466796875,-0.0559580735862255,-0.0378171540796756,-0.0118185766041278
1769234431380,-0.083160400390625,0.04351806640625,-0.9892578125,-0.0629408806562423,-0.038426749408245,-0.0134689370170235
1769234431390,-0.0880584716796875,0.0457305908203125,-0.99542236328125,-0.0474362261593341,-0.0267852749675512,-0.0073441993445158
1769234431400,-0.0881805419921875,0.0480194091796875,-1.004547119140625,-0.0192716978490352,-0.0027883297298103,-0.0024064322933554
1769234431410,-0.088287353515625,0.0486907958984375,-1.0085296630859375,0.0036655748263001,0.0101413177326321,0.0052128713577985
1769234431420,-0.092529296875,0.050384521484375,-1.0014495849609375,0.0109535818919539,0.0154276918619871,0.0049923616461455
1769234431430,-0.0959320068359375,0.049224853515625,-0.99169921875,0.0085823033004999,0.0084808366373181,-0.0010554107138887
1769234431440,-0.0959930419921875,0.04827880859375,-0.9859161376953124,0.0049891658127307,0.0043627903796732,-0.0056552225723862
1769234431450,-0.0939483642578125,0.04901123046875,-0.9835205078125,-0.0032746228389441,0.0015451660146936,-0.004293814767152
1769234431460,-0.09161376953125,0.0471954345703125,-0.98138427734375,-0.0019829897210001,0.010024138726294,-0.0016184030100703
1769234431470,-0.0881195068359375,0.0462799072265625,-0.985137939453125,-0.0042442795820534,0.0123248435556888,0.0022799321450293
1769234431480,-0.0869598388671875,0.046417236328125,-0.984375,-0.009894442744553,0.0039851544424891,0.0038389465771615
1769234431491,-0.084228515625,0.0479583740234375,-0.9836883544921876,-0.0185060407966375,-0.0094108125194907,0.0061412495560944
1769234431500,-0.0854034423828125,0.0497894287109375,-0.9842681884765624,-0.0309901405125856,-0.0269623752683401,0.0050285807810723
1769234431511,-0.0899810791015625,0.0503692626953125,-0.9826202392578124,-0.0380741469562053,-0.0218962430953979,-0.0005933523061685
1769234431521,-0.0892791748046875,0.0533599853515625,-0.9886932373046876,-0.0323669947683811,-0.0232059862464666,-0.0032242890447378
1769234431531,-0.0884857177734375,0.053558349609375,-0.9969940185546876,-0.0213739983737468,-0.0182543713599443,-0.0005046690348535
1769234431541,-0.0842132568359375,0.0500640869140625,-0.999420166015625,-0.0106896618381142,-0.000582167005632,0.0058387145400047
1769234431551,-0.081817626953125,0.049560546875,-0.998870849609375,0.0050863712094724,0.0150990579277277,0.0154926730319857
1769234431561,-0.08319091796875,0.0504608154296875,-1.001220703125,0.0140431150794029,0.0216720066964626,0.0140726752579212
1769234431571,-0.0862579345703125,0.0504913330078125,-0.9967193603515624,0.0167454238981008,0.0237447433173656,0.0123496102169156
1769234431581,-0.0871734619140625,0.04888916015625,-0.990875244140625,0.0093919038772583,0.0182437188923358,0.0104534402489662
1769234431591,-0.084381103515625,0.045379638671875,-0.9859619140625,0.0020442423410713,0.0136380475014448,0.0134556209668517
1769234431601,-0.081085205078125,0.0449981689453125,-0.985321044921875,-0.0068829399533569,0.0055361790582537,0.0161331631243228
1769234431611,-0.082061767578125,0.0456390380859375,-0.9864349365234376,-0.0147051764652132,0.0030533140525221,0.0180261377245187
1769234431621,-0.0869140625,0.046173095703125,-0.988983154296875,-0.0147339385002851,0.0017329188995063,0.0172104127705097
1769234431631,-0.08929443359375,0.0482635498046875,-0.9939727783203124,-0.010057427920401,0.0009113337146118,0.0114281568676233
1769234431641,-0.0933074951171875,0.051513671875,-1.0015411376953125,-0.0049502840265631,0.0051806471310555,0.0073202308267354
1769234431651,-0.0928802490234375,0.050689697265625,-1.0019683837890625,-0.0022399846930056,0.0129309790208935,0.0091301146894693
1769234431661,-0.089508056640625,0.0516357421875,-1.005401611328125,0.0038495992776006,0.012549347244203,0.0134154073894023
1769234431672,-0.0874786376953125,0.05108642578125,-1.00714111328125,0.0142686842009425,0.0089458245784044,0.0155933406203985
1769234431681,-0.0877227783203125,0.0496978759765625,-1.011199951171875,0.0249666031450033,0.0013398362789303,0.0191742274910211
1769234431692,-0.0865325927734375,0.049468994140625,-1.0110626220703125,0.0332024283707141,-0.0065228804014623,0.0150497891008853
1769234431701,-0.0908203125,0.0494537353515625,-1.00469970703125,0.0379583016037941,-0.0109075084328651,0.011819907464087
1769234431711,-0.0923919677734375,0.047637939453125,-1.0005035400390625,0.0419567711651325,-0.0154186375439167,0.0039553269743919
1769234431722,-0.0972747802734375,0.04644775390625,-0.9959716796875,0.0422782152891159,-0.0102502405643463,-0.0034216293133795
1769234431732,-0.0943756103515625,0.0477294921875,-0.9895782470703124,0.0392629839479923,-0.0043390882201492,-0.0071710939519107
1769234431742,-0.0939788818359375,0.0454254150390625,-0.9830474853515624,0.0310410056263208,-0.0027648939285427,-0.007275755982846
1769234431752,-0.0927276611328125,0.0453643798828125,-0.9794921875,0.0224339365959167,0.0027166905347257,-0.0087170591577887
1769234431762,-0.0897369384765625,0.043304443359375,-0.975341796875,0.0134777259081602,0.0101407850161194,-0.0045116613619029
1769234431772,-0.0859222412109375,0.0428314208984375,-0.974273681640625,0.004807804711163,0.0173576846718788,0.0034192325547337
1769234431782,-0.0841217041015625,0.044952392578125,-0.976715087890625,0.0025209481827914,0.0187254846096038,0.0098813930526375
1769234431792,-0.0865325927734375,0.046630859375,-0.982421875,7.5101139373146e-05,0.018576081842184,0.0137506993487477
1769234431802,-0.0885772705078125,0.048065185546875,-0.9833831787109376,-0.0048133973032236,0.0199811644852161,0.0122822327539324
1769234431812,-0.089508056640625,0.050201416015625,-0.983612060546875,-0.0062419171445071,0.0197188425809144,0.0102060325443744
1769234431822,-0.0915374755859375,0.050140380859375,-0.9869384765625,-0.0068970546126365,0.0190719608217477,0.0093053514137864
1769234431832,-0.08929443359375,0.0509796142578125,-0.9902191162109376,-0.0059803943149745,0.0167691260576248,0.0116539932787418
1769234431842,-0.0876312255859375,0.049407958984375,-0.9906768798828124,-0.0084677869454026,0.0113048525527119,0.012500612065196
1769234431852,-0.0880279541015625,0.04925537109375,-0.989410400390625,-0.0129046132788062,0.0036847495939582,0.0131504228338599
1769234431862,-0.089691162109375,0.0479583740234375,-0.9889984130859376,-0.0192352142184972,0.0013006879016757,0.0101703461259603
1769234431872,-0.091217041015625,0.0489349365234375,-0.9853973388671876,-0.0278097931295633,0.0064610950648784,0.006361492909491
1769234431882,-0.0931549072265625,0.0477752685546875,-0.9830474853515624,-0.031454861164093,0.0090917656198143,0.0047606667503714
1769234431892,-0.0902252197265625,0.046600341796875,-0.9874114990234376,-0.0340631604194641,0.0080486051738262,0.0053473613224923
1769234431902,-0.0866546630859375,0.04833984375,-0.992523193359375,-0.0292372480034828,0.002756371628493,0.0081404848024249
1769234431912,-0.0849456787109375,0.048553466796875,-0.99969482421875,-0.0298899877816438,7.669904152862728e-05,0.0090656662359833
1769234431923,-0.0847930908203125,0.05078125,-1.000335693359375,-0.0207513514906168,0.0081764375790953,0.0113541204482316
1769234431933,-0.085296630859375,0.051605224609375,-1.0032806396484375,-0.0100523680448532,0.0121962120756506,0.0108225541189312
1769234431943,-0.0852813720703125,0.0502471923828125,-1.004730224609375,0.0043713124468922,0.0133482962846755,0.014454573392868
1769234431953,-0.083587646484375,0.0522003173828125,-1.0054473876953125,0.0157099869102239,0.0125525435432791,0.0193020589649677
1769234431963,-0.0804595947265625,0.0505218505859375,-1.0046539306640625,0.0246984213590621,0.0138388499617576,0.020428841933608
1769234431973,-0.082275390625,0.050323486328125,-1.00140380859375,0.028512068092823,0.0181723460555076,0.0221343301236629
1769234431983,-0.086212158203125,0.0484619140625,-0.9925537109375,0.0232001282274723,0.0143512422218918,0.0213580187410116
1769234431993,-0.090240478515625,0.05126953125,-0.9838714599609376,0.0104632936418056,0.0052189966663718,0.0138012999668717
1769234432003,-0.0956573486328125,0.049835205078125,-0.9799346923828124,-0.0003398193512111,0.0028005801141262,0.0044733118265867
1769234432013,-0.097015380859375,0.0526123046875,-0.979278564453125,-0.0081431474536657,-1.2783173588104546e-05,-0.002003229688853
1769234432023,-0.0977020263671875,0.0542755126953125,-0.9817962646484376,-0.0120452111586928,0.0061034327372908,-0.0054522897116839
1769234432033,-0.0933074951171875,0.05517578125,-0.9817047119140624,-0.0141725447028875,0.0063148876652121,-0.0088512822985649
1769234432043,-0.0914306640625,0.0533294677734375,-0.9813232421875,-0.0214488338679075,0.0028229507151991,-0.0102334627881646
1769234432053,-0.0856475830078125,0.050567626953125,-0.981109619140625,-0.0324399657547473,-0.0053460295312106,-0.0068547101691365
1769234432063,-0.081451416015625,0.0505218505859375,-0.9860687255859376,-0.0380560383200645,-0.0139341913163661,-0.0110148340463638
1769234432073,-0.0835418701171875,0.0535888671875,-0.990570068359375,-0.0371534936130046,-0.0145126301795244,-0.0131831802427768
1769234432083,-0.0847015380859375,0.0561676025390625,-0.995147705078125,-0.026215624064207,0.0014863101532682,-0.006655772216618
1769234432093,-0.0855255126953125,0.0570068359375,-0.995513916015625,-0.0114902080968022,0.0238917507231235,0.001447960617952
1769234432104,-0.08819580078125,0.0557098388671875,-0.995697021484375,-0.0018104169284924,0.0431948751211166,0.0026320021133869
1769234432113,-0.0888519287109375,0.05462646484375,-0.99224853515625,-0.005412608385086,0.0391031950712204,-0.0009952232940122
1769234432123,-0.088104248046875,0.0538330078125,-0.98858642578125,-0.0175148118287324,0.0241266414523124,-0.0059263324365019
1769234432133,-0.085296630859375,0.05352783203125,-0.98828125,-0.0251543559134006,0.0128209898248314,-0.0080022662878036
1769234432143,-0.083038330078125,0.0497589111328125,-0.989776611328125,-0.0318921543657779,0.0050994209013879,-0.0087436903268098
1769234432154,-0.0835418701171875,0.04901123046875,-0.9923095703125,-0.0333531610667705,0.004651743452996,-0.0072129052132368
1769234432164,-0.08642578125,0.0493621826171875,-0.99432373046875,-0.0302942562848329,0.0029113676864653,-0.0051753208972513
1769234432174,-0.0898895263671875,0.051025390625,-1.0020751953125,-0.0180085618048906,0.0056645437143743,-0.0051870387978851
1769234432184,-0.08941650390625,0.0527191162109375,-1.00701904296875,-0.0033337450586259,0.0082914857193827,-2.157160452043172e-05
1769234432194,-0.0894622802734375,0.0537261962890625,-1.009765625,0.0113855460658669,0.0124468160793185,0.0029699571896344
1769234432204,-0.0912017822265625,0.0552978515625,-1.0030364990234375,0.0178991053253412,0.0180578306317329,0.0057218014262616
1769234432214,-0.0935516357421875,0.0550689697265625,-0.9962921142578124,0.0182754099369049,0.0162791050970554,0.0056949034333229
1769234432224,-0.092010498046875,0.05230712890625,-0.9898529052734376,0.0175081528723239,0.0113645074889063,0.0057332529686391
1769234432234,-0.090118408203125,0.0511627197265625,-0.9850616455078124,0.0145483165979385,0.0046131275594234,0.0067465859465301
1769234432244,-0.08917236328125,0.0525970458984375,-0.98455810546875,0.0078845545649528,0.0011962919961661,0.007889081723988
1769234432254,-0.085845947265625,0.0518951416015625,-0.9839324951171876,0.0010508833220228,-0.0010743191232904,0.0116907441988587
1769234432264,-0.0843505859375,0.0537109375,-0.9846954345703124,-0.0024157534353435,-0.0079998699948191,0.0151943992823362
1769234432274,-0.086395263671875,0.055450439453125,-0.98577880859375,-0.0057873153127729,-0.0114310858771204,0.0139009021222591
1769234432284,-0.0874786376953125,0.055084228515625,-0.98828125,-0.0112816831097006,-0.0115951374173164,0.0113032544031739
1769234432294,-0.087371826171875,0.055877685546875,-0.9867095947265624,-0.0177007000893354,-0.0072179655544459,0.0087796431034803
1769234432304,-0.088409423828125,0.0560455322265625,-0.987152099609375,-0.0226296782493591,-0.0094331828877329,0.0032836776226758
1769234432314,-0.08795166015625,0.0545654296875,-0.98687744140625,-0.026823092252016,-0.0113120432943105,0.0027324033435434
1769234432324,-0.085052490234375,0.052978515625,-0.9900665283203124,-0.0227021165192127,-0.0090094739571213,0.0042240396142005
1769234432334,-0.0828857421875,0.055328369140625,-0.9954681396484376,-0.0120675815269351,0.0021987056825309,0.0091295829042792
1769234432344,-0.082977294921875,0.0570831298828125,-1.0015869140625,0.0012634035665541,0.0128508172929286,0.0104651581496
1769234432355,-0.085052490234375,0.0573272705078125,-1.00140380859375,0.0107802096754312,0.0148463239893317,0.0103072319179773
1769234432365,-0.0875396728515625,0.0550537109375,-0.9967803955078124,0.0105418572202324,0.0097804591059684,0.005649097263813
1769234432375,-0.0858001708984375,0.05267333984375,-0.9902191162109376,0.0040160468779504,0.0042639872990548,0.0061098239384591
1769234432385,-0.0836944580078125,0.0489959716796875,-0.9857025146484376,-0.007644603960216,-0.0014793860027566,0.0098411794751882
1769234432395,-0.08514404296875,0.04974365234375,-0.9810028076171876,-0.0209902357310056,-0.0059971725568175,0.0079524656757712
1769234432405,-0.08941650390625,0.0496063232421875,-0.982177734375,-0.0255626179277896,-0.0068499166518449,0.0038416099268943
1769234432415,-0.0926361083984375,0.0520172119140625,-0.9873504638671876,-0.0311699043959379,-0.0058403122238814,-0.0006364954751916
1769234432425,-0.0927276611328125,0.05474853515625,-0.9915618896484376,-0.0323219858109951,-0.0076914755627512,-0.0039800941012799
1769234432435,-0.0891571044921875,0.0550689697265625,-0.9971771240234376,-0.0219234079122543,-0.0042695798911154,0.000242880283622
1769234432445,-0.0866851806640625,0.0545196533203125,-1.0019989013671875,-0.0094377100467681,-0.0034056503791362,0.0028676919173449
1769234432455,-0.0849151611328125,0.05401611328125,-1.0023345947265625,-0.0022101574577391,-0.005771336145699,0.0072717610746622
1769234432465,-0.0867919921875,0.0539093017578125,-0.9989013671875,-0.0016852483386173,-0.006933007389307,0.0052094091661274
1769234432475,-0.0892486572265625,0.053558349609375,-0.9943084716796876,-0.0023337281309068,-0.0059766662307083,0.0024817998055368
1769234432485,-0.0886383056640625,0.052032470703125,-0.9917144775390624,-0.0044107274152338,-0.0075151743367314,0.003851197194308
1769234432495,-0.08721923828125,0.0541839599609375,-0.992156982421875,-0.0044842306524515,-0.0104225473478436,0.0045793056488037
1769234432505,-0.0869140625,0.053466796875,-0.994232177734375,-0.0008705873624421,-0.013015666976571,0.0046666571870446
1769234432519,-0.0862274169921875,0.0530548095703125,-0.993194580078125,0.0005789712304249,-0.012311527505517,0.0075900088995695
1769234432525,-0.0865325927734375,0.0528411865234375,-0.9900054931640624,0.0017536915838718,-0.010857974179089,0.0054062171839177
1769234432535,-0.0876312255859375,0.05535888671875,-0.9917449951171876,0.0018146779621019,-0.0136114163324236,0.0033566481433808
1769234432545,-0.0924072265625,0.0535430908203125,-0.9907989501953124,-0.0009869674686342,-0.0116864833980798,0.0029438582714647
1769234432555,-0.0894927978515625,0.0519866943359375,-0.985992431640625,-0.0048288437537848,-0.011127752251923,0.00476785749197
1769234432566,-0.087646484375,0.0520172119140625,-0.9868011474609376,-0.0075748288072645,-0.0118481377139687,0.0073756244964897
1769234432576,-0.0903472900390625,0.05255126953125,-0.986053466796875,-0.0170713942497968,-0.0098188081756234,0.0035310853272676
1769234432586,-0.0922393798828125,0.0524139404296875,-0.9833526611328124,-0.0238083936274051,-0.0088012143969535,-0.0012982910266146
1769234432596,-0.09271240234375,0.052215576171875,-0.98419189453125,-0.0264036431908607,-0.0105146924033761,-0.0021094898693263
1769234432606,-0.0878143310546875,0.0521392822265625,-0.991180419921875,-0.020928718149662,-0.0113250920549035,0.0029601035639643
1769234432616,-0.086029052734375,0.0528106689453125,-0.9963226318359376,-0.0168809797614812,-0.00976980663836,0.0030280142091214
1769234432626,-0.0877838134765625,0.0536651611328125,-0.9977874755859376,-0.0077295587398111,-0.0096129458397626,0.0029771476984024
1769234432636,-0.0894622802734375,0.0540618896484375,-0.9990386962890624,-0.0028250813484191,-0.0060112872160971,-0.0013699301052838
1769234432646,-0.091278076171875,0.05340576171875,-0.9949798583984376,-0.0020985708106309,-0.0072161010466516,-0.0022399846930056
1769234432656,-0.0904693603515625,0.0521392822265625,-0.9923248291015624,-0.0012040151050314,-0.0015046859625726,0.0017584852175787
1769234432666,-0.0842132568359375,0.0502471923828125,-0.9934844970703124,0.0007169229793362,-0.0058906460180878,0.0062427157536149
1769234432676,-0.0848541259765625,0.0494537353515625,-0.9949798583984376,-0.0041737058199942,-0.0113671701401472,0.0108262822031974
1769234432686,-0.086761474609375,0.0500335693359375,-0.9916534423828124,-0.0080752372741699,-0.0124603975564241,0.0056951697915792
1769234432696,-0.0932159423828125,0.05291748046875,-0.9933013916015624,-0.0098592890426516,-0.0128313759341835,-0.0023704797495156
1769234432706,-0.096435546875,0.0551300048828125,-0.995391845703125,-0.012679842300713,-0.0061867893673479,-0.007202785462141
1769234432716,-0.092376708984375,0.0561065673828125,-0.9976043701171876,-0.010260360315442,-0.0054759918712079,-0.0081900190562009
1769234432727,-0.09002685546875,0.0550384521484375,-1.0001678466796875,-0.0049550775438547,-0.0058989017270505,-0.0066765449009835
1769234432736,-0.087249755859375,0.0549468994140625,-1.003082275390625,0.0040461407043039,-0.0036035231314599,-0.006049370393157
1769234432746,-0.0877532958984375,0.0559844970703125,-1.004730224609375,0.0159904174506664,0.0026178872212767,-0.0046919570304453
1769234432756,-0.0872650146484375,0.0553131103515625,-1.0019989013671875,0.0244890972971916,0.0062768044881522,-0.004652542527765
1769234432766,-0.0882110595703125,0.05303955078125,-0.99969482421875,0.0297792013734579,-0.0016495619202032,-0.0066602993756532
1769234432777,-0.0913543701171875,0.050323486328125,-0.993194580078125,0.0246353056281805,-0.0091586112976074,-0.0132990274578332
1769234432787,-0.0931549072265625,0.0506134033203125,-0.987396240234375,0.0110598411411046,-0.0151986600831151,-0.0149190286174416
1769234432797,-0.0921478271484375,0.050323486328125,-0.9797210693359376,-0.0001251685753231,-0.0187087059020996,-0.0128263160586357
1769234432807,-0.093048095703125,0.0491180419921875,-0.9781646728515624,-0.0092504899948835,-0.0164151918143033,-0.0110619720071554
1769234432817,-0.0951385498046875,0.05328369140625,-0.9792022705078124,-0.0136526953428983,-0.0038922098465263,-0.0119344238191843
1769234432827,-0.09771728515625,0.05657958984375,-0.983245849609375,-0.0146202212199568,0.0011946940794587,-0.0154575193300843
1769234432837,-0.098236083984375,0.0553436279296875,-0.9891510009765624,-0.0140905184671282,0.0040530646219849,-0.0186764821410179
1769234432847,-0.091796875,0.0536041259765625,-0.989349365234375,-0.019201124086976,-0.0025915219448506,-0.020530842244625
1769234432857,-0.085693359375,0.054107666015625,-0.995086669921875,-0.0219369903206825,-0.0142593635246157,-0.0213921070098876
1769234432867,-0.0838623046875,0.0545196533203125,-1.0003662109375,-0.0175747331231832,-0.0187803450971841,-0.0199856925755739
1769234432877,-0.0854034423828125,0.056793212890625,-1.0032958984375,-0.0037976677995175,-0.0149552477523684,-0.0184554401785135
1769234432889,-0.0896148681640625,0.059844970703125,-1.008575439453125,0.0183808710426092,-0.0056387111544609,-0.0146726863458752
1769234432897,-0.091033935546875,0.0592041015625,-1.006256103515625,0.0328996255993843,0.0153163718059659,-0.0133408391848206
1769234432907,-0.090972900390625,0.0600433349609375,-0.9994354248046876,0.0341289415955543,0.0154380779713392,-0.0174908433109521
1769234432917,-0.091796875,0.0572357177734375,-0.9907684326171876,0.0257016345858573,0.0098140146583318,-0.0236696433275938
1769234432927,-0.0851287841796875,0.0520782470703125,-0.9841461181640624,0.0118318917229771,0.003098854329437,-0.0250962991267442
1769234432938,-0.0823974609375,0.046112060546875,-0.9780731201171876,-0.0078368838876485,-0.001242897240445,-0.0214006304740905
1769234432947,-0.0791778564453125,0.0406036376953125,-0.9748687744140624,-0.0222717504948377,-0.0060871872119605,-0.0144487144425511
1769234432958,-0.0782012939453125,0.0389862060546875,-0.9773712158203124,-0.0310037229210138,-0.0029068402945995,-0.0068733524531126
1769234432967,-0.07965087890625,0.0405120849609375,-0.9830474853515624,-0.0295871868729591,0.0015885755419731,0.0031190942972898
1769234432977,-0.0837860107421875,0.042877197265625,-0.992645263671875,-0.0161336958408355,0.0050040795467793,0.0131506891921162
1769234432989,-0.085968017578125,0.0476531982421875,-1.001617431640625,-0.0015936355339363,0.0074869445525109,0.0156809594482183
1769234432998,-0.09271240234375,0.051055908203125,-1.0038909912109375,0.0083583313971757,0.0063140885904431,0.0198783669620752
1769234433007,-0.0961151123046875,0.054351806640625,-0.9996490478515624,0.011053716763854,0.0090555464848876,0.0145933236926794
1769234433017,-0.0990142822265625,0.0559234619140625,-0.99713134765625,0.0135011617094278,0.0089977560564875,0.0094417044892907
1769234433028,-0.0989990234375,0.055206298828125,-0.9932708740234376,0.0143491122871637,0.0092507563531398,0.0067724185064435
1769234433038,-0.091827392578125,0.053375244140625,-0.99066162109375,0.0095721995458006,0.0134492293000221,0.0077593862079083
1769234433048,-0.092254638671875,0.0528411865234375,-0.9864044189453124,-0.0017212009988725,0.0122955488041043,0.0102070970460772
1769234433058,-0.088958740234375,0.05267333984375,-0.9827728271484376,-0.0059100869111716,0.0072637717239558,0.0133072836324572
1769234433068,-0.088897705078125,0.052978515625,-0.9862213134765624,-0.0099250683560967,0.010642790235579,0.0136630814522504
1769234433078,-0.0913238525390625,0.0543060302734375,-0.9869232177734376,-0.0132209965959191,0.011028416454792,0.0089817773550748
1769234433088,-0.0914154052734375,0.05450439453125,-0.9871368408203124,-0.0177022982388734,0.0036613137926906,0.0016721988795325
1769234433098,-0.0897369384765625,0.0551300048828125,-0.9901885986328124,-0.0231657736003398,-0.0056501626968383,-0.001121190842241
1769234433108,-0.0882415771484375,0.054046630859375,-0.989990234375,-0.0241996124386787,-0.0116220349445939,-0.0043236417695879
1769234433118,-0.087188720703125,0.053192138671875,-0.99322509765625,-0.0206573419272899,-0.0082890884950757,-0.0031601069495081
1769234433128,-0.0867156982421875,0.0532684326171875,-0.9965667724609376,-0.0119051290675997,0.000541686953511,1.4913702216290403e-05
1769234433138,-0.086578369140625,0.054840087890625,-1.0000152587890625,0.000793621991761,0.0089626023545861,-0.0006130596739239
1769234433148,-0.08734130859375,0.0556182861328125,-1.000030517578125,0.0106057729572057,0.0102576976642012,-0.0011209244839847
1769234433158,-0.089691162109375,0.0552215576171875,-0.99871826171875,0.0122342957183718,0.009279784746468,-0.0037409423384815
1769234433169,-0.0889892578125,0.0514984130859375,-0.99322509765625,0.0074480627663433,0.0109727559611201,-0.0054552191868424
1769234433178,-0.0896148681640625,0.0500335693359375,-0.98272705078125,-0.0054309843108057,0.0107482513412833,-0.0042541334405541
1769234433188,-0.089080810546875,0.04833984375,-0.979095458984375,-0.0139062283560633,0.0060760020278394,-0.0023023027461022
1769234433199,-0.0863800048828125,0.0479278564453125,-0.9829254150390624,-0.018580075353384,0.0032027175184339,0.0001358212175546
1769234433208,-0.088287353515625,0.0507965087890625,-0.9900054931640624,-0.0173073504120111,0.0056922403164207,0.0020133496727794
1769234433219,-0.090362548828125,0.0520172119140625,-0.9944305419921876,-0.010962369851768,0.0117232352495193,0.0044165863655507
1769234433229,-0.0897674560546875,0.05255126953125,-0.9975128173828124,-0.0029358686879277,0.01335069257766,0.0057409764267504
1769234433239,-0.0892181396484375,0.0518646240234375,-0.997894287109375,-0.0043052663095295,0.0137887829914689,0.0109900664538145
1769234433249,-0.0861053466796875,0.053009033203125,-0.9957122802734376,-0.0027265443932265,0.0157786961644887,0.0158404819667339
1769234433259,-0.0867462158203125,0.05279541015625,-0.994659423828125,0.0029638318810611,0.0141056990250945,0.0137706734240055
1769234433269,-0.09033203125,0.0551300048828125,-0.996490478515625,0.0020671456586569,0.0114878118038177,0.0116401445120573
1769234433279,-0.092529296875,0.0554962158203125,-0.99615478515625,0.001874332781881,0.0143347308039665,0.0084968153387308
1769234433289,-0.09112548828125,0.0527801513671875,-0.994659423828125,0.0067252805456519,0.0149904014542698,0.0098307924345135
1769234433299,-0.086334228515625,0.051971435546875,-0.995452880859375,0.0094486288726329,0.0138771999627351,0.0108257494866848
1769234433309,-0.0843505859375,0.0504302978515625,-0.9951934814453124,0.0093628754839301,0.0104835331439971,0.0161747094243764
1769234433319,-0.0867462158203125,0.0504150390625,-0.9911346435546876,0.0067385965958237,0.0085881622508168,0.0164780430495739
1769234433329,-0.0897064208984375,0.0520477294921875,-0.9889373779296876,0.0034615767654031,0.008717325516045,0.0110143013298511
1769234433339,-0.092041015625,0.052032470703125,-0.9858856201171876,0.0009552759001962,0.0122058000415563,0.0114846155047416
1769234433349,-0.0917510986328125,0.0511627197265625,-0.987884521484375,-0.0010871023405343,0.0114486627280712,0.0126476185396313
1769234433359,-0.09051513671875,0.0521240234375,-0.9895782470703124,-0.0006522081675939,0.0090880375355482,0.0139120873063802
1769234433371,-0.089752197265625,0.0526275634765625,-0.991180419921875,-0.0005201153689995,0.0074920048937201,0.0116691729053854
1769234433379,-0.094482421875,0.054412841796875,-0.9922027587890624,-0.0007749798824079,0.0030874025542289,0.0042631882242858
1769234433389,-0.09954833984375,0.05523681640625,-0.9918670654296876,-0.0043018041178584,0.0007515440811403,-0.0085578020662069
1769234433399,-0.100006103515625,0.05450439453125,-0.990692138671875,-0.0100960433483123,-0.0004114583716727,-0.0139395175501704
1769234433409,-0.0972137451171875,0.05230712890625,-0.9874725341796876,-0.0149432634934782,0.0065231467597186,-0.0114558534696698
1769234433420,-0.0914154052734375,0.0501251220703125,-0.99053955078125,-0.0126116657629609,0.0099767344072461,-0.003924167715013
1769234433430,-0.088958740234375,0.050506591796875,-0.9948577880859376,-0.0080757699906826,0.0089444927871227,-0.0021036309190094
1769234433440,-0.088409423828125,0.051483154296875,-0.998992919921875,0.006034989375621,0.0066568371839821,0.0009249158320017
1769234433450,-0.0891571044921875,0.05206298828125,-1.002288818359375,0.0164910927414894,0.0066200857982039,-0.0018543590558692
1769234433460,-0.0921173095703125,0.0516510009765625,-1.00146484375,0.0230019893497228,0.0082848276942968,-0.0018026937032118
1769234433470,-0.0898284912109375,0.049560546875,-0.9976806640625,0.0248097423464059,0.003156644757837,-0.0015028218040242
1769234433480,-0.0907440185546875,0.0506439208984375,-0.9943084716796876,0.018842663615942,-0.001350222621113,-0.0016460998449474
1769234433490,-0.092010498046875,0.0484161376953125,-0.989349365234375,0.013710219413042,-0.0015283881220966,-0.0046384274028241
1769234433500,-0.0908355712890625,0.04864501953125,-0.98785400390625,0.0116385463625192,-0.0015347796725109,-0.0008945558220148
1769234433510,-0.08868408203125,0.0494384765625,-0.989288330078125,0.0093322489410638,-0.0006237123161554,0.0031675638165324
1769234433520,-0.08837890625,0.0502777099609375,-0.9878387451171876,0.0051718587055802,-0.0022333269007503,0.0007749798824079
1769234433530,-0.09075927734375,0.0521240234375,-0.990386962890625,0.005299690645188,-0.0097434408962726,-0.0041651837527751
1769234433540,-0.0916900634765625,0.0515594482421875,-0.9904937744140624,0.004511927254498,-0.0109021821990609,-0.0061772023327648
1769234433550,-0.088287353515625,0.0511474609375,-0.990447998046875,0.0042469431646168,-0.0096923084929585,-0.0055305864661931
1769234433560,-0.0877532958984375,0.0524444580078125,-0.9911956787109376,0.0056706690229475,0.0007414240390062,-0.0045348308049142
1769234433571,-0.0872650146484375,0.0526885986328125,-0.9901885986328124,0.0043899547308683,0.0039124498143792,-0.0058994344435632
1769234433580,-0.09112548828125,0.052001953125,-0.98876953125,0.0048842374235391,0.0074949343688786,-0.0063748084940016
1769234433590,-0.0882720947265625,0.052581787109375,-0.9892578125,0.0025640914682298,0.0086768446490168,-0.0065266089513897
1769234433600,-0.08740234375,0.0536956787109375,-0.9920654296875,0.0058767977170646,0.0071639032103121,-0.0051811798475682
1769234433610,-0.08642578125,0.05157470703125,-0.99285888671875,0.0114763602614402,0.0087780449539422,-0.0023387880064547
1769234433620,-0.0843505859375,0.048309326171875,-0.9884185791015624,0.0075961342081427,0.0124673219397664,6.391586794052273e-05
1769234433631,-0.0827484130859375,0.04595947265625,-0.980499267578125,-0.0094334492459893,0.0101146856322884,0.0056560216471552
1769234433641,-0.0844879150390625,0.0472869873046875,-0.9761962890625,-0.0228725597262382,0.0032674323301762,0.0047457530163228
1769234433651,-0.08966064453125,0.0498046875,-0.9783477783203124,-0.0311856158077716,0.0065407236106693,0.0016783240716904
1769234433661,-0.09088134765625,0.0514984130859375,-0.983642578125,-0.0288423001766204,0.0092209288850426,0.0009185242815874
1769234433671,-0.090728759765625,0.0529327392578125,-0.9931640625,-0.0235809590667486,0.0070051788352429,0.0021781993564218
1769234433681,-0.0885162353515625,0.0523223876953125,-0.9996490478515624,-0.0170812495052814,0.0049018142744898,0.0006663228850811
1769234433691,-0.0861053466796875,0.04937744140625,-0.9998626708984376,-0.0164540745317935,0.0060802628286182,0.0036690370179712
1769234433701,-0.0803070068359375,0.0472259521484375,-0.9948883056640624,-0.0233466010540723,0.0072219599969685,0.0093660708516836
1769234433711,-0.078399658203125,0.0448455810546875,-0.9936370849609376,-0.0238656513392925,0.0051446943543851,0.0137986363843083
1769234433721,-0.0784759521484375,0.046661376953125,-1.001434326171875,-0.0152058508247137,0.0052562812343239,0.0170974936336278
1769234433731,-0.0789337158203125,0.050323486328125,-1.0059814453125,-0.0012756541837006,0.0168676637113094,0.0236198417842388
1769234433741,-0.08306884765625,0.052825927734375,-1.0048980712890625,0.0162069331854581,0.0247713923454284,0.0277671832591295
1769234433751,-0.0845489501953125,0.056854248046875,-1.005706787109375,0.0254254657775163,0.0295584239065647,0.0232089161872863
1769234433761,-0.0890655517578125,0.0574798583984375,-1.000579833984375,0.0251279901713132,0.0294215381145477,0.0138545632362365
1769234433771,-0.08807373046875,0.055206298828125,-0.9906005859375,0.0158484708517789,0.0271575842052698,0.0113285547122359
1769234433781,-0.083953857421875,0.0504913330078125,-0.9853363037109376,0.0024290692526847,0.0226350054144859,0.0104209491983056
1769234433791,-0.0816802978515625,0.0455780029296875,-0.9807586669921876,-0.0122960805892944,0.016619723290205,0.0156772304326295
1769234433801,-0.079010009765625,0.0406951904296875,-0.9832611083984376,-0.0229793507605791,0.0229987930506467,0.0227884035557508
1769234433811,-0.0804290771484375,0.0420379638671875,-0.9888153076171876,-0.021607557311654,0.0213393773883581,0.0267916675657033
1769234433822,-0.087249755859375,0.04681396484375,-0.99853515625,-0.0140098249539732,0.0193236302584409,0.0260864607989788
1769234433832,-0.0923919677734375,0.05126953125,-1.0041961669921875,-9.906959166983142e-05,0.0179185457527637,0.0239724442362785
1769234433841,-0.09515380859375,0.0542449951171875,-1.0073394775390625,0.0156162437051534,0.0148468567058444,0.0189795494079589
1769234433852,-0.0979461669921875,0.0554046630859375,-1.0083160400390625,0.0244001485407352,0.0105288075283169,0.013390639796853
1769234433862,-0.100372314453125,0.056488037109375,-1.0031890869140625,0.0301989149302244,0.0099429115653038,0.0080110551789402
1769234433872,-0.1009674072265625,0.052734375,-0.9959564208984376,0.0264654289931058,0.0098973717540502,0.0017648768844082
1769234433882,-0.099578857421875,0.051513671875,-0.9887237548828124,0.0218970421701669,0.0076765618287026,-0.0034069819375872
1769234433892,-0.095855712890625,0.052215576171875,-0.988983154296875,0.0186138972640037,-0.0002743055811151,-0.0086648603901267
1769234433902,-0.0929718017578125,0.0496673583984375,-0.9879150390625,0.0118707744404673,-0.000557133287657,-0.0067923921160399
1769234433912,-0.089569091796875,0.0490570068359375,-0.986297607421875,0.0092704640701413,-0.0006064017652533,-0.0024181501939892
1769234433925,-0.088287353515625,0.0491790771484375,-0.9893646240234376,0.009925334714353,0.0060653495602309,-0.0001906823308672
1769234433932,-0.087860107421875,0.0472259521484375,-0.989105224609375,0.0070922640152275,0.0110771525651216,1.944107498275116e-05
1769234433942,-0.0877227783203125,0.0485687255859375,-0.985107421875,-0.0005858954391442,0.0117330886423587,-0.0001174454009742
1769234433952,-0.0859222412109375,0.0467376708984375,-0.9851531982421876,-0.0053859767504036,0.0095112137496471,-0.0027190875262022
1769234433962,-0.085601806640625,0.047210693359375,-0.9913177490234376,-0.0005331648280844,0.0131568145006895,-0.0024013724178075
1769234433972,-0.0842437744140625,0.049896240234375,-1.000213623046875,0.0145866656675934,0.0270931366831064,0.0016197345685213
1769234433982,-0.0805816650390625,0.0508880615234375,-1.0077972412109375,0.0387394055724144,0.0389412753283977,0.0088108023628592
1769234433992,-0.0811004638671875,0.0503997802734375,-1.0094451904296875,0.0492804646492004,0.0302614998072385,0.0128774493932724
1769234434002,-0.07904052734375,0.047607421875,-0.997161865234375,0.0447794571518898,0.0288313813507556,0.0137333888560533
1769234434012,-0.08160400390625,0.0460662841796875,-0.98883056640625,0.0295973066240549,0.0230898726731538,0.0145637625828385
1769234434022,-0.0815887451171875,0.0435638427734375,-0.9805450439453124,0.0129869049414992,0.0194836854934692,0.0145504465326666
1769234434032,-0.08172607421875,0.041290283203125,-0.976837158203125,-0.001308411010541,0.010981012135744,0.0145581699907779
1769234434042,-0.080352783203125,0.0434722900390625,-0.9806060791015624,-0.0103644905611872,0.004269313532859,0.0153272906318306
1769234434052,-0.0810089111328125,0.04473876953125,-0.986572265625,-0.0110827451571822,0.0054706656374037,0.0164535418152809
1769234434063,-0.0816650390625,0.0464630126953125,-0.9930267333984376,-0.0063431169837713,0.0093887075781822,0.020167052745819
1769234434073,-0.0802001953125,0.0494537353515625,-1.0000152587890625,0.0004772384709212,-0.0039161783643066,0.0193744972348213
1769234434083,-0.080169677734375,0.04766845703125,-1.0001983642578125,-0.0022162825334817,-0.0152236940339207,0.0197430774569511
1769234434093,-0.082977294921875,0.0479888916015625,-0.9982452392578124,0.0007504787645302,-0.0153440684080123,0.0164253115653991
1769234434103,-0.086029052734375,0.049102783203125,-0.9989166259765624,0.0066163572482764,-0.0093077477067708,0.0153017248958349
1769234434113,-0.0845947265625,0.04876708984375,-1.000457763671875,0.0180833954364061,0.0019414444686844,0.0180636886507272
1769234434123,-0.082366943359375,0.0476837158203125,-1.0030059814453125,0.0302804075181484,0.0062552327290177,0.0199132543057203
1769234434133,-0.0834197998046875,0.045623779296875,-1.002349853515625,0.0344043113291263,0.0113940685987472,0.0198565293103456
1769234434143,-0.083892822265625,0.04608154296875,-0.9960784912109376,0.0323416925966739,0.0086299730464816,0.0190298836678266
1769234434153,-0.0859527587890625,0.0465545654296875,-0.99163818359375,0.0281773097813129,0.0113751599565148,0.0155344847589731
1769234434163,-0.085723876953125,0.04705810546875,-0.9890289306640624,0.0246534142643213,0.0126478848978877,0.0123043367639184
1769234434174,-0.0860748291015625,0.0470123291015625,-0.98785400390625,0.0213641449809074,0.0108483862131834,0.0091961612924933
1769234434183,-0.0851898193359375,0.0458831787109375,-0.9876251220703124,0.0147925280034542,0.0112691661342978,0.0071625718846917
1769234434193,-0.0835113525390625,0.0457763671875,-0.9859771728515624,0.0127323064953088,0.0122742429375648,0.0083639239892363
1769234434203,-0.0847320556640625,0.046051025390625,-0.9874725341796876,0.0122105935588479,0.009024653583765,0.0037766287568956
1769234434213,-0.09063720703125,0.0467987060546875,-0.9877777099609376,0.0075290226377546,0.0115719670429825,-0.0002348908019484
1769234434224,-0.090484619140625,0.0457763671875,-0.985504150390625,0.0032815469894558,0.0140449786558747,6.151902198325843e-05
1769234434233,-0.0892791748046875,0.0442657470703125,-0.9862060546875,0.000129163308884,0.0127448234707117,-0.0018602180061861
1769234434243,-0.0873870849609375,0.0427093505859375,-0.988128662109375,-0.0005728459218516,0.0137648144736886,-0.0003470098890829
1769234434253,-0.08642578125,0.043121337890625,-0.9913787841796876,0.0022170816082507,0.0124803716316819,-0.0033790187444537
1769234434264,-0.087860107421875,0.041900634765625,-0.993255615234375,0.0043526706285774,0.0076336846686899,-0.0014783206861466
1769234434274,-0.08636474609375,0.03973388671875,-0.9919891357421876,0.0020149475894868,0.0064938520081341,-0.0024591628462076
1769234434284,-0.0850677490234375,0.04034423828125,-0.993255615234375,0.0029158950783312,0.0058389804325997,-0.0015209312550723
1769234434294,-0.085479736328125,0.040283203125,-0.992645263671875,0.0019936424214392,0.0094172041863203,0.0048602689057588
1769234434304,-0.0826416015625,0.0392913818359375,-0.9937591552734376,0.0020271982066333,0.0111008547246456,0.0101093593984842
1769234434314,-0.0824432373046875,0.0398406982421875,-0.9978790283203124,0.0073982612229883,0.0109170963987708,0.0108800781890749
1769234434324,-0.0798797607421875,0.040863037109375,-1.0019073486328125,0.0113085806369781,0.0100867226719856,0.0133648077026009
1769234434334,-0.081512451171875,0.0428924560546875,-1.0022735595703125,0.0150322122499346,0.0018738001817837,0.0130851753056049
1769234434344,-0.0840301513671875,0.0462188720703125,-1.0019073486328125,0.0171294528990983,-0.0009699232759885,0.0082621909677982
1769234434355,-0.083343505859375,0.047119140625,-1.0007171630859375,0.0200424175709486,-0.0001515338663011,0.0092102764174342
1769234434364,-0.0811614990234375,0.0452117919921875,-0.99786376953125,0.0191113762557506,-0.0023824640084058,0.0110917994752526
1769234434374,-0.08062744140625,0.0465240478515625,-0.994415283203125,0.0176772642880678,-0.0044733118265867,0.0079101212322711
1769234434384,-0.0817718505859375,0.046051025390625,-0.991546630859375,0.017673535272479,-0.0042775692418217,0.0085636610165238
1769234434394,-0.0792999267578125,0.04400634765625,-0.990081787109375,0.0179752726107835,0.0012498215073719,0.0125394938513636
1769234434407,-0.07977294921875,0.042724609375,-0.9879302978515624,0.0193361472338438,0.0066951867192983,0.0144449854269623
1769234434414,-0.0812225341796875,0.0434112548828125,-0.984466552734375,0.0160609912127256,0.0083884242922067,0.0128255169838666
1769234434424,-0.084503173828125,0.043701171875,-0.9797821044921876,0.0076363482512533,0.011779960244894,0.0087657943367958
1769234434434,-0.0835418701171875,0.044921875,-0.9768218994140624,-0.0010812433902174,0.0108443917706608,0.0068736188113689
1769234434444,-0.083038330078125,0.043243408203125,-0.975738525390625,-0.0099378516897559,0.0096787260845303,0.0046557383611798
1769234434454,-0.0840606689453125,0.0432586669921875,-0.9752044677734376,-0.0166540779173374,0.0148817440494894,0.0077545922249555
1769234434464,-0.0853729248046875,0.0433807373046875,-0.977020263671875,-0.0233300905674695,0.018262892961502,0.005640575196594
1769234434475,-0.086090087890625,0.042327880859375,-0.979156494140625,-0.0302950553596019,0.0152015900239348,0.0040711741894483
1769234434485,-0.0859527587890625,0.04364013671875,-0.98095703125,-0.0378094315528869,0.0060091568157076,0.0052051483653485
1769234434495,-0.0860748291015625,0.0438232421875,-0.98773193359375,-0.0404142700135707,-0.0032722260802984,0.0035950010642409
1769234434505,-0.0880126953125,0.0436859130859375,-0.991607666015625,-0.0395780354738235,-0.0091013526543974,-0.0001440770138287
1769234434515,-0.0909881591796875,0.0465240478515625,-0.9965362548828124,-0.0333731360733509,-0.0076488647609949,-0.0052759884856641
1769234434525,-0.0915069580078125,0.046875,-0.99798583984375,-0.0252321194857358,-0.003475957782939,-0.00776844099164
1769234434535,-0.0911865234375,0.042083740234375,-0.9988250732421876,-0.0239697806537151,-0.0051745218224823,-0.0051561463624238
1769234434545,-0.0818328857421875,0.036590576171875,-0.9949188232421876,-0.027392741292715,-0.0064608287066221,-0.0004290352517273
1769234434555,-0.073455810546875,0.0345611572265625,-0.9967041015625,-0.0336772687733173,-0.0225668288767337,0.0050000851042568
1769234434565,-0.074432373046875,0.036041259765625,-0.99774169921875,-0.0349044539034366,-0.0298811998218297,0.0037955371662974
1769234434575,-0.0826416015625,0.0427398681640625,-1.002288818359375,-0.0194866154342889,-0.0196418780833482,4.207794336252846e-05
1769234434585,-0.0917205810546875,0.049835205078125,-1.0070343017578125,0.001620533526875,-0.0024839304387569,0.0007960188668221
1769234434595,-0.091827392578125,0.0488739013671875,-1.0055084228515625,0.0141760064288973,0.0099708754569292,0.0015195996966212
1769234434607,-0.086273193359375,0.047119140625,-0.9983062744140624,0.0137083549052476,0.0101186800748109,0.0007217166712507
1769234434615,-0.0804443359375,0.0445709228515625,-0.9908905029296876,0.0037068538367748,-0.0019017633749172,-0.0015603461069986
1769234434625,-0.076507568359375,0.0389556884765625,-0.9825286865234376,-0.0130340429022908,-0.0058730691671371,0.0004146541759837
1769234434636,-0.074188232421875,0.0353240966796875,-0.98095703125,-0.023019565269351,-0.0029507824219763,0.0018168084789067
1769234434645,-0.0744781494140625,0.033660888671875,-0.98468017578125,-0.0266941953450441,0.0055143414065241,0.0072318138554692
1769234434655,-0.076202392578125,0.0347747802734375,-0.9898529052734376,-0.0206903647631406,0.0071311462670564,0.0115258945152163
1769234434665,-0.0801544189453125,0.0378570556640625,-0.9931640625,-0.0133027555420994,0.0084094638004899,0.0164854992181062
1769234434676,-0.0825653076171875,0.0400848388671875,-0.99652099609375,-0.0060544302687048,0.0064701498486101,0.0171571485698223
1769234434686,-0.0892333984375,0.0416717529296875,-0.99713134765625,-0.0045084655284881,0.0028461201582103,0.0115823540836572
1769234434696,-0.0943756103515625,0.0458526611328125,-0.9941558837890624,-0.0029052423778921,-0.0059540290385484,0.0048123318701982
1769234434706,-0.097564697265625,0.046142578125,-0.995330810546875,-0.0039689089171588,-0.0118534639477729,-0.0014365090755745
1769234434716,-0.0997467041015625,0.0482177734375,-0.996917724609375,0.0003408846096135,-0.0138111533597111,-0.0096470350399613
1769234434726,-0.099517822265625,0.0469207763671875,-0.998291015625,0.0043180491775274,-0.0171970967203378,-0.0148798795416951
1769234434736,-0.0962371826171875,0.04522705078125,-0.99749755859375,0.0087724523618817,-0.0174948368221521,-0.0187521167099475
1769234434746,-0.0934600830078125,0.0464935302734375,-0.9960479736328124,0.0090001532807946,-0.0156980026513338,-0.01627803966403
1769234434756,-0.08880615234375,0.044525146484375,-0.9927825927734376,0.008356999605894,-0.0097154779359698,-0.0115738315507769
1769234434766,-0.084381103515625,0.0429840087890625,-0.9939422607421876,0.0121844941750168,-0.005142031237483,-0.0060347230173647
1769234434776,-0.081085205078125,0.04095458984375,-0.9945526123046876,0.010433199815452,-0.0044703823514282,-0.000916393706575
1769234434786,-0.07568359375,0.0386199951171875,-0.992584228515625,0.0052221924997866,-0.0101538337767124,0.0037300232797861
1769234434796,-0.0739898681640625,0.03955078125,-0.99127197265625,0.0013076120521873,-0.0155352838337421,0.0041465419344604
1769234434806,-0.0778961181640625,0.040069580078125,-0.99359130859375,-0.0014335796004161,-0.0211699996143579,2.423476507829037e-05
1769234434816,-0.080718994140625,0.0414886474609375,-0.993072509765625,-0.0025185514241456,-0.0180748738348484,0.0006018743733875
1769234434826,-0.078399658203125,0.0421142578125,-0.99322509765625,0.0011251855175942,-0.0090800477191805,0.0010926949325948
1769234434836,-0.0818023681640625,0.0455169677734375,-0.996734619140625,0.0119288312271237,-0.0035790221299976,-0.0014402375090867
1769234434846,-0.0865478515625,0.0490875244140625,-0.998687744140625,0.0229359418153762,0.0014205301413312,-0.0030794132035225
1769234434857,-0.0872955322265625,0.0488433837890625,-0.9967498779296876,0.0255034957081079,0.0045564020983874,-0.0062203453853726
1769234434866,-0.086090087890625,0.0465240478515625,-0.9929351806640624,0.0223537757992744,0.0063516390509903,-0.0089370356872677
1769234434876,-0.083740234375,0.04205322265625,-0.986297607421875,0.0160271693021059,0.0066523100249469,-0.0058506983332335
1769234434886,-0.0825958251953125,0.0373382568359375,-0.9808807373046876,0.0033904702868312,0.0036147085484117,-0.0036027242895215
1769234434897,-0.080780029296875,0.0381317138671875,-0.9781341552734376,-0.0078541943803429,-0.0007419566973112,-0.0012879046844318
1769234434907,-0.081939697265625,0.0381011962890625,-0.9816741943359376,-0.0136660113930702,-0.0022519689518958,0.0009603358921594
1769234434917,-0.0834197998046875,0.038421630859375,-0.985748291015625,-0.0172370430082082,-0.0022876553703099,0.0033742249943315
1769234434927,-0.08660888671875,0.0411224365234375,-0.9902496337890624,-0.0131948981434106,-0.007267233915627,-0.0011741877533495
1769234434937,-0.090545654296875,0.04644775390625,-0.9963226318359376,-0.0063705476932227,-0.006991596892476,-0.0022298647090792
1769234434947,-0.0907135009765625,0.046844482421875,-0.9956817626953124,-0.0015406386228278,-0.0023545008152723,-0.0051910337060689
1769234434957,-0.087432861328125,0.0447540283203125,-0.99658203125,0.0002292981662321,-0.0027851338963955,-5.4328484111465514e-05
1769234434967,-0.08514404296875,0.044921875,-0.9944610595703124,0.0032075112685561,0.0034405377227813,0.0023499734234064
1769234434977,-0.0838470458984375,0.044281005859375,-0.9950408935546876,0.0031308121979236,0.0038157771341502,0.0026919231750071
1769234434987,-0.08306884765625,0.0436248779296875,-0.9930267333984376,0.0049449573270976,0.0084336986765265,0.0036195022985339
1769234434997,-0.0821685791015625,0.0442657470703125,-0.9907684326171876,0.0059071574360132,0.0081809647381305,0.0062485747039318
1769234435007,-0.0813751220703125,0.04559326171875,-0.9914398193359376,0.0060360543429851,0.0016698020044714,0.0025566346012055
1769234435017,-0.0796661376953125,0.045806884765625,-0.993438720703125,0.0064049023203551,-0.0066033080220222,-0.0011574097443372
1769234435027,-0.080413818359375,0.045135498046875,-0.992218017578125,0.0082102594897151,-0.0041255028918385,-0.0002338255435461
1769234435037,-0.0803985595703125,0.0433807373046875,-0.9926300048828124,0.0050645335577428,-0.0079506011679768,0.0027963190805166
1769234435047,-0.0804901123046875,0.0408172607421875,-0.9868621826171876,-0.0008476841612718,0.005299690645188,0.000507598510012
1769234435057,-0.0851287841796875,0.04058837890625,-0.9859619140625,-0.0087085366249084,0.0071447286754846,-0.0046086004003882
1769234435067,-0.0849456787109375,0.04010009765625,-0.988189697265625,-0.0113517241552472,0.0059987702406942,-0.0021611552219837
1769234435077,-0.0791015625,0.0391693115234375,-0.9921417236328124,-0.0097082871943712,0.0011070760665461,0.0035936695057898
1769234435087,-0.0782928466796875,0.0383148193359375,-0.997650146484375,-0.0069393985904753,-0.0021734058391302,0.0048046088777482
1769234435097,-0.07806396484375,0.03753662109375,-0.9979400634765624,-0.0055561531335115,-0.0098217381164431,0.0066674901172518
1769234435107,-0.083038330078125,0.038726806640625,-0.997650146484375,-0.00272414740175,-0.0106039084494113,0.00617400649935
1769234435118,-0.087615966796875,0.0393524169921875,-0.9971771240234376,-0.0031667647417634,-0.0064613614231348,0.0060842577368021
1769234435128,-0.08740234375,0.0397186279296875,-0.9957733154296876,0.0015267902053892,-0.001700428314507,0.0078230360522866
1769234435138,-0.0846405029296875,0.0399017333984375,-1.00042724609375,0.0093982955440878,0.0007326356135308,0.0136550916358828
1769234435148,-0.08245849609375,0.0414581298828125,-1.0025634765625,0.0144204841926693,0.0002612560929264,0.0177832581102848
1769234435158,-0.0825653076171875,0.0399169921875,-1.0032501220703125,0.0189300160855054,-0.0028040423057973,0.0171512905508279
1769234435168,-0.085113525390625,0.041748046875,-1.000152587890625,0.0208067446947097,-0.0062238075770437,0.014283332042396
1769234435178,-0.0865631103515625,0.040130615234375,-0.9957733154296876,0.0161909535527229,-0.0109575763344764,0.011813249439001
1769234435188,-0.086456298828125,0.041717529296875,-0.991363525390625,0.0108385328203439,-0.0087594026699662,0.010562895797193
1769234435198,-0.0870208740234375,0.0421295166015625,-0.9888153076171876,0.0060115535743534,-0.0100116217508912,0.0065886606462299
1769234435208,-0.0872802734375,0.0419921875,-0.990814208984375,0.0052136704325675,-0.0100789992138743,0.0031838091090321
1769234435218,-0.0873565673828125,0.043304443359375,-0.989105224609375,0.003760383464396,-0.0094949677586555,0.0044261738657951
1769234435228,-0.086212158203125,0.042999267578125,-0.9894561767578124,0.0061266021803021,-0.0095482310280203,-4.181162876193411e-05
1769234435238,-0.087005615234375,0.044097900390625,-0.9918212890625,0.0079889502376317,-0.0085753789171576,-0.0013707289472222
1769234435248,-0.0863037109375,0.042755126953125,-0.990142822265625,0.004882373381406,-0.0028597023338079,-0.0010066748363897
1769234435258,-0.085052490234375,0.0395965576171875,-0.9850921630859376,0.0050267167389392,-0.0013451626291498,0.0002101234131259
1769234435268,-0.084991455078125,0.0379638671875,-0.9822235107421876,0.0005680522299371,0.0024575649295002,0.0015361113473773
1769234435278,-0.0847930908203125,0.0350494384765625,-0.9795684814453124,-0.0080771008506417,0.0068381987512111,0.0055188685655593
1769234435289,-0.0821990966796875,0.0319976806640625,-0.97833251953125,-0.0180301330983638,0.0041412152349948,0.0100646186619997
1769234435298,-0.079803466796875,0.0320892333984375,-0.9779205322265624,-0.0258142873644828,-0.0007840346079319,0.0147139653563499
1769234435308,-0.082061767578125,0.031646728515625,-0.9813079833984376,-0.0332980342209339,-0.0022860574536025,0.0163653902709484
1769234435318,-0.0862274169921875,0.03753662109375,-0.987518310546875,-0.0306045152246952,-0.0070251524448394,0.0119501361623406
1769234435329,-0.0941162109375,0.0444793701171875,-0.994659423828125,-0.0320604629814624,-0.0172857791185379,0.0025696840602904
1769234435339,-0.09747314453125,0.04852294921875,-0.9976959228515624,-0.029895581305027,-0.0216506998986005,-0.0096616819500923
1769234435349,-0.0982818603515625,0.047607421875,-1.002349853515625,-0.0235633831471204,-0.0150351421907544,-0.0140508376061916
1769234435359,-0.09124755859375,0.0454864501953125,-1.0077362060546875,-0.0174804572016,-0.0233314223587512,-0.0165688563138246
1769234435369,-0.0819091796875,0.04290771484375,-1.00677490234375,-0.0216176770627498,-0.0368570834398269,-0.0162394233047962
1769234435379,-0.081634521484375,0.04058837890625,-1.0055084228515625,-0.0173310525715351,-0.0446300506591796,-0.0144162233918905
1769234435390,-0.0842437744140625,0.0410614013671875,-1.0064849853515625,-0.0055990298278629,-0.0359369628131389,-0.0089151980355381
1769234435399,-0.087890625,0.0414276123046875,-1.003021240234375,0.0093937683850526,-0.0165129303932189,-0.0022056300658732
1769234435409,-0.0912628173828125,0.0411376953125,-0.99908447265625,0.0216144807636737,0.0022879217285662,0.0003563309437595
1769234435419,-0.08929443359375,0.0389251708984375,-0.9932403564453124,0.0202019400894641,0.011365040205419,0.0043449471704661
1769234435429,-0.0858917236328125,0.0401153564453125,-0.9872894287109376,0.0148045122623443,0.0146306082606315,0.0087298415601253
1769234435441,-0.0829010009765625,0.03900146484375,-0.9844207763671876,0.0093676690012216,0.0092065474018454,0.0119093898683786
1769234435449,-0.082305908203125,0.0364990234375,-0.9866790771484376,0.0037308223545551,-0.0003499393642414,0.0098411794751882
1769234435459,-0.085662841796875,0.034942626953125,-0.987396240234375,-0.0034059167373925,-0.0042235073633491,0.0084936199709773
1769234435469,-0.0860595703125,0.036529541015625,-0.9886932373046876,-0.0053377738222479,-0.0076400763355195,0.0113701000809669
1769234435479,-0.089324951171875,0.0386962890625,-0.9947052001953124,-0.002559564076364,-0.0093530220910906,0.0091666001826524
1769234435490,-0.09490966796875,0.0396575927734375,-0.9978790283203124,0.0029422603547573,-0.0082581965252757,0.0076017268002033
1769234435499,-0.099700927734375,0.0406341552734375,-0.999908447265625,0.0078715048730373,-0.0093751261010766,0.0053399042226374
1769234435509,-0.101043701171875,0.0424041748046875,-0.998321533203125,0.0112507902085781,-0.0102888569235801,-0.0016530241118744
1769234435519,-0.1025390625,0.039154052734375,-0.996124267578125,0.0130596095696091,-0.009123989380896,-0.0019853864796459
1769234435530,-0.1011962890625,0.0393829345703125,-0.9933013916015624,0.0117336213588714,-0.0085625955834984,-0.0004948153509758
1769234435540,-0.0983428955078125,0.0392913818359375,-0.9876251220703124,0.0079740369692444,-0.0097692739218473,-0.0020186761394143
1769234435550,-0.0970458984375,0.0400390625,-0.9881591796875,0.0078941415995359,-0.0102284029126167,-0.0042517366819083
1769234435560,-0.0962371826171875,0.0392913818359375,-0.9890899658203124,0.0087700560688972,-0.0092915026471018,-0.0047257794067263
1769234435570,-0.0928802490234375,0.0413818359375,-0.9904022216796876,0.012483567930758,-0.0101272026076912,-0.0020224044565111
1769234435580,-0.0903167724609375,0.0414886474609375,-0.9934234619140624,0.0155294248834252,-0.0116662429645657,-0.0016434367280453
1769234435590,-0.092559814453125,0.0391082763671875,-0.9895477294921876,0.0084456829354166,-0.0104750115424394,-0.005053880624473
1769234435600,-0.0916900634765625,0.03778076171875,-0.985382080078125,-0.0029510487802326,-0.0126894302666187,-0.0087929591536521
1769234435610,-0.0935821533203125,0.0367584228515625,-0.9797210693359376,-0.017667144536972,-0.013652428984642,-0.0150905363261699
1769234435620,-0.091156005859375,0.0372161865234375,-0.9818115234375,-0.0241644587367773,-0.016897490248084,-0.0145765459164977
1769234435630,-0.0912933349609375,0.0373992919921875,-0.986175537109375,-0.0262244138866662,-0.0135176731273531,-0.013652428984642
1769234435640,-0.088623046875,0.0378875732421875,-0.9914093017578124,-0.0221630930900573,-0.0097173424437642,-0.0056453687138855
1769234435650,-0.0870208740234375,0.0400390625,-0.9976043701171876,-0.0122321648523211,-0.0035342811606824,-0.0027569043450057
1769234435660,-0.0904693603515625,0.0416717529296875,-1.00115966796875,0.0007821703911758,0.0011049455497413,-0.0048927594907581
1769234435670,-0.0928497314453125,0.0437469482421875,-1.003173828125,0.0095101483166217,0.0007640608819201,-0.0078155789524316
1769234435680,-0.0959930419921875,0.0406646728515625,-0.9998779296875,0.009491772390902,0.0010708570480346,-0.0116063226014375
1769234435690,-0.0948638916015625,0.0401153564453125,-0.9940032958984376,0.0033518546260893,-0.0007571366732008,-0.0112292189151048
1769234435700,-0.092987060546875,0.0384979248046875,-0.990264892578125,-0.0011861718958243,-0.0037883466575294,-0.010906177572906
1769234435710,-0.093170166015625,0.037506103515625,-0.99151611328125,-0.0069002504460513,-0.0059215384535491,-0.0100536989048123
1769234435720,-0.0936431884765625,0.0381927490234375,-0.9917449951171876,-0.0100214751437306,-0.0080150496214628,-0.0111647704616189
1769234435730,-0.0947265625,0.0393829345703125,-0.9938201904296876,-0.0073737604543566,-0.006932208314538,-0.0110044479370117
1769234435740,-0.097076416015625,0.0430755615234375,-0.9964599609375,-0.0054711978882551,-0.0023020363878458,-0.0149200931191444
1769234435750,-0.0976409912109375,0.0416412353515625,-0.9976959228515624,0.0019646140281111,-0.0024740765802562,-0.0154146421700716
1769234435761,-0.0970611572265625,0.041351318359375,-0.99908447265625,0.0071516525931656,-0.0035033884923905,-0.0153480637818574
1769234435771,-0.09576416015625,0.0401763916015625,-0.9971923828125,0.009182047098875,0.0008767126128077,-0.0138412471860647
1769234435781,-0.0958099365234375,0.03955078125,-0.99261474609375,0.0063846623525023,0.0023672839161008,-0.0178042966872453
1769234435791,-0.0957794189453125,0.0382843017578125,-0.9854888916015624,-0.0020780644845217,0.0060725398361682,-0.0183787401765584
1769234435801,-0.094970703125,0.03533935546875,-0.9809722900390624,-0.0097892470657825,0.0060552293434739,-0.0162287708371877
1769234435811,-0.09228515625,0.034912109375,-0.98052978515625,-0.0135405762121081,0.0044123250991106,-0.0106760803610086
1769234435821,-0.0889739990234375,0.035736083984375,-0.9799041748046876,-0.0189968608319759,0.0032101743854582,-0.0075545888394117
1769234435831,-0.0872344970703125,0.034759521484375,-0.982757568359375,-0.0227761529386043,0.0016061523929238,0.0005920206895098
1769234435841,-0.0885162353515625,0.03863525390625,-0.98663330078125,-0.0222973152995109,-0.0003262372338213,-0.0006966829532757
1769234435851,-0.0951995849609375,0.0426177978515625,-0.990966796875,-0.0175813902169466,-0.0009763148264028,-0.0028895298019051
1769234435861,-0.0980377197265625,0.0468292236328125,-0.9970703125,-0.0144918570294976,-0.0061367219313979,-0.010014284402132
1769234435871,-0.1007080078125,0.0489349365234375,-1.000518798828125,-0.0104638263583183,-0.0089367693290114,-0.016194149851799
1769234435881,-0.09979248046875,0.046966552734375,-0.999664306640625,-0.0072216941043734,-0.0086486153304576,-0.0193691700696945
1769234435891,-0.0955352783203125,0.0455474853515625,-0.9997100830078124,-0.0033830134198069,-0.007488542702049,-0.0180303994566202
1769234435901,-0.0927276611328125,0.0413818359375,-0.999969482421875,-0.0019403791520744,-0.0063021043315529,-0.0154556548222899
1769234435911,-0.0916290283203125,0.0386810302734375,-0.995330810546875,-0.0015504923649132,0.0008894957718439,-0.0130050145089626
1769234435924,-0.0913238525390625,0.0364227294921875,-0.9919891357421876,-0.0005968143814243,0.0058301920071244,-0.0074041201733052
1769234435931,-0.089019775390625,0.034423828125,-0.99224853515625,-0.0010620686225593,0.0077617829665541,-0.002397111384198
1769234435942,-0.0887603759765625,0.034759521484375,-0.992401123046875,0.0015427692560479,0.0100984405726194,0.0019923108629882
1769234435951,-0.0892333984375,0.03717041015625,-0.9951324462890624,0.0048698564060032,0.0067969197407364,0.0052525526843965
1769234435962,-0.0924072265625,0.0392608642578125,-0.997161865234375,0.0068211546167731,0.0042338934727013,0.0038860845379531
1769234435972,-0.095367431640625,0.0400390625,-0.99505615234375,0.0094576841220259,0.0039878175593912,-0.0007390272221527
1769234435982,-0.0986328125,0.0417327880859375,-0.9935760498046876,0.0069393985904753,0.0027968517970293,-0.0027044401504099
1769234435992,-0.096710205078125,0.0411376953125,-0.991790771484375,0.0033388049341738,-0.0013949638232588,-0.0060262009501457
1769234436002,-0.097747802734375,0.0420989990234375,-0.9902496337890624,-0.0022085595410317,-0.0024847292806953,-0.0086486153304576
1769234436012,-0.0963287353515625,0.040924072265625,-0.9891357421875,-0.0048685246147215,-0.0012322446564212,-0.0101911183446645
1769234436023,-0.0941925048828125,0.04046630859375,-0.98785400390625,-0.0070880032144486,-0.0014274542918428,-0.0094449007883667
1769234436032,-0.0933837890625,0.042083740234375,-0.992034912109375,-0.0039811595343053,0.0036448021419346,-0.0069103701971471
1769234436042,-0.0897216796875,0.0414886474609375,-0.9950103759765624,0.0009528790251351,0.0074246269650757,-0.0032823460642248
1769234436052,-0.0887451171875,0.04132080078125,-0.9969940185546876,0.0060397828929126,0.0097820572555065,0.0010277138790115
1769234436062,-0.089935302734375,0.0400238037109375,-0.9949493408203124,0.0051814462058246,0.0121954139322042,0.0033318807836622
1769234436072,-0.0909423828125,0.0406494140625,-0.9901123046875,0.0046104644425213,0.0118430769070982,0.0037800907157361
1769234436082,-0.0912628173828125,0.0410614013671875,-0.98834228515625,0.0009962886106222,0.0114436028525233,0.0043713124468922
1769234436092,-0.090850830078125,0.0400390625,-0.98828125,-0.0005792375304736,0.0114356139674782,0.0045777074992656
1769234436102,-0.0908660888671875,0.038665771484375,-0.9853363037109376,-0.0060861217789351,0.0098025631159543,0.0068624336272478
1769234436112,-0.089935302734375,0.0382080078125,-0.9849700927734376,-0.0148894675076007,0.0053255232051014,0.0121123231947422
1769234436122,-0.08880615234375,0.038909912109375,-0.9860382080078124,-0.0202634595334529,-0.0001142496112152,0.0146202212199568
1769234436132,-0.093170166015625,0.0404510498046875,-0.989410400390625,-0.0180439818650484,-0.0039177760481834,0.0133858462795615
1769234436142,-0.0986175537109375,0.042449951171875,-0.9941253662109376,-0.0182461161166429,-0.0053193978965282,0.0083785708993673
1769234436152,-0.100341796875,0.04449462890625,-0.995513916015625,-0.0137799941003322,-0.0060325926169753,0.0018556906143203
1769234436162,-0.10015869140625,0.0405120849609375,-0.99700927734375,-0.0115645108744502,-0.0014162691077217,-0.0006601976347155
1769234436173,-0.09375,0.034820556640625,-0.993927001953125,-0.012973322533071,0.0064805359579622,0.0079684443771839
1769234436183,-0.083648681640625,0.032073974609375,-0.992584228515625,-0.0154255619272589,0.0077692396007478,0.017136376351118
1769234436193,-0.0804443359375,0.0340423583984375,-0.9962921142578124,-0.0189212262630462,0.0024993766564875,0.0212131440639495
1769234436203,-0.0862274169921875,0.03680419921875,-0.998504638671875,-0.0136926425620913,0.0041239047423005,0.0225412622094154
1769234436213,-0.0886993408203125,0.042572021484375,-1.002532958984375,-0.0013369068037718,0.0128087392076849,0.0296870563179254
1769234436223,-0.0942840576171875,0.047271728515625,-1.0077056884765625,0.0189561136066913,0.0230975951999425,0.0273093860596418
1769234436233,-0.0991363525390625,0.050933837890625,-1.0069122314453125,0.0324636660516262,0.0266188271343708,0.020566526800394
1769234436243,-0.1024322509765625,0.0526123046875,-1.0030364990234375,0.0349124446511268,0.0237860232591629,0.0110939303413033
1769234436253,-0.0996246337890625,0.0491485595703125,-0.9921417236328124,0.0241324994713068,0.0198621209710836,0.0004029362753499
1769234436263,-0.095916748046875,0.0419464111328125,-0.98126220703125,0.002871686592698,0.0138716073706746,-0.002283127978444
1769234436273,-0.09002685546875,0.036865234375,-0.9749755859375,-0.0179853923618793,0.0057412427850067,-0.0017305220244452
1769234436283,-0.0856170654296875,0.03082275390625,-0.9776611328125,-0.0314434096217155,0.0059713395312428,0.0038314899429678
1769234436293,-0.083465576171875,0.0292816162109375,-0.9829559326171876,-0.0331683382391929,0.0014961638953536,0.0099003016948699
1769234436303,-0.089019775390625,0.03424072265625,-0.995513916015625,-0.025194302201271,0.0017465010751038,0.0099748698994517
1769234436313,-0.09356689453125,0.037994384765625,-1.002044677734375,-0.011453989893198,0.0071055800653994,0.0129791814833879
1769234436323,-0.0954132080078125,0.04071044921875,-1.005279541015625,0.0036011263728141,0.013814615085721,0.0109288142994046
1769234436333,-0.0982818603515625,0.044158935546875,-1.0067901611328125,0.0230006575584411,0.018156100064516,0.0104326670989394
1769234436343,-0.09844970703125,0.0450439453125,-1.005645751953125,0.0298598948866128,0.0183465164154768,0.0104361288249492
1769234436353,-0.0960693359375,0.0429229736328125,-1.001556396484375,0.0349366776645183,0.0154852159321308,0.0079039959236979
1769234436364,-0.0950164794921875,0.0416717529296875,-0.995819091796875,0.0284659955650568,0.0105261439457535,0.0096299899742007
1769234436373,-0.094635009765625,0.039276123046875,-0.987945556640625,0.0154609819874167,0.0057705375365912,0.006098638754338
1769234436384,-0.0929412841796875,0.038238525390625,-0.9838714599609376,0.0062656188383698,0.0068895975127816,0.0098062921315431
1769234436394,-0.0899810791015625,0.03582763671875,-0.9846649169921876,0.0010210559703409,0.0066512445919215,0.013185310177505
1769234436404,-0.0898284912109375,0.0378265380859375,-0.9850616455078124,-0.0012018845882266,0.0112835466861724,0.0162420868873596
1769234436414,-0.0916748046875,0.03765869140625,-0.98956298828125,-0.0018383801216259,0.0138950431719422,0.0138260666280984
1769234436424,-0.0915679931640625,0.039794921875,-0.9922332763671876,-0.0017164073651656,0.0143347308039665,0.0110806142911314
1769234436434,-0.092529296875,0.0415496826171875,-0.9932098388671876,-0.0009925601771101,0.0128992870450019,0.0071503212675452
1769234436444,-0.0913848876953125,0.041839599609375,-0.99609375,0.0022879217285662,0.0083074644207954,0.0031742216087877
1769234436454,-0.0902557373046875,0.04150390625,-0.9998016357421876,0.0109988553449511,0.0065148910507559,0.0044088633731007
1769234436464,-0.0878448486328125,0.0428314208984375,-1.00384521484375,0.0247934963554143,0.0082054659724235,0.0046480149030685
1769234436474,-0.090179443359375,0.0442657470703125,-1.0028228759765625,0.0351683720946311,0.0113274892792105,0.0041979406960308
1769234436484,-0.0911865234375,0.04217529296875,-0.9969940185546876,0.0374062284827232,0.0146953230723738,0.0041824942454695
1769234436494,-0.090423583984375,0.0397796630859375,-0.9873199462890624,0.0327885709702968,0.0172721967101097,0.0033020533155649
1769234436504,-0.090179443359375,0.0359649658203125,-0.9788970947265624,0.0200562663376331,0.0160181149840354,0.0032727585639804
1769234436514,-0.089111328125,0.0321044921875,-0.97332763671875,0.0041350903920829,0.0197827592492103,0.0050642671994864
1769234436524,-0.0855560302734375,0.031524658203125,-0.970489501953125,-0.0068869343958795,0.0151398042216897,0.0054810517467558
1769234436534,-0.087982177734375,0.032257080078125,-0.9763946533203124,-0.017084976658225,0.0147046437487006,0.0076573868282139
1769234436544,-0.089508056640625,0.0357666015625,-0.9813232421875,-0.0244547426700592,0.0125695876777172,0.0034834146499633
1769234436554,-0.091827392578125,0.0362396240234375,-0.9886627197265624,-0.0200320314615964,0.0087133301421999,0.0016546220285817
1769234436564,-0.092437744140625,0.0385284423828125,-0.9946441650390624,-0.0158375520259141,0.0059420447796583,-0.0002761697978712
1769234436574,-0.09136962890625,0.0427093505859375,-1.000274658203125,-0.0086057391017675,0.0098973717540502,0.0017835189355537
1769234436585,-0.090728759765625,0.0408477783203125,-1.002838134765625,-0.0012064119800925,0.0129142003133893,0.0045971488580107
1769234436594,-0.0899810791015625,0.0406646728515625,-1.0045623779296875,0.0034922030754387,0.0086664585396647,0.0026716832071542
1769234436605,-0.0900115966796875,0.0388641357421875,-1.0027923583984375,0.0073785539716482,0.0103152217343449,0.0016927052056416
1769234436615,-0.088623046875,0.0383148193359375,-0.9995574951171876,0.0099184103310108,0.0111671667546033,-0.0004660531994886
1769234436625,-0.09063720703125,0.0369415283203125,-0.998291015625,0.0094848480075597,0.0051287156529724,-0.0009752495680004
1769234436635,-0.0888824462890625,0.0359649658203125,-0.99407958984375,0.0071487231180071,0.0053918357007205,-0.0002814961189869
1769234436645,-0.08782958984375,0.03466796875,-0.98931884765625,0.0031017838045954,0.0036024579312652,-0.0007701861904934
1769234436655,-0.08831787109375,0.0336151123046875,-0.9873046875,0.0002130528882844,0.0031518512405455,-0.0001150485550169
1769234436665,-0.0872039794921875,0.035125732421875,-0.985809326171875,-0.0031137678306549,0.010098174214363,0.0010719223646447
1769234436675,-0.0899658203125,0.034210205078125,-0.9860382080078124,-0.0036613137926906,0.0082864258438348,-0.0004937500343658
1769234436685,-0.0916290283203125,0.0352630615234375,-0.98748779296875,-0.0029340046457946,0.0080182449892163,-0.0034432008396834
1769234436695,-0.0913848876953125,0.0378265380859375,-0.990386962890625,-0.0037436054553836,0.006245378870517,-0.0039867521263659
1769234436705,-0.090606689453125,0.038116455078125,-0.9921722412109376,-0.0010298443958163,0.004430434666574,-0.0063628242351114
1769234436715,-0.092681884765625,0.038665771484375,-0.9912261962890624,-7.856325100874528e-05,0.007489341776818,-0.0080800307914614
1769234436725,-0.093231201171875,0.0389251708984375,-0.9901580810546876,0.0028783443849533,0.0099738044664263,-0.0105013763532042
1769234436735,-0.092254638671875,0.0391693115234375,-0.993927001953125,0.0067085027694702,0.0071119717322289,-0.0111975269392132
1769234436745,-0.090179443359375,0.0366668701171875,-0.994293212890625,0.0075412732549011,0.0089663304388523,-0.0085862977430224
1769234436756,-0.08837890625,0.0371551513671875,-0.9921112060546876,0.0049923616461455,0.0039484025910496,-0.0098342550918459
1769234436765,-0.0922088623046875,0.03607177734375,-0.9887847900390624,-0.001400023815222,0.0009872338268905,-0.010645986534655
1769234436775,-0.09100341796875,0.032745361328125,-0.98455810546875,-0.009615609422326,0.0022226742003113,-0.0102555667981505
1769234436785,-0.0914306640625,0.0346832275390625,-0.9831085205078124,-0.0146939912810921,0.0050408313982188,-0.0103903226554393
1769234436796,-0.0886383056640625,0.0340423583984375,-0.9865570068359376,-0.0186381321400403,0.0020407803822308,-0.0092986933887004
1769234436805,-0.0854949951171875,0.0347900390625,-0.988372802734375,-0.0196338891983032,0.0013627394801005,-0.00575509108603
1769234436815,-0.0825042724609375,0.0357666015625,-0.9920806884765624,-0.0186181589961051,-0.0020559602417051,-0.0013329121284186
1769234436826,-0.0841064453125,0.0375823974609375,-0.996551513671875,-0.0135482996702194,-0.0026972496416419,-0.0048205880448222
1769234436836,-0.0870361328125,0.037872314453125,-0.9973602294921876,-0.0137879839166998,-0.003483947366476,-0.009116000495851
1769234436846,-0.0912628173828125,0.0376434326171875,-0.9952545166015624,-0.0099322590976953,0.0017038905061781,-0.0109125692397356
1769234436857,-0.089569091796875,0.0384063720703125,-0.997100830078125,-0.0028554413001984,0.0066485814750194,-0.0102105597034096
1769234436866,-0.087432861328125,0.03546142578125,-0.9960784912109376,0.0032823460642248,0.0159930810332298,-0.0057223341427743
1769234436876,-0.08551025390625,0.033172607421875,-0.9923553466796876,0.0030591732356697,0.0169531498104333,-0.0026509105227887
1769234436886,-0.084686279296875,0.0338134765625,-0.9896392822265624,-0.0069356705062091,0.0126817068085074,0.0008884305134415
1769234436896,-0.0864105224609375,0.0350189208984375,-0.988037109375,-0.0101951127871871,0.0034027209039777,-0.0006503439508378
1769234436907,-0.089263916015625,0.0359649658203125,-0.9907989501953124,-0.0090981572866439,-0.0015547533985227,-0.0041524008847773
1769234436916,-0.09344482421875,0.03759765625,-0.9950714111328124,-0.0115759624168276,-0.0014618091518059,-0.0100675476714968
1769234436926,-0.095672607421875,0.0395050048828125,-0.99310302734375,-0.0108606368303298,0.004457599017769,-0.0156103847548365
1769234436936,-0.0954132080078125,0.0396270751953125,-0.9924163818359376,-0.0087703224271535,0.0071399346925318,-0.0193233639001846
1769234436946,-0.0930938720703125,0.0354461669921875,-0.9919281005859376,-0.0118116522207856,0.0114784901961684,-0.0155856171622872
1769234436958,-0.08270263671875,0.0335693359375,-0.989044189453125,-0.0164383612573146,0.0085881622508168,-0.0127394972369074
1769234436966,-0.07928466796875,0.033447265625,-0.992340087890625,-0.0182314682751894,-5.672533006872982e-05,-0.0099261337891221
1769234436976,-0.081085205078125,0.0366668701171875,-0.9967193603515624,-0.0162165202200412,-0.0074227624572813,-0.0087799094617366
1769234436986,-0.08709716796875,0.0411376953125,-0.997650146484375,-0.0048080710694193,0.0014482269762083,-0.0104113621637225
1769234436997,-0.0958709716796875,0.044281005859375,-0.9970245361328124,0.0035055188927799,0.0144732147455215,-0.011592473834753
1769234437006,-0.0956573486328125,0.044769287109375,-0.992950439453125,0.005306614562869,0.023929301649332,-0.0144987814128398
1769234437017,-0.0927886962890625,0.042633056640625,-0.986419677734375,-0.0027502465527504,0.0234488677233457,-0.0197774339467287
1769234437027,-0.085662841796875,0.0407562255859375,-0.9822998046875,-0.0166141297668218,0.015247662551701,-0.0228539165109395
1769234437037,-0.0793304443359375,0.03411865234375,-0.982421875,-0.0321797728538513,0.0054637412540614,-0.017528660595417
1769234437047,-0.0749969482421875,0.032470703125,-0.985931396484375,-0.0389687046408653,0.0050565437413752,-0.0172266568988561
1769234437058,-0.075103759765625,0.0296478271484375,-0.992706298828125,-0.0367497578263282,0.0058861183933913,-0.0116342855617403
1769234437067,-0.0779571533203125,0.030364990234375,-1.0018463134765625,-0.0256904494017362,0.0066318036988377,-0.0045105959288775
1769234437077,-0.0805206298828125,0.0336456298828125,-1.007476806640625,-0.0090707270428538,0.0087631316855549,0.0014567491598427
1769234437087,-0.085235595703125,0.0355224609375,-1.0107421875,0.0069724218919873,0.0084081320092082,0.002730805426836
1769234437097,-0.0934906005859375,0.0385284423828125,-1.008331298828125,0.018637066707015,0.0099668800830841,0.0019606191199272
1769234437107,-0.0997467041015625,0.04010009765625,-1.002410888671875,0.023978304117918,0.0120731741189956,-0.0035358788445591
1769234437117,-0.1024322509765625,0.039306640625,-0.9952392578125,0.0198807641863822,0.01203269418329,-0.0063665527850389
1769234437128,-0.0982666015625,0.03857421875,-0.9863739013671876,0.0133807864040136,0.0109706260263919,-0.0069947927258908
1769234437137,-0.092559814453125,0.0370025634765625,-0.98187255859375,0.003098854329437,0.0044935517944395,-0.0049912966787815
1769234437147,-0.089019775390625,0.0345001220703125,-0.982452392578125,-0.004914597608149,0.0008146609761752,-0.000582167005632
1769234437157,-0.0853118896484375,0.035003662109375,-0.9839019775390624,-0.0113898068666458,-0.0024549018125981,0.0012918994762003
1769234437167,-0.08721923828125,0.0382080078125,-0.9846038818359376,-0.0147677604109048,0.0005696501466445,0.0032051142770797
1769234437177,-0.090179443359375,0.0400390625,-0.98834228515625,-0.0126947565004229,0.0012990899849683,-5.858954409632133e-06
1769234437187,-0.0900726318359375,0.0399627685546875,-0.9918060302734376,-0.0113487942144274,0.0028905950020998,-0.0056554889306426
1769234437197,-0.0864410400390625,0.04150390625,-0.993804931640625,-0.0119043299928307,-0.0025481125339865,-0.0086416909471154
1769234437207,-0.0817108154296875,0.0400238037109375,-0.9954833984375,-0.0087913610041141,-0.008716526441276,-0.006654973141849
1769234437217,-0.08074951171875,0.038909912109375,-0.9971771240234376,-0.0047572045587003,-0.0040871533565223,-0.0058171427808701
1769234437228,-0.0824127197265625,0.038726806640625,-0.9962005615234376,-0.0014719291357323,0.008330900222063,-0.0012543488992378
1769234437238,-0.0830841064453125,0.0396575927734375,-0.9954986572265624,0.0082390215247869,0.0191561169922351,-0.0019323896849527
1769234437248,-0.08380126953125,0.0401611328125,-0.996490478515625,0.0150465937331318,0.019602196291089,0.0003539340978022
1769234437258,-0.0839691162109375,0.0383453369140625,-0.996124267578125,0.0154908094555139,0.0168436951935291,0.0018610169645398
1769234437268,-0.0828704833984375,0.03448486328125,-0.991180419921875,0.0103642242029309,0.0081953452900052,-0.0002561961009632
1769234437278,-0.084381103515625,0.033843994140625,-0.9825439453125,-0.0055470983497798,0.0054645403288304,0.0023355921730399
1769234437288,-0.0848846435546875,0.0331878662109375,-0.979583740234375,-0.0135078188031911,0.0090664653107523,0.0033073797821998
1769234437298,-0.0860443115234375,0.035064697265625,-0.984222412109375,-0.0187217555940151,0.0098078893497586,0.0052850432693958
1769234437308,-0.0869903564453125,0.035552978515625,-0.9888458251953124,-0.0178658161312341,0.0089985551312565,0.0060682790353894
1769234437318,-0.0898284912109375,0.0397796630859375,-0.99432373046875,-0.0139586925506591,0.0072147697210311,0.004376106429845
1769234437328,-0.092926025390625,0.0414581298828125,-0.998321533203125,-0.0102409198880195,0.0075516593642532,0.002462891396135
1769234437338,-0.089447021484375,0.0424346923828125,-0.99853515625,-0.0054970309138298,0.0068160942755639,0.0024397219531238
1769234437348,-0.086761474609375,0.0414276123046875,-0.9987640380859376,0.0019771307706832,0.0093692671507596,0.0027116306591778
1769234437358,-0.087005615234375,0.038787841796875,-0.9985198974609376,0.0064038368873298,0.0104369278997182,0.003092196304351
1769234437368,-0.084808349609375,0.037384033203125,-0.99505615234375,0.0074509922415018,0.0093112103641033,0.0049335057847201
1769234437378,-0.0837554931640625,0.03668212890625,-0.9932403564453124,0.0071644359268248,0.0079663135111331,0.006196909584105
1769234437388,-0.08453369140625,0.03411865234375,-0.9895782470703124,0.0011539476690813,0.0080004017800092,0.0089729884639382
