timestamp_ms,acc_x,acc_y,acc_z,gyro_x,gyro_y,gyro_z
1769180270332,-0.0978546142578125,-0.157806396484375,-0.966400146484375,0.0093375751748681,-0.0129642682150006,0.0008010788587853
1769180270342,-0.1000823974609375,-0.158660888671875,-0.9724884033203124,0.0079338233917951,-0.0143605638295412,0.0195433404296636
1769180270351,-0.1091766357421875,-0.1551361083984375,-0.9803924560546876,0.013777065090835,-0.0050592068582773,0.0333595536649227
1769180270362,-0.115509033203125,-0.1481170654296875,-0.990234375,0.0340916588902473,-0.0110377371311187,0.0445363074541091
1769180270372,-0.12628173828125,-0.143463134765625,-0.9898529052734376,0.0500967241823673,-0.0202986132353544,0.0454108901321888
1769180270382,-0.137664794921875,-0.13800048828125,-0.9803924560546876,0.0461078397929668,-0.0133757265284657,0.0334050953388214
1769180270392,-0.14605712890625,-0.1353302001953125,-0.976165771484375,0.0365763865411281,-0.0100694121792912,0.0203366968780756
1769180270404,-0.149200439453125,-0.1358489990234375,-0.976287841796875,0.033722810447216,-0.0118095213547348,0.0044789044186472
1769180270412,-0.147216796875,-0.1394500732421875,-0.9747772216796876,0.039152730256319,-0.0120811639353632,-0.0089681949466466
1769180270422,-0.1399383544921875,-0.144012451171875,-0.971893310546875,0.0386624410748481,-0.0063804010860621,-0.0129203256219625
1769180270432,-0.125518798828125,-0.1516876220703125,-0.970794677734375,0.0406848452985286,-0.0103565007448196,0.0007989483419805
1769180270442,-0.11395263671875,-0.1533203125,-0.9678802490234376,0.0385766886174678,-0.0194477345794439,0.017183780670166
1769180270453,-0.1136627197265625,-0.15447998046875,-0.9648590087890624,0.0348906069993972,-0.0111112408339977,0.027941619977355
1769180270462,-0.12188720703125,-0.1591644287109375,-0.962127685546875,0.027687819674611,-0.0006032059900462,0.0275354869663715
1769180270473,-0.1289520263671875,-0.1640625,-0.9595184326171876,0.0160300992429256,-0.0147517817094922,0.0212427042424678
1769180270482,-0.1275634765625,-0.16107177734375,-0.961456298828125,0.0052874400280416,-0.0305400658398866,0.0133371111005544
1769180270492,-0.12701416015625,-0.157257080078125,-0.9622039794921876,-0.0141722783446311,-0.031237281858921,0.0104374606162309
1769180270504,-0.128173828125,-0.1554107666015625,-0.9644775390625,-0.034459438174963,-0.0350503958761692,0.0103064337745308
1769180270513,-0.1268463134765625,-0.1533355712890625,-0.97442626953125,-0.0482021495699882,-0.0311704352498054,0.0067348680458962
1769180270523,-0.1264495849609375,-0.152923583984375,-0.98919677734375,-0.0470964051783084,-0.0287975594401359,0.0035505264531821
1769180270533,-0.1231536865234375,-0.1536865234375,-0.9969024658203124,-0.0373167470097541,-0.0248938985168933,0.0085146585479378
1769180270543,-0.121612548828125,-0.15234375,-0.9969482421875,-0.0348072499036788,-0.0125525435432791,0.0070094401016831
1769180270553,-0.1291046142578125,-0.15240478515625,-0.9946746826171876,-0.0399839021265506,0.014567757025361,0.0126673253253102
1769180270563,-0.1227874755859375,-0.1492462158203125,-1.00018310546875,-0.0305033139884471,0.0158556625247001,0.0210352446883916
1769180270573,-0.11822509765625,-0.148712158203125,-1.0142822265625,0.0082091940566897,0.0042469431646168,0.0343630351126194
1769180270583,-0.113189697265625,-0.144378662109375,-1.028564453125,0.0441075414419174,-0.007898136973381,0.0415319986641407
1769180270593,-0.114959716796875,-0.1447906494140625,-1.020355224609375,0.0620860084891319,0.0102590294554829,0.0497012436389923
1769180270603,-0.118011474609375,-0.1465606689453125,-1.0128021240234375,0.0731818005442619,0.0252475664019584,0.0572537034749984
1769180270613,-0.1203765869140625,-0.1458282470703125,-1.0055084228515625,0.0881378501653671,0.0192679706960916,0.0653438493609428
1769180270623,-0.1237030029296875,-0.1434326171875,-0.9951019287109376,0.0963329300284385,0.0175710041075944,0.0668666511774063
1769180270633,-0.1282501220703125,-0.1440277099609375,-0.9857330322265624,0.0958213359117508,0.0322021432220935,0.0652927234768867
1769180270643,-0.133453369140625,-0.148040771484375,-0.975341796875,0.090878777205944,0.0408238619565963,0.0563540868461132
1769180270653,-0.1400604248046875,-0.1497650146484375,-0.9694976806640624,0.0917714685201644,0.0475480780005455,0.0441131331026554
1769180270663,-0.1419677734375,-0.1503143310546875,-0.9642333984375,0.0939214378595352,0.0534781366586685,0.0364983566105365
1769180270673,-0.1394805908203125,-0.152099609375,-0.9561767578125,0.0876523554325103,0.0552443452179431,0.0335837937891483
1769180270683,-0.1378173828125,-0.1539459228515625,-0.944061279296875,0.0641438290476799,0.0546946711838245,0.0233492646366357
1769180270693,-0.1378021240234375,-0.1571044921875,-0.9345245361328124,0.0278582628816366,0.0555676557123661,0.0133546879515051
1769180270703,-0.1333770751953125,-0.156005859375,-0.9393157958984376,-0.0014263890916481,0.0510155148804187,0.0091455616056919
1769180270713,-0.128143310546875,-0.1558837890625,-0.9496307373046876,-0.0194855500012636,0.0417064353823661,0.012261725962162
1769180270723,-0.1261444091796875,-0.158294677734375,-0.9599151611328124,-0.0200442820787429,0.0288162007927894,0.0159302297979593
1769180270734,-0.1278839111328125,-0.1587371826171875,-0.9708251953125,-0.0110771525651216,0.0117522636428475,0.015819177031517
1769180270744,-0.130218505859375,-0.157470703125,-0.9784698486328124,0.0003824299201369,0.0075905416160821,0.01514832675457
1769180270754,-0.128662109375,-0.157012939453125,-0.97857666015625,0.0050749196670949,0.0159853585064411,0.0142369931563735
1769180270764,-0.128875732421875,-0.159820556640625,-0.9762115478515624,0.0041060615330934,0.019622704014182,0.0111637050285935
1769180270774,-0.1254425048828125,-0.160614013671875,-0.9753570556640624,0.0025792715605348,0.0161147881299257,0.0139262014999985
1769180270784,-0.12176513671875,-0.161346435546875,-0.982635498046875,0.0062922504730522,0.0098859202116727,0.015060975216329
1769180270794,-0.126190185546875,-0.161102294921875,-0.985626220703125,0.0073623089119791,0.0065918564796447,0.0072491243481636
1769180270804,-0.127105712890625,-0.16363525390625,-0.9879150390625,0.0144319357350468,-0.0013432984706014,0.0021973741240799
1769180270814,-0.1250152587890625,-0.1629486083984375,-0.98944091796875,0.0206842385232448,-0.0081055974587798,-0.0011659319279715
1769180270824,-0.12286376953125,-0.16339111328125,-0.988433837890625,0.0301520433276891,-0.0060895839706063,-0.0011560781858861
1769180270834,-0.1192779541015625,-0.1641082763671875,-0.9874267578125,0.0415330603718757,0.001602690317668,0.0045614624395966
1769180270844,-0.116180419921875,-0.1656494140625,-0.9853668212890624,0.0516919568181037,0.014108894392848,0.0143033051863312
1769180270854,-0.1155242919921875,-0.1644439697265625,-0.9842071533203124,0.0572555661201477,0.0288731940090656,0.023046463727951
1769180270864,-0.11376953125,-0.161773681640625,-0.98260498046875,0.0682419016957283,0.02744254283607,0.0275320261716842
1769180270874,-0.1135711669921875,-0.1605224609375,-0.98406982421875,0.0797856450080871,0.0157051943242549,0.0342352017760276
1769180270884,-0.1165313720703125,-0.1627349853515625,-0.9888153076171876,0.0999210029840469,0.0065428540110588,0.042131207883358
1769180270894,-0.1155242919921875,-0.16436767578125,-0.9894866943359376,0.1155364513397216,-0.0153467319905757,0.049273807555437
1769180270904,-0.11474609375,-0.1645660400390625,-0.981201171875,0.1260876208543777,-0.0364956930279731,0.0644263923168182
1769180270914,-0.1160125732421875,-0.161376953125,-0.971588134765625,0.1166248843073844,-0.0254667438566684,0.0639440938830375
1769180270924,-0.1380462646484375,-0.1614837646484375,-0.960906982421875,0.0973949953913688,-0.0226152967661619,0.0455853268504142
1769180270935,-0.1470489501953125,-0.165008544921875,-0.9444122314453124,0.060004748404026,-0.0217758696526289,0.0173198673874139
1769180270945,-0.1497955322265625,-0.16436767578125,-0.93194580078125,0.0041992724873125,-0.0113772908225655,-0.0086318375542759
1769180270956,-0.1509552001953125,-0.1598968505859375,-0.93231201171875,-0.0443964935839176,0.0023494407068938,-0.031681764870882
1769180270965,-0.14398193359375,-0.16314697265625,-0.945404052734375,-0.0757472217082977,0.0094219977036118,-0.0466924048960208
1769180270975,-0.1301116943359375,-0.1690673828125,-0.9602203369140624,-0.092775210738182,0.0161504745483398,-0.0521731898188591
1769180270985,-0.112640380859375,-0.1706085205078125,-0.9749908447265624,-0.0972882062196731,0.0088190576061606,-0.0409588851034641
1769180270995,-0.095977783203125,-0.169921875,-0.989166259765625,-0.0829798355698585,-0.0130281839519739,-0.0138905150815844
1769180271005,-0.0899505615234375,-0.1707611083984375,-0.998565673828125,-0.0616175569593906,-0.0321904271841049,0.0028186896815896
1769180271015,-0.0998992919921875,-0.165802001953125,-0.998809814453125,-0.044522725045681,-0.0312836207449436,0.0194658432155847
1769180271025,-0.1085205078125,-0.1647796630859375,-0.99578857421875,-0.0254105515778064,-0.0195840876549482,0.0295965075492858
1769180271035,-0.1208648681640625,-0.160125732421875,-0.990142822265625,-0.0133064845576882,-0.0173060204833745,0.0349494628608226
1769180271045,-0.1316680908203125,-0.1614837646484375,-0.9845733642578124,-0.0169784501194953,-0.0191489271819591,0.02200623229146
1769180271055,-0.1360931396484375,-0.168243408203125,-0.97552490234375,-0.0363494865596294,-0.0146380644291639,-0.000397077325033
1769180271065,-0.133209228515625,-0.165008544921875,-0.9671783447265624,-0.060868676751852,-0.0131677333265542,-0.0132620092481374
1769180271075,-0.130096435546875,-0.160797119140625,-0.9702911376953124,-0.0685250014066696,-0.0198826286941766,-0.0259383898228406
1769180271085,-0.137298583984375,-0.163604736328125,-0.982635498046875,-0.0705402120947837,-0.0200525373220443,-0.049890860915184
1769180271095,-0.14923095703125,-0.15869140625,-0.989410400390625,-0.0633126571774482,-0.0100813964381814,-0.0652863308787345
1769180271105,-0.153961181640625,-0.1475830078125,-0.989410400390625,-0.032102808356285,0.0054171360097825,-0.0834006145596504
1769180271115,-0.160980224609375,-0.1421966552734375,-0.9907684326171876,-0.0073974626138806,0.0436753071844577,-0.0885666161775589
1769180271125,-0.1597900390625,-0.1464691162109375,-0.98748779296875,0.0022189458832144,0.0387577824294567,-0.1058707758784294
1769180271135,-0.1488494873046875,-0.15985107421875,-0.972747802734375,-0.003196858568117,0.034581147134304,-0.1176728382706642
1769180271146,-0.1242523193359375,-0.1748046875,-0.95867919921875,-0.0213897116482257,0.0380533747375011,-0.1108050793409347
1769180271155,-0.106170654296875,-0.1857452392578125,-0.94610595703125,-0.0447355136275291,0.0212530903518199,-0.088235318660736
1769180271166,-0.097625732421875,-0.190673828125,-0.938201904296875,-0.0731317326426506,0.0124247120693326,-0.0617275461554527
1769180271176,-0.09429931640625,-0.189971923828125,-0.9495697021484376,-0.0822240337729454,0.013506487943232,-0.0318585969507694
1769180271187,-0.0947265625,-0.184234619140625,-0.973907470703125,-0.0716302469372749,-0.0046983486972749,-0.0075154406949877
1769180271196,-0.1037445068359375,-0.1715240478515625,-0.9872283935546876,-0.0538025125861167,-0.0244153272360563,0.0008809737046249
1769180271206,-0.1223602294921875,-0.159332275390625,-0.99725341796875,-0.0371332541108131,-0.0168764516711235,0.0002889529860112
1769180271216,-0.13824462890625,-0.1516265869140625,-1.0045623779296875,-0.0135554894804954,-0.0129022160544991,-0.0141448471695184
1769180271226,-0.1397857666015625,-0.14215087890625,-1.0056915283203125,0.0054972972720861,-0.0212269909679889,-0.026202842593193
1769180271236,-0.14056396484375,-0.1369781494140625,-0.9985809326171876,0.0091442298144102,-0.0103234779089689,-0.0374895855784416
1769180271246,-0.1463623046875,-0.1446533203125,-0.9918365478515624,0.0092467619106173,-0.0050626690499484,-0.0584268234670162
1769180271256,-0.1552886962890625,-0.1541595458984375,-0.9933013916015624,0.0201936848461627,0.0196136478334665,-0.080130785703659
1769180271266,-0.138275146484375,-0.1393280029296875,-0.9880828857421876,0.0124939540401101,0.031056186184287,-0.0797571465373039
1769180271276,-0.1160888671875,-0.140106201171875,-0.9664459228515624,-0.0053431000560522,0.0030056436080485,-0.0752859637141227
1769180271286,-0.110260009765625,-0.1629180908203125,-0.9595794677734376,-0.0280356295406818,-0.0031832763925194,-0.0667715743184089
1769180271296,-0.1025543212890625,-0.1678619384765625,-0.961090087890625,-0.046282809227705,0.0167555436491966,-0.0467544570565223
1769180271306,-0.0893402099609375,-0.161407470703125,-0.9647369384765624,-0.0484253242611885,0.0149709600955247,-0.0176543612033128
1769180271316,-0.089202880859375,-0.1596832275390625,-0.9748992919921876,-0.0357241742312908,0.0173251945525407,0.0065039717592298
1769180271326,-0.100616455078125,-0.166107177734375,-0.983123779296875,-0.0257671494036912,0.0055337822996079,0.0131488246843218
1769180271337,-0.1074676513671875,-0.164520263671875,-0.9837188720703124,-0.0234086532145738,-0.0206022132188081,0.0051169977523386
1769180271346,-0.11968994140625,-0.156524658203125,-0.97442626953125,-0.0443560145795345,-0.0149187622591853,-0.017534252256155
1769180271357,-0.134796142578125,-0.1559600830078125,-0.96527099609375,-0.0615030415356159,-0.0141091607511043,-0.0399916246533393
1769180271367,-0.1413116455078125,-0.1607513427734375,-0.9626007080078124,-0.0673039406538009,-0.0271631777286529,-0.0495507754385471
1769180271377,-0.13818359375,-0.158447265625,-0.967742919921875,-0.0735019147396087,-0.0362163260579109,-0.0500312075018882
1769180271386,-0.1310577392578125,-0.1547698974609375,-0.9757843017578124,-0.0719090774655342,-0.0589490719139575,-0.0536123625934124
1769180271397,-0.1315460205078125,-0.1529083251953125,-0.9821014404296876,-0.0586422756314277,-0.090376503765583,-0.0602532215416431
1769180271407,-0.1252288818359375,-0.152008056640625,-0.987152099609375,-0.0333435758948326,-0.0871775150299072,-0.0507611818611621
1769180271417,-0.1190032958984375,-0.1566009521484375,-0.9915924072265624,-0.0050272489897906,-0.0723040252923965,-0.0274819582700729
1769180271427,-0.1139068603515625,-0.1616973876953125,-0.988677978515625,0.015043132007122,-0.0601861104369163,-0.0054805190302431
1769180271437,-0.1141204833984375,-0.1633453369140625,-0.980377197265625,0.0208464264869689,-0.0488612838089466,0.0103535717353224
1769180271447,-0.1163177490234375,-0.1621246337890625,-0.9764862060546876,0.0161163862794637,-0.0317755080759525,0.0197420138865709
1769180271457,-0.1261749267578125,-0.1592559814453125,-0.98089599609375,0.0099817942827939,-0.0241250433027744,0.0178117547184228
1769180271467,-0.1351318359375,-0.1555938720703125,-0.985595703125,0.0083215795457363,-0.0177742037922143,0.0033595776185393
1769180271477,-0.1407318115234375,-0.150238037109375,-0.9889678955078124,0.0128239197656512,-0.0181063003838062,-0.0106486491858959
1769180271487,-0.13983154296875,-0.1472930908203125,-0.993682861328125,0.0246507506817579,-0.0262132287025451,-0.0245825741440057
1769180271497,-0.1376953125,-0.14892578125,-0.9994964599609376,0.0449653454124927,-0.0339459814131259,-0.0270694345235824
1769180271508,-0.13006591796875,-0.15185546875,-1.002471923828125,0.0672541409730911,-0.0523987598717212,-0.022268820554018
1769180271517,-0.1215667724609375,-0.1517486572265625,-0.9964141845703124,0.0897266864776611,-0.0545889437198638,-0.0063127567991614
1769180271527,-0.1158599853515625,-0.15606689453125,-0.9916534423828124,0.1150866448879242,-0.0408520922064781,0.0241122599691152
1769180271537,-0.1043243408203125,-0.158935546875,-0.99041748046875,0.1439704895019531,-0.0159004032611846,0.0680922344326973
1769180271547,-0.1021881103515625,-0.1597747802734375,-0.98260498046875,0.1654209196567535,-0.0077452715486288,0.1053653061389923
1769180271557,-0.106231689453125,-0.1666107177734375,-0.969024658203125,0.1592711508274078,-0.0048903627321124,0.1194188073277473
1769180271567,-0.1229248046875,-0.1730194091796875,-0.9524383544921876,0.1249216943979263,-0.018466891720891,0.1038744673132896
1769180271577,-0.132965087890625,-0.169921875,-0.94183349609375,0.0837468281388282,-0.0601392351090908,0.0787637904286384
1769180271588,-0.1291046142578125,-0.1640777587890625,-0.940093994140625,0.0382576398551464,-0.0867982804775238,0.0566278584301471
1769180271598,-0.134185791015625,-0.162933349609375,-0.9403533935546876,-0.0129789151251316,-0.0864387527108192,0.0383117012679576
1769180271608,-0.14141845703125,-0.1637725830078125,-0.948333740234375,-0.0497939214110374,-0.0709745734930038,0.0234304908663034
1769180271618,-0.1490478515625,-0.1604766845703125,-0.956024169921875,-0.0747544020414352,-0.0562600754201412,0.00963931158185
1769180271628,-0.153350830078125,-0.1539306640625,-0.9570465087890624,-0.0816008523106575,-0.0322687253355979,-0.0021142836194485
1769180271638,-0.148101806640625,-0.154083251953125,-0.96246337890625,-0.0804871171712875,-0.0121187148615717,-0.0080390181392431
1769180271648,-0.14495849609375,-0.1597747802734375,-0.966217041015625,-0.0763906463980674,-0.0006823018775321,-0.0116305574774742
1769180271658,-0.1423187255859375,-0.16094970703125,-0.97119140625,-0.0762412399053573,0.0066429888829588,-0.0108079062774777
1769180271668,-0.132415771484375,-0.1640167236328125,-0.979400634765625,-0.0699668303132057,0.008592689409852,-0.0073063825257122
1769180271678,-0.12420654296875,-0.1676788330078125,-0.99072265625,-0.0605911761522293,-0.0046815709210932,-0.0034455978311598
1769180271688,-0.1234893798828125,-0.1681060791015625,-0.9951934814453124,-0.0441216528415679,-0.016006663441658,-0.0005211806274019
1769180271698,-0.1276397705078125,-0.1631622314453125,-0.9983062744140624,-0.0205220524221658,-0.0179094914346933,0.0076848175376653
1769180271708,-0.1325531005859375,-0.1617889404296875,-0.99969482421875,-0.0014351775171235,-0.0304047781974077,0.0108862034976482
1769180271718,-0.1374359130859375,-0.1599578857421875,-0.9954681396484376,0.016219450160861,-0.0463818795979023,0.0144100980833172
1769180271728,-0.144195556640625,-0.1597900390625,-0.9794158935546876,0.0113839479163289,-0.0271546561270952,0.0141056990250945
1769180271738,-0.1485595703125,-0.1581573486328125,-0.9731903076171876,0.0062166168354451,0.0047952877357602,0.0178711414337158
1769180271748,-0.1519317626953125,-0.161590576171875,-0.9774322509765624,0.0171270556747913,0.0016556872287765,0.0147424610331654
1769180271758,-0.155029296875,-0.1638946533203125,-0.980682373046875,0.0311440713703632,-0.0100752711296081,0.0041771680116653
1769180271768,-0.1534881591796875,-0.1613311767578125,-0.97723388671875,0.0356053970754146,-0.0081649851053953,-0.0043577305041253
1769180271778,-0.153106689453125,-0.1619110107421875,-0.9636077880859376,0.0190703645348548,0.01008858717978,-0.0169001538306474
1769180271789,-0.1517333984375,-0.1664276123046875,-0.958709716796875,0.0046860980801284,0.0135291246697306,-0.0274867508560419
1769180271798,-0.1412506103515625,-0.169830322265625,-0.972320556640625,0.0169145353138446,-0.0051127364858984,-0.0303408615291118
1769180271809,-0.131927490234375,-0.1659088134765625,-0.9809112548828124,0.025725070387125,-0.0127725200727581,-0.0228864066302776
1769180271818,-0.1295623779296875,-0.162567138671875,-0.979034423828125,0.0233410093933343,-0.022858178243041,-0.0119956759735941
1769180271829,-0.1339263916015625,-0.16485595703125,-0.9752349853515624,0.0154332844540476,-0.0235764328390359,-0.0095967007800936
1769180271839,-0.13433837890625,-0.1685333251953125,-0.97845458984375,0.0222211498767137,-0.0311776269227266,-0.0028565065003931
1769180271849,-0.1241912841796875,-0.1639404296875,-0.9842681884765624,0.0342115014791488,-0.0467430055141449,0.024387365207076
1769180271859,-0.1146392822265625,-0.1600189208984375,-0.98382568359375,0.0413197427988052,-0.0668772980570793,0.0405016206204891
1769180271869,-0.13494873046875,-0.1607513427734375,-0.976043701171875,0.0433578602969646,-0.0639736577868461,0.0355785004794597
1769180271879,-0.1466522216796875,-0.1602935791015625,-0.972442626953125,0.032491099089384,-0.0531590916216373,0.0226579084992408
1769180271889,-0.1502227783203125,-0.162628173828125,-0.9620513916015624,0.014781342819333,-0.0434915497899055,0.010660633444786
1769180271899,-0.1475982666015625,-0.1543121337890625,-0.96258544921875,0.0005259743193164,-0.0383708253502845,0.0073540532030165
1769180271909,-0.144805908203125,-0.1578216552734375,-0.966278076171875,-0.0070232884027063,-0.0413354560732841,0.008780175819993
1769180271924,-0.1392669677734375,-0.170166015625,-0.964752197265625,-0.0129671972244977,-0.0406315810978412,0.0156029276549816
1769180271929,-0.1327056884765625,-0.169219970703125,-0.9580841064453124,-0.0280193835496902,-0.0256979055702686,0.0202679876238107
1769180271939,-0.1384429931640625,-0.1633148193359375,-0.9492645263671876,-0.0464841462671756,-0.0098164118826389,0.0244563408195972
1769180271949,-0.1487579345703125,-0.1607666015625,-0.9445343017578124,-0.0729383900761604,-0.0051891691982746,0.0152620431035757
1769180271959,-0.1634521484375,-0.159027099609375,-0.9448089599609376,-0.1010943949222564,-0.0089178616181015,-0.0140734743326902
1769180271969,-0.1741485595703125,-0.153289794921875,-0.9508819580078124,-0.1331135779619217,-0.0080270338803529,-0.0462575107812881
1769180271979,-0.1757965087890625,-0.144500732421875,-0.962493896484375,-0.1602730304002761,0.0098249334841966,-0.0714688599109649
1769180271989,-0.17059326171875,-0.138671875,-0.9732818603515624,-0.1653849631547927,0.02655890583992,-0.0825057923793792
1769180271999,-0.1519317626953125,-0.1409912109375,-1.0033721923828125,-0.120309367775917,0.0356445461511611,-0.0715271830558776
1769180272010,-0.12213134765625,-0.147674560546875,-1.0329437255859375,-0.0469922758638858,-0.0012506204657256,-0.0430185720324516
1769180272020,-0.0954437255859375,-0.15667724609375,-1.034271240234375,0.0243253130465745,-0.0126305744051933,-2.9294772048160667e-06
1769180272030,-0.093963623046875,-0.1526336669921875,-1.0196075439453125,0.0568558238446712,0.0092765893787145,0.038519162684679
1769180272040,-0.1107940673828125,-0.1601715087890625,-1.005889892578125,0.0858163684606552,0.0457978472113609,0.058111771941185
1769180272050,-0.126556396484375,-0.1632080078125,-0.9961700439453124,0.1086162254214286,0.0644330531358718,0.0696794763207435
1769180272060,-0.144561767578125,-0.1593170166015625,-0.9829254150390624,0.1112570166587829,0.0731594339013099,0.0659206956624984
1769180272070,-0.159027099609375,-0.15740966796875,-0.9700775146484376,0.0902273654937744,0.0722334533929824,0.0430276282131671
1769180272080,-0.1752166748046875,-0.15863037109375,-0.96112060546875,0.061389323323965,0.0580491870641708,0.009811352007091
1769180272090,-0.178619384765625,-0.15350341796875,-0.957000732421875,0.0333797931671142,0.0410470366477966,-0.0200149863958358
1769180272100,-0.1678466796875,-0.152374267578125,-0.963623046875,0.0274231024086475,0.0246486216783523,-0.0313102528452873
1769180272110,-0.15350341796875,-0.1573486328125,-0.97607421875,0.0418116301298141,-0.0034828819334506,-0.0272143110632896
1769180272120,-0.1379241943359375,-0.165985107421875,-0.975006103515625,0.0590289644896984,-0.0182455834001302,-0.0047252466902136
1769180272130,-0.1280975341796875,-0.1677093505859375,-0.9640045166015624,0.0609570927917957,-0.0050344397313892,0.0154023924842476
1769180272140,-0.1334991455078125,-0.1685943603515625,-0.9530029296875,0.0411527641117572,0.0087583381682634,0.0298380572348833
1769180272150,-0.1372222900390625,-0.1712493896484375,-0.939300537109375,0.0087932255119085,0.0107623664662241,0.0341470502316951
1769180272160,-0.1404876708984375,-0.1677093505859375,-0.938140869140625,-0.023510918021202,0.0126513466238975,0.0266302786767482
1769180272170,-0.149322509765625,-0.1631927490234375,-0.9476776123046876,-0.0492045655846595,0.0120286997407674,0.0073636402375996
1769180272180,-0.1532440185546875,-0.16241455078125,-0.9661865234375,-0.0534978471696376,-0.0104696853086352,-0.0143760098144412
1769180272190,-0.143463134765625,-0.161346435546875,-0.9760284423828124,-0.0558933578431606,-0.0215495005249977,-0.0212443023920059
1769180272200,-0.133575439453125,-0.156341552734375,-0.97540283203125,-0.0691180825233459,-0.0068176924251019,-0.0077463365159928
1769180272210,-0.1231842041015625,-0.1498565673828125,-0.98895263671875,-0.0595408231019973,-0.0010396981379017,0.0109772840514779
1769180272222,-0.114501953125,-0.14801025390625,-1.00689697265625,-0.0175630152225494,-0.0047803740017116,0.0351848863065242
1769180272231,-0.11566162109375,-0.1469573974609375,-1.0095977783203125,0.0286058112978935,0.0038759645540267,0.0559982880949974
1769180272241,-0.1194000244140625,-0.148101806640625,-0.9949798583984376,0.0510485358536243,0.0219324622303247,0.0679769217967987
1769180272251,-0.1216278076171875,-0.1519317626953125,-0.9837188720703124,0.0617155618965625,0.0310327503830194,0.0800759270787239
1769180272261,-0.124237060546875,-0.1601409912109375,-0.9798736572265624,0.0682301893830299,0.0254097525030374,0.0842616185545921
1769180272271,-0.1300506591796875,-0.1695556640625,-0.9700927734375,0.0543532520532608,0.0186586398631334,0.0825105905532836
1769180272281,-0.1360626220703125,-0.1707611083984375,-0.952972412109375,0.0161555334925651,0.0224488507956266,0.0772284716367721
1769180272291,-0.1463165283203125,-0.171295166015625,-0.9425811767578124,-0.0249777883291244,0.0268225595355033,0.0659760907292366
1769180272301,-0.153045654296875,-0.1717681884765625,-0.9403228759765624,-0.0667686462402343,0.0271562542766332,0.0571778006851673
1769180272311,-0.1526947021484375,-0.1683197021484375,-0.946197509765625,-0.104189783334732,0.0343033783137798,0.0535668209195137
1769180272323,-0.15399169921875,-0.15716552734375,-0.961151123046875,-0.117550328373909,0.0323595367372036,0.054527424275875
1769180272331,-0.1583709716796875,-0.153045654296875,-0.9824371337890624,-0.1108985543251037,0.0197798293083906,0.0476932190358638
1769180272341,-0.160186767578125,-0.146209716796875,-1.0028839111328125,-0.0798476934432983,0.0046994141303002,0.042333073914051
1769180272351,-0.1564483642578125,-0.1394805908203125,-1.02203369140625,-0.0251713991165161,-0.0049643986858427,0.0360834375023841
1769180272361,-0.1564788818359375,-0.1358642578125,-1.0281829833984375,0.0403010845184326,6.711165769957006e-05,0.0339108295738697
1769180272371,-0.1553192138671875,-0.142822265625,-1.02093505859375,0.0931603014469146,0.0163265094161033,0.0265951249748468
1769180272381,-0.1544647216796875,-0.1521453857421875,-1.001312255859375,0.1105640605092048,0.0327624753117561,0.0199057981371879
1769180272391,-0.152679443359375,-0.156524658203125,-0.9746246337890624,0.0971558466553688,0.0472101233899593,0.0082685826346278
1769180272401,-0.15008544921875,-0.163299560546875,-0.956573486328125,0.0650778040289878,0.0540451258420944,-0.0026567694731056
1769180272411,-0.14739990234375,-0.161834716796875,-0.9513702392578124,0.0330753959715366,0.0516421534121036,-0.0091703291982412
1769180272421,-0.1425018310546875,-0.1576995849609375,-0.959686279296875,0.0194317549467086,0.0367154031991958,-0.0102153532207012
1769180272431,-0.1349334716796875,-0.153167724609375,-0.9729766845703124,0.0189553145319223,0.0084339650347828,-0.0097956387326121
1769180272441,-0.1323089599609375,-0.148101806640625,-0.98211669921875,0.0262502469122409,-0.0231428705155849,-0.0154271591454744
1769180272452,-0.131622314453125,-0.150238037109375,-0.9857330322265624,0.0364855714142322,-0.0386137068271636,-0.0219766721129417
1769180272462,-0.13250732421875,-0.1538543701171875,-0.982147216796875,0.0406227931380271,-0.0304942596703767,-0.0217777341604232
1769180272472,-0.1307220458984375,-0.156890869140625,-0.9753570556640624,0.037375334650278,-0.0221841316670179,-0.0157802943140268
1769180272482,-0.12774658203125,-0.1601715087890625,-0.973175048828125,0.0368978306651115,-0.0071399346925318,-0.0037417414132505
1769180272492,-0.1224212646484375,-0.1639556884765625,-0.9752960205078124,0.0504362769424915,-0.0059428438544273,0.0134183373302221
1769180272502,-0.1212921142578125,-0.1685791015625,-0.97259521484375,0.0517750456929206,-0.0018282600212842,0.0297251380980014
1769180272512,-0.120330810546875,-0.1711883544921875,-0.966156005859375,0.0427621118724346,0.0161882899701595,0.0473344922065734
1769180272522,-0.1222991943359375,-0.17474365234375,-0.9657745361328124,0.0329627431929111,0.0168090742081403,0.0593940839171409
1769180272532,-0.126800537109375,-0.1751861572265625,-0.9621734619140624,0.02329733222723,-0.0005060005933046,0.062266569584608
1769180272542,-0.1309814453125,-0.1707763671875,-0.956573486328125,0.0034804851748049,-0.0117946080863475,0.0623957328498363
1769180272552,-0.13128662109375,-0.164794921875,-0.95550537109375,-0.0139943789690732,-0.0019036275334656,0.0705109164118766
1769180272562,-0.1294097900390625,-0.1625823974609375,-0.96856689453125,-0.0096603501588106,-0.0122295022010803,0.0772971883416175
1769180272572,-0.1305694580078125,-0.1609344482421875,-0.97943115234375,0.0119727728888392,-0.0348639748990535,0.0847199484705925
1769180272582,-0.13787841796875,-0.1623687744140625,-0.9771881103515624,0.0199750401079654,-0.0367007553577423,0.0839071497321128
1769180272592,-0.1477203369140625,-0.1682586669921875,-0.9602508544921876,0.0011803129455074,-0.0321233160793781,0.0718800500035286
1769180272602,-0.1540679931640625,-0.17132568359375,-0.95220947265625,-0.0328919030725955,-0.0185790099203586,0.0616599023342132
1769180272612,-0.15216064453125,-0.170501708984375,-0.9529266357421876,-0.0554621927440166,0.0218182131648063,0.0593157857656478
1769180272622,-0.1532745361328125,-0.1705322265625,-0.9624176025390624,-0.0570989735424518,0.0339917875826358,0.0618503168225288
1769180272632,-0.1552276611328125,-0.1696929931640625,-0.966033935546875,-0.0525681376457214,0.0095516936853528,0.0557175911962986
1769180272643,-0.1557464599609375,-0.165252685546875,-0.9647064208984376,-0.0653936564922332,0.0195353515446186,0.0422851406037807
1769180272655,-0.1581878662109375,-0.1651611328125,-0.9678955078125,-0.0825012698769569,0.0399703197181224,0.0295355208218097
1769180272663,-0.1533050537109375,-0.1645355224609375,-0.97833251953125,-0.0816679671406745,0.0259634237736463,0.0182016398757696
1769180272673,-0.1446075439453125,-0.1601715087890625,-0.9920806884765624,-0.0652796700596809,0.0191965978592634,0.0209015533328056
1769180272683,-0.145111083984375,-0.1553192138671875,-0.990936279296875,-0.0420494489371776,0.0031523837242275,0.022726884111762
1769180272693,-0.1605377197265625,-0.158599853515625,-0.9926300048828124,-0.0124582676216959,-0.0015488944482058,0.0065958509221673
1769180272703,-0.1671295166015625,-0.1618194580078125,-0.98773193359375,-0.0140465768054127,0.0184642281383276,-0.0037289580795913
1769180272713,-0.1637420654296875,-0.1588897705078125,-0.9789886474609376,-0.0282172560691833,0.0273168422281742,-0.0168815124779939
1769180272723,-0.1603851318359375,-0.15234375,-0.9778289794921876,-0.0385292842984199,0.0364296473562717,-0.0263676922768354
1769180272733,-0.1588592529296875,-0.1572265625,-0.9900970458984376,-0.0245138648897409,0.0148010505363345,-0.0372901149094104
1769180272743,-0.1399993896484375,-0.1629180908203125,-1.00238037109375,0.0001107874995796,0.0084653897210955,-0.0335550308227539
1769180272753,-0.124755859375,-0.1590728759765625,-1.0032196044921875,0.0324125327169895,0.0219819974154233,-0.0146833388134837
1769180272763,-0.116943359375,-0.1614837646484375,-1.0019378662109375,0.0709519386291503,0.0367572158575058,0.0096683399751782
1769180272773,-0.119293212890625,-0.1636505126953125,-0.99505615234375,0.1002262011170387,0.034869834780693,0.0313456729054451
1769180272783,-0.129425048828125,-0.160308837890625,-0.98077392578125,0.1030704602599144,0.0328351780772209,0.040468331426382
1769180272793,-0.1490325927734375,-0.1515350341796875,-0.9621734619140624,0.0788503438234329,0.047317449003458,0.031730230897665
1769180272804,-0.1712188720703125,-0.151123046875,-0.947509765625,0.0362762473523616,0.0695487186312675,0.0034780884161591
1769180272813,-0.178436279296875,-0.1531982421875,-0.9417572021484376,-0.0070360717363655,0.0675497502088546,-0.0264366678893566
1769180272823,-0.1648712158203125,-0.15142822265625,-0.9482879638671876,-0.0311177056282758,0.053650178015232,-0.0444039516150951
1769180272833,-0.14044189453125,-0.1557464599609375,-0.9634552001953124,-0.0344546474516391,0.0267360061407089,-0.0455120913684368
1769180272843,-0.11962890625,-0.1639862060546875,-0.970733642578125,-0.0264254827052354,0.0102861933410167,-0.0292870476841926
1769180272855,-0.1054534912109375,-0.176788330078125,-0.9682159423828124,-0.0291914418339729,0.0129983564838767,-0.0047289752401411
1769180272863,-0.099090576171875,-0.1805419921875,-0.96966552734375,-0.0254643466323614,0.0176839213818311,0.0231881439685821
1769180272873,-0.101776123046875,-0.1802215576171875,-0.973876953125,-0.0208970252424478,0.02535249479115,0.0481965579092502
1769180272883,-0.11163330078125,-0.1772613525390625,-0.981781005859375,-0.0086954869329929,0.0381836034357547,0.0663673058152198
1769180272894,-0.123291015625,-0.1688690185546875,-0.99468994140625,0.0121464114636182,0.0461949259042739,0.0787717774510383
1769180272904,-0.1364593505859375,-0.163482666015625,-0.99981689453125,0.0416891239583492,0.0408779233694076,0.0797502249479293
1769180272914,-0.145416259765625,-0.160552978515625,-0.9940032958984376,0.0596747808158397,0.0340067036449909,0.0696805417537689
1769180272924,-0.1558685302734375,-0.1623992919921875,-0.980621337890625,0.0599863715469837,0.0420363992452621,0.0582214929163455
1769180272934,-0.161865234375,-0.1671905517578125,-0.9684600830078124,0.0430795587599277,0.0542959943413734,0.0429021939635276
1769180272944,-0.162384033203125,-0.17340087890625,-0.96356201171875,0.0254981685429811,0.0655955225229263,0.0251285228878259
1769180272957,-0.1634521484375,-0.17486572265625,-0.9683837890625,0.0187760852277278,0.0647419765591621,0.0107501158490777
1769180272964,-0.1568603515625,-0.174407958984375,-0.9722442626953124,0.0173678044229745,0.0496312007308006,0.0050930292345583
1769180272974,-0.1450958251953125,-0.17291259765625,-0.9778900146484376,0.0336855240166187,0.0289783887565135,0.0093863112851977
1769180272984,-0.1378631591796875,-0.1714324951171875,-0.982421875,0.0512810312211513,0.0164226498454809,0.0116742327809333
1769180272994,-0.1409912109375,-0.1719970703125,-0.9768524169921876,0.0516112633049488,0.0183859318494796,0.0110233565792441
1769180273004,-0.146575927734375,-0.1713714599609375,-0.9607696533203124,0.0304516497999429,0.0307025182992219,0.0054837148636579
1769180273014,-0.1532135009765625,-0.1681365966796875,-0.952728271484375,0.0033824809361249,0.0330018922686576,-0.0029702235478907
1769180273024,-0.155914306640625,-0.16455078125,-0.9566192626953124,-0.014174940995872,0.026104038581252,-0.0189103074371814
1769180273035,-0.1475830078125,-0.1634368896484375,-0.9684295654296876,-0.020298346877098,0.024444356560707,-0.0260233450680971
1769180273044,-0.1404571533203125,-0.1640167236328125,-0.9778289794921876,-0.0208648014813661,0.0349265597760677,-0.0318719111382961
1769180273055,-0.130096435546875,-0.16888427734375,-0.983306884765625,-0.0188248194754123,0.0531321950256824,-0.0306857414543628
1769180273064,-0.1181640625,-0.17498779296875,-0.9906158447265624,-0.0101937819272279,0.0672951489686966,-0.0259841959923505
1769180273074,-0.1091461181640625,-0.1773223876953125,-0.9960784912109376,0.0128590734675526,0.0704584568738937,-0.0128758512437343
1769180273084,-0.104522705078125,-0.1813201904296875,-0.9935302734375,0.031443677842617,0.0700898692011833,0.0094089480116963
1769180273095,-0.102020263671875,-0.1840057373046875,-0.9894256591796876,0.0456103608012199,0.0674400255084037,0.0307520534843206
1769180273104,-0.1031341552734375,-0.180999755859375,-0.9835052490234376,0.061852715909481,0.0603618770837783,0.0520219206809997
1769180273115,-0.109893798828125,-0.17730712890625,-0.9742431640625,0.0653893947601318,0.0527415089309215,0.0708715096116066
1769180273125,-0.1231536865234375,-0.1744232177734375,-0.9618988037109376,0.058754127472639,0.0526560209691524,0.0797241255640983
1769180273135,-0.1412811279296875,-0.1728057861328125,-0.9567413330078124,0.0409796573221683,0.0464567132294178,0.0684296563267707
1769180273145,-0.159393310546875,-0.1714019775390625,-0.95416259765625,0.024604944512248,0.0395572632551193,0.0392464734613895
1769180273156,-0.1655426025390625,-0.17181396484375,-0.9521636962890624,0.0017869811272248,0.0378416553139686,0.0059242015704512
1769180273165,-0.159759521484375,-0.17352294921875,-0.952178955078125,-0.024794029071927,0.0257754046469926,-0.0195627827197313
1769180273175,-0.1457061767578125,-0.1721038818359375,-0.9627685546875,-0.035426165908575,0.0100859235972166,-0.0355436131358146
1769180273185,-0.134124755859375,-0.1737213134765625,-0.9722137451171876,-0.0297043658792972,0.0111112408339977,-0.0379580333828926
1769180273195,-0.12359619140625,-0.1782073974609375,-0.976898193359375,-0.0170639380812644,0.02368482388556,-0.0271304212510585
1769180273205,-0.11126708984375,-0.1827850341796875,-0.97467041015625,-0.0051609398797154,0.0328535549342632,-0.0071306135505437
1769180273215,-0.0998077392578125,-0.186309814453125,-0.9640045166015624,-0.0099053615704178,0.0283283106982707,0.0168002843856811
1769180273225,-0.0926361083984375,-0.1853790283203125,-0.956329345703125,-0.0272020604461431,0.0336240045726299,0.0407636761665344
1769180273235,-0.0994873046875,-0.182891845703125,-0.9587554931640624,-0.0406715311110019,0.0389348827302455,0.0542509891092777
1769180273245,-0.115325927734375,-0.1810760498046875,-0.9646759033203124,-0.0470719039440155,0.0259224101901054,0.053077332675457
1769180273256,-0.126495361328125,-0.1792144775390625,-0.97283935546875,-0.0448835864663124,0.0132255237549543,0.0424989908933639
1769180273265,-0.1285552978515625,-0.17431640625,-0.9785308837890624,-0.0330764614045619,0.0001600559771759,0.0384648330509662
1769180273275,-0.132843017578125,-0.173675537109375,-0.980224609375,-0.0185414608567953,-0.0020053603220731,0.0281030070036649
1769180273285,-0.13812255859375,-0.1766815185546875,-0.9742431640625,-0.0200394876301288,0.0061849253252148,0.0171243920922279
1769180273295,-0.1385955810546875,-0.1790924072265625,-0.96600341796875,-0.0360615961253643,0.0129727898165583,0.006066414527595
1769180273306,-0.1410675048828125,-0.183563232421875,-0.963775634765625,-0.0584167055785656,0.0127714555710554,-0.0020817930344492
1769180273316,-0.1395721435546875,-0.18353271484375,-0.97235107421875,-0.0676922276616096,0.0070163640193641,-0.0089492863044142
1769180273326,-0.1318511962890625,-0.1812744140625,-0.989990234375,-0.0590643845498561,-0.001849299063906,-0.0049681267701089
1769180273336,-0.1223602294921875,-0.1807098388671875,-0.999664306640625,-0.0447581484913826,-0.0077455374412238,1.7310547264060006e-05
1769180273346,-0.11834716796875,-0.177825927734375,-1.0002288818359375,-0.0347412042319774,0.0006681871018372,0.00529809249565
1769180273356,-0.114990234375,-0.1720733642578125,-1.0036468505859375,-0.0201635919511318,0.0011552792275324,0.010734936222434
1769180273366,-0.1163787841796875,-0.1654052734375,-1.0081634521484375,0.0061180801130831,0.0085372952744364,0.0142282042652368
1769180273376,-0.12188720703125,-0.1623382568359375,-1.00872802734375,0.0279991440474987,0.018606174737215,0.0163914896547794
1769180273386,-0.1312103271484375,-0.16375732421875,-0.9988555908203124,0.0455773398280143,0.01464126072824,0.0095506282523274
1769180273396,-0.1396331787109375,-0.164703369140625,-0.9868621826171876,0.0551607236266136,0.014151238836348,-0.007759918924421
1769180273406,-0.1432647705078125,-0.16619873046875,-0.97381591796875,0.0477645918726921,0.0232070516794919,-0.0237668491899967
1769180273416,-0.146392822265625,-0.169403076171875,-0.96356201171875,0.0332173407077789,0.0285184606909751,-0.039246205240488
1769180273426,-0.1425323486328125,-0.1732025146484375,-0.9613800048828124,0.0214621480554342,0.0224485844373703,-0.0520205907523632
1769180273436,-0.1318359375,-0.1764984130859375,-0.962371826171875,0.007578557357192,0.0073836138471961,-0.0561572797596454
1769180273446,-0.1192626953125,-0.17913818359375,-0.9550628662109376,-0.0203137937933206,4.1545314161339775e-05,-0.0486309193074703
1769180273456,-0.10650634765625,-0.1821441650390625,-0.9536285400390624,-0.0465027876198291,-0.0020799287594854,-0.0300913229584693
1769180273466,-0.093963623046875,-0.183502197265625,-0.960968017578125,-0.0606164745986461,-0.0139216743409633,-0.0129626700654625
1769180273476,-0.0895538330078125,-0.1775665283203125,-0.970245361328125,-0.0650719404220581,-0.0329963006079196,0.0073324814438819
1769180273487,-0.096343994140625,-0.168975830078125,-0.978851318359375,-0.0549141131341457,-0.0390054546296596,0.0152074489742517
1769180273496,-0.1152801513671875,-0.163970947265625,-0.9847259521484376,-0.0346842110157012,-0.0305477883666753,0.0069207567721605
1769180273507,-0.13165283203125,-0.1610870361328125,-0.9879913330078124,-0.0153541890904307,-0.0245013479143381,-0.003997937310487
1769180273516,-0.1383819580078125,-0.1567535400390625,-0.9795684814453124,-0.0091399690136313,-0.024331172928214,-0.0183292068541049
1769180273527,-0.14703369140625,-0.1523284912109375,-0.9670257568359376,-0.0212248619645833,-0.0242584683001041,-0.0329267904162406
1769180273537,-0.1504669189453125,-0.162322998046875,-0.95831298828125,-0.0506996624171733,-0.0228704288601875,-0.0504727624356746
1769180273547,-0.1391754150390625,-0.174835205078125,-0.9582366943359376,-0.0702869445085525,-0.0229828134179115,-0.0549620501697063
1769180273556,-0.116485595703125,-0.177093505859375,-0.9674072265625,-0.0771283432841301,-0.0364916995167732,-0.0378088988363742
1769180273567,-0.1029510498046875,-0.175262451171875,-0.970855712890625,-0.0770937204360961,-0.0578595697879791,-0.0140718771144747
1769180273577,-0.1021575927734375,-0.1703948974609375,-0.9756622314453124,-0.0717370361089706,-0.0656218901276588,0.0102965794503688
1769180273587,-0.1095123291015625,-0.161590576171875,-0.981781005859375,-0.0593464151024818,-0.0722997635602951,0.0051747881807386
1769180273597,-0.1434173583984375,-0.15484619140625,-0.980926513671875,-0.0430894121527671,-0.0486460998654365,-0.0178650170564651
1769180273607,-0.148406982421875,-0.145263671875,-0.9766693115234376,-0.041437454521656,-0.0120755713433027,-0.0385694950819015
1769180273617,-0.1468353271484375,-0.1398468017578125,-0.9664764404296876,-0.0551548637449741,0.0013121394440531,-0.0602731928229332
1769180273627,-0.1359405517578125,-0.138763427734375,-0.9658050537109376,-0.0723932385444641,0.0034373418893665,-0.07725590467453
1769180273637,-0.1150665283203125,-0.14166259765625,-0.9778594970703124,-0.0693852007389068,0.005559348501265,-0.0759307146072387
1769180273647,-0.0939483642578125,-0.1498260498046875,-0.9874267578125,-0.0483262538909912,0.0105639612302184,-0.0546954683959484
1769180273657,-0.080078125,-0.1578216552734375,-0.98577880859375,-0.0286436285823583,0.0090086748823523,-0.0188226904720067
1769180273668,-0.0763702392578125,-0.1598968505859375,-0.9792327880859376,-0.0106403939425945,0.0061162156052887,0.0135275265201926
1769180273677,-0.0838165283203125,-0.1641387939453125,-0.9671783447265624,-0.0066738817840814,-0.0015017564874142,0.0364450924098491
1769180273688,-0.0963897705078125,-0.1661834716796875,-0.9477386474609376,-0.0350791588425636,0.0085854986682534,0.0464700311422348
1769180273697,-0.110504150390625,-0.1626739501953125,-0.93243408203125,-0.0797744542360305,0.0225423276424407,0.0486471652984619
1769180273707,-0.118804931640625,-0.156341552734375,-0.9383697509765624,-0.1081831976771354,0.0268244240432977,0.053178533911705
1769180273717,-0.123077392578125,-0.15142822265625,-0.9567718505859376,-0.1224766448140144,0.0169984251260757,0.044081974774599
1769180273728,-0.135589599609375,-0.145660400390625,-0.9735260009765624,-0.1233237981796264,0.002323341788724,0.0357614606618881
1769180273740,-0.1348724365234375,-0.1327056884765625,-0.9885711669921876,-0.1079626828432083,-0.016515327617526,0.0272681061178445
1769180273748,-0.13909912109375,-0.12664794921875,-0.9922027587890624,-0.080299362540245,-0.0288111418485641,0.0169851090759038
1769180273758,-0.142822265625,-0.128265380859375,-0.9874267578125,-0.0679516196250915,-0.0335763357579708,0.0056682717986404
1769180273768,-0.14306640625,-0.133056640625,-0.970550537109375,-0.0820722356438636,-0.0376317985355854,-0.0045156558044254
1769180273778,-0.1395263671875,-0.139739990234375,-0.9608001708984376,-0.1037317216396331,-0.0477962829172611,-0.0099221393465995
1769180273789,-0.13690185546875,-0.146026611328125,-0.960723876953125,-0.1232388466596603,-0.066054381430149,-0.0194685067981481
1769180273798,-0.136260986328125,-0.1517486572265625,-0.961029052734375,-0.1434120237827301,-0.0594635941088199,-0.0252915080636739
1769180273808,-0.1370086669921875,-0.1542205810546875,-0.9673614501953124,-0.1560886651277542,-0.0402893647551536,-0.0319312997162342
1769180273818,-0.13568115234375,-0.154937744140625,-0.970947265625,-0.1579411625862121,-0.024661935865879,-0.0375564284622669
1769180273828,-0.1278533935546875,-0.154693603515625,-0.974761962890625,-0.1578761786222458,-0.0251735299825668,-0.0392169095575809
1769180273838,-0.1173095703125,-0.1480560302734375,-0.9783935546875,-0.1586042940616607,-0.0223433878272771,-0.0341286770999431
1769180273848,-0.1085205078125,-0.1440582275390625,-0.9875946044921876,-0.1535544097423553,-0.0335869900882244,-0.0178945790976285
1769180273858,-0.0999298095703125,-0.136383056640625,-1.0005950927734375,-0.1274069547653198,-0.0444920994341373,0.0041779670864343
1769180273868,-0.1003875732421875,-0.126220703125,-1.010467529296875,-0.0880632773041725,-0.0545266233384609,0.0288470946252346
1769180273878,-0.1096038818359375,-0.1223602294921875,-1.0092315673828125,-0.0568747334182262,-0.0580774173140525,0.0446122102439403
1769180273889,-0.1300048828125,-0.124755859375,-0.9983978271484376,-0.0445086136460304,-0.0525878444314003,0.0432111211121082
1769180273898,-0.1463775634765625,-0.1306304931640625,-0.9867095947265624,-0.050072755664587,-0.0378389917314052,0.02690458483994
1769180273908,-0.1511688232421875,-0.133209228515625,-0.976837158203125,-0.0678863748908042,-0.0233825538307428,0.0083956150338053
1769180273918,-0.1470947265625,-0.1373443603515625,-0.97747802734375,-0.0878986939787864,-0.0117932762950658,-0.0019454391440376
1769180273929,-0.1377105712890625,-0.138397216796875,-0.9858856201171876,-0.0943174436688423,-0.0100116217508912,-0.0034943337086588
1769180273938,-0.125396728515625,-0.138031005859375,-1.0032501220703125,-0.0787350237369537,-0.0123381586745381,0.0019779296126216
1769180273948,-0.1158905029296875,-0.1353759765625,-1.0191497802734375,-0.0487832501530647,-0.0099077578634023,0.0176583565771579
1769180273959,-0.1049041748046875,-0.13690185546875,-1.0229644775390625,-0.009680856950581,-0.0056288572959601,0.0375082269310951
1769180273969,-0.1069183349609375,-0.1332244873046875,-1.0184783935546875,0.0145104993134737,-0.0043217777274549,0.0553868263959884
1769180273979,-0.1227874755859375,-0.1273956298828125,-1.0057830810546875,0.0278055313974618,0.0080414144322276,0.0643536895513534
1769180273989,-0.133758544921875,-0.126251220703125,-1.002471923828125,0.0380650945007801,0.0146708218380808,0.061402641236782
1769180273999,-0.1440582275390625,-0.1257781982421875,-0.9934234619140624,0.0378887914121151,0.0344522483646869,0.0639084056019783
1769180274009,-0.139617919921875,-0.1238861083984375,-0.9893646240234376,0.0396949499845504,0.0297597590833902,0.0627190396189689
1769180274019,-0.14801025390625,-0.127410888671875,-0.993927001953125,0.058289673179388,0.0246520824730396,0.0447485633194446
1769180274029,-0.1470489501953125,-0.125823974609375,-0.9961700439453124,0.0717908293008804,0.0361694544553756,0.0362594723701477
1769180274039,-0.1417694091796875,-0.1262664794921875,-0.987396240234375,0.0750177875161171,0.0486682020127773,0.0332133471965789
1769180274049,-0.144012451171875,-0.128021240234375,-0.9751739501953124,0.0624929368495941,0.0508911423385143,0.0240936186164617
1769180274059,-0.147216796875,-0.13092041015625,-0.9679718017578124,0.0475262403488159,0.0596047416329383,0.0062696137465536
1769180274069,-0.1453399658203125,-0.1349334716796875,-0.9694366455078124,0.0343087054789066,0.050674095749855,-0.0071348748169839
1769180274079,-0.13543701171875,-0.1353607177734375,-0.9674530029296876,0.0184458531439304,0.0246853716671466,-0.0114526581019163
1769180274089,-0.127166748046875,-0.134918212890625,-0.96685791015625,0.0028972530271857,0.0159043986350297,-0.0112310824915766
1769180274099,-0.1289825439453125,-0.1348876953125,-0.96990966796875,0.0003763046697713,0.0192634426057338,-0.0095594162121415
1769180274109,-0.126922607421875,-0.13836669921875,-0.9723968505859376,0.0088560758158564,0.0235857535153627,0.0001717738923616
1769180274119,-0.1230621337890625,-0.1350860595703125,-0.97393798828125,0.008877114392817,0.0265594385564327,0.0097210705280303
1769180274129,-0.1219940185546875,-0.1308746337890625,-0.9703521728515624,0.0016772588714957,0.0273258965462446,0.0139411156997084
1769180274140,-0.12945556640625,-0.1299591064453125,-0.9645843505859376,-0.0135363154113292,0.0258819311857223,0.0063298013992607
1769180274149,-0.135406494140625,-0.13134765625,-0.96246337890625,-0.0357540026307106,0.034381940960884,-0.0072368737310171
1769180274159,-0.1376495361328125,-0.1319427490234375,-0.9643707275390624,-0.051564123481512,0.041924811899662,-0.019538814201951
1769180274169,-0.1356353759765625,-0.12847900390625,-0.9713897705078124,-0.054945807904005,0.053667489439249,-0.0244691241532564
1769180274180,-0.1239776611328125,-0.1313629150390625,-0.985443115234375,-0.0441935583949089,0.0509180426597595,-0.0139301968738436
1769180274190,-0.1144866943359375,-0.1383209228515625,-0.9944305419921876,-0.0239759068936109,0.0367929004132747,-0.0007664577569812
1769180274200,-0.112457275390625,-0.141326904296875,-0.9921722412109376,-0.0159406177699565,0.0353811606764793,0.0119908824563026
1769180274210,-0.1153106689453125,-0.1459503173828125,-0.9896087646484376,-0.0121642546728253,0.0456926524639129,0.0197505354881286
1769180274223,-0.116607666015625,-0.1485748291015625,-0.984222412109375,-0.0149344746023416,0.0467051863670349,0.0290612131357193
1769180274230,-0.119659423828125,-0.141326904296875,-0.9804840087890624,-0.0254281274974346,0.03592124953866,0.0366554819047451
1769180274240,-0.1267547607421875,-0.13470458984375,-0.9816131591796876,-0.031771246343851,0.0368352457880973,0.0360440202057361
1769180274250,-0.1337127685546875,-0.1310272216796875,-0.99249267578125,-0.0205420274287462,0.0451445765793323,0.0375327281653881
1769180274260,-0.137908935546875,-0.1284332275390625,-1.0064544677734375,6.711165769957006e-05,0.0500495843589305,0.0342178903520107
1769180274270,-0.1351318359375,-0.129669189453125,-1.0104217529296875,0.0251162722706794,0.0431341528892517,0.0260385256260633
1769180274280,-0.1281280517578125,-0.1320953369140625,-1.0100555419921875,0.0395258367061615,0.0369713343679904,0.0242342334240674
1769180274290,-0.128143310546875,-0.1352081298828125,-1.00604248046875,0.0516400262713432,0.0330389104783535,0.0179885886609554
1769180274300,-0.13116455078125,-0.1371917724609375,-1.0005950927734375,0.0599466897547245,0.0353950075805187,0.0123690515756607
1769180274310,-0.129974365234375,-0.1353759765625,-0.991241455078125,0.0545428693294525,0.0437291041016578,0.0118012661114335
1769180274323,-0.1299591064453125,-0.1337890625,-0.987274169921875,0.0562587454915046,0.0442777164280414,0.0122175179421901
1769180274330,-0.1297454833984375,-0.13946533203125,-0.9923553466796876,0.0653169527649879,0.0498224161565303,0.0113285547122359
1769180274340,-0.1246490478515625,-0.1478729248046875,-0.9928741455078124,0.0666309595108032,0.0597717203199863,0.006297044456005
1769180274350,-0.11676025390625,-0.1471099853515625,-0.985137939453125,0.0672381594777107,0.0655771419405937,0.0087825721129775
1769180274361,-0.10699462890625,-0.1410369873046875,-0.981719970703125,0.0735245496034622,0.0686807930469513,0.0235258322209119
1769180274371,-0.107391357421875,-0.13330078125,-0.9847259521484376,0.0893983244895935,0.0740665048360824,0.0372288599610328
1769180274381,-0.1200103759765625,-0.1273345947265625,-0.9916534423828124,0.1076295226812362,0.0976152420043945,0.0358714498579502
1769180274391,-0.1447601318359375,-0.12542724609375,-0.99169921875,0.1324973255395889,0.0701007917523384,0.0126785105094313
1769180274401,-0.152069091796875,-0.124603271484375,-0.9762115478515624,0.1345447599887848,0.0507728978991508,-0.0170681998133659
1769180274411,-0.1549530029296875,-0.123382568359375,-0.956878662109375,0.0994426980614662,0.059893425554037,-0.0434561297297477
1769180274423,-0.152618408203125,-0.1330108642578125,-0.939910888671875,0.0544917359948158,0.0561426319181919,-0.0698563158512115
1769180274431,-0.1397705078125,-0.1449432373046875,-0.930755615234375,0.0096339853480458,0.0477110631763935,-0.0781805589795112
1769180274441,-0.120452880859375,-0.1524200439453125,-0.9299468994140624,-0.0373564250767231,0.0456441827118396,-0.077027142047882
1769180274453,-0.1024017333984375,-0.159759521484375,-0.9367828369140624,-0.0723399743437767,0.0480101369321346,-0.0615326017141342
1769180274461,-0.08563232421875,-0.1630706787109375,-0.9574432373046876,-0.0803643465042114,0.0455965138971805,-0.0341939218342304
1769180274471,-0.0737457275390625,-0.158416748046875,-0.97955322265625,-0.0662442669272422,0.029928870499134,-0.0068496502935886
1769180274481,-0.076141357421875,-0.1497039794921875,-1.000732421875,-0.0297773368656635,0.0132186003029346,0.014160294085741
1769180274491,-0.0891876220703125,-0.143218994140625,-1.0142822265625,0.0106348013505339,0.0089543461799621,0.0226911976933479
1769180274501,-0.110107421875,-0.138885498046875,-1.013641357421875,0.0382587052881717,0.0239221099764108,0.0202203169465065
1769180274511,-0.125762939453125,-0.133941650390625,-1.00390625,0.0526996962726116,0.0329808518290519,0.0101698134094476
1769180274522,-0.1308746337890625,-0.133056640625,-0.9960479736328124,0.0553109273314476,0.0264819413423538,-0.0033382724504917
1769180274531,-0.1318817138671875,-0.1342010498046875,-0.9918975830078124,0.0517079345881938,0.0125466845929622,-0.0135786589235067
1769180274541,-0.1313323974609375,-0.1364898681640625,-0.9914398193359376,0.0503968596458435,0.0119884861633181,-0.0253237318247556
1769180274551,-0.126190185546875,-0.1418609619140625,-0.9893341064453124,0.0466204993426799,0.0201976802200078,-0.0284454897046089
1769180274561,-0.1159210205078125,-0.1460723876953125,-0.981292724609375,0.0395767055451869,0.0127959558740258,-0.0180309321731328
1769180274571,-0.1047210693359375,-0.1475677490234375,-0.974029541015625,0.035891156643629,0.0089109372347593,-0.0067614996805787
1769180274581,-0.103057861328125,-0.14581298828125,-0.97576904296875,0.0396549999713897,0.0098997689783573,0.0011193265672773
1769180274592,-0.1083221435546875,-0.1486358642578125,-0.978546142578125,0.0482668653130531,0.0089772492647171,0.0032344090286642
1769180274601,-0.112945556640625,-0.1519775390625,-0.9758758544921876,0.0494650192558765,0.0068613681942224,0.0056488309055566
1769180274612,-0.119140625,-0.1506805419921875,-0.969757080078125,0.0421546436846256,0.006247776094824,-0.0022607573773711
1769180274622,-0.1227874755859375,-0.1469573974609375,-0.9655609130859376,0.0248720608651638,0.0075351479463279,-0.0151208955794572
1769180274632,-0.1197052001953125,-0.145660400390625,-0.95965576171875,0.003328418591991,0.0119693111628293,-0.0230818837881088
1769180274642,-0.1132965087890625,-0.1433563232421875,-0.9617919921875,-0.0128955589607357,0.0040605217218399,-0.0249357093125581
1769180274652,-0.1074066162109375,-0.143218994140625,-0.9689178466796876,-0.0169424973428249,0.0004700479330495,-0.0225998517125844
1769180274662,-0.1038360595703125,-0.1495513916015625,-0.9726409912109376,-0.017190970480442,0.0131240580230951,-0.0136130144819617
1769180274672,-0.096221923828125,-0.15631103515625,-0.97796630859375,-0.0113621102645993,0.0237263683229684,0.0050653321668505
1769180274682,-0.0855255126953125,-0.1592559814453125,-0.9847564697265624,0.0021774005144834,0.0134481647983193,0.0291618797928094
1769180274692,-0.0831756591796875,-0.1571502685546875,-0.9887237548828124,0.0166492834687232,0.0017614146927371,0.0495912544429302
1769180274702,-0.093505859375,-0.1527557373046875,-0.9925537109375,0.0341662243008613,-0.0001632517669349,0.0610377863049507
1769180274712,-0.1108551025390625,-0.1514129638671875,-0.9928741455078124,0.0576587691903114,-0.0105586349964141,0.0614420548081398
1769180274722,-0.1235198974609375,-0.1483154296875,-0.9900970458984376,0.0675257816910743,-0.0245663300156593,0.0487038902938365
1769180274732,-0.1339569091796875,-0.1443634033203125,-0.973541259765625,0.051721516996622,-0.0151893394067883,0.0288913026452064
1769180274742,-0.141754150390625,-0.14373779296875,-0.9615020751953124,0.0269983280450105,-0.0043247072026133,0.0086877644062042
1769180274752,-0.1416015625,-0.1483612060546875,-0.960968017578125,0.0036943370942026,0.0063353939913213,-0.0068190237507224
1769180274762,-0.1354217529296875,-0.1515655517578125,-0.97149658203125,-0.0056416406296193,0.0111722266301512,-0.0239636562764644
1769180274774,-0.1292266845703125,-0.1518402099609375,-0.9827728271484376,-0.0037742317654192,0.0046903593465685,-0.0302247479557991
1769180274782,-0.1228790283203125,-0.157196044921875,-0.9921875,0.0117235016077756,0.0049936934374272,-0.0326732583343982
1769180274792,-0.113250732421875,-0.15911865234375,-1.0012664794921875,0.033630397170782,0.0041587925516068,-0.0297360569238662
1769180274802,-0.102203369140625,-0.157470703125,-0.9996490478515624,0.0481664650142192,0.0036024579312652,-0.0175403784960508
1769180274813,-0.100860595703125,-0.1542816162109375,-0.992919921875,0.0578276142477989,0.00708081247285,-0.0021441110875457
1769180274823,-0.106109619140625,-0.1570587158203125,-0.9872589111328124,0.0590065941214561,0.0173917729407548,0.0057425741106271
1769180274833,-0.1110382080078125,-0.1572113037109375,-0.9795074462890624,0.0569999031722545,0.0193483978509902,0.0102217448875308
1769180274843,-0.11260986328125,-0.1535797119140625,-0.9693603515625,0.0526416413486003,0.0084896245971322,0.0112372078001499
1769180274853,-0.1166229248046875,-0.15374755859375,-0.964324951171875,0.0436252430081367,-0.002698581200093,0.007800665218383
1769180274863,-0.118927001953125,-0.157470703125,-0.9595489501953124,0.0310463327914476,-0.0061966432258486,0.0052906358614563
1769180274873,-0.11956787109375,-0.1593780517578125,-0.956329345703125,0.0179462432861328,-0.0076659093610942,0.0037465349305421
1769180274883,-0.1190338134765625,-0.1624298095703125,-0.95306396484375,0.0049098036251962,-0.0041627869941294,0.0018029600614681
1769180274893,-0.1165313720703125,-0.164276123046875,-0.9539031982421876,-0.0107418606057763,-0.0024652881547808,0.0011928298044949
1769180274903,-0.1147613525390625,-0.1633453369140625,-0.9563446044921876,-0.0251096133142709,-0.0129437614232301,-0.0015755260828882
1769180274913,-0.118438720703125,-0.1616668701171875,-0.9622650146484376,-0.0326567478477954,-0.0304934605956077,-0.0095833847299218
1769180274923,-0.1220550537109375,-0.1641845703125,-0.9667205810546876,-0.0378147549927234,-0.0395732410252094,-0.0197281651198864
1769180274933,-0.119659423828125,-0.16162109375,-0.96929931640625,-0.0494003072381019,-0.0414510369300842,-0.0239676497876644
1769180274943,-0.118011474609375,-0.1573333740234375,-0.96771240234375,-0.0605096817016601,-0.0395663194358348,-0.0261660907417535
1769180274953,-0.1197662353515625,-0.1569671630859375,-0.972564697265625,-0.0649052336812019,-0.0392781645059585,-0.0317209102213382
1769180274963,-0.1160430908203125,-0.1551055908203125,-0.9789276123046876,-0.0707796290516853,-0.0176232028752565,-0.0357595942914485
1769180274973,-0.118804931640625,-0.154937744140625,-0.9843902587890624,-0.0677976906299591,-0.0011358382180333,-0.0270116440951824
1769180274983,-0.1047210693359375,-0.1515045166015625,-1.0025787353515625,-0.0402645990252494,0.0034455978311598,-0.0080747045576572
1769180274993,-0.10162353515625,-0.1498870849609375,-1.0111846923828125,-0.0083764409646391,0.0033933997619897,0.0011219898005947
1769180275004,-0.103424072265625,-0.150909423828125,-1.009063720703125,0.0133610786870121,0.0136127481237053,0.0054078148677945
1769180275013,-0.100128173828125,-0.154998779296875,-1.004302978515625,0.0243327692151069,0.0210837144404649,0.0126601355150341
1769180275023,-0.0971832275390625,-0.1561279296875,-0.9936981201171876,0.0272529255598783,0.0100792655721306,0.024460868909955
1769180275033,-0.0997314453125,-0.1592254638671875,-0.977630615234375,0.0118004670366644,0.0137126166373491,0.0299464464187622
1769180275044,-0.1036224365234375,-0.163177490234375,-0.9645538330078124,-0.0124327009543776,0.0310942698270082,0.0345425307750701
1769180275054,-0.104644775390625,-0.1614990234375,-0.9720306396484376,-0.0181057676672935,0.0338599607348442,0.0396315641701221
1769180275064,-0.1087188720703125,-0.1545562744140625,-0.9817352294921876,-0.0078259650617837,0.0229242239147424,0.0417104288935661
1769180275076,-0.118133544921875,-0.1541595458984375,-0.98309326171875,0.0058943745680153,0.0247650016099214,0.035634160041809
1769180275084,-0.130096435546875,-0.1580047607421875,-0.9779510498046876,0.0048589375801384,0.0347736924886703,0.0238603260368108
1769180275094,-0.1373748779296875,-0.1609649658203125,-0.971099853515625,-0.0031148332636803,0.0236525982618331,0.010439857840538
1769180275104,-0.1346435546875,-0.1578216552734375,-0.9712371826171876,-0.0001435443846276,0.00721130752936,0.0091506214812397
1769180275114,-0.1283111572265625,-0.160491943359375,-0.980255126953125,0.0072432653978466,0.004096208140254,0.0115240309387445
1769180275124,-0.12591552734375,-0.1681060791015625,-0.9772796630859376,0.0032064458355307,0.0151882739737629,0.0079191755503416
1769180275134,-0.12274169921875,-0.170196533203125,-0.96832275390625,-0.0143911894410848,0.0340639613568782,0.0056980992667376
1769180275144,-0.1202239990234375,-0.165374755859375,-0.968780517578125,-0.0251969657838344,0.042031604796648,0.0006793724023737
1769180275154,-0.125213623046875,-0.160797119140625,-0.9744873046875,-0.0229063816368579,0.0339233465492725,-0.0085506113246083
1769180275164,-0.135528564453125,-0.1551361083984375,-0.97650146484375,-0.0209252554923295,0.0250334478914737,-0.0307030510157346
1769180275174,-0.14666748046875,-0.1464080810546875,-0.9712982177734376,-0.0314287617802619,0.0315051972866058,-0.0504900701344013
1769180275184,-0.1493988037109375,-0.1422271728515625,-0.973175048828125,-0.0430095195770263,0.0449030250310897,-0.0759656056761741
1769180275194,-0.14764404296875,-0.14306640625,-0.9769439697265624,-0.0456487126648426,0.041694451123476,-0.0954093411564827
1769180275204,-0.1355133056640625,-0.1492156982421875,-0.9818878173828124,-0.0442625358700752,0.0346924662590026,-0.101090133190155
1769180275214,-0.1158905029296875,-0.1549072265625,-0.9894256591796876,-0.0314897485077381,0.0207976903766393,-0.0907205790281295
1769180275225,-0.100006103515625,-0.160919189453125,-0.9890899658203124,-0.0203992817550897,0.0137935765087604,-0.0756444260478019
1769180275235,-0.0920867919921875,-0.170562744140625,-0.9871368408203124,-0.0180458463728427,0.018363295122981,-0.0609174109995365
1769180275245,-0.0862884521484375,-0.1744384765625,-0.9884185791015624,-0.010253170505166,0.0194519944489002,-0.0456907898187637
1769180275257,-0.084930419921875,-0.1739654541015625,-0.987091064453125,-0.0022309301421046,0.0169715266674757,-0.0333401151001453
1769180275265,-0.086944580078125,-0.169158935546875,-0.9813232421875,-0.0011638014111667,0.0279352273792028,-0.0166258476674556
1769180275275,-0.0882415771484375,-0.16558837890625,-0.985321044921875,0.0043228431604802,0.0231346134096384,-0.0043928842060267
1769180275285,-0.0906982421875,-0.15838623046875,-0.987152099609375,0.0067247478291392,0.0125693213194608,0.0124683873727917
1769180275295,-0.0999908447265625,-0.146942138671875,-0.990936279296875,0.0090816458687186,0.0127565413713455,0.0205729193985462
1769180275307,-0.112152099609375,-0.144805908203125,-0.9967041015625,0.0150444628670811,0.0151818823069334,0.0201486777514219
1769180275315,-0.12054443359375,-0.1446533203125,-0.9973297119140624,0.0238824300467968,0.0030330740846693,0.0125256450846791
1769180275325,-0.1303253173828125,-0.1429901123046875,-0.993255615234375,0.0353702418506145,-0.000146473859786,-0.0051604071632027
1769180275335,-0.1313323974609375,-0.1434478759765625,-0.990631103515625,0.0407735295593738,-0.0035910063888877,-0.0166250485926866
1769180275345,-0.12628173828125,-0.148468017578125,-0.9775543212890624,0.0388046540319919,-0.0101011032238602,-0.0210019536316394
1769180275356,-0.1214752197265625,-0.153411865234375,-0.9633941650390624,0.0270526558160781,-0.0010620686225593,-0.0255144145339727
1769180275365,-0.1211700439453125,-0.1590118408203125,-0.9551544189453124,0.0073716300539672,0.0130127379670739,-0.0359404236078262
1769180275375,-0.119110107421875,-0.1632080078125,-0.9548797607421876,-0.0163118615746498,0.0108348047360777,-0.0470964051783084
1769180275385,-0.116546630859375,-0.1624755859375,-0.96063232421875,-0.0272880792617797,0.0071969265118241,-0.05021283775568
1769180275395,-0.11456298828125,-0.1622772216796875,-0.9738311767578124,-0.0277751721441745,0.0080416807904839,-0.0484112091362476
1769180275405,-0.11138916015625,-0.1600189208984375,-0.981414794921875,-0.0194381456822156,0.0002447445003781,-0.0453048981726169
1769180275415,-0.107513427734375,-0.1552886962890625,-0.9811248779296876,-0.0184796750545501,-0.00384400668554,-0.0446172691881656
1769180275425,-0.1078643798828125,-0.153045654296875,-0.973236083984375,-0.0252893771976232,-0.0048536108806729,-0.0455666854977607
1769180275435,-0.1104888916015625,-0.1561279296875,-0.9711151123046876,-0.0363609381020069,-0.0046070022508502,-0.0521002188324928
1769180275445,-0.10858154296875,-0.1544952392578125,-0.9735107421875,-0.0435413531959056,-0.0139096900820732,-0.0503366738557815
1769180275455,-0.10321044921875,-0.14898681640625,-0.979278564453125,-0.0400203876197338,-0.0279426854103803,-0.0437331013381481
1769180275465,-0.1062164306640625,-0.1472625732421875,-0.9832611083984376,-0.0276766344904899,-0.0284225866198539,-0.0395111888647079
1769180275476,-0.107421875,-0.1527099609375,-0.989532470703125,-0.0153355468064546,-0.0280526727437973,-0.0325004197657108
1769180275486,-0.1058807373046875,-0.1535491943359375,-0.990386962890625,0.000401604687795,-0.0331193357706069,-0.031072698533535
1769180275496,-0.109710693359375,-0.1536407470703125,-0.98077392578125,-0.0007299724384211,-0.0201830323785543,-0.0336482413113117
1769180275506,-0.1133270263671875,-0.1577911376953125,-0.9747314453125,-0.011782357469201,0.0002463423879817,-0.034343060106039
1769180275516,-0.10809326171875,-0.1571044921875,-0.9761810302734376,-0.0177166797220706,0.0075513930059969,-0.0292891785502433
1769180275526,-0.0999603271484375,-0.1555023193359375,-0.9806976318359376,-0.0141666857525706,0.0049244510009884,-0.0207020826637744
1769180275536,-0.1010894775390625,-0.1559600830078125,-0.9843292236328124,-0.0105125624686479,0.005176652688533,-0.014780543744564
1769180275546,-0.100128173828125,-0.1559295654296875,-0.985260009765625,-0.0033931334037333,0.0010759170399978,-0.0084201162680983
1769180275556,-0.1004180908203125,-0.1522216796875,-0.983642578125,0.0012506204657256,-0.0150945307686924,-0.0038461373187601
1769180275566,-0.10748291015625,-0.1488800048828125,-0.9772491455078124,0.0039353528991341,-0.024713335558772,-0.0042168493382632
1769180275576,-0.1171112060546875,-0.144073486328125,-0.9729156494140624,-0.0013709953054785,-0.0214411094784736,-0.0115991318598389
1769180275586,-0.126068115234375,-0.1439666748046875,-0.971588134765625,-0.0062459115870296,-0.0143805369734764,-0.0210086125880479
1769180275596,-0.1277923583984375,-0.14459228515625,-0.9779205322265624,-0.0030061763245612,-0.0129536157473921,-0.0283360332250595
1769180275607,-0.126617431640625,-0.14849853515625,-0.980010986328125,-0.0025553030427545,-0.0143030388280749,-0.0391239672899246
1769180275616,-0.1218109130859375,-0.1535491943359375,-0.9751129150390624,-0.0150729594752192,-0.0179760716855525,-0.0491100214421749
1769180275626,-0.111785888671875,-0.155609130859375,-0.9759674072265624,-0.0210062153637409,-0.0315006673336029,-0.0529670789837837
1769180275636,-0.1049652099609375,-0.1590728759765625,-0.98272705078125,-0.020885307341814,-0.0471331588923931,-0.0450987666845321
1769180275646,-0.097625732421875,-0.15948486328125,-0.9887237548828124,-0.0165334362536668,-0.0468732342123985,-0.0278534684330225
1769180275657,-0.1005706787109375,-0.1590118408203125,-0.9931488037109376,-0.0031063109636306,-0.0377500429749488,-0.0174671411514282
1769180275666,-0.1103363037109375,-0.158294677734375,-0.9953460693359376,0.0089769829064607,-0.0353409461677074,-0.0184437222778797
1769180275677,-0.1159210205078125,-0.156707763671875,-0.99114990234375,0.0140271354466676,-0.0280185844749212,-0.0217801295220851
1769180275686,-0.120941162109375,-0.1543426513671875,-0.9882049560546876,0.0113179022446274,-0.018010426312685,-0.0235351528972387
1769180275697,-0.12841796875,-0.1531219482421875,-0.990478515625,0.0154679054394364,-0.0162364933639764,-0.0318604595959186
1769180275707,-0.128662109375,-0.1534423828125,-0.991851806640625,0.0291461665183305,-0.0295030307024717,-0.0389663092792034
1769180275717,-0.1243743896484375,-0.152587890625,-0.98492431640625,0.0279828980565071,-0.044781319797039,-0.0498200207948684
1769180275727,-0.1183319091796875,-0.151947021484375,-0.972564697265625,0.0141815990209579,-0.0605280585587024,-0.0532951802015304
1769180275737,-0.1162872314453125,-0.151336669921875,-0.961334228515625,-0.0053612096235156,-0.0682187378406524,-0.0552542023360729
1769180275747,-0.1181793212890625,-0.1516571044921875,-0.9562530517578124,-0.0278313644230365,-0.067276507616043,-0.0565636754035949
1769180275757,-0.1195068359375,-0.1497802734375,-0.958465576171875,-0.0380046404898166,-0.0645030960440635,-0.0476530045270919
1769180275767,-0.1147918701171875,-0.1430206298828125,-0.9682159423828124,-0.039741288870573,-0.0702379420399665,-0.0413287989795208
1769180275777,-0.115570068359375,-0.143280029296875,-0.973297119140625,-0.0406768545508384,-0.0634697824716568,-0.0380515120923519
1769180275787,-0.11383056640625,-0.1493988037109375,-0.9784088134765624,-0.038852322846651,-0.0481185279786586,-0.0353097878396511
1769180275797,-0.10797119140625,-0.152191162109375,-0.979217529296875,-0.0394347570836544,-0.037705834954977,-0.0301786754280328
1769180275807,-0.1032257080078125,-0.1534423828125,-0.981170654296875,-0.0396664515137672,-0.033094834536314,-0.0247873719781637
1769180275817,-0.0992889404296875,-0.1522064208984375,-0.9885711669921876,-0.0301552396267652,-0.0312684401869773,-0.0105043062940239
1769180275827,-0.100616455078125,-0.1519317626953125,-0.9990081787109376,-0.0040996703319251,-0.0283024776726961,-0.0002271676348755
1769180275837,-0.1096954345703125,-0.1537322998046875,-1.0014495849609375,0.0145653607323765,-0.0331323854625225,0.0001286306796828
1769180275847,-0.115264892578125,-0.1511993408203125,-0.989990234375,0.0169257204979658,-0.0232427380979061,-0.0042791673913598
1769180275857,-0.1227569580078125,-0.14495849609375,-0.981842041015625,0.010367153212428,-0.0166423600167036,-0.0113053852692246
1769180275867,-0.13116455078125,-0.154876708984375,-0.9816131591796876,0.0060304617509245,-0.0118337562307715,-0.0206094048917293
1769180275878,-0.130950927734375,-0.1607818603515625,-0.9806060791015624,2.6365294615970924e-05,-0.0076890788041055,-0.0312231667339801
1769180275888,-0.11962890625,-0.1532745361328125,-0.975494384765625,-0.0089223887771368,-0.0086914924904704,-0.0258614253252744
1769180275898,-0.1120452880859375,-0.1464691162109375,-0.973358154296875,-0.0188716910779476,-0.0040256343781948,-0.0160988084971904
1769180275908,-0.1175537109375,-0.14508056640625,-0.982879638671875,-0.0113794207572937,-0.0090957600623369,-0.0137712061405181
1769180275918,-0.12744140625,-0.1429290771484375,-0.994781494140625,0.0101389205083251,-0.0198898185044527,-0.0190812833607196
1769180275928,-0.132843017578125,-0.135955810546875,-0.997528076171875,0.0393247678875923,-0.0193095151335001,-0.0244715213775634
1769180275938,-0.13104248046875,-0.135009765625,-0.99224853515625,0.0599988885223865,-0.0186628997325897,-0.0269125737249851
1769180275948,-0.1286163330078125,-0.1454620361328125,-0.9750823974609376,0.0581647679209709,-0.009394034743309,-0.0342405289411544
1769180275958,-0.122161865234375,-0.154327392578125,-0.9565887451171876,0.0383961237967014,-0.002805906580761,-0.0358836986124515
1769180275968,-0.113067626953125,-0.162139892578125,-0.9428253173828124,0.0050837080925703,-0.0073300846852362,-0.0331853851675987
1769180275978,-0.11016845703125,-0.169952392578125,-0.9289398193359376,-0.0376014374196529,-0.0190969947725534,-0.0286910329014062
1769180275989,-0.1140289306640625,-0.1735992431640625,-0.925323486328125,-0.0858123749494552,-0.021925538778305,-0.0280904900282621
1769180275998,-0.116729736328125,-0.1727447509765625,-0.930938720703125,-0.1290061920881271,-0.0285533480346202,-0.0263599678874015
1769180276008,-0.118438720703125,-0.1646270751953125,-0.94677734375,-0.1485655009746551,-0.0389929376542568,-0.0267621055245399
1769180276018,-0.1208648681640625,-0.1578216552734375,-0.9721527099609376,-0.1411443352699279,-0.0317147858440876,-0.0231561847031116
1769180276028,-0.118072509765625,-0.1464080810546875,-0.9977874755859376,-0.1077115461230278,-0.0210237931460142,-0.0129882367327809
1769180276041,-0.11761474609375,-0.1336669921875,-1.0164642333984375,-0.0626988038420677,-0.0258715450763702,-0.0070792147889733
1769180276048,-0.1214752197265625,-0.1314239501953125,-1.0263824462890625,-0.0214986335486173,-0.0292851850390434,-0.00472551304847
1769180276058,-0.1278076171875,-0.1323394775390625,-1.0250244140625,0.0089833745732903,-0.03212571144104,-0.0102302664890885
1769180276068,-0.13232421875,-0.13409423828125,-1.0175933837890625,0.0367745272815227,-0.0298582967370748,-0.0201870277523994
1769180276078,-0.1408538818359375,-0.1411895751953125,-1.004730224609375,0.0505385398864746,-0.0186999179422855,-0.0323121324181556
1769180276089,-0.141357421875,-0.149139404296875,-0.989349365234375,0.0490317232906818,0.0020548950415104,-0.0368307195603847
1769180276098,-0.12713623046875,-0.1509857177734375,-0.9814453125,0.0439818389713764,0.0161496754735708,-0.0277991406619548
1769180276109,-0.1173553466796875,-0.149810791015625,-0.9767303466796876,0.0418800711631774,0.0239980109035968,-0.0177007000893354
1769180276118,-0.117156982421875,-0.1522369384765625,-0.97552490234375,0.041192177683115,0.0283786449581384,-0.0133365783840417
1769180276129,-0.1197662353515625,-0.1558837890625,-0.9705352783203124,0.0314532630145549,0.0367154031991958,-0.0142902564257383
1769180276141,-0.1215362548828125,-0.1555328369140625,-0.9662017822265624,0.0218871887773275,0.0318343639373779,-0.0141869252547621
1769180276149,-0.1202239990234375,-0.152191162109375,-0.9639129638671876,0.0119440108537673,0.0167619362473487,-0.0163137260824441
1769180276159,-0.1169281005859375,-0.1500244140625,-0.959259033203125,0.000246076087933,0.0005645901546813,-0.0103181516751647
1769180276169,-0.1143646240234375,-0.15008544921875,-0.9556427001953124,-0.0149347409605979,-0.0103074982762336,-0.0087663270533084
1769180276179,-0.115325927734375,-0.15032958984375,-0.9582366943359376,-0.0297792013734579,-0.0240898896008729,-0.0082291681319475
1769180276189,-0.1162872314453125,-0.15057373046875,-0.9645843505859376,-0.0408635437488555,-0.0253399778157472,-0.0041263019666075
1769180276199,-0.1136627197265625,-0.151611328125,-0.9734039306640624,-0.0399748459458351,-0.0179808642715215,0.003924167715013
1769180276209,-0.1163330078125,-0.1520538330078125,-0.9839324951171876,-0.0291980989277362,-0.0182860624045133,0.0112521219998598
1769180276219,-0.11895751953125,-0.1505889892578125,-0.9878082275390624,-0.0200946163386106,-0.0172157380729913,0.0145669588819146
1769180276229,-0.1248779296875,-0.145355224609375,-0.9925079345703124,-0.0079988045617938,-0.0183848664164543,0.0081998733803629
1769180276240,-0.13690185546875,-0.1464080810546875,-0.9923553466796876,0.00453722756356,-0.0186602361500263,-0.0051481565460562
1769180276249,-0.143463134765625,-0.1490020751953125,-0.99041748046875,0.0082044005393981,-0.0107597038149833,-0.0241314359009265
1769180276259,-0.1445159912109375,-0.1510162353515625,-0.9873046875,0.0053116749040782,-0.0044807684607803,-0.0374368540942668
1769180276269,-0.137176513671875,-0.155303955078125,-0.983154296875,0.0053825150243937,-0.0082834959030151,-0.0387346111238002
1769180276279,-0.12384033203125,-0.1600799560546875,-0.98638916015625,0.0162189174443483,-0.0203814376145601,-0.0287283174693584
1769180276292,-0.1152496337890625,-0.161895751953125,-0.9923095703125,0.0358051359653472,-0.0317922830581665,-0.0138819934800267
1769180276299,-0.1130218505859375,-0.1574554443359375,-0.992401123046875,0.0532440468668937,-0.032337699085474,0.0023249397054314
1769180276310,-0.12261962890625,-0.1533050537109375,-0.9844207763671876,0.0648732706904411,-0.0217188782989978,0.0031832763925194
1769180276320,-0.135650634765625,-0.1537933349609375,-0.9765167236328124,0.0624604485929012,-0.0183648932725191,-0.0064067663624882
1769180276330,-0.14141845703125,-0.1527862548828125,-0.9652557373046876,0.0452106222510337,-0.0181947164237499,-0.0198272336274385
1769180276341,-0.1426544189453125,-0.1493072509765625,-0.954376220703125,0.0200165845453739,-0.0143243446946144,-0.0303856022655963
1769180276350,-0.1416778564453125,-0.1531829833984375,-0.950836181640625,-0.0009672601008787,-0.0128106037154793,-0.0380728170275688
1769180276360,-0.13433837890625,-0.1586151123046875,-0.951080322265625,-0.0218528341501951,-0.0114843491464853,-0.03866483643651
1769180276370,-0.1204986572265625,-0.158203125,-0.955718994140625,-0.0307022519409656,-0.0105248121544718,-0.024687236174941
1769180276380,-0.1086578369140625,-0.1583709716796875,-0.9676361083984376,-0.0290782563388347,-0.022677082568407,-0.0042464104481041
1769180276390,-0.1097259521484375,-0.156585693359375,-0.9761505126953124,-0.0200876910239458,-0.0418406575918197,0.0115871476009488
1769180276400,-0.113616943359375,-0.15240478515625,-0.9796295166015624,-0.0149624375626444,-0.0471784323453903,0.0172492936253547
1769180276410,-0.1242523193359375,-0.147491455078125,-0.9768218994140624,-0.0145563054829835,-0.0504924692213535,0.0104888603091239
1769180276420,-0.1348114013671875,-0.1455230712890625,-0.9752197265625,-0.0168942939490079,-0.0479768477380275,-0.0030208237003535
1769180276430,-0.1395263671875,-0.1473236083984375,-0.9744415283203124,-0.020796624943614,-0.0413703434169292,-0.0136167425662279
1769180276440,-0.1363983154296875,-0.14971923828125,-0.97698974609375,-0.0165371652692556,-0.0355300307273864,-0.0154609819874167
1769180276450,-0.128021240234375,-0.1508941650390625,-0.978363037109375,-0.01681599766016,-0.0375425815582275,-0.0104241454973816
1769180276460,-0.1265869140625,-0.1518402099609375,-0.97674560546875,-0.0201798360794782,-0.0373598895967006,-0.0060938452370464
1769180276470,-0.1298065185546875,-0.152923583984375,-0.9788360595703124,-0.0222349986433982,-0.0330093502998352,-0.0083330310881137
1769180276480,-0.136474609375,-0.1527557373046875,-0.98431396484375,-0.0194887463003397,-0.0270747598260641,-0.0125216506421566
1769180276490,-0.1416168212890625,-0.1536407470703125,-0.9846954345703124,-0.0184727497398853,-0.0231346134096384,-0.0202935542911291
1769180276500,-0.142730712890625,-0.1496124267578125,-0.9820556640625,-0.0266262851655483,-0.0195968709886074,-0.0293416436761617
1769180276510,-0.1379241943359375,-0.149566650390625,-0.9827117919921876,-0.0283168591558933,-0.0186945926398038,-0.0354570597410202
1769180276520,-0.12939453125,-0.1502838134765625,-0.99078369140625,-0.015355254523456,-0.0198799651116132,-0.0305480547249317
1769180276530,-0.1203765869140625,-0.1486053466796875,-0.99920654296875,0.0047952877357602,-0.0263485163450241,-0.0158029310405254
1769180276541,-0.1231536865234375,-0.151519775390625,-0.9977874755859376,0.029791984707117,-0.0262347999960184,-0.0045209820382297
1769180276551,-0.1324310302734375,-0.1593780517578125,-0.990631103515625,0.032196819782257,-0.0207702592015266,-0.0079186428338289
1769180276561,-0.14215087890625,-0.1600341796875,-0.976654052734375,0.0140463104471564,-0.0177441090345382,-0.0163139924407005
1769180276571,-0.142578125,-0.1544952392578125,-0.96771240234375,-0.0011723234783858,-0.0138505678623914,-0.0230861436575651
1769180276581,-0.150238037109375,-0.1561126708984375,-0.973175048828125,-0.008878712542355,0.0013060141354799,-0.028831647709012
1769180276591,-0.1521148681640625,-0.160125732421875,-0.9875640869140624,-0.0013366405619308,0.0108457235619425,-0.032708678394556
1769180276601,-0.1391143798828125,-0.155914306640625,-1.00152587890625,0.0260949842631816,0.0051790494471788,-0.034087661653757
1769180276612,-0.1298828125,-0.147064208984375,-1.00567626953125,0.0643443688750267,0.0035057852510362,-0.029470007866621
1769180276621,-0.12896728515625,-0.151275634765625,-1.0029296875,0.0896385386586189,0.002871686592698,-0.0262052379548549
1769180276631,-0.1362152099609375,-0.157318115234375,-0.9882659912109376,0.0958580821752548,-0.0017627463676035,-0.0225210208445787
1769180276641,-0.144561767578125,-0.1541595458984375,-0.9669189453125,0.0807939171791076,0.0053196642547845,-0.023583622649312
1769180276651,-0.1507110595703125,-0.1478271484375,-0.9519195556640624,0.0544810853898525,0.008045676164329,-0.0289685353636741
1769180276661,-0.1567230224609375,-0.148040771484375,-0.9389801025390624,0.0259943157434463,0.0032655680552124,-0.0401599369943141
1769180276671,-0.158447265625,-0.1494293212890625,-0.9323577880859376,-0.0137360524386167,0.0151706971228122,-0.0467645749449729
1769180276681,-0.1483917236328125,-0.154998779296875,-0.93511962890625,-0.0345888696610927,-0.0261732805520296,-0.0550454072654247
1769180276691,-0.12969970703125,-0.1656646728515625,-0.9430084228515624,-0.0508621148765087,-0.0462356731295585,-0.0490972399711608
1769180276701,-0.1207275390625,-0.16815185546875,-0.9391326904296876,-0.0763056874275207,-0.0408174693584442,-0.0403500869870185
1769180276711,-0.1153411865234375,-0.174835205078125,-0.942169189453125,-0.1018890812993049,-0.0208152662962675,-0.0317414179444313
1769180276721,-0.108917236328125,-0.1729736328125,-0.9494476318359376,-0.1226316466927528,-0.0217404495924711,-0.0182106960564851
1769180276731,-0.1077880859375,-0.1643218994140625,-0.9664154052734376,-0.1244702860713005,-0.0263399947434663,-0.0050485543906688
1769180276741,-0.113800048828125,-0.156280517578125,-0.9813232421875,-0.1132946014404296,-0.0200504064559936,0.0050083408132195
1769180276752,-0.12481689453125,-0.15216064453125,-0.9927978515625,-0.0949637964367866,-0.0109005849808454,0.0079191755503416
1769180276762,-0.133331298828125,-0.1436004638671875,-1.0013580322265625,-0.0738390684127807,-0.0041417479515075,0.0065732141956686
1769180276774,-0.1421661376953125,-0.1354217529296875,-1.00897216796875,-0.0467983968555927,-0.0017491641920059,-0.0016783240716904
1769180276782,-0.150909423828125,-0.13446044921875,-1.0117034912109375,-0.0148681616410613,0.0021252024453133,-0.0109874038025736
1769180276792,-0.1514892578125,-0.136322021484375,-1.0102691650390625,0.0120547981932759,-0.0028325382154434,-0.0222049038857221
1769180276802,-0.149688720703125,-0.1393585205078125,-1.001708984375,0.022456306964159,-0.0058586881496012,-0.0306021180003881
1769180276812,-0.146270751953125,-0.143463134765625,-0.9938507080078124,0.0241495445370674,-0.0144559042528271,-0.0337579622864723
1769180276822,-0.1420440673828125,-0.1462249755859375,-0.9883880615234376,0.0261194854974746,-0.0108957905322313,-0.0335739403963089
1769180276832,-0.13812255859375,-0.144439697265625,-0.9840850830078124,0.0280175190418958,-0.0092704640701413,-0.0372999683022499
1769180276842,-0.138214111328125,-0.147186279296875,-0.9826202392578124,0.036548689007759,-0.01240926515311,-0.0404379703104496
1769180276852,-0.1369171142578125,-0.1518096923828125,-0.9770050048828124,0.0373279303312301,-0.0071263527497649,-0.0399231798946857
1769180276862,-0.1275787353515625,-0.1562042236328125,-0.967620849609375,0.0322311744093894,-0.0068682925775647,-0.0310324840247631
1769180276874,-0.128082275390625,-0.1573028564453125,-0.956329345703125,0.0079865539446473,-0.0069977222010493,-0.0301632285118103
1769180276882,-0.1266021728515625,-0.1572265625,-0.945281982421875,-0.0244006812572479,-0.0078938761726021,-0.0258049648255109
1769180276892,-0.123443603515625,-0.1534881591796875,-0.9467010498046876,-0.0552257038652896,-0.0139525672420859,-0.0154085168614983
1769180276902,-0.123870849609375,-0.152679443359375,-0.9521026611328124,-0.0729588940739631,-0.0238741729408502,-0.0061255367472767
1769180276912,-0.123687744140625,-0.1516571044921875,-0.9648284912109376,-0.0740467980504036,-0.0359444171190261,0.0005696501466445
1769180276922,-0.1204376220703125,-0.150665283203125,-0.97174072265625,-0.0731642246246337,-0.0359606631100177,0.0124015416949987
1769180276932,-0.1190948486328125,-0.1503143310546875,-0.970916748046875,-0.0819593146443367,-0.035062912851572,0.0250771231949329
1769180276942,-0.1292572021484375,-0.1461029052734375,-0.973785400390625,-0.091391697525978,-0.0355018004775047,0.02580576390028
1769180276952,-0.13873291015625,-0.14080810546875,-0.9831390380859376,-0.0891328081488609,-0.0207838416099548,0.0211476292461156
1769180276962,-0.14385986328125,-0.144378662109375,-0.9912567138671876,-0.0697029158473014,-0.0036754286848008,0.0194501299411058
1769180276974,-0.1425323486328125,-0.1483917236328125,-1.00018310546875,-0.0481350384652614,-0.0002458097587805,0.0239245072007179
1769180276983,-0.1380615234375,-0.1473388671875,-0.9976806640625,-0.0323108024895191,-0.0017859158106148,0.0275573246181011
1769180276993,-0.136077880859375,-0.146759033203125,-0.9938507080078124,-0.0219084937125444,-0.0030173615086823,0.030599720776081
1769180277003,-0.13720703125,-0.148101806640625,-0.9929962158203124,-0.0164151918143033,0.0022599585354328,0.0334700755774974
1769180277013,-0.1440582275390625,-0.1486053466796875,-0.992950439453125,-0.0105650266632437,0.0149491224437952,0.0294606871902942
1769180277023,-0.1502838134765625,-0.150909423828125,-0.9918060302734376,-0.0033092440571635,0.0234334208071231,0.0203247126191854
1769180277033,-0.1511993408203125,-0.1495513916015625,-0.99700927734375,0.0160809662193059,0.009866745211184,0.0129773179069161
1769180277043,-0.149322509765625,-0.14666748046875,-0.9971923828125,0.0278369579464197,0.0006468818173743,0.0072363414801657
1769180277053,-0.152801513671875,-0.1450042724609375,-0.9909515380859376,0.0321020111441612,0.0046541402116417,-0.0053431000560522
1769180277063,-0.15570068359375,-0.1443023681640625,-0.9838104248046876,0.02931341342628,0.0097996341064572,-0.0207838416099548
1769180277075,-0.1529998779296875,-0.144073486328125,-0.981475830078125,0.0320572704076767,0.0148780159652233,-0.0327803157269954
1769180277083,-0.1432952880859375,-0.1468048095703125,-0.982757568359375,0.0346629060804843,0.0156876165419816,-0.0283320397138595
1769180277093,-0.1337738037109375,-0.149566650390625,-0.98052978515625,0.0367076806724071,0.0095801893621683,-0.0206072740256786
1769180277103,-0.1299591064453125,-0.152618408203125,-0.97833251953125,0.0361952893435955,0.0104371942579746,-0.0128556108102202
1769180277113,-0.133636474609375,-0.160369873046875,-0.9737701416015624,0.033389113843441,0.0107296099886298,-0.0045801042579114
1769180277124,-0.13507080078125,-0.162506103515625,-0.9654541015625,0.0257815290242433,0.0058786617591977,0.0019797938875854
1769180277133,-0.1365509033203125,-0.1619415283203125,-0.958831787109375,0.0108403973281383,-0.004479703027755,0.0059724049642682
1769180277143,-0.13714599609375,-0.1588592529296875,-0.9506378173828124,-0.0194128453731536,0.0005712480633519,0.0060352557338774
1769180277153,-0.1406707763671875,-0.154083251953125,-0.9500274658203124,-0.0455025024712085,0.0167550109326839,0.0020650150254368
1769180277163,-0.1429595947265625,-0.1494140625,-0.96697998046875,-0.0494786016643047,0.0165230501443147,-0.0048890309408307
1769180277174,-0.13897705078125,-0.146148681640625,-0.9869537353515624,-0.0281245782971382,0.00510980701074,-0.0059545617550611
1769180277184,-0.1271820068359375,-0.1417083740234375,-1.00274658203125,0.0056296563707292,-0.0076089175418019,0.0001190433031297
1769180277194,-0.1223907470703125,-0.1429901123046875,-1.0052337646484375,0.0337017700076103,-0.013775466941297,0.0107791442424058
1769180277204,-0.1235198974609375,-0.1467742919921875,-0.99224853515625,0.04139244556427,-0.0111900698393583,0.0218861233443021
1769180277214,-0.1252899169921875,-0.14630126953125,-0.9767913818359376,0.031431958079338,0.0006098638987168,0.0341244153678417
1769180277224,-0.130462646484375,-0.14874267578125,-0.9689178466796876,0.0145400604233145,0.0198733061552047,0.051689825952053
1769180277234,-0.1277313232421875,-0.149871826171875,-0.974395751953125,0.0096177402883768,0.0084182517603039,0.0466932021081447
1769180277244,-0.150665283203125,-0.15325927734375,-0.980499267578125,0.0098126828670501,-0.0023489079903811,0.0274143144488334
1769180277254,-0.1507415771484375,-0.14984130859375,-0.98358154296875,0.0153270242735743,0.0006801713607273,0.0094278566539287
1769180277264,-0.15301513671875,-0.14654541015625,-0.983673095703125,0.0194988660514354,0.002592587377876,-0.0051465588621795
1769180277274,-0.15179443359375,-0.1526947021484375,-0.9799957275390624,0.0186415947973728,0.0032344090286642,-0.0147893326357007
1769180277284,-0.1435394287109375,-0.151092529296875,-0.983184814453125,0.0213409755378961,0.0044120587408542,-0.0132327144965529
1769180277294,-0.138275146484375,-0.149444580078125,-0.9872894287109376,0.0228219591081142,0.0061103566549718,-0.0127988858148455
1769180277304,-0.13720703125,-0.15472412109375,-0.9888763427734376,0.0285261832177639,0.0108196241781115,-0.013066267594695
1769180277314,-0.13336181640625,-0.15814208984375,-0.9901885986328124,0.0356453470885753,0.0162593964487314,-0.0059822588227689
1769180277325,-0.12457275390625,-0.1526641845703125,-0.9915924072265624,0.0523316487669944,0.0096449041739106,0.0071817464195191
1769180277334,-0.1248016357421875,-0.145416259765625,-0.9945831298828124,0.0787384882569313,0.005102883093059,0.0169486235827207
1769180277345,-0.139129638671875,-0.1453857421875,-0.991607666015625,0.0961555615067482,0.0077042584307491,0.0159736406058073
1769180277354,-0.1580657958984375,-0.1451416015625,-0.9817352294921876,0.1001516357064247,0.0245245173573493,0.0041444110684096
1769180277364,-0.1681365966796875,-0.140777587890625,-0.9677886962890624,0.0882257297635078,0.0386339463293552,-0.0199417509138584
1769180277374,-0.1716766357421875,-0.139984130859375,-0.9532623291015624,0.0585139095783233,0.0345792807638645,-0.0484080128371715
1769180277384,-0.1645050048828125,-0.1452178955078125,-0.943695068359375,0.0253354497253894,0.0277695786207914,-0.0712858960032463
1769180277395,-0.1464691162109375,-0.1521453857421875,-0.94183349609375,-0.0057979677803814,0.0151685662567615,-0.0760260596871376
1769180277405,-0.1273651123046875,-0.158721923828125,-0.947021484375,-0.0127323064953088,-0.0037017939612269,-0.0651478469371795
1769180277415,-0.124908447265625,-0.1637725830078125,-0.966400146484375,0.00192306865938,-0.0336985737085342,-0.0587429404258728
1769180277425,-0.1270751953125,-0.15985107421875,-0.9732666015625,0.0109109710901975,-0.0338357277214527,-0.0540587082505226
1769180277435,-0.113739013671875,-0.1690826416015625,-0.956939697265625,0.005911152344197,-0.0261421222239732,-0.0362126007676124
1769180277445,-0.1128082275390625,-0.1773681640625,-0.9521331787109376,-0.0090249199420213,-0.0178703442215919,-0.0126857012510299
1769180277455,-0.1208038330078125,-0.1763153076171875,-0.9491424560546876,-0.0303637646138668,-0.0040935450233519,0.0063356603495776
1769180277465,-0.126739501953125,-0.168975830078125,-0.952789306640625,-0.057092048227787,7.696535612922162e-05,0.0162804368883371
1769180277476,-0.129180908203125,-0.16046142578125,-0.958526611328125,-0.0742790251970291,-0.0221345964819192,0.0196336228400468
1769180277485,-0.136566162109375,-0.1549530029296875,-0.968719482421875,-0.0734933912754058,-0.0395652540028095,0.021836057305336
1769180277495,-0.1396331787109375,-0.1523895263671875,-0.9781951904296876,-0.0667832940816879,-0.0333792604506015,0.0209489576518535
1769180277505,-0.1423797607421875,-0.1492767333984375,-0.9835662841796876,-0.0569839254021644,-0.0282766446471214,0.0175267960876226
1769180277515,-0.1452178955078125,-0.149322509765625,-0.984588623046875,-0.0622394047677516,-0.0289735943078994,0.0135352499783039
1769180277525,-0.147308349609375,-0.1480865478515625,-0.98602294921875,-0.063786968588829,-0.0253567546606063,0.0100329266861081
1769180277535,-0.1485595703125,-0.1447906494140625,-0.99609375,-0.0435504056513309,-0.0225841384381055,0.0014855111949145
1769180277545,-0.1573944091796875,-0.1440887451171875,-1.0063934326171875,-0.0153613789007067,-0.0226864032447338,-0.0134114129468798
1769180277555,-0.1634674072265625,-0.14752197265625,-1.0068206787109375,0.0033883398864418,-0.016332633793354,-0.0294172763824462
1769180277565,-0.1588592529296875,-0.1472930908203125,-1.0004119873046875,0.0024096281267702,-0.0098374504595994,-0.0433663837611675
1769180277575,-0.149627685546875,-0.145782470703125,-0.99578857421875,0.0071215592324733,-0.0039614522829651,-0.0516711845993995
1769180277585,-0.1390533447265625,-0.1472930908203125,-0.9969635009765624,0.0219883900135755,-0.0003981425834354,-0.047272440046072
1769180277595,-0.12774658203125,-0.151458740234375,-0.9970855712890624,0.0395692475140094,-0.0014788532862439,-0.033461820334196
1769180277606,-0.117523193359375,-0.1536865234375,-0.9937591552734376,0.053133524954319,-0.0087607344612479,-0.0173353143036365
1769180277616,-0.114898681640625,-0.15704345703125,-0.9848480224609376,0.0593181848526001,-0.0122199142351746,-0.0020157466642558
1769180277626,-0.1163787841796875,-0.159515380859375,-0.9730682373046876,0.055002000182867,-0.00631994754076,0.0100923152640461
1769180277636,-0.120391845703125,-0.1598052978515625,-0.961883544921875,0.0437304377555847,-0.0011065434664487,0.0159472748637199
1769180277646,-0.1298065185546875,-0.15869140625,-0.95025634765625,0.020878916606307,0.0062728095799684,0.0174900442361831
1769180277656,-0.138824462890625,-0.1582794189453125,-0.946319580078125,-0.0051414989866316,0.0160415507853031,0.0081945462152361
1769180277666,-0.140777587890625,-0.1553955078125,-0.9499359130859376,-0.0230592470616102,0.0141784036532044,0.0066326027736067
1769180277676,-0.137115478515625,-0.146575927734375,-0.9569244384765624,-0.0339955165982246,0.0011238539591431,0.0067503144964575
1769180277686,-0.1360931396484375,-0.1420745849609375,-0.9670257568359376,-0.0331094823777675,-0.007308779284358,0.0071002538315951
1769180277696,-0.1380462646484375,-0.1416778564453125,-0.97723388671875,-0.0241897590458393,-0.0085663236677646,0.0067138290032744
1769180277706,-0.138427734375,-0.143157958984375,-0.9798736572265624,-0.014280934818089,-0.0145179564133286,0.0073609771206974
1769180277716,-0.142120361328125,-0.147857666015625,-0.9769439697265624,-0.0092401038855314,-0.0212469659745693,0.0029651634395122
1769180277726,-0.1434478759765625,-0.156402587890625,-0.965850830078125,-0.0222842674702405,-0.0205361675471067,-0.0018769958987832
1769180277736,-0.142822265625,-0.1610565185546875,-0.9560699462890624,-0.0421229526400566,-0.0161283705383539,-0.0053204633295536
1769180277746,-0.142181396484375,-0.1642303466796875,-0.95989990234375,-0.0492421127855777,-0.0152567168697714,-0.0044999434612691
1769180277756,-0.1390228271484375,-0.163543701171875,-0.9695892333984376,-0.0459413938224315,-0.0162665881216526,0.0031728900503367
1769180277766,-0.1360626220703125,-0.161407470703125,-0.9739837646484376,-0.0491222739219665,-0.0129016833379864,0.0076544573530554
1769180277776,-0.1363983154296875,-0.1536102294921875,-0.9756622314453124,-0.0579061768949031,-0.0060882526449859,0.0128084728494286
1769180277787,-0.1470489501953125,-0.149139404296875,-0.983978271484375,-0.058058775961399,-0.0061857243999838,0.0011568771442398
1769180277796,-0.155029296875,-0.1479339599609375,-0.9983367919921876,-0.0414768680930137,-0.0053305830806493,-0.0159054640680551
1769180277809,-0.1575927734375,-0.146575927734375,-1.0052337646484375,-0.0267666336148977,-0.0006689860601909,-0.0247942954301834
1769180277816,-0.1576080322265625,-0.146728515625,-1.007354736328125,-0.0070134345442056,-0.004700212739408,-0.0335113555192947
1769180277827,-0.1546783447265625,-0.15216064453125,-1.009857177734375,0.0227915979921817,-0.014093448407948,-0.0401671268045902
1769180277836,-0.1441192626953125,-0.1537322998046875,-1.0105133056640625,0.0523023530840873,-0.0217503029853105,-0.036063726991415
1769180277846,-0.13397216796875,-0.1533966064453125,-0.9958648681640624,0.0595253780484199,-0.0031595742329955,-0.024172980338335
1769180277857,-0.1357269287109375,-0.15582275390625,-0.9824981689453124,0.0491600893437862,0.0192511919885873,-0.0158519335091114
1769180277867,-0.1441802978515625,-0.1605072021484375,-0.9805908203125,0.0457067675888538,0.028727252036333,-0.0207191277295351
1769180277877,-0.1458892822265625,-0.1598052978515625,-0.9821014404296876,0.0449786596000194,0.0247202608734369,-0.0281030070036649
1769180277887,-0.142181396484375,-0.1579132080078125,-0.981964111328125,0.0428515933454036,0.025564482435584,-0.0329800546169281
1769180277897,-0.14422607421875,-0.1589813232421875,-0.978363037109375,0.0409823209047317,0.0330026894807815,-0.0359745137393474
1769180277908,-0.1429901123046875,-0.16143798828125,-0.9811553955078124,0.0443741232156753,0.0274571906775236,-0.0329963006079196
1769180277917,-0.128326416015625,-0.1587677001953125,-0.9869537353515624,0.0574526414275169,-0.0004159857635386,-0.0167675279080867
1769180277927,-0.1234588623046875,-0.1508331298828125,-0.984710693359375,0.0631547346711158,-0.018198711797595,-0.0003504719934426
1769180277937,-0.1356048583984375,-0.149627685546875,-0.977325439453125,0.054212637245655,-0.0080832261592149,0.0002881540276575
1769180277947,-0.149810791015625,-0.155517578125,-0.975921630859375,0.0476583316922187,0.0093471631407737,-0.0193292237818241
1769180277957,-0.1533966064453125,-0.153656005859375,-0.97979736328125,0.0529620163142681,0.0079990709200501,-0.0377660207450389
1769180277967,-0.1497955322265625,-0.152587890625,-0.9806060791015624,0.063817597925663,0.0033827472943812,-0.0480620674788951
1769180277977,-0.1473541259765625,-0.157989501953125,-0.977569580078125,0.0670541375875473,0.0141014382243156,-0.058102186769247
1769180277987,-0.1436004638671875,-0.1656341552734375,-0.96954345703125,0.0541159659624099,0.012746687978506,-0.0576206855475902
1769180277997,-0.13739013671875,-0.1690521240234375,-0.95953369140625,0.0435623899102211,0.0179784670472145,-0.0482056103646755
1769180278008,-0.1336669921875,-0.16400146484375,-0.96490478515625,0.0417727455496788,0.0243109315633773,-0.0266864709556102
1769180278018,-0.1320953369140625,-0.172454833984375,-0.9683990478515624,0.0397740453481674,0.0177190750837326,-0.0067899953573942
1769180278027,-0.1302947998046875,-0.1781463623046875,-0.9603271484375,0.0287738572806119,-0.0030439931433647,0.0001451422722311
1769180278038,-0.13079833984375,-0.173492431640625,-0.9431304931640624,0.0007099987124092,-0.0189060475677251,-0.0039622508920729
1769180278048,-0.1300811767578125,-0.16546630859375,-0.9326171875,-0.0359207168221473,0.0120867565274238,-0.0054179350845515
1769180278058,-0.14105224609375,-0.1629486083984375,-0.950592041015625,-0.0496836677193641,0.0101647535338997,-0.0141879906877875
1769180278068,-0.143646240234375,-0.156585693359375,-0.9658660888671876,-0.0437922216951847,0.0049353702925145,-0.0195321552455425
1769180278078,-0.1481781005859375,-0.145416259765625,-0.9792938232421876,-0.0353936776518821,0.0101490402594208,-0.0255021639168262
1769180278088,-0.1548004150390625,-0.140228271484375,-0.9878082275390624,-0.0195960719138383,0.0012287824647501,-0.0374355241656303
1769180278098,-0.1529693603515625,-0.1437835693359375,-0.9839324951171876,-0.007079747505486,-0.0098443748429417,-0.0451427102088928
1769180278109,-0.148895263671875,-0.15045166015625,-0.9808349609375,-0.0005419532535597,-0.0149051798507571,-0.0456748120486736
1769180278118,-0.1386260986328125,-0.1601409912109375,-0.9787139892578124,0.0039135152474045,-0.0215068906545639,-0.039962064474821
1769180278128,-0.126617431640625,-0.1707763671875,-0.967864990234375,-0.0055327173322439,-0.0164287742227315,-0.0270529221743345
1769180278138,-0.11712646484375,-0.1788787841796875,-0.9647216796875,-0.0253503639250993,0.0007014766451902,-0.0129983564838767
1769180278148,-0.1161956787109375,-0.180633544921875,-0.970062255859375,-0.0341081693768501,0.015418903902173,0.001652757753618
1769180278158,-0.1180419921875,-0.1782989501953125,-0.9835357666015624,-0.0211833156645298,0.0216496344655752,0.0140308644622564
1769180278168,-0.1212615966796875,-0.1744384765625,-0.9971160888671876,0.0048099351115524,0.0227665659040212,0.0207620039582252
1769180278178,-0.129241943359375,-0.168365478515625,-1.00372314453125,0.0355143174529075,0.026690199971199,0.0254715383052825
1769180278188,-0.13848876953125,-0.1636810302734375,-1.001312255859375,0.0603709332644939,0.0350477322936058,0.0205161944031715
1769180278198,-0.1484832763671875,-0.1631317138671875,-1.000091552734375,0.0814149677753448,0.0275243017822504,0.0133243277668952
1769180278208,-0.1508026123046875,-0.1600799560546875,-0.993743896484375,0.0931773483753204,0.0085929557681083,0.0097005637362599
1769180278218,-0.1576690673828125,-0.1546478271484375,-0.982513427734375,0.0940846875309944,-0.0156274288892745,0.000320644583553
1769180278228,-0.16650390625,-0.15875244140625,-0.9628753662109376,0.0742774233222007,-0.0288889054208993,-0.0183185525238513
1769180278238,-0.16668701171875,-0.16802978515625,-0.94976806640625,0.0449264608323574,-0.0316625870764255,-0.0295315273106098
1769180278248,-0.1555633544921875,-0.18017578125,-0.9409942626953124,0.0158066600561141,-0.0289514902979135,-0.0327355749905109
1769180278259,-0.141937255859375,-0.1826019287109375,-0.9367218017578124,-0.0062871905975043,-0.0220150202512741,-0.0275679789483547
1769180278269,-0.128082275390625,-0.188507080078125,-0.9412384033203124,-0.0300556365400552,-0.0195364169776439,-0.0179326608777046
1769180278279,-0.12298583984375,-0.1892242431640625,-0.9503936767578124,-0.042038794606924,-0.0324239842593669,-0.0049654636532068
1769180278289,-0.129364013671875,-0.1790618896484375,-0.9654541015625,-0.0404752530157566,-0.0460830740630626,0.0037398771382868
1769180278299,-0.13775634765625,-0.166900634765625,-0.9744415283203124,-0.0317432805895805,-0.0496650226414203,0.0023347933311015
1769180278309,-0.14630126953125,-0.1622161865234375,-0.9764862060546876,-0.0339529067277908,-0.0426960662007331,-0.0039721047505736
1769180278319,-0.1481170654296875,-0.1619415283203125,-0.973846435546875,-0.0389758944511413,-0.0459280759096145,-0.0134961009025573
1769180278329,-0.1437530517578125,-0.1595458984375,-0.9749603271484376,-0.0419122949242591,-0.0537852011620998,-0.0168005507439374
1769180278339,-0.141693115234375,-0.1593170166015625,-0.974456787109375,-0.0477816388010978,-0.0529343225061893,-0.0178809966892004
1769180278349,-0.141204833984375,-0.162567138671875,-0.972869873046875,-0.0526104792952537,-0.0345465242862701,-0.0180181488394737
1769180278359,-0.1391754150390625,-0.164398193359375,-0.98016357421875,-0.0536922551691532,-0.0320748463273048,-0.0118686435744166
1769180278369,-0.1392364501953125,-0.161590576171875,-0.9887542724609376,-0.0381188914179801,-0.0426284186542034,-0.0096566220745444
1769180278379,-0.1457672119140625,-0.160003662109375,-0.9936065673828124,-0.0205974206328392,-0.0323446244001388,-0.0100129526108503
1769180278389,-0.1538238525390625,-0.1582489013671875,-0.9892578125,-0.0094459662213921,-0.0166873671114444,-0.016757408156991
1769180278399,-0.160430908203125,-0.15802001953125,-0.9824066162109376,-0.0065641594119369,-0.0143286054953932,-0.030810110270977
1769180278409,-0.15911865234375,-0.1587066650390625,-0.975311279296875,-0.0067585702054202,-0.0094100134447216,-0.0470447391271591
1769180278419,-0.154541015625,-0.1585845947265625,-0.970855712890625,-0.0096078859642148,0.0063814665190875,-0.0563455633819103
1769180278429,-0.149627685546875,-0.1634063720703125,-0.970611572265625,-0.0109322760254144,0.0080536650493741,-0.053028330206871
1769180278441,-0.138031005859375,-0.1632537841796875,-0.9782257080078124,-0.0030370689928531,0.0012554140994325,-0.0420007146894931
1769180278450,-0.133544921875,-0.1612701416015625,-0.978729248046875,0.0037057886365801,-0.006582801695913,-0.0329510271549224
1769180278459,-0.1342315673828125,-0.1613311767578125,-0.9771728515625,0.0069529809989035,-0.008461395278573,-0.0240105278789997
1769180278469,-0.1400146484375,-0.162139892578125,-0.9737091064453124,0.0037483992055058,-0.0145829375833272,-0.0257804635912179
1769180278480,-0.146942138671875,-0.1622772216796875,-0.9671630859375,-0.0034112429711967,-0.0184080358594656,-0.0325488895177841
1769180278490,-0.15234375,-0.16058349609375,-0.963104248046875,-0.0103919208049774,-0.0103434510529041,-0.0364525504410266
1769180278500,-0.1562042236328125,-0.159515380859375,-0.9619293212890624,-0.0177116189152002,0.0041388184763491,-0.0433149822056293
1769180278510,-0.157012939453125,-0.1601409912109375,-0.9601287841796876,-0.0268148370087146,0.0103743439540266,-0.0481787137687206
1769180278520,-0.1502532958984375,-0.160308837890625,-0.96099853515625,-0.0337292030453681,0.0094459662213921,-0.0514506734907627
1769180278530,-0.1392669677734375,-0.159942626953125,-0.9734954833984376,-0.025906965136528,0.0050437608733773,-0.0429181717336177
1769180278540,-0.1302642822265625,-0.160552978515625,-0.9847564697265624,-0.0086456863209605,-0.0154431387782096,-0.0294737368822097
1769180278550,-0.1253662109375,-0.1620330810546875,-0.9878082275390624,0.0076150428503751,-0.030460437759757,-0.0179624892771244
1769180278560,-0.1269378662109375,-0.16107177734375,-0.9815216064453124,0.0147198243066668,-0.034817636013031,-0.0076736323535442
1769180278570,-0.131439208984375,-0.16473388671875,-0.9681243896484376,0.0077468692325055,-0.0306095741689205,0.0031145669054239
1769180278580,-0.1405487060546875,-0.165069580078125,-0.956268310546875,-0.0128822429105639,-0.017105484381318,0.0040847565978765
1769180278590,-0.14874267578125,-0.1641082763671875,-0.9530487060546876,-0.0358714498579502,-0.0063018379732966,0.0025409220252186
1769180278600,-0.1526641845703125,-0.1631927490234375,-0.9575653076171876,-0.042288601398468,-0.0013997574569657,-0.0004546015989035
1769180278610,-0.1503448486328125,-0.1606597900390625,-0.9736175537109376,-0.0277349576354026,-0.0069609703496098,-0.0016647420125082
1769180278620,-0.1499176025390625,-0.1596527099609375,-0.979766845703125,-0.0134055539965629,-0.0155525943264365,-0.0037025928031653
1769180278630,-0.1513519287109375,-0.1613922119140625,-0.9768524169921876,-0.0089492863044142,-0.0171579476445913,-0.009948237799108
1769180278641,-0.1512451171875,-0.16497802734375,-0.970611572265625,-0.0071849422529339,-0.0135677400976419,-0.0149754872545599
1769180278650,-0.1466064453125,-0.16815185546875,-0.969390869140625,-0.0100454436615109,-0.018099108710885,-0.0188093744218349
1769180278661,-0.1369781494140625,-0.1672515869140625,-0.9655303955078124,-0.0127589385956525,-0.0227143671363592,-0.0072592445649206
1769180278670,-0.137603759765625,-0.1660003662109375,-0.9630584716796876,-0.0218501705676317,-0.0244563408195972,0.005632852204144
1769180278681,-0.14727783203125,-0.1641998291015625,-0.9696044921875,-0.0209510885179042,-0.0292521603405475,0.0016389093361794
1769180278691,-0.15869140625,-0.162872314453125,-0.9779052734375,-0.015712384134531,-0.0345619730651378,-0.0075015919283032
1769180278701,-0.160186767578125,-0.157440185546875,-0.9773712158203124,-0.0139682795852422,-0.0401503480970859,-0.0175648797303438
1769180278711,-0.16448974609375,-0.151336669921875,-0.9745330810546876,-0.0192852802574634,-0.0386342108249664,-0.0289855785667896
1769180278721,-0.1725921630859375,-0.15679931640625,-0.9739532470703124,-0.0312468688935041,-0.0257767364382743,-0.0480673946440219
1769180278731,-0.17095947265625,-0.1646270751953125,-0.9749755859375,-0.036196619272232,-0.0177987050265073,-0.0652064308524131
1769180278741,-0.1528167724609375,-0.1611785888671875,-0.9783782958984376,-0.0310343485325574,-0.0087767131626605,-0.0647662132978439
1769180278751,-0.13665771484375,-0.1568450927734375,-0.987396240234375,-0.0089713903144001,-0.0052216597832739,-0.047131560742855
1769180278761,-0.1328277587890625,-0.155609130859375,-0.994384765625,0.0103714140132069,-0.0015116102294996,-0.0308085121214389
1769180278771,-0.13970947265625,-0.1536102294921875,-0.9957275390625,0.0273756980895996,0.0066568371839821,-0.0235426109284162
1769180278781,-0.152740478515625,-0.145294189453125,-0.994842529296875,0.0435573309659957,0.0081300977617502,-0.0303672272711992
1769180278791,-0.1594696044921875,-0.1436309814453125,-0.9894866943359376,0.0580462589859962,0.0094907069578766,-0.0411247983574867
1769180278801,-0.154052734375,-0.1509246826171875,-0.9790191650390624,0.0505270883440971,0.0127988858148455,-0.0472199767827987
1769180278811,-0.145782470703125,-0.1584014892578125,-0.965362548828125,0.0302612334489822,0.0093040196225047,-0.0492248050868511
1769180278821,-0.135009765625,-0.170013427734375,-0.9592742919921876,0.0167454238981008,0.0083652548491954,-0.0431980714201927
1769180278831,-0.120635986328125,-0.1780853271484375,-0.960968017578125,0.0087386304512619,0.0103977797552943,-0.0238291658461093
1769180278841,-0.1127777099609375,-0.1799163818359375,-0.96142578125,0.0041326931677758,0.0137839894741773,-0.0033704966772347
1769180278851,-0.1136932373046875,-0.1809234619140625,-0.9652862548828124,-0.0002175802655983,0.0185031108558177,0.0173193346709013
1769180278862,-0.1195220947265625,-0.1764984130859375,-0.970367431640625,0.0016615461790934,0.0149451270699501,0.0299347285181283
1769180278871,-0.1301422119140625,-0.168060302734375,-0.977935791015625,0.011994345113635,0.0008647284121252,0.0367287211120128
1769180278881,-0.14227294921875,-0.1590728759765625,-0.9804534912109376,0.0250203981995582,-0.0066096996888518,0.0400680564343929
1769180278892,-0.1530914306640625,-0.1523590087890625,-0.97760009765625,0.0335760712623596,-0.0040535973384976,0.0359172560274601
1769180278901,-0.1623687744140625,-0.149658203125,-0.967376708984375,0.0316213108599185,0.0029976540245115,0.0295190103352069
1769180278912,-0.1678924560546875,-0.1483306884765625,-0.958587646484375,0.0236115865409374,0.0068666944280266,0.0186535790562629
1769180278922,-0.1710968017578125,-0.1537628173828125,-0.9530181884765624,0.0108856707811355,0.0026823359075933,0.0042719766497612
1769180278932,-0.1649932861328125,-0.1613922119140625,-0.9476165771484376,-0.0163102634251117,0.0023425165563821,-0.0047854343429207
1769180278942,-0.152496337890625,-0.1689300537109375,-0.9444427490234376,-0.047186154872179,-0.0051564122550189,-0.0018069547368213
1769180278952,-0.140533447265625,-0.1758270263671875,-0.947845458984375,-0.0715223848819732,-0.0124742463231086,0.0055827847681939
1769180278962,-0.133392333984375,-0.17822265625,-0.9585723876953124,-0.0798455625772476,-0.0109799467027187,0.0128385666757822
1769180278972,-0.134063720703125,-0.179046630859375,-0.9707183837890624,-0.07582738250494,-0.0052142031490802,0.0202442854642868
1769180278982,-0.1345672607421875,-0.1754302978515625,-0.9847259521484376,-0.0596233829855918,-0.0057087522000074,0.0300423204898834
1769180278992,-0.1418609619140625,-0.1682891845703125,-0.99237060546875,-0.0361327044665813,0.0011978897964581,0.0347494594752788
1769180279002,-0.1512603759765625,-0.1601715087890625,-0.99652099609375,-0.0164958853274583,0.0150242233648896,0.0348639748990535
1769180279012,-0.1595611572265625,-0.15087890625,-0.99322509765625,-0.0018924422329291,0.0275994036346673,0.0261405240744352
1769180279022,-0.1621246337890625,-0.1476898193359375,-0.9861602783203124,0.0064688180573284,0.0376770719885826,0.0176197402179241
1769180279032,-0.1569671630859375,-0.1489410400390625,-0.981292724609375,0.0089607378467917,0.0437413565814495,0.0127480197697877
1769180279042,-0.1510009765625,-0.157623291015625,-0.974456787109375,0.0046887611970305,0.0397332981228828,0.0127821080386638
1769180279052,-0.14251708984375,-0.1643829345703125,-0.966796875,-0.0035553199704736,0.0265477206557989,0.0163363628089427
1769180279062,-0.13543701171875,-0.1739349365234375,-0.9593353271484376,-0.0207340400665998,0.0159225072711706,0.0245117340236902
1769180279072,-0.1327972412109375,-0.180694580078125,-0.9525909423828124,-0.0379556380212307,0.0090379696339368,0.037206757813692
1769180279082,-0.1365814208984375,-0.183685302734375,-0.9460906982421876,-0.0603277869522571,0.0038613171782344,0.04769242182374
1769180279092,-0.1479949951171875,-0.1815185546875,-0.942169189453125,-0.087036095559597,0.0173984318971633,0.0443837083876132
1769180279102,-0.1615753173828125,-0.17205810546875,-0.9439544677734376,-0.1122554317116737,0.0351156443357467,0.0342463888227939
1769180279113,-0.164947509765625,-0.1584014892578125,-0.9584503173828124,-0.1274759322404861,0.042807649821043,0.0156825557351112
1769180279123,-0.1644744873046875,-0.1441650390625,-0.9770965576171876,-0.1196052283048629,0.0456447154283523,0.0042275018058717
1769180279133,-0.159423828125,-0.1370086669921875,-1.0044097900390625,-0.0805286616086959,0.0334325246512889,-0.0038333539851009
1769180279143,-0.15435791015625,-0.137725830078125,-1.0194091796875,-0.0305443275719881,0.021705562248826,-0.005397162400186
1769180279153,-0.14996337890625,-0.1429290771484375,-1.0174407958984375,0.0135906431823968,0.0200677178800106,-0.0010745854815468
1769180279163,-0.1484222412109375,-0.1522216796875,-0.9984893798828124,0.0342213548719882,0.0236781649291515,-3.009372085216455e-05
1769180279173,-0.1490936279296875,-0.1645660400390625,-0.96990966796875,0.0130598759278655,0.0338194817304611,-0.000858603103552
1769180279183,-0.1502532958984375,-0.17181396484375,-0.944580078125,-0.0352775640785694,0.0419695526361465,-0.0014828480780124
1769180279193,-0.15362548828125,-0.173248291015625,-0.9414215087890624,-0.0773989185690879,0.0396270379424095,-0.0076318206265568
1769180279203,-0.1515350341796875,-0.1706390380859375,-0.960662841796875,-0.0841708034276962,0.0289837140589952,-0.0052442969754338
1769180279213,-0.14471435546875,-0.1610565185546875,-0.9832763671875,-0.0640026852488517,0.0223471168428659,-0.0031361384317278
1769180279223,-0.144073486328125,-0.154144287109375,-0.996673583984375,-0.0336727425456047,0.0189662333577871,-0.0048727858811616
1769180279233,-0.146728515625,-0.1526336669921875,-1.0006103515625,-0.0008966863388195,0.0149432634934782,-0.009745305404067
1769180279243,-0.1457977294921875,-0.153472900390625,-0.9952239990234376,0.0170266535133123,0.0119647840037941,-0.0089058773592114
1769180279253,-0.142974853515625,-0.1523590087890625,-0.9859466552734376,0.0251333154737949,0.0002615224220789,-0.0046999468468129
1769180279263,-0.1446685791015625,-0.1548309326171875,-0.978790283203125,0.0334042944014072,-0.0198051296174526,0.0040272320620715
1769180279273,-0.1547088623046875,-0.1580352783203125,-0.9690704345703124,0.0265083070844411,-0.0042967442423105,0.0079170456156134
1769180279283,-0.1680755615234375,-0.1606292724609375,-0.955963134765625,0.0084137246012687,0.0329464972019195,-0.0018210695125162
1769180279293,-0.1678924560546875,-0.163909912109375,-0.9532318115234376,-0.0117117837071418,0.060169331729412,-0.0151280863210558
1769180279303,-0.1614990234375,-0.16070556640625,-0.9589080810546876,-0.0327286534011364,0.0656783431768417,-0.0260398555546998
1769180279314,-0.1508636474609375,-0.152008056640625,-0.9716033935546876,-0.0472151823341846,0.0580308139324188,-0.0368288531899452
1769180279323,-0.143280029296875,-0.1475982666015625,-0.989349365234375,-0.0431013964116573,0.0415807329118251,-0.04443084821105
1769180279334,-0.1356964111328125,-0.1455078125,-1.0080413818359375,-0.0180543679744005,0.0212291218340396,-0.0482077412307262
1769180279344,-0.1275634765625,-0.1457366943359375,-1.0200958251953125,0.0197529327124357,0.0018490327056497,-0.044725127518177
1769180279354,-0.1190643310546875,-0.1470794677734375,-1.0172271728515625,0.062508650124073,-0.0110324108973145,-0.0232219658792018
1769180279364,-0.1176605224609375,-0.1519775390625,-1.003326416015625,0.0917070135474205,-0.0083016054704785,-0.0067923921160399
1769180279375,-0.1294403076171875,-0.157196044921875,-0.9783782958984376,0.0927128940820694,0.0118862204253673,0.0013156015193089
1769180279384,-0.139495849609375,-0.1635894775390625,-0.955535888671875,0.066249594092369,0.0257208105176687,0.009106945246458
1769180279394,-0.14544677734375,-0.1612396240234375,-0.94097900390625,0.0362653285264968,0.0257421154528856,0.0052000884898006
1769180279404,-0.156158447265625,-0.1600494384765625,-0.94073486328125,0.0077375480905175,0.0260712821036577,-0.0103865945711731
1769180279414,-0.1601104736328125,-0.1656036376953125,-0.946014404296875,-0.0167078729718923,0.0183670222759246,-0.0309453997761011
1769180279424,-0.1509857177734375,-0.1603851318359375,-0.9515533447265624,-0.0347190983593463,0.0075545888394117,-0.0389404743909835
1769180279434,-0.13873291015625,-0.1528472900390625,-0.9588623046875,-0.0451546944677829,0.0102960467338562,-0.0445964969694614
1769180279444,-0.1361846923828125,-0.151641845703125,-0.9702606201171876,-0.0449110157787799,0.0159653834998607,-0.0482567436993122
1769180279454,-0.1376800537109375,-0.1519012451171875,-0.9885711669921876,-0.0244595371186733,0.0151704307645559,-0.0488508976995945
1769180279464,-0.136688232421875,-0.1490325927734375,-1.0010833740234375,0.0073186331428587,0.0134849157184362,-0.0426137745380401
1769180279476,-0.1373138427734375,-0.144317626953125,-1.0064849853515625,0.0399564690887928,0.0060102217830717,-0.03633963316679
1769180279484,-0.1367034912109375,-0.1397552490234375,-1.0006866455078125,0.0606891810894012,-0.0014668691437691,-0.0315270349383354
1769180279494,-0.1428070068359375,-0.1371612548828125,-0.9830474853515624,0.0555633939802646,0.0051100733689963,-0.0329233296215534
1769180279504,-0.1491851806640625,-0.140777587890625,-0.964324951171875,0.0356538668274879,0.013907560147345,-0.0406448990106582
1769180279515,-0.1473541259765625,-0.1464385986328125,-0.954437255859375,0.0096598174422979,0.0220850612968206,-0.0514171198010444
1769180279524,-0.1416015625,-0.151641845703125,-0.9510955810546876,-0.0146354017779231,0.0262254793196916,-0.0551024004817009
1769180279535,-0.13031005859375,-0.159576416015625,-0.951629638671875,-0.036683976650238,0.0183148253709077,-0.0552800334990024
1769180279545,-0.1144256591796875,-0.16668701171875,-0.952056884765625,-0.0587429404258728,0.0104246772825717,-0.0453072935342788
1769180279555,-0.1031341552734375,-0.1695098876953125,-0.956329345703125,-0.0742784887552261,0.0051689292304217,-0.0223353989422321
1769180279565,-0.099273681640625,-0.1732177734375,-0.969268798828125,-0.0736361369490623,-0.0038325551431626,0.0051446943543851
1769180279575,-0.10345458984375,-0.1712646484375,-0.9833221435546876,-0.0579533129930496,-0.0189310796558856,0.029545109719038
1769180279585,-0.113922119140625,-0.16351318359375,-0.98992919921875,-0.0391082540154457,-0.0225862693041563,0.0446367114782333
1769180279595,-0.1324920654296875,-0.1588134765625,-0.98492431640625,-0.035176895558834,-0.0128140654414892,0.0473608560860157
1769180279605,-0.1523284912109375,-0.154998779296875,-0.9803314208984376,-0.0351305566728115,0.0038344194181263,0.0308348778635263
1769180279615,-0.166595458984375,-0.1519012451171875,-0.9813079833984376,-0.0277480073273181,0.011142399162054,0.0063148876652121
1769180279627,-0.1659088134765625,-0.14837646484375,-0.9841156005859376,-0.0285288468003273,0.0112470621243119,-0.0102172177284955
1769180279635,-0.1558685302734375,-0.1427764892578125,-0.9868316650390624,-0.028611671179533,0.0155355501919984,-0.0121773043647408
