timestamp_ms,acc_x,acc_y,acc_z,gyro_x,gyro_y,gyro_z
1770454258141,-0.130096435546875,-0.9855804443359376,0.0313720703125,0.0321475490927696,0.006541256327182,-0.0069854715839028
1770454258152,-0.129486083984375,-0.9860382080078124,0.0332794189453125,0.0325835086405277,0.0061383200809359,-0.0050536142662167
1770454258159,-0.130218505859375,-0.9859466552734376,0.034393310546875,0.0317358262836933,0.0098196072503924,-0.0067367320880293
1770454258169,-0.1303558349609375,-0.987152099609375,0.035186767578125,0.0272121801972389,0.0081937480717897,-0.0040365532040596
1770454258179,-0.1265411376953125,-0.9913177490234376,0.036468505859375,0.0209036841988563,0.0094062853604555,-0.0021803299896419
1770454258189,-0.124542236328125,-0.9952545166015624,0.0377197265625,0.0145893292501568,0.0123259080573916,-0.0006205165409483
1770454258199,-0.12371826171875,-0.994232177734375,0.039459228515625,0.0095365131273865,0.008717325516045,0.0003866909828502
1770454258210,-0.1233978271484375,-0.99163818359375,0.0397186279296875,0.005444832611829,0.0039356192573904,0.0010128001449629
1770454258219,-0.1254425048828125,-0.9896240234375,0.0408935546875,0.0022682142443954,0.0059910472482442,0.003736681304872
1770454258230,-0.12579345703125,-0.989959716796875,0.04150390625,-0.0013981595402583,0.0001675128296483,0.0021763353142887
1770454258240,-0.1277923583984375,-0.98712158203125,0.04229736328125,-0.0017877799691632,-0.0051473579369485,0.0020767329260706
1770454258250,-0.12750244140625,-0.98468017578125,0.0432891845703125,-0.0061596250161528,-0.0062240739353001,0.0027710190042853
1770454258260,-0.12860107421875,-0.9872894287109376,0.044891357421875,-0.0106582371518015,-0.0035987296141684,0.0044056675396859
1770454258270,-0.129425048828125,-0.9872589111328124,0.046478271484375,-0.0178764685988426,-0.0005715143634006,0.0038227012846618
1770454258280,-0.125946044921875,-0.9874114990234376,0.047210693359375,-0.0262419898062944,-0.0004186489095445,0.0089668631553649
1770454258290,-0.1230926513671875,-0.986419677734375,0.0474700927734375,-0.0351918078958988,0.0084542045369744,0.0121365580707788
1770454258300,-0.1229248046875,-0.9864654541015624,0.0450439453125,-0.0447413735091686,0.0131309824064373,0.0129791814833879
1770454258310,-0.1234130859375,-0.9883575439453124,0.0425872802734375,-0.0480210557579994,0.01071123406291,0.013563479296863
1770454258320,-0.1234283447265625,-0.9885711669921876,0.0373382568359375,-0.0458697527647018,0.0131690651178359,0.01297412160784
1770454258330,-0.125579833984375,-0.9893035888671876,0.031951904296875,-0.045038316398859,0.0126558737829327,0.0158988051116466
1770454258340,-0.1253814697265625,-0.9887847900390624,0.03009033203125,-0.0425120405852794,0.0122044682502746,0.0182791389524936
1770454258350,-0.126739501953125,-0.9879150390625,0.030975341796875,-0.0419967174530029,0.0086110653355717,0.0170932337641716
1770454258360,-0.12835693359375,-0.9867706298828124,0.0308685302734375,-0.0386001244187355,0.011535482481122,0.0182373262941837
1770454258370,-0.13177490234375,-0.98443603515625,0.028900146484375,-0.0335097573697567,0.0109178954735398,0.0152434017509222
1770454258380,-0.1337127685546875,-0.9843902587890624,0.027130126953125,-0.0263032428920269,0.0045939530245959,0.0147994523867964
1770454258390,-0.13250732421875,-0.9867095947265624,0.025787353515625,-0.0236616525799036,0.0072504561394453,0.0208440292626619
1770454258401,-0.1256103515625,-0.988922119140625,0.029083251953125,-0.0231636427342891,0.0126715870574116,0.0254443734884262
1770454258410,-0.1234283447265625,-0.9934234619140624,0.02874755859375,-0.0242720507085323,0.0110427970066666,0.029119536280632
1770454258420,-0.1219024658203125,-0.991943359375,0.0293426513671875,-0.0262305382639169,0.0083801690489053,0.0322114676237106
1770454258430,-0.1232452392578125,-0.9903106689453124,0.030853271484375,-0.0291496291756629,0.0055436361581087,0.0401628650724887
1770454258441,-0.1223297119140625,-0.9874114990234376,0.031829833984375,-0.0295371189713478,0.0009307747823186,0.0436958149075508
1770454258451,-0.122528076171875,-0.9811553955078124,0.0338592529296875,-0.0374032966792583,-0.0008420915110036,0.0493872575461864
1770454258460,-0.123260498046875,-0.9829559326171876,0.039398193359375,-0.0489193387329578,0.0087000150233507,0.051695417612791
1770454258471,-0.12310791015625,-0.99151611328125,0.0399627685546875,-0.0597046092152595,0.019144132733345,0.0569237358868122
1770454258481,-0.1203460693359375,-0.9918975830078124,0.0382080078125,-0.0640740543603897,0.0233924072235822,0.0639582127332687
1770454258491,-0.1251373291015625,-0.9889678955078124,0.03533935546875,-0.0622694976627826,0.0190738253295421,0.0700509920716285
1770454258501,-0.1317901611328125,-0.9824066162109376,0.03155517578125,-0.0632796362042427,0.0145299406722188,0.0652389228343963
1770454258511,-0.1344757080078125,-0.9781036376953124,0.0310821533203125,-0.06866455078125,0.0183648932725191,0.0638969540596008
1770454258521,-0.13671875,-0.9911956787109376,0.0341949462890625,-0.0775291472673416,0.0269165690988302,0.0630346238613128
1770454258531,-0.1373443603515625,-0.9978790283203124,0.0371246337890625,-0.0796293169260025,0.0310215651988983,0.058163970708847
1770454258541,-0.1399993896484375,-0.9829254150390624,0.032806396484375,-0.0761874467134475,0.0230523217469453,0.0447048880159854
1770454258551,-0.1463470458984375,-0.9778289794921876,0.0311737060546875,-0.070706658065319,0.0170455630868673,0.0350831523537635
1770454258561,-0.1497650146484375,-0.9754638671875,0.0285186767578125,-0.0650825947523117,0.0198397506028413,0.0296143516898155
1770454258571,-0.146392822265625,-0.9786224365234376,0.0275115966796875,-0.0662011206150055,0.0249564815312623,0.0262220166623592
1770454258581,-0.13897705078125,-0.9855194091796876,0.026031494140625,-0.0647142827510833,0.0293698720633983,0.0325379706919193
1770454258591,-0.1300811767578125,-0.992523193359375,0.0224151611328125,-0.0681289881467819,0.0304553769528865,0.0407000258564949
1770454258601,-0.12384033203125,-0.9929656982421876,0.0185546875,-0.0700001269578933,0.0321669913828372,0.0559040121734142
1770454258611,-0.1212158203125,-0.9904937744140624,0.01513671875,-0.072554625570774,0.0390235669910907,0.0560797788202762
1770454258621,-0.131378173828125,-0.9874267578125,0.0096282958984375,-0.0677223205566406,0.04132666811347,0.0744500011205673
1770454258632,-0.1199951171875,-0.9864349365234376,0.0036468505859375,-0.0698845386505127,0.0242257118225097,0.0805651471018791
1770454258642,-0.126373291015625,-0.988250732421875,0.010498046875,-0.0762252658605575,0.0355076603591442,0.0915498882532119
1770454258652,-0.1343841552734375,-0.9835662841796876,0.0113983154296875,-0.0731567665934562,0.0525500252842903,0.0941611230373382
1770454258661,-0.1418304443359375,-0.9879302978515624,0.0057525634765625,-0.0633451491594314,0.0450367182493209,0.0893943309783935
1770454258672,-0.152313232421875,-0.990997314453125,0.0022430419921875,-0.0449727997183799,0.0384395346045494,0.0790498107671737
1770454258682,-0.161346435546875,-0.99273681640625,-0.0008087158203125,-0.0222389921545982,0.0365444272756576,0.0648322626948356
1770454258692,-0.1703643798828125,-0.99383544921875,-0.001800537109375,-0.0003267698630224,0.0362315066158771,0.0515228472650051
1770454258702,-0.173126220703125,-0.9952239990234376,-0.0008697509765625,0.0232701692730188,0.0327462293207645,0.0371444374322891
1770454258712,-0.1719207763671875,-0.99420166015625,-0.0026397705078125,0.0454990416765213,0.0236091893166303,0.0277730412781238
1770454258722,-0.1700286865234375,-0.99371337890625,-0.0039215087890625,0.0682597458362579,0.0116209695115685,0.0159491393715143
1770454258732,-0.1684722900390625,-0.9937744140625,-0.001983642578125,0.0935733616352081,0.0071218251250684,0.0041159153915941
1770454258742,-0.168243408203125,-0.991668701171875,-0.0016632080078125,0.1093709617853164,-0.0028597023338079,-0.0016338493442162
1770454258752,-0.1625213623046875,-0.9866485595703124,0.0048370361328125,0.1192062869668006,-0.0080616548657417,-0.0064419205300509
1770454258762,-0.1590576171875,-0.9846954345703124,0.0137786865234375,0.1188065484166145,-0.0086528770625591,-0.011149856261909
1770454258772,-0.1554718017578125,-0.99420166015625,0.02117919921875,0.1106655299663543,-0.0089354384690523,-0.0130660012364387
1770454258782,-0.1479339599609375,-0.9959716796875,0.0289764404296875,0.0962325260043144,-0.0066810720600187,-0.0098797949030995
1770454258792,-0.143890380859375,-0.99005126953125,0.03564453125,0.0846821293234825,-0.0045247105881571,-0.0053590792231261
1770454258802,-0.1477508544921875,-0.9806976318359376,0.041015625,0.0714078694581985,-0.0061955777928233,-0.0100206760689616
1770454258812,-0.1529693603515625,-0.97760009765625,0.043914794921875,0.0517470836639404,-0.0046477485448122,-0.0091911014169454
1770454258822,-0.1514892578125,-0.9774169921875,0.0511932373046875,0.0250097457319498,0.001686047296971,-0.0097817908972501
1770454258832,-0.1448974609375,-0.97821044921875,0.05621337890625,0.0028964539524167,0.0134074185043573,-0.0077178408391773
1770454258842,-0.138702392578125,-0.9847564697265624,0.0562591552734375,-0.0148071758449077,0.0209055487066507,-0.010539193637669
1770454258853,-0.1396942138671875,-0.9897918701171876,0.0508270263671875,-0.0293211378157138,0.0223625637590885,-0.0104055032134056
1770454258863,-0.14501953125,-0.988861083984375,0.0431060791015625,-0.0421471856534481,0.0248701963573694,-0.0104055032134056
1770454258873,-0.145355224609375,-0.9871826171875,0.0356597900390625,-0.0522363074123859,0.0217295307666063,-0.0069335396401584
1770454258883,-0.14141845703125,-0.994873046875,0.028839111328125,-0.0533162169158458,0.0144662912935018,-0.0050301784649491
1770454258893,-0.1416473388671875,-0.995758056640625,0.01910400390625,-0.0483797825872898,0.0067377975210547,-0.0046802391298115
1770454258903,-0.140167236328125,-0.99267578125,0.0160675048828125,-0.0378978475928306,-0.0046472162939608,-0.0076424730941653
1770454258913,-0.1444091796875,-0.9933319091796876,0.0153045654296875,-0.0292985010892152,-0.0105932559818029,-0.0069718891754746
1770454258923,-0.144805908203125,-0.988922119140625,0.0160980224609375,-0.0238696467131376,-0.0094837825745344,-0.0079548619687557
1770454258933,-0.147003173828125,-0.98486328125,0.0204315185546875,-0.0185680910944938,-0.0059439092874526,-0.0089141326025128
1770454258943,-0.1497650146484375,-0.9840240478515624,0.0211944580078125,-0.0144124953076243,-0.0052674664184451,-0.0096702044829726
1770454258953,-0.1502532958984375,-0.982177734375,0.0222625732421875,-0.010309362784028,-0.0050394996069371,-0.009026251733303
1770454258963,-0.148712158203125,-0.9827117919921876,0.022979736328125,-0.0061692125163972,-0.0058634816668927,-0.0129701271653175
1770454258973,-0.1494598388671875,-0.98486328125,0.0221405029296875,-0.0039350870065391,-0.0102132223546504,-0.0138878524303436
1770454258983,-0.1488494873046875,-0.9857330322265624,0.02325439453125,-0.006386260036379,-0.001865011639893,-0.0137815922498703
1770454258993,-0.1483917236328125,-0.984375,0.0250396728515625,-0.0085117295384407,0.0038149782922118,-0.0157251674681901
1770454259003,-0.1513671875,-0.9860382080078124,0.0248260498046875,-0.0052544167265295,6.0986389144090936e-05,-0.0194975342601537
1770454259013,-0.1503753662109375,-0.988006591796875,0.02197265625,-0.0007190534961409,-0.0022879217285662,-0.0215638820081949
1770454259023,-0.149810791015625,-0.98846435546875,0.0205230712890625,0.0050695934332907,-0.0033731597941368,-0.0267144348472356
1770454259033,-0.148040771484375,-0.9914093017578124,0.0191192626953125,0.0104001769796013,-0.008788963779807,-0.0241942852735519
1770454259044,-0.14697265625,-0.9912109375,0.018646240234375,0.0157608538866043,-0.0073188990354537,-0.0243279766291379
1770454259053,-0.146209716796875,-0.9885711669921876,0.0182037353515625,0.0160479415208101,-0.0079058595001697,-0.0243474170565605
1770454259064,-0.1479644775390625,-0.9852752685546876,0.0225372314453125,0.0164040066301822,-0.0082864258438348,-0.0262776762247085
1770454259073,-0.1509552001953125,-0.98309326171875,0.022186279296875,0.0180367901921272,-0.0076009281910955,-0.0298500414937734
1770454259084,-0.151947021484375,-0.982208251953125,0.0221710205078125,0.0207396335899829,-0.0110185630619525,-0.0308356769382953
1770454259094,-0.150360107421875,-0.9832763671875,0.02166748046875,0.0204554740339517,-0.0118768997490406,-0.0313240997493267
1770454259104,-0.1450653076171875,-0.9856109619140624,0.024139404296875,0.0197494700551033,-0.0144369965419173,-0.0294894482940435
1770454259114,-0.1422882080078125,-0.98895263671875,0.025177001953125,0.0184551738202571,-0.0163792390376329,-0.0306063778698444
1770454259124,-0.1421966552734375,-0.9912567138671876,0.02655029296875,0.0134052876383066,-0.0136460373178124,-0.0306449942290782
1770454259134,-0.14300537109375,-0.9913177490234376,0.029815673828125,0.0077790934592485,-0.007245129905641,-0.0294673442840576
1770454259144,-0.1393280029296875,-0.9915618896484376,0.0320587158203125,0.0033515882678329,-0.0056834518909454,-0.0258755385875701
1770454259154,-0.1399993896484375,-0.988311767578125,0.0313262939453125,0.0020029633305966,-0.008864065632224,-0.0275490693747997
1770454259164,-0.1401519775390625,-0.98388671875,0.03009033203125,0.0019382486352697,-0.0152098452672362,-0.029495308175683
1770454259174,-0.1407623291015625,-0.9885711669921876,0.029541015625,-0.0013733921805396,-0.0149190286174416,-0.0353308245539665
1770454259184,-0.1397705078125,-0.99591064453125,0.0282135009765625,-0.0012727247085422,-0.0090233227238059,-0.0325499549508094
1770454259194,-0.1354217529296875,-0.9936676025390624,0.0274200439453125,0.0033920682035386,-0.0147168943658471,-0.0358373597264289
1770454259204,-0.14117431640625,-0.989166259765625,0.02691650390625,0.0078318240121006,-0.0228999890387058,-0.0394584611058235
1770454259214,-0.14605712890625,-0.9799652099609376,0.0243682861328125,0.0109032476320862,-0.0258728768676519,-0.0471557937562465
1770454259224,-0.1472015380859375,-0.981536865234375,0.0257415771484375,0.0095165399834513,-0.0254425089806318,-0.0506503954529762
1770454259234,-0.145233154296875,-0.99493408203125,0.0294036865234375,0.0062373895198106,-0.0191609114408493,-0.0446345806121826
1770454259244,-0.1385498046875,-0.9913177490234376,0.028778076171875,0.0080776335671544,-0.0214933082461357,-0.0457909256219863
1770454259254,-0.1383209228515625,-0.9752197265625,0.028717041015625,0.0127738518640398,-0.0300782732665538,-0.0524762570858001
1770454259264,-0.14385986328125,-0.97076416015625,0.031158447265625,0.0129932966083288,-0.0330937728285789,-0.0537905283272266
1770454259274,-0.1434783935546875,-0.9694061279296876,0.039337158203125,0.0033569145016372,-0.0327502228319644,-0.0520469546318054
1770454259285,-0.1380462646484375,-0.977203369140625,0.0446929931640625,-0.0097234677523374,-0.0303147621452808,-0.0489145442843437
1770454259294,-0.133148193359375,-0.9873046875,0.047332763671875,-0.0290108788758516,-0.0232134442776441,-0.0444851778447628
1770454259305,-0.1291961669921875,-0.9950103759765624,0.0485687255859375,-0.047950480133295,-0.0168074760586023,-0.0394768342375755
1770454259315,-0.1268310546875,-0.9953460693359376,0.04638671875,-0.068109281361103,-0.0154868140816688,-0.0328636728227138
1770454259325,-0.1267852783203125,-0.9940643310546876,0.0439300537109375,-0.0858848169445991,-0.0117088537663221,-0.0278745088726282
1770454259335,-0.1271820068359375,-0.9955596923828124,0.03826904296875,-0.1057735681533813,-0.0079106539487838,-0.0238880217075347
1770454259345,-0.127655029296875,-0.993011474609375,0.0333404541015625,-0.1184867024421691,-0.0075854817405343,-0.0243780445307493
1770454259355,-0.13037109375,-0.9928741455078124,0.0271453857421875,-0.1242135614156723,-0.0093668699264526,-0.0279940832406282
1770454259365,-0.13671875,-0.993988037109375,0.0222930908203125,-0.1219413504004478,-0.0073122414760291,-0.0336660854518413
1770454259375,-0.1384429931640625,-0.9922943115234376,0.0139923095703125,-0.1122037693858146,-0.0120220417156815,-0.0384576432406902
1770454259385,-0.1403961181640625,-0.993927001953125,0.0079345703125,-0.0939637795090675,-0.0175499655306339,-0.0453701429069042
1770454259395,-0.14141845703125,-0.994049072265625,0.0043792724609375,-0.0760193988680839,-0.0150684313848614,-0.0506394766271114
1770454259405,-0.1402130126953125,-0.991119384765625,-0.0005035400390625,-0.0576268099248409,-0.0130601422861218,-0.0537178218364715
1770454259416,-0.136871337890625,-0.9896392822265624,-0.0020904541015625,-0.037398237735033,-0.0102438488975167,-0.0514805018901824
1770454259425,-0.1318359375,-0.9882354736328124,-0.0032501220703125,-0.0136556243523955,-0.0138313937932252,-0.0485520884394645
1770454259435,-0.12322998046875,-0.9876861572265624,-0.003875732421875,0.0065918564796447,-0.0157880168408155,-0.0401138626039028
1770454259445,-0.12005615234375,-0.9850616455078124,-0.0010833740234375,0.0257381200790405,-0.0116276275366544,-0.0350732989609241
1770454259455,-0.1200714111328125,-0.98236083984375,-0.0006866455078125,0.0442196577787399,-0.0093074813485145,-0.0261189527809619
1770454259465,-0.1195220947265625,-0.9821624755859376,-0.001953125,0.0613078325986862,-0.0101165501400828,-0.0188967250287532
1770454259475,-0.12213134765625,-0.9852447509765624,0.00091552734375,0.0720550194382667,-0.0163885597139596,-0.0120492056012153
1770454259485,-0.1174774169921875,-0.9912261962890624,0.00701904296875,0.0724361166357994,-0.0115900766104459,-0.0095628788694739
1770454259495,-0.115478515625,-0.9983062744140624,0.0114288330078125,0.0780790895223617,-0.0026146916206926,-0.0034748925827443
1770454259505,-0.115997314453125,-0.9958648681640624,0.016815185546875,0.0839082151651382,-0.0018402442801743,-0.0046677226200699
1770454259516,-0.1223602294921875,-0.986785888671875,0.0194091796875,0.089330144226551,-0.0024642229545861,-0.0093567501753568
1770454259525,-0.129608154296875,-0.988861083984375,0.0207672119140625,0.0890771448612213,0.0037681066896766,-0.015501994639635
1770454259536,-0.1306304931640625,-0.988372802734375,0.0246124267578125,0.0886813998222351,0.0074376761913299,-0.0190999247133731
1770454259546,-0.1295623779296875,-0.9849090576171876,0.026031494140625,0.0895024538040161,0.0058243330568075,-0.0205936916172504
1770454259556,-0.1294708251953125,-0.989532470703125,0.02777099609375,0.0905416160821914,0.0049377670511603,-0.0241735130548477
1770454259566,-0.12921142578125,-0.9907379150390624,0.0269317626953125,0.090739220380783,0.0030740867368876,-0.0224123653024435
1770454259576,-0.1287689208984375,-0.9897613525390624,0.0284423828125,0.0875298455357551,0.0044381581246852,-0.0203196518123149
1770454259586,-0.126708984375,-0.9920806884765624,0.028167724609375,0.0820591822266578,0.0062104915268719,-0.0170660689473152
1770454259596,-0.12530517578125,-0.9929046630859376,0.0294952392578125,0.0723833888769149,0.0044578653760254,-0.0129584092646837
1770454259606,-0.1245269775390625,-0.992828369140625,0.0336761474609375,0.0619355402886867,0.0026461167726665,-0.0110878050327301
1770454259616,-0.1231536865234375,-0.990936279296875,0.0403289794921875,0.0533372573554515,0.0057604173198342,-0.008428905159235
1770454259626,-0.12274169921875,-0.98992919921875,0.04290771484375,0.0414843261241912,0.0035657063126564,-0.0077529945410788
1770454259636,-0.1219635009765625,-0.9884185791015624,0.045684814453125,0.0330317206680774,0.0055875782854855,-0.0047659929841756
1770454259646,-0.1240692138671875,-0.9879150390625,0.0457763671875,0.0252169389277696,0.0081295650452375,-0.006663495209068
1770454259656,-0.127166748046875,-0.9864654541015624,0.0438232421875,0.0194914098829031,0.0026972496416419,-0.0069274147972464
1770454259666,-0.12750244140625,-0.9853515625,0.0437469482421875,0.0153054529801011,-0.0024141555186361,-0.0063875918276607
1770454259677,-0.128082275390625,-0.9878692626953124,0.0423126220703125,0.0101719433441758,-0.0011904330458492,-0.0045422874391078
1770454259686,-0.13031005859375,-0.9870147705078124,0.0428619384765625,0.0033174997661262,0.0022064289078116,-0.0014056164072826
1770454259696,-0.1285858154296875,-0.986114501953125,0.0432281494140625,-0.0019574232865124,0.0050165965221822,-0.0023137542884796
1770454259706,-0.129119873046875,-0.987091064453125,0.0399322509765625,-0.0050184605643153,0.0042059300467371,-0.0026807379908859
1770454259716,-0.130279541015625,-0.9872589111328124,0.0391387939453125,-0.0085815042257308,0.0011843077372759,-0.0043630567379295
1770454259726,-0.1286773681640625,-0.98626708984375,0.03692626953125,-0.0100100236013531,-0.0034993935842067,-0.005437109619379
1770454259737,-0.1262664794921875,-0.987762451171875,0.0388336181640625,-0.0133994286879897,-0.0037902109324932,-0.005257346201688
1770454259747,-0.1248779296875,-0.9893035888671876,0.0393829345703125,-0.0216690767556428,-0.0038288265932351,-0.0047153928317129
1770454259757,-0.12322998046875,-0.9906005859375,0.0389862060546875,-0.0257479734718799,-0.0017805894603952,-0.0049034119583666
1770454259767,-0.1213531494140625,-0.98846435546875,0.0386199951171875,-0.031869251281023,0.0036200347822159,-0.0020343887154012
1770454259777,-0.12274169921875,-0.9855194091796876,0.035980224609375,-0.0352282933890819,0.0036799560766667,0.0046245791018009
1770454259787,-0.1177978515625,-0.9835205078125,0.0354766845703125,-0.0411738008260726,-0.0017387778498232,0.0097644804045557
1770454259797,-0.1171875,-0.983123779296875,0.0403594970703125,-0.0540264844894409,0.000761397765018,0.0116409435868263
1770454259807,-0.121002197265625,-0.9887847900390624,0.0455169677734375,-0.064833328127861,0.0202762428671121,0.0153648415580391
1770454259817,-0.122955322265625,-0.9913482666015624,0.0403594970703125,-0.0664440020918846,0.0356647856533527,0.0157502014189958
1770454259827,-0.126739501953125,-0.9927978515625,0.0293426513671875,-0.059277705848217,0.0334615521132946,0.0113607784733176
1770454259837,-0.1307525634765625,-0.998077392578125,0.0145416259765625,-0.0394328944385051,0.0243948213756084,0.0095498291775584
1770454259847,-0.128662109375,-0.99676513671875,0.0023956298828125,-0.0155134461820125,0.0090377032756805,0.0119304293766617
1770454259857,-0.1298065185546875,-0.9961395263671876,-0.0016021728515625,0.0086933569982647,-0.0013289173366501,0.0073157036677002
1770454259867,-0.1334381103515625,-0.9907073974609376,0.0041656494140625,0.0303328726440668,-0.008542088791728,0.0015108112711459
1770454259877,-0.13677978515625,-0.9856414794921876,0.009490966796875,0.0455919876694679,-0.0092462291941046,-0.0060139503329992
1770454259887,-0.1380157470703125,-0.9853057861328124,0.0153656005859375,0.0520160645246505,-0.0074531226418912,-0.0112539865076541
1770454259897,-0.1308746337890625,-0.991180419921875,0.02191162109375,0.0563940331339836,-0.000875114754308,-0.0070371367037296
1770454259907,-0.1240081787109375,-0.9952545166015624,0.024383544921875,0.0629235729575157,-0.0018255969043821,-0.0040850229561328
1770454259917,-0.121368408203125,-0.99139404296875,0.0298309326171875,0.0685015618801117,-0.0072938655503094,-0.0044605284929275
1770454259927,-0.1244659423828125,-0.986114501953125,0.0347900390625,0.0672176554799079,-0.0048440238460898,-0.0093900393694639
1770454259937,-0.1256561279296875,-0.9794464111328124,0.0384674072265625,0.0627198368310928,0.0034011229872703,-0.0120646525174379
1770454259948,-0.12872314453125,-0.984893798828125,0.0430145263671875,0.0562571473419666,0.0050091398879885,-0.0107378652319312
1770454259958,-0.12493896484375,-0.994171142578125,0.0444183349609375,0.0488674081861972,0.0136372484266757,-0.0059886504895985
1770454259968,-0.124298095703125,-0.981109619140625,0.0424041748046875,0.0472676455974578,0.0180349275469779,-0.0083183832466602
1770454259978,-0.12908935546875,-0.9789886474609376,0.0378875732421875,0.0539287440478801,0.0162934865802526,-0.0107754161581397
1770454259988,-0.133941650390625,-0.973907470703125,0.0329742431640625,0.0646983012557029,0.005011270288378,-0.0161581970751285
1770454259998,-0.1364288330078125,-0.97528076171875,0.031890869140625,0.0683588162064552,-0.0021819279063493,-0.0172943025827407
1770454260008,-0.1325836181640625,-0.98388671875,0.0362396240234375,0.0637632682919502,-0.0017401094082742,-0.0137938428670167
1770454260018,-0.124664306640625,-0.9933013916015624,0.0441436767578125,0.053472813218832,0.0004127899592276,-0.0071399346925318
1770454260028,-0.1219482421875,-0.999114990234375,0.0497283935546875,0.0384744219481945,0.0069071743637323,-0.0037899445742368
1770454260038,-0.1198577880859375,-0.996612548828125,0.0492095947265625,0.0252307876944541,0.0126894302666187,-4.5273736759554595e-06
1770454260048,-0.1198272705078125,-0.9972076416015624,0.04583740234375,0.0136897135525941,0.0064304685220122,0.0054160705767571
1770454260058,-0.1204986572265625,-0.995880126953125,0.043182373046875,0.0037571876309812,-0.0032256206031888,0.0085069350898265
1770454260068,-0.122955322265625,-0.9937896728515624,0.0442352294921875,-0.0075806877575814,-0.0077817565761506,0.0076073193922638
1770454260078,-0.1263275146484375,-0.99359130859375,0.047454833984375,-0.0148830758407711,-0.010317618958652,0.0080648502334952
1770454260088,-0.1276702880859375,-0.9910736083984376,0.0474853515625,-0.0222909245640039,-0.0100323939695954,0.0073577812872827
1770454260098,-0.127349853515625,-0.99163818359375,0.0498199462890625,-0.0261740796267986,-0.0080890851095318,0.0043758400715887
1770454260108,-0.12615966796875,-0.9938507080078124,0.0497894287109375,-0.028401281684637,-0.0050224554724991,0.0027217506431043
1770454260118,-0.124114990234375,-0.989990234375,0.0497589111328125,-0.0302364658564329,0.002184324664995,0.0009123989730142
1770454260128,-0.1254119873046875,-0.9876708984375,0.04638671875,-0.0317613929510116,0.0045758434571325,1.0386328540334944e-05
1770454260138,-0.125213623046875,-0.9885711669921876,0.0433349609375,-0.0316801667213439,0.0039041941054165,0.0046791741624474
1770454260148,-0.12335205078125,-0.990325927734375,0.040435791015625,-0.0293666776269674,0.0084081320092082,0.0079093221575021
1770454260159,-0.1229400634765625,-0.9887847900390624,0.0368804931640625,-0.0271053873002529,0.0127245839685201,0.0118641164153814
1770454260169,-0.1218719482421875,-0.98504638671875,0.0359649658203125,-0.0208677314221858,0.0097919106483459,0.0126755814999341
1770454260179,-0.123046875,-0.9833221435546876,0.03338623046875,-0.0134809212759137,0.0078153125941753,0.0130042154341936
1770454260189,-0.1273040771484375,-0.986541748046875,0.0313568115234375,-0.0062219430692493,0.0069559104740619,0.0099189430475234
1770454260199,-0.12957763671875,-0.9962158203125,0.03131103515625,-0.009114402346313,0.00341949891299,0.0054490938782691
1770454260209,-0.1251373291015625,-1.0010223388671875,0.0321807861328125,-0.0085085332393646,0.0092912362888455,0.0087966872379183
1770454260219,-0.125946044921875,-1.001861572265625,0.03271484375,-0.0068661617115139,0.0096259955316782,0.0074872109107673
1770454260229,-0.1313323974609375,-0.9909820556640624,0.0351104736328125,-0.0035915391054004,0.0041193775832653,0.0020940436515957
1770454260239,-0.1345062255859375,-0.988128662109375,0.0345001220703125,0.0010042780777439,0.0049390983767807,-0.0047545414417982
1770454260249,-0.134979248046875,-0.9842681884765624,0.034393310546875,0.0041670482605695,0.0078163780272006,-0.0097146788612008
1770454260259,-0.1312408447265625,-0.980987548828125,0.0348968505859375,0.0087005468085408,0.0033688987605273,-0.0116358837112784
1770454260269,-0.126922607421875,-0.984130859375,0.0382232666015625,0.0095394430682063,-0.0005302353529259,-0.0089370356872677
1770454260279,-0.125396728515625,-0.9887237548828124,0.0388946533203125,0.0071828118525445,0.0005222458858042,-0.0044477451592683
1770454260289,-0.1244049072265625,-0.9856719970703124,0.0413818359375,-0.0002450108295306,0.0012450277572497,-0.0029864688403904
1770454260299,-0.12152099609375,-0.989166259765625,0.0431671142578125,-0.0077319554984569,-0.0022695458028465,0.0027928571216762
1770454260309,-0.1202545166015625,-0.9923553466796876,0.0434112548828125,-0.0125362984836101,0.0017784589435905,0.004252269398421
1770454260319,-0.1216888427734375,-0.990966796875,0.0437164306640625,-0.0212453678250312,0.0103059010580182,0.0056344498880207
1770454260329,-0.1254425048828125,-0.99078369140625,0.0414276123046875,-0.0241181198507547,0.0145057057961821,0.004585696849972
1770454260339,-0.1268310546875,-0.9911041259765624,0.03802490234375,-0.0201675854623317,0.0121043333783745,0.0030096382834017
1770454260349,-0.129608154296875,-0.9893035888671876,0.03253173828125,-0.0118990037590265,0.0084454165771603,0.0006980145117267
1770454260359,-0.13134765625,-0.9891357421875,0.031005859375,-0.0035228293854743,0.0009579390170983,0.0001203748834086
1770454260370,-0.1309661865234375,-0.9883270263671876,0.031280517578125,0.006230198778212,-0.0055905077606439,0.0014652712270617
1770454260379,-0.1280670166015625,-0.9862518310546876,0.032196044921875,0.0129219237715005,-0.0074952007271349,0.002224538475275
1770454260390,-0.12738037109375,-0.98590087890625,0.0360260009765625,0.0148814776912331,-0.0068200891837477,0.0031265511643141
1770454260400,-0.1297760009765625,-0.988677978515625,0.0407867431640625,0.0123514747247099,0.0004881574132014,0.003835484618321
1770454260410,-0.127838134765625,-0.9897613525390624,0.0419769287109375,0.0097618168219923,0.0040884846821427,0.0027912592049688
1770454260420,-0.1262054443359375,-0.987701416015625,0.0432586669921875,0.0070547135546803,0.0019979034550487,0.0033414682839065
1770454260430,-0.126007080078125,-0.98529052734375,0.0414276123046875,0.0062618907541036,0.0015507587231695,0.0025787388440221
1770454260440,-0.127105712890625,-0.9854888916015624,0.0400543212890625,0.008437693119049,-0.0023398532066494,0.000811465200968
1770454260450,-0.1266937255859375,-0.988189697265625,0.03955078125,0.0082334289327263,-0.0031590417493134,0.00332708703354
1770454260460,-0.126495361328125,-0.98651123046875,0.0394744873046875,0.0055822520516812,0.0007422229973599,0.0029079054947942
1770454260470,-0.1281280517578125,-0.9863433837890624,0.0407257080078125,0.0024969798978418,0.0069529809989035,0.0028541097417473
1770454260480,-0.130279541015625,-0.98486328125,0.041961669921875,-0.0030234868172556,0.0038131140172481,0.0047012781724333
1770454260490,-0.1288909912109375,-0.9839019775390624,0.0452117919921875,-0.0085570029914379,0.0016660735709592,0.0034647725988179
1770454260500,-0.1293182373046875,-0.985015869140625,0.04559326171875,-0.0123589318245649,0.0034850125666707,0.0032826124224811
1770454260510,-0.129547119140625,-0.987213134765625,0.044891357421875,-0.0138255339115858,0.0024522386956959,0.0033537186682224
1770454260520,-0.127349853515625,-0.9919586181640624,0.0418701171875,-0.0191704984754323,0.0025331987999379,0.0037140443455427
1770454260530,-0.1271820068359375,-0.9938507080078124,0.04168701171875,-0.0197726394981145,0.0030703584197908,0.0044048684649169
1770454260540,-0.124664306640625,-0.9951324462890624,0.0399017333984375,-0.0233876146376132,0.0032261533197015,0.006517554167658
1770454260550,-0.1240692138671875,-0.9947052001953124,0.0382232666015625,-0.0235399473458528,-0.0001496696495451,0.0083018718287348
1770454260560,-0.1259918212890625,-0.9902496337890624,0.0381927490234375,-0.0218642856925725,0.0020881847012788,0.010201770812273
1770454260570,-0.1285247802734375,-0.98480224609375,0.0367889404296875,-0.0181662198156118,0.0016045545926317,0.007743140682578
1770454260580,-0.129913330078125,-0.982452392578125,0.035858154296875,-0.0186716876924037,0.0028855351265519,0.0076339510269463
1770454260590,-0.1299591064453125,-0.991851806640625,0.033294677734375,-0.0124827688559889,0.008511196821928,0.0086411591619253
1770454260601,-0.1256866455078125,-0.996063232421875,0.03076171875,-0.0046727824956178,0.0062456452287733,0.0122065991163253
1770454260611,-0.1261138916015625,-0.9927215576171876,0.0274658203125,0.0040615871548652,-0.0018841864075511,0.013065468519926
1770454260621,-0.128326416015625,-0.99237060546875,0.0303955078125,0.0103405220434069,-0.0030985879711806,0.0089309103786945
1770454260631,-0.12896728515625,-0.98822021484375,0.033233642578125,0.0157563257962465,0.0050847735255956,0.0017725999932736
1770454260641,-0.133636474609375,-0.9781646728515624,0.0334930419921875,0.021223796531558,0.0054331147111952,-0.0091839106753468
1770454260651,-0.133331298828125,-0.987762451171875,0.036712646484375,0.0259066987782716,0.002560895634815,-0.0072046495042741
1770454260661,-0.130401611328125,-0.9865875244140624,0.0372467041015625,0.0295296628028154,0.006156163290143,-0.0080541977658867
1770454260671,-0.132415771484375,-0.9831390380859376,0.03631591796875,0.0340194851160049,0.0089956251904368,-0.011127752251923
1770454260681,-0.1346282958984375,-0.972076416015625,0.0386810302734375,0.0403024144470691,-0.0014210627414286,-0.0146646965295076
1770454260691,-0.13543701171875,-0.96942138671875,0.042755126953125,0.0429581180214881,-0.0040221721865236,-0.0196858197450637
1770454260701,-0.133209228515625,-0.9799652099609376,0.0464630126953125,0.0374714769423007,0.0022525016684085,-0.0153105128556489
1770454260711,-0.126556396484375,-0.9878997802734376,0.0506744384765625,0.0233292914927005,0.0088752508163452,-0.0098672779276967
1770454260721,-0.1220703125,-0.9947052001953124,0.0518341064453125,0.0127671938389539,0.0129312444478273,-0.0025350630749017
1770454260731,-0.121551513671875,-0.9952392578125,0.04974365234375,-0.0005573995877057,0.0098678106442093,0.0033707630354911
1770454260741,-0.1243743896484375,-0.9965667724609376,0.0448150634765625,-0.0120803648605942,0.0017518273089081,0.0045926212333142
1770454260751,-0.12469482421875,-0.9981536865234376,0.0449066162109375,-0.0217287316918373,-0.0047934236936271,0.0090022832155227
1770454260761,-0.1247100830078125,-0.9973297119140624,0.0451507568359375,-0.0311576537787914,-0.0011105381418019,0.0132654719054698
1770454260771,-0.12640380859375,-0.995208740234375,0.04473876953125,-0.0365950278937816,0.0013395700370892,0.008758071810007
1770454260781,-0.1293792724609375,-0.9940032958984376,0.04486083984375,-0.0363255180418491,-0.0056850500404834,0.0105362636968493
1770454260791,-0.130096435546875,-0.9924468994140624,0.044525146484375,-0.0353830233216285,-0.0070549799129366,0.0086030755192041
1770454260802,-0.1312713623046875,-0.9930419921875,0.04119873046875,-0.0304079726338386,-0.0061982409097254,0.003377953544259
1770454260811,-0.130401611328125,-0.988739013671875,0.0418548583984375,-0.0273354835808277,-0.0088004153221845,0.0042727757245302
1770454260822,-0.1281890869140625,-0.987030029296875,0.0407867431640625,-0.0247958935797214,-0.003933488857001,0.0040812944062054
1770454260832,-0.126922607421875,-0.9875030517578124,0.0407867431640625,-0.0229995921254158,-8.52211524033919e-05,0.0053502907976508
1770454260842,-0.1256561279296875,-0.98480224609375,0.0385589599609375,-0.0176769979298114,0.0001936118060257,0.0055148741230368
1770454260852,-0.1258087158203125,-0.9862823486328124,0.0366058349609375,-0.0136265959590673,0.0021840583067387,0.0064238109625875
1770454260862,-0.12677001953125,-0.9854278564453124,0.03582763671875,-0.0091466270387172,-1.4647385796706658e-05,0.0071106399409472
1770454260872,-0.1266937255859375,-0.9857635498046876,0.034423828125,-0.0007464840309694,-0.0035385421942919,0.0055953012779355
1770454260882,-0.1298980712890625,-0.985687255859375,0.03485107421875,0.0045396243222057,-0.0038994003552943,0.0043265712447464
1770454260892,-0.13275146484375,-0.9928131103515624,0.0366363525390625,-0.0010649980977177,0.0006743124104104,0.0016993631143122
1770454260902,-0.13153076171875,-0.99554443359375,0.038482666015625,-0.0056869140826165,0.010259561240673,0.0011789813870564
1770454260912,-0.126739501953125,-0.9988250732421876,0.038055419921875,-0.008812665939331,0.0143602974712848,0.0081458110362291
1770454260922,-0.12890625,-0.99493408203125,0.03826904296875,-0.0075026573613286,0.0072216941043734,0.0062831956893205
1770454260932,-0.13287353515625,-0.9863128662109376,0.0366363525390625,-0.00534043693915,0.003450924064964,0.0040522660128772
1770454260942,-0.1326904296875,-0.9835205078125,0.037933349609375,-0.0032908681314438,0.0059082228690385,-0.0016053534345701
1770454260952,-0.131591796875,-0.982208251953125,0.034942626953125,-0.0002980077115353,0.0068174260668456,-2.583266177680343e-05
1770454260962,-0.1270599365234375,-0.98394775390625,0.0363006591796875,0.0018993664998561,0.005838181823492,-3.435477628954686e-05
1770454260972,-0.127838134765625,-0.9868621826171876,0.0362701416015625,0.0059939767234027,0.0053367083892226,-0.0001866875973064
1770454260982,-0.129180908203125,-0.9843597412109376,0.0362548828125,0.0081522027030587,0.0025401229504495,-0.0036493295338004
1770454260992,-0.132049560546875,-0.9855499267578124,0.0369415283203125,0.0074869445525109,0.0021792647894471,-0.0018399780383333
1770454261002,-0.130828857421875,-0.9886627197265624,0.036041259765625,0.0036416065413504,0.0051124701276421,0.0012157330056652
1770454261012,-0.1282958984375,-0.99267578125,0.03802490234375,0.0017643441678956,0.0066637615673244,0.0010620686225593
1770454261023,-0.1273956298828125,-0.9924774169921876,0.0392303466796875,0.0031103058718144,0.0085900258272886,0.0021486382465809
1770454261033,-0.12921142578125,-0.9931488037109376,0.0391082763671875,0.0067572384141385,0.0055138086900115,-7.270430069183931e-05
1770454261043,-0.1288604736328125,-0.9908447265625,0.038482666015625,0.0084166545420885,0.0019462381023913,-0.0001302285818383
1770454261053,-0.128631591796875,-0.988616943359375,0.0384521484375,0.0130612067878246,0.0009443568997085,-5.326322025211994e-06
1770454261063,-0.13006591796875,-0.98675537109375,0.039642333984375,0.0126313725486397,0.0013161342358216,0.002004028763622
1770454261073,-0.1302032470703125,-0.9881134033203124,0.04071044921875,0.0154207674786448,0.0016732640797272,0.0022636868525296
1770454261083,-0.13037109375,-0.9886932373046876,0.0418548583984375,0.014429273083806,-0.0007811051327735,0.0026865969412028
1770454261093,-0.129974365234375,-0.9875335693359376,0.0452880859375,0.0113698337227106,0.0034690336324274,0.0017393104499205
1770454261103,-0.130645751953125,-0.9869232177734376,0.046173095703125,0.0077173081226646,0.0035198999103158,0.0023039006628096
1770454261113,-0.1293487548828125,-0.9867706298828124,0.04595947265625,0.0036397422663867,0.0029071066528558,0.0023542344570159
1770454261123,-0.1307373046875,-0.9861602783203124,0.04486083984375,0.0038663772866129,0.0026525084394961,0.0015395734226331
1770454261133,-0.1303253173828125,-0.9848785400390624,0.042449951171875,0.0035894084721803,0.0049348375760018,-0.001114000333473
1770454261143,-0.1310272216796875,-0.98492431640625,0.03936767578125,0.0063010388985276,-0.0014191985828801,-0.003443733556196
1770454261153,-0.1301422119140625,-0.98492431640625,0.0411834716796875,0.004504204262048,0.0006604639347642,-0.0002886866568587
1770454261163,-0.128509521484375,-0.9864349365234376,0.0438385009765625,0.0031539816409349,0.0017060210229828,-0.0014937670202925
1770454261173,-0.1285858154296875,-0.9891204833984376,0.0446319580078125,-0.0027361316606402,0.0039023298304528,-0.0029286781791597
1770454261183,-0.128875732421875,-0.9886016845703124,0.04644775390625,-0.0075644426979124,0.0053966296836733,-0.0026940538082271
1770454261193,-0.1300048828125,-0.9878082275390624,0.0446929931640625,-0.0123227126896381,0.0074041201733052,-0.0019941749051213
1770454261203,-0.1312408447265625,-0.9854583740234376,0.04412841796875,-0.0121791679412126,0.0088792452588677,-0.0014120079576969
1770454261213,-0.13128662109375,-0.9877166748046876,0.0428009033203125,-0.0145357996225357,0.0035017905756831,-0.0023105584550648
1770454261223,-0.1302642822265625,-0.98944091796875,0.0427703857421875,-0.0169813800603151,0.0033241575583815,0.0001720402069622
1770454261233,-0.1273651123046875,-0.9912261962890624,0.044708251953125,-0.0214134138077497,0.0072853434830904,0.000745951430872
1770454261244,-0.126190185546875,-0.9966583251953124,0.0438995361328125,-0.0243391618132591,0.0089972233399748,0.0025694177020341
1770454261254,-0.1259613037109375,-0.993621826171875,0.042144775390625,-0.0234896130859851,0.0065985140390694,0.0051241880282759
1770454261264,-0.128021240234375,-0.9894866943359376,0.0371856689453125,-0.0186794120818376,0.0042147189378738,0.003353452309966
1770454261274,-0.1332550048828125,-0.9835205078125,0.0353546142578125,-0.011847604997456,-0.0016759273130446,0.0005488775204867
1770454261284,-0.135009765625,-0.98065185546875,0.0362396240234375,-0.0098856538534164,-0.0051279165782034,-0.0033427998423576
1770454261294,-0.1344146728515625,-0.9852447509765624,0.0377960205078125,-0.009720804169774,0.0057604173198342,-0.0050874366424977
1770454261304,-0.1296844482421875,-0.9919891357421876,0.036865234375,-0.0062768044881522,0.0142612271010875,-0.0016266588354483
1770454261314,-0.1244659423828125,-0.99267578125,0.0357513427734375,-7.483482477255166e-05,0.0087681915611028,0.0026346652302891
1770454261324,-0.12579345703125,-0.99859619140625,0.036773681640625,0.0063742762431502,0.0006479470757767,0.0008615325787104
1770454261334,-0.127288818359375,-0.983673095703125,0.035003662109375,0.0093146720901131,-0.0013153352774679,-0.0036525253672152
1770454261344,-0.132476806640625,-0.9817352294921876,0.0370635986328125,0.0138268657028675,-0.0003510046226438,-0.0084677869454026
1770454261354,-0.13214111328125,-0.9923858642578124,0.042572021484375,0.0109431948512792,0.0044346959330141,-0.0071314126253128
1770454261364,-0.1287689208984375,-0.99041748046875,0.043212890625,0.0089615369215607,0.0114784901961684,-0.0103572998195886
1770454261374,-0.129669189453125,-0.98046875,0.0426177978515625,0.0159771014004945,0.0143299372866749,-0.0132601456716656
1770454261384,-0.13433837890625,-0.9755859375,0.0402679443359375,0.0246432945132255,0.0063071642071008,-0.0196099206805229
1770454261394,-0.137359619140625,-0.97247314453125,0.0394287109375,0.0315888188779354,-0.0014021543320268,-0.0222352650016546
1770454261404,-0.134674072265625,-0.9808502197265624,0.0407867431640625,0.0303563084453344,-0.0022876553703099,-0.018338793888688
1770454261414,-0.1280059814453125,-0.985626220703125,0.0450592041015625,0.024009995162487,0.0010165285784751,-0.0162641908973455
1770454261424,-0.1251983642578125,-0.9908905029296876,0.04815673828125,0.013047625310719,0.0043516051955521,-0.0098803276196122
1770454261434,-0.1256561279296875,-0.9959259033203124,0.0491180419921875,0.0007368966471403,0.0017832526937127,-0.0050576091744005
1770454261444,-0.1257476806640625,-0.9958648681640624,0.0489959716796875,-0.0122521389275789,-0.0001019990668282,-0.0024245418608188
1770454261455,-0.124298095703125,-0.99517822265625,0.0466766357421875,-0.0250606127083301,-1.3582121027866378e-05,0.0034658377990126
1770454261465,-0.1240386962890625,-0.995452880859375,0.0449981689453125,-0.0344013832509517,-0.0021302625536918,0.0039758333005011
1770454261475,-0.1255035400390625,-0.9935150146484376,0.0453338623046875,-0.0401106663048267,-0.0003667172859422,0.0046381615102291
1770454261485,-0.12872314453125,-0.9921417236328124,0.0454254150390625,-0.0430151112377643,0.0054435012862086,0.0047364318743348
1770454261495,-0.131683349609375,-0.9936065673828124,0.044830322265625,-0.0392041280865669,0.0003810983616858,0.0034756914246827
1770454261505,-0.1317901611328125,-0.992431640625,0.0436248779296875,-0.0344447940587997,-0.0055790562182664,0.002166481455788
1770454261515,-0.1296234130859375,-0.990570068359375,0.0415802001953125,-0.0291139427572488,-0.0044922200031578,-0.0017739315517246
1770454261525,-0.1277923583984375,-0.9903717041015624,0.0401611328125,-0.0231671035289764,-0.0023917849175632,0.0007981493836268
1770454261535,-0.1266021728515625,-0.98785400390625,0.0390625,-0.0201902221888303,0.0002218413137597,-0.0002814961189869
1770454261545,-0.1268463134765625,-0.986572265625,0.036407470703125,-0.0137240681797266,0.0008319715270772,-0.0003225088003091
1770454261555,-0.128204345703125,-0.9870452880859376,0.0361175537109375,-0.0065987803973257,-0.0021813951898366,0.0009861685102805
1770454261565,-0.12530517578125,-0.9871673583984376,0.0339813232421875,0.0018508969806134,-0.0002127865736838,0.0017382452497258
1770454261575,-0.1273345947265625,-0.988067626953125,0.03240966796875,0.0067090354859828,-0.0019321233266964,-0.0006764429272152
1770454261585,-0.1281890869140625,-0.986114501953125,0.0347442626953125,0.0134039558470249,0.00027563716867,-0.0020780644845217
1770454261595,-0.1284027099609375,-0.9873809814453124,0.0384063720703125,0.0139781339094042,0.0046181874349713,-0.0029997846577316
1770454261605,-0.1310882568359375,-0.9932708740234376,0.0378875732421875,0.0080539314076304,0.0084201162680983,-0.0059151472523808
1770454261615,-0.1290740966796875,-0.995208740234375,0.0378570556640625,0.0026525084394961,0.0101101584732532,0.0014695322606712
1770454261625,-0.123504638671875,-0.9974822998046876,0.0395355224609375,0.0007752461824566,0.0076145101338624,0.0052837114781141
1770454261635,-0.127410888671875,-0.9904022216796876,0.04052734375,0.0009584716754034,0.0026865969412028,0.003738012863323
1770454261645,-0.130645751953125,-0.986083984375,0.0402374267578125,-0.0020809939596801,0.002035453915596,0.0004285026225261
1770454261656,-0.12847900390625,-0.9820404052734376,0.0427703857421875,-0.0038900794461369,0.0067543089389801,-0.0004282362933736
1770454261666,-0.128143310546875,-0.9837188720703124,0.0415496826171875,-0.0039899479597806,0.0128329740837216,-0.0026431872975081
1770454261676,-0.12677001953125,-0.9860382080078124,0.0406341552734375,-7.190534688561456e-06,0.0077623156830668,-0.0036418726667761
1770454261686,-0.12750244140625,-0.9866790771484376,0.0401763916015625,0.0001653822982916,0.0031752870418131,-0.0039713056758046
1770454261696,-0.1295928955078125,-0.9842071533203124,0.0381927490234375,0.0009326389990746,0.0039800941012799,-0.0038352182600647
1770454261706,-0.131134033203125,-0.9867401123046876,0.03851318359375,0.0004119910299777,0.0010026801610365,-0.0060946443118155
1770454261716,-0.1290130615234375,-0.9897613525390624,0.0398406982421875,-0.0027459852863103,0.0064405887387692,-0.0027079021092504
1770454261726,-0.1261138916015625,-0.993560791015625,0.0397796630859375,-0.0053529539145529,0.0055311191827058,-0.003132942598313
1770454261736,-0.1267547607421875,-0.9960479736328124,0.0409088134765625,-0.0080249030143022,0.0036501286085695,0.0014908375451341
1770454261746,-0.12713623046875,-0.99090576171875,0.0428314208984375,-0.0121778370812535,0.0098374504595994,0.0033326798584312
1770454261756,-0.1286468505859375,-0.990509033203125,0.0442962646484375,-0.0139744048938155,0.0106409266591072,0.0010652644559741
1770454261766,-0.1272430419921875,-0.98895263671875,0.0453033447265625,-0.0109136337414383,0.0056493636220693,0.0006338323582895
1770454261776,-0.126373291015625,-0.9880828857421876,0.042144775390625,-0.0043042008765041,0.0038892803713679,-0.0007294398383237
1770454261786,-0.1280670166015625,-0.9886016845703124,0.040771484375,-0.0002860235108528,0.0011829761788249,0.0002466087171342
1770454261796,-0.12933349609375,-0.9888458251953124,0.040130615234375,0.0017861821688711,-0.0013715279055759,-0.0010977550409734
1770454261806,-0.1299285888671875,-0.988067626953125,0.0400390625,0.0034067155793309,0.0007813714328221,0.0017984326696023
1770454261816,-0.1300811767578125,-0.9879302978515624,0.0395965576171875,0.0026471822056919,0.0037816886324435,-0.0006008091149851
1770454261826,-0.1298828125,-0.985198974609375,0.038909912109375,0.0006796387024223,0.0049588060937821,0.0029499835800379
1770454261836,-0.1295013427734375,-0.987060546875,0.039398193359375,0.0018037590198218,0.0010439591715112,-0.0011132013751193
1770454261846,-0.1298828125,-0.98687744140625,0.0392303466796875,0.0020964404102414,-0.0002082591963699,-0.0018748653819784
1770454261856,-0.12957763671875,-0.985748291015625,0.04205322265625,-0.0006404902087524,0.0014897723449394,-0.0022090920247137
1770454261867,-0.128387451171875,-0.9878387451171876,0.044281005859375,-0.0027726169209927,0.0018439727136865,-0.0021752698812633
1770454261876,-0.125457763671875,-0.9917449951171876,0.044403076171875,-0.0055907741189002,0.0024730113800615,-0.0024836640805006
1770454261887,-0.1271820068359375,-0.9921417236328124,0.0443115234375,-0.0091660674661397,0.0020301276817917,-0.0038823562208563
1770454261897,-0.128631591796875,-0.9905242919921876,0.0442047119140625,-0.0117176426574587,0.0053750579245388,0.0008138620178215
1770454261907,-0.1292877197265625,-0.986724853515625,0.0432586669921875,-0.0128060765564441,0.0063633569516241,-0.0005949501646682
1770454261917,-0.128662109375,-0.9850921630859376,0.0418243408203125,-0.0135096833109855,0.0037361485883593,-0.0005217132274992
1770454261927,-0.1293792724609375,-0.987518310546875,0.0415802001953125,-0.0143049033358693,0.0046136602759361,-0.0009611348505131
1770454261937,-0.1269989013671875,-0.989349365234375,0.0426025390625,-0.0159547310322523,0.0108598377555608,-0.0021201425697654
1770454261947,-0.12664794921875,-0.9913177490234376,0.042266845703125,-0.0158644504845142,0.0097895134240388,-0.0027574370615184
1770454261957,-0.1277313232421875,-0.99261474609375,0.038665771484375,-0.0129919648170471,0.0061516356654465,-0.0011502192355692
1770454261967,-0.127593994140625,-0.992706298828125,0.0360107421875,-0.0087945563718676,0.007389472797513,0.0013148026773706
1770454261977,-0.1272125244140625,-0.992645263671875,0.03314208984375,-0.0046805054880678,0.0015824503498151,0.0027659591287374
1770454261987,-0.12908935546875,-0.9875030517578124,0.0346832275390625,-0.0004383563064038,-0.0023976438678801,0.0009147958480753
1770454261997,-0.1320953369140625,-0.98162841796875,0.0360565185546875,0.0052187303081154,-0.0023624901659786,-6.258428766159341e-05
1770454262007,-0.1331634521484375,-0.9813995361328124,0.0384521484375,0.0072677666321396,-0.0041745048947632,-0.006793990265578
1770454262017,-0.1324310302734375,-0.9874114990234376,0.0401611328125,0.0064304685220122,-0.0024895230308175,-0.0064741447567939
1770454262027,-0.125244140625,-0.99639892578125,0.041351318359375,0.0030698257032781,0.004448277875781,-0.000989097985439
1770454262037,-0.1206512451171875,-0.99920654296875,0.0445404052734375,0.0015358449891209,0.0021784657146781,0.0011965582380071
1770454262047,-0.1231842041015625,-0.9987945556640624,0.04608154296875,7.616640505148098e-05,-0.0040924795903265,0.0010881676571443
1770454262057,-0.125640869140625,-0.9808807373046876,0.0447998046875,-0.0021912488155066,-0.0010607370641082,-0.0067766797728836
1770454262067,-0.131988525390625,-0.9754638671875,0.0445556640625,-0.0048594698309898,0.0017864484107121,-0.00963931158185
1770454262077,-0.131317138671875,-0.9944915771484376,0.0464935302734375,-0.0132417697459459,0.0087884319946169,-0.005715409759432
1770454262088,-0.1248931884765625,-0.99072265625,0.0467987060546875,-0.0116952722892165,0.0114830182865262,-0.0084294378757476
1770454262098,-0.128082275390625,-0.978179931640625,0.041656494140625,-0.0077585871331393,0.0080459425225853,-0.0148375360295176
1770454262108,-0.13214111328125,-0.976226806640625,0.0400848388671875,-0.0004242415598127,0.0009416937828063,-0.0152330147102475
1770454262118,-0.1334075927734375,-0.973052978515625,0.0427093505859375,-0.0006016080733388,0.0008511462947353,-0.0190783534198999
1770454262128,-0.1325225830078125,-0.98077392578125,0.0445709228515625,-0.0049484195187687,0.0028828717768192,-0.0161289032548666
1770454262138,-0.1271514892578125,-0.9864959716796876,0.0462799072265625,-0.0099162803962826,0.008413191884756,-0.0134423058480024
1770454262148,-0.1255035400390625,-0.9917449951171876,0.0450439453125,-0.0157909467816352,0.0138931786641478,-0.0064507089555263
1770454262158,-0.123443603515625,-0.995452880859375,0.0413665771484375,-0.0194107163697481,0.0111453291028738,-0.0002841592940967
1770454262168,-0.1239166259765625,-0.9963836669921876,0.03619384765625,-0.0222011767327785,0.0077466028742492,0.0015140071045607
1770454262178,-0.1248931884765625,-0.99493408203125,0.0328521728515625,-0.0241253096610307,0.0032788838725537,0.0032778186723589
1770454262188,-0.1266937255859375,-0.9929351806640624,0.0312347412109375,-0.02574397996068,-0.0031771510839462,0.004104730207473
1770454262198,-0.1273345947265625,-0.9941253662109376,0.033843994140625,-0.0243146605789661,-0.0049798446707427,0.0039286953397095
1770454262208,-0.129180908203125,-0.9957427978515624,0.03704833984375,-0.0209196619689464,-0.0060520335100591,0.0043505397625267
1770454262218,-0.1290130615234375,-0.995208740234375,0.0369415283203125,-0.0160359572619199,-0.0085815042257308,0.0031534489244222
1770454262228,-0.12921142578125,-0.991119384765625,0.0386810302734375,-0.0130066126585006,-0.0093511575832962,0.0005552690709009
1770454262238,-0.1273345947265625,-0.9888458251953124,0.0408782958984375,-0.0085825687274336,-0.0071191620081663,0.000356597272912
1770454262248,-0.1276397705078125,-0.988372802734375,0.0405426025390625,-0.0057079531252384,-0.0036746296100318,-0.0012013519881293
1770454262258,-0.126007080078125,-0.987823486328125,0.0414276123046875,-0.0039286953397095,0.0016743293963372,-0.0005864280392415
1770454262269,-0.126678466796875,-0.989044189453125,0.0414581298828125,-0.0015640745405107,0.0047324374318122,-0.0011230550007894
1770454262278,-0.1262969970703125,-0.988494873046875,0.038604736328125,0.0047944886609911,0.0003022687742486,-0.0003928162623196
1770454262289,-0.1255340576171875,-0.9872894287109376,0.0372467041015625,0.00715351710096,-0.0012495551491156,0.0015667376574128
1770454262299,-0.1265411376953125,-0.9849090576171876,0.0357208251953125,0.0107360016554594,0.0002628540096338,0.0013728595804423
1770454262308,-0.1278076171875,-0.985626220703125,0.0373382568359375,0.0095082838088274,0.0018367822049185,0.0021222729701548
1770454262319,-0.1281585693359375,-0.98663330078125,0.039306640625,0.0105075016617774,0.0033680999185889,-0.0021502361632883
1770454262329,-0.128997802734375,-0.993194580078125,0.0392608642578125,0.0051500210538506,0.0049239182844758,-0.0049279131926596
1770454262339,-0.12774658203125,-0.99530029296875,0.0413818359375,0.0010420948965474,0.0086360983550548,-0.0008551410282962
1770454262349,-0.1233673095703125,-0.997802734375,0.0420989990234375,-0.0059742690064013,0.0096480995416641,0.0072821476496756
1770454262359,-0.1255340576171875,-0.99053955078125,0.0443878173828125,-0.0063684172928333,0.0061095575802028,0.0046336338855326
1770454262369,-0.1307220458984375,-0.98529052734375,0.04248046875,-0.0086784427985548,0.002911101328209,0.0017310547409579
1770454262379,-0.1305694580078125,-0.9808197021484376,0.0424346923828125,-0.0118180438876152,0.0087554082274436,0.00012463593157
1770454262389,-0.1278228759765625,-0.9823455810546876,0.042938232421875,-0.0127088706940412,0.0083418190479278,-0.0022778017446398
1770454262399,-0.1267852783203125,-0.9892425537109376,0.03985595703125,-0.0116579877212643,0.0018072210950776,-0.0013467605458572
1770454262409,-0.12591552734375,-0.986114501953125,0.039764404296875,-0.010668090544641,0.0059207398444414,-0.0033337450586259
1770454262419,-0.1279144287109375,-0.9864959716796876,0.038726806640625,-0.0114904744550585,0.0058898469433188,-0.0039622508920729
1770454262429,-0.130859375,-0.990081787109375,0.0395660400390625,-0.0108997859060764,0.0060509680770337,-0.0049585397355258
1770454262439,-0.12786865234375,-0.992095947265625,0.0402069091796875,-0.0115847503766417,0.0068698902614414,-0.004447478801012
1770454262449,-0.125396728515625,-0.9938812255859376,0.037872314453125,-0.0116760972887277,0.008232363499701,-0.0014271880500018
1770454262459,-0.1257476806640625,-0.9922332763671876,0.0364532470703125,-0.0083942832425236,0.0054592140950262,-0.0039183087646961
1770454262469,-0.1295318603515625,-0.9895477294921876,0.0348358154296875,-0.0038466698024421,0.0043918187730014,-0.0026264095213264
1770454262479,-0.1300811767578125,-0.99041748046875,0.0346221923828125,0.0007150587625801,0.002674879040569,-0.0027068369090557
1770454262489,-0.1268310546875,-0.988922119140625,0.03466796875,0.0057444386184215,0.0004335626144893,-0.0001683117734501
1770454262499,-0.127471923828125,-0.987945556640625,0.0372467041015625,0.0105756791308522,-0.0015033544041216,-0.0002431466127745
1770454262509,-0.126800537109375,-0.9857025146484376,0.0398712158203125,0.013360546901822,0.0008665926288813,-0.0006444850005209
1770454262520,-0.1296234130859375,-0.9876251220703124,0.040802001953125,0.0132652055472135,0.0018461032304912,-0.0007677893154323
1770454262530,-0.1271820068359375,-0.986083984375,0.0428466796875,0.0085159903392195,0.0052637378685176,-4.340952364145778e-05
1770454262540,-0.1271209716796875,-0.986358642578125,0.04498291015625,0.0056560216471552,0.0068176924251019,-0.0004969458677805
1770454262550,-0.1271209716796875,-0.9857177734375,0.042999267578125,0.0027081684675067,0.0067577711306512,-0.00042663840577
1770454262560,-0.126922607421875,-0.9869384765625,0.0421600341796875,0.0038221688009798,-0.0002945456071756,-0.0011257182341068
1770454262570,-0.1279144287109375,-0.989013671875,0.041351318359375,0.0028407939244061,-0.0021624867804348,-0.0032501218374818
1770454262580,-0.128387451171875,-0.987884521484375,0.04119873046875,0.0029241507872939,-0.0005139900604262,-0.0040458743460476
1770454262590,-0.12860107421875,-0.9886016845703124,0.041717529296875,-0.0014026869321241,0.0006306365248747,-0.001635979861021
1770454262600,-0.1280670166015625,-0.989166259765625,0.04302978515625,-0.0055106128565967,0.0007944209501147,-0.0033545177429914
1770454262610,-0.1278228759765625,-0.99371337890625,0.0459442138671875,-0.0109629025682806,0.0032410670537501,-0.0006772418855689
1770454262620,-0.1252899169921875,-0.9923248291015624,0.0461273193359375,-0.0169776510447263,0.0044205812737345,-0.0014335796004161
1770454262630,-0.1255645751953125,-0.990692138671875,0.04547119140625,-0.0193084497004747,0.0046829022467136,-0.0002921487612184
1770454262640,-0.1268768310546875,-0.986480712890625,0.0449981689453125,-0.020773721858859,0.0025803367607295,-0.0010109359864145
1770454262650,-0.127899169921875,-0.9857330322265624,0.0421905517578125,-0.0221018400043249,0.0041207089088857,0.0006498112925328
1770454262660,-0.126861572265625,-0.9849090576171876,0.0424346923828125,-0.0265804771333932,0.0124276410788297,0.0021190773695707
1770454262670,-0.126251220703125,-0.988494873046875,0.0400238037109375,-0.029284918680787,0.015787485986948,0.0036903421860188
1770454262680,-0.123077392578125,-0.9875640869140624,0.0431365966796875,-0.0192381422966718,0.0267895366996526,-0.0023246733471751
1770454262690,-0.12677001953125,-0.989471435546875,0.0320587158203125,0.0003182477375958,0.0021132184192538,-0.0056594833731651
1770454262700,-0.13330078125,-0.99139404296875,0.0222930908203125,0.0055995625443756,-0.0028146950062364,-0.0007856325246393
1770454262710,-0.1323699951171875,-0.9873504638671876,0.0268402099609375,0.0048091360367834,0.0036573191173374,0.0081202443689107
1770454262721,-0.1259307861328125,-0.9918670654296876,0.034637451171875,0.0078611187636852,0.0014173343079164,0.0056469668634235
1770454262730,-0.1232452392578125,-0.9913787841796876,0.0391082763671875,0.0167986880987882,0.0049311090260744,-0.0021571605466306
1770454262741,-0.1300506591796875,-0.9857177734375,0.0374603271484375,0.0255596879869699,0.0005177184939384,-0.0084038712084293
1770454262751,-0.133697509765625,-0.9814300537109376,0.03594970703125,0.0304774809628725,-0.000844222086016,-0.0127325728535652
1770454262761,-0.12884521484375,-0.9896392822265624,0.036895751953125,0.0246885679662227,0.0006945523782633,-0.0068294103257358
1770454262771,-0.1204376220703125,-1.0006103515625,0.039520263671875,0.0191047191619873,0.0062331282533705,-0.0007717840489931
1770454262781,-0.117645263671875,-0.9987640380859376,0.042999267578125,0.0185430571436882,0.0028586371336132,0.0041081923991441
1770454262791,-0.125396728515625,-0.9930267333984376,0.043853759765625,0.0175997670739889,-0.0041228397749364,-0.0036991306114941
1770454262801,-0.128997802734375,-0.9769439697265624,0.04229736328125,0.0214328542351722,0.000169643361005,-0.0098840557038784
1770454262811,-0.132171630859375,-0.974639892578125,0.0417938232421875,0.0193803552538156,0.0070696272887289,-0.0114523917436599
1770454262821,-0.1300201416015625,-0.998077392578125,0.046539306640625,0.0121189812198281,0.0102774044498801,-0.0040828920900821
1770454262831,-0.121978759765625,-0.9878692626953124,0.0467376708984375,0.0120715769007802,0.0107780788093805,-0.0108848717063665
1770454262841,-0.128692626953125,-0.979248046875,0.0440673828125,0.0178184118121862,0.0086286421865224,-0.0159299634397029
1770454262851,-0.136260986328125,-0.9792938232421876,0.0419158935546875,0.0230331476777791,3.462109361862531e-06,-0.02131088078022
1770454262861,-0.1368408203125,-0.97503662109375,0.0439453125,0.0250731296837329,-0.0047920919023454,-0.0218112897127866
1770454262871,-0.1325225830078125,-0.9799041748046876,0.0490875244140625,0.0190679673105478,-0.0025968484114855,-0.0178093574941158
1770454262881,-0.122711181640625,-0.9886322021484376,0.0544586181640625,0.0079985382035374,0.0059268651530146,-0.0094209322705864
1770454262891,-0.120758056640625,-0.9952239990234376,0.0552215576171875,-0.0060879862867295,0.0127831734716892,-0.0059220711700618
1770454262901,-0.1215057373046875,-0.994964599609375,0.0524139404296875,-0.015263108536601,0.0124782407656311,-0.001269262516871
1770454262911,-0.1224822998046875,-0.9951934814453124,0.0451507568359375,-0.0211617443710565,0.0031635691411793,0.000760865106713
1770454262921,-0.1205902099609375,-0.99444580078125,0.0397186279296875,-0.0272188372910022,-0.005681321490556,0.0034527883399277
1770454262932,-0.1207427978515625,-0.9912109375,0.039215087890625,-0.0338269397616386,-0.0030575753189623,0.0063977120444178
1770454262942,-0.123687744140625,-0.994110107421875,0.0399932861328125,-0.0372256636619567,-0.0028360001742839,0.0062203453853726
1770454262952,-0.1266021728515625,-0.993804931640625,0.042327880859375,-0.0366219282150268,-0.0031734227668493,0.0047960868105292
1770454262962,-0.12835693359375,-0.99334716796875,0.0435943603515625,-0.0304215550422668,-0.0003912183747161,0.0001280980504816
1770454262972,-0.1302490234375,-0.9935455322265624,0.0388946533203125,-0.0202631931751966,-0.0035444011446088,-0.0014732606941834
1770454262982,-0.129852294921875,-0.9899749755859376,0.0356292724609375,-0.0094595476984977,-0.0049982205964624,-0.0035750274546444
1770454262992,-0.1292724609375,-0.9893341064453124,0.035888671875,-0.0020876519847661,-0.0075846826657652,-0.0042962115257978
1770454263002,-0.12847900390625,-0.9878387451171876,0.0363922119140625,0.0017212009988725,-0.0070661650970578,-0.0032847428228706
1770454263012,-0.126251220703125,-0.987823486328125,0.0382232666015625,0.0055913068354129,-0.0032549153547734,-0.0015294534387066
1770454263022,-0.1214447021484375,-0.98992919921875,0.0408477783203125,0.0112356105819344,0.004757737275213,-0.0008045409340411
1770454263032,-0.1220703125,-0.9902496337890624,0.03936767578125,0.0156695079058408,0.0060754693113267,-0.0022929816041141
1770454263042,-0.1258087158203125,-0.9871063232421876,0.03717041015625,0.0268822144716978,0.004177700728178,-0.0019861855544149
1770454263052,-0.126251220703125,-0.985504150390625,0.0341033935546875,0.0327470265328884,0.0008599347202107,-0.0045124599710106
1770454263062,-0.1291656494140625,-0.98779296875,0.0367431640625,0.0338580980896949,-0.0023987090680748,-0.0030573089607059
1770454263072,-0.1293182373046875,-0.9947967529296876,0.0411224365234375,0.0264411941170692,-0.0033824809361249,-0.0068334047682583
1770454263082,-0.124298095703125,-0.995208740234375,0.0450897216796875,0.0155800245702266,0.0094488952308893,-0.0006761765689589
1770454263092,-0.1208343505859375,-0.998626708984375,0.048095703125,0.0131549499928951,0.0108553105965256,0.0040908819064497
1770454263102,-0.125823974609375,-0.9892730712890624,0.0491790771484375,0.0075308866798877,0.0034482609480619,0.0021385182626545
1770454263112,-0.1295166015625,-0.9842987060546876,0.047943115234375,0.0023592943325638,0.0039864857681095,-0.0004460794734768
1770454263122,-0.127593994140625,-0.983917236328125,0.04864501953125,-0.0015030881622806,0.0077396784909069,-0.006744721904397
1770454263133,-0.1277008056640625,-0.98260498046875,0.047576904296875,-0.0015369103057309,0.0043081957846879,-0.0040695765055716
1770454263142,-0.12396240234375,-0.9854583740234376,0.0463714599609375,-0.0033348102588206,0.0064808023162186,-0.0021134845446795
1770454263153,-0.1226959228515625,-0.9869384765625,0.0465545654296875,-0.0051159323193132,0.0086249131709337,-0.0029601035639643
1770454263163,-0.1253204345703125,-0.988372802734375,0.046112060546875,-0.0056469668634235,0.0064323330298066,-0.0045793056488037
1770454263173,-0.12518310546875,-0.987884521484375,0.0464630126953125,-0.0106140282005071,0.0045875613577663,-0.0006069344235584
1770454263183,-0.124481201171875,-0.990875244140625,0.0464935302734375,-0.0122854281216859,0.0040884846821427,7.74979853304103e-05
1770454263193,-0.1235504150390625,-0.9934234619140624,0.046600341796875,-0.0185433235019445,0.0024778051301836,0.0023529028985649
1770454263203,-0.1228485107421875,-0.992095947265625,0.0473480224609375,-0.0213026255369186,0.0022378542926162,0.0041036647744476
1770454263213,-0.1242523193359375,-0.9920196533203124,0.048309326171875,-0.0269541200250387,0.0054951664060354,0.001472728094086
1770454263223,-0.1264801025390625,-0.9911041259765624,0.0480804443359375,-0.0294684097170829,0.0076696374453604,0.0017891116440296
1770454263233,-0.1259918212890625,-0.9893798828125,0.0459747314453125,-0.0280012749135494,0.008101069368422,-0.000250603450695
1770454263243,-0.12774658203125,-0.98785400390625,0.0440216064453125,-0.0260531716048717,0.0055822520516812,0.0002468750171829
1770454263253,-0.1254730224609375,-0.986907958984375,0.0428009033203125,-0.0196938104927539,0.0025949841365218,0.001644235686399
1770454263263,-0.1262664794921875,-0.9888153076171876,0.0424041748046875,-0.0175691395998001,0.0046509443782269,0.0040085902437567
1770454263273,-0.12646484375,-0.98699951171875,0.04022216796875,-0.0178567618131637,0.006771087180823,0.0037848844658583
1770454263283,-0.1268157958984375,-0.9869537353515624,0.040924072265625,-0.0161097273230552,0.0044275051914155,0.0040011331439018
1770454263293,-0.1267547607421875,-0.9872283935546876,0.0396881103515625,-0.0105000454932451,0.0036333505995571,0.0065276739187538
1770454263303,-0.12701416015625,-0.9879150390625,0.0386810302734375,-0.0093852458521723,0.0033867419697344,0.0035582494456321
1770454263313,-0.12738037109375,-0.9893798828125,0.03668212890625,-0.0033787523861974,-0.0002551308425609,0.0024991102982312
1770454263323,-0.12890625,-0.988067626953125,0.0368804931640625,0.0009416937828063,-0.0044189831241965,-0.0021244036033749
1770454263333,-0.128021240234375,-0.9879913330078124,0.0369873046875,0.0024117587599903,0.0009922938188537,-0.0021891184151172
1770454263343,-0.127655029296875,-0.9902191162109376,0.0386962890625,0.002477272413671,0.0023315974976867,-0.0033393376506865
1770454263353,-0.1270294189453125,-0.9924163818359376,0.0420379638671875,0.0048208539374172,-0.0018271948210895,-0.0045188516378402
1770454263363,-0.126373291015625,-0.9900970458984376,0.0432586669921875,0.0027169568929821,-0.000242880283622,-0.0043247072026133
1770454263373,-0.12689208984375,-0.9870758056640624,0.045196533203125,-0.0008383630774915,0.0033095101825892,-0.0017219999572262
1770454263384,-0.126495361328125,-0.985992431640625,0.04412841796875,-0.0044219125993549,0.0097330547869205,-0.0009198558400385
1770454263394,-0.126678466796875,-0.98828125,0.0439605712890625,-0.0053899716585874,0.0057732006534934,-0.0004455468442756
1770454263404,-0.1260986328125,-0.9889678955078124,0.041290283203125,-0.0022493058349937,0.0040392163209617,0.0023260049056261
1770454263414,-0.1248016357421875,-0.9899749755859376,0.03997802734375,-0.0017243968322873,0.0019667444285005,-6.578007742064074e-05
1770454263424,-0.124603271484375,-0.9904632568359376,0.0403289794921875,-0.0019859191961586,0.0023438481148332,0.0012540825409814
1770454263434,-0.1252593994140625,-0.993438720703125,0.042510986328125,-0.0038394792936742,0.0014737932942807,0.0024319987278431
1770454263444,-0.1264801025390625,-0.992156982421875,0.0449676513671875,-0.0083812344819307,0.0017166736070066,0.0023118900135159
1770454263454,-0.126953125,-0.98858642578125,0.046600341796875,-0.0062760054133832,-0.0020610203500837,0.002281796419993
1770454263464,-0.1298065185546875,-0.98443603515625,0.0449066162109375,-0.0068214209750294,-0.0036354812327772,-0.0031129689887166
1770454263474,-0.131011962890625,-0.981658935546875,0.0446624755859375,-0.0090036150068044,7.829693640815094e-05,-0.00581288151443
1770454263484,-0.1275787353515625,-0.9872283935546876,0.0468292236328125,-0.0144178215414285,0.0041513354517519,-0.0057004964910447
1770454263494,-0.1205596923828125,-0.9969482421875,0.0465850830078125,-0.0193377453833818,0.0070336745120584,0.002331863855943
1770454263504,-0.11639404296875,-0.9988555908203124,0.046966552734375,-0.0194163080304861,0.0077785607427358,0.0102899214252829
1770454263514,-0.1206207275390625,-0.99468994140625,0.046844482421875,-0.0233639124780893,0.0092837791889905,0.0064533720724284
1770454263524,-0.1264190673828125,-0.9814453125,0.0457916259765625,-0.0268329456448555,0.0098747350275516,-0.0013145363191142
1770454263534,-0.130523681640625,-0.9748077392578124,0.0425567626953125,-0.024491760879755,0.0080363545566797,-0.0057862498797476
1770454263544,-0.130859375,-0.993011474609375,0.042510986328125,-0.0204530768096447,0.0051260525360703,-0.0038783615455031
1770454263554,-0.12310791015625,-0.9959259033203124,0.0394287109375,-0.0172282550483942,0.0041755703277885,-0.0051356400363147
1770454263564,-0.12481689453125,-0.97882080078125,0.0370330810546875,-0.0088147968053817,0.0047627971507608,-0.0146593702957034
1770454263574,-0.132415771484375,-0.9779510498046876,0.0365753173828125,-0.00121892883908,0.0014122743159532,-0.014954182319343
1770454263585,-0.1339111328125,-0.9729766845703124,0.0380859375,0.0048565403558313,-0.0031513185240328,-0.0161792356520891
1770454263594,-0.1323394775390625,-0.97857666015625,0.0415802001953125,0.0069729546085,-0.001071389648132,-0.0155137125402688
1770454263605,-0.12969970703125,-0.98492431640625,0.0428466796875,0.0020610203500837,0.0042517366819083,-0.009051552042365
1770454263615,-0.12213134765625,-0.99310302734375,0.044769287109375,-0.0062578958459198,0.0170397032052278,-0.001104412949644
1770454263625,-0.121307373046875,-0.9979248046875,0.04241943359375,-0.0154918739572167,0.0179499723017215,0.0010135991033166
1770454263635,-0.1221771240234375,-0.9987945556640624,0.0393524169921875,-0.0161107927560806,0.0057167415507137,0.0020048276055604
1770454263645,-0.1225128173828125,-0.99676513671875,0.0351715087890625,-0.0149448607116937,-0.0022426480427384,0.0021683457307517
1770454263655,-0.1248931884765625,-0.9957733154296876,0.0316925048828125,-0.0179033670574426,-0.0089511508122086,0.0016588830621913
1770454263665,-0.126373291015625,-0.9920806884765624,0.0344696044921875,-0.0177638176828622,-0.0113533223047852,0.0019941749051213
1770454263675,-0.1249542236328125,-0.9937744140625,0.0386962890625,-0.0175917763262987,-0.01174081210047,0.0009094694978557
1770454263685,-0.1263885498046875,-0.9945831298828124,0.0420074462890625,-0.0160434152930974,-0.0075745629146695,6.01874417043291e-05
1770454263695,-0.1281585693359375,-0.9915924072265624,0.0406951904296875,-0.0154860150068998,-0.0043156524188816,0.0003712446487043
1770454263705,-0.128326416015625,-0.9882049560546876,0.0403289794921875,-0.0108960568904876,-0.0001150485550169,0.0002077265671687
1770454263715,-0.1281280517578125,-0.9890899658203124,0.038909912109375,-0.0064805359579622,-0.002242381684482,-0.0014785870444029
1770454263725,-0.12579345703125,-0.988189697265625,0.037261962890625,3.99474156438373e-05,-0.0042847599834203,0.0016429040115326
1770454263735,-0.1242218017578125,-0.9879150390625,0.0390777587890625,0.0054893074557185,-0.0021933794487267,7.430219557136297e-05
1770454263745,-0.1250152587890625,-0.9892578125,0.0389556884765625,0.0069897323846817,-0.000397077325033,0.0023355921730399
1770454263755,-0.1211090087890625,-0.9880828857421876,0.0413970947265625,0.0064626927487552,0.0052634715102612,0.0026956517249345
1770454263765,-0.1217498779296875,-0.98980712890625,0.0423431396484375,0.0069005168043076,0.0068097030743956,0.0020514330826699
1770454263775,-0.12310791015625,-0.9886016845703124,0.0406036376953125,0.0121836960315704,0.003827495034784,-6.285060226218775e-05
1770454263786,-0.126861572265625,-0.9887542724609376,0.037933349609375,0.0155816227197647,-0.0011494202772155,-0.001013865461573
1770454263796,-0.1287841796875,-0.99444580078125,0.0391387939453125,0.0108132325112819,-0.0054893074557185,-0.0007824367494322
1770454263805,-0.123809814453125,-0.99566650390625,0.0408477783203125,-0.0019206717843189,0.0014346449170261,0.0040834248065948
1770454263816,-0.1200103759765625,-1.00006103515625,0.0443115234375,-0.0076800240203738,0.0088811097666621,0.0104110958054661
1770454263825,-0.1238555908203125,-0.9921112060546876,0.04541015625,-0.0120417494326829,0.006525277160108,0.0061993063427507
1770454263836,-0.1277923583984375,-0.9870758056640624,0.0467529296875,-0.0161829646676778,0.0074501931667327,0.0052480250597
1770454263846,-0.127899169921875,-0.983367919921875,0.0448150634765625,-0.0182623602449893,0.0099849896505475,0.0008045409340411
1770454263856,-0.1253662109375,-0.9828338623046876,0.04150390625,-0.0169448945671319,0.0103642242029309,0.0004330299852881
1770454263866,-0.1245269775390625,-0.9844970703125,0.0398712158203125,-0.0173129439353942,0.0075497953221201,0.0010791128734126
1770454263876,-0.1237030029296875,-0.9896087646484376,0.0388641357421875,-0.0155235659331083,0.005626194179058,0.0006865629111416
1770454263886,-0.1251373291015625,-0.9878082275390624,0.0394134521484375,-0.0157488696277141,0.0061194114387035,0.0006961502949707
1770454263896,-0.127227783203125,-0.987213134765625,0.037628173828125,-0.0174674075096845,0.0042165829800069,0.0025377261918038
1770454263906,-0.1270751953125,-0.9901580810546876,0.0385894775390625,-0.0199026018381118,0.0045883604325354,0.0041276332922279
1770454263916,-0.124481201171875,-0.9919281005859376,0.0394744873046875,-0.0194093845784664,0.0048600025475025,0.0021646174136549
1770454263926,-0.124603271484375,-0.9918212890625,0.0383758544921875,-0.0172522235661745,0.0071122380904853,0.001111869700253
1770454263936,-0.1252899169921875,-0.9909515380859376,0.039642333984375,-0.0148079749196767,0.0063596284016966,-0.0014002900570631
1770454263946,-0.1265716552734375,-0.990509033203125,0.0379486083984375,-0.0109730223193764,0.0047377636656165,-0.0024421187117695
1770454263956,-0.1271209716796875,-0.9882965087890624,0.038421630859375,-0.0066999807022511,0.0013558153295889,-0.0012468920322135
1770454263966,-0.12640380859375,-0.987640380859375,0.0367584228515625,-0.0033473272342234,0.0037449370138347,0.0007850998663343
1770454263976,-0.12744140625,-0.9888916015625,0.03839111328125,0.0008743157959543,0.0028876655269414,0.001882588607259
1770454263986,-0.12738037109375,-0.9878387451171876,0.0386962890625,0.0034751589410007,-0.0009616674506105,0.0036181707400828
1770454263996,-0.1263275146484375,-0.9864654541015624,0.040435791015625,0.0046165897510945,0.0022905848454684,0.0047888960689306
1770454264006,-0.1270294189453125,-0.984832763671875,0.039642333984375,0.0046386937610805,0.0054275221191346,0.0033302828669548
1770454264017,-0.12689208984375,-0.98760986328125,0.0390167236328125,0.0068688248284161,0.0009177253232337,-0.0001211738272104
1770454264027,-0.1265869140625,-0.986602783203125,0.03936767578125,0.0084523409605026,-0.0027651600539684,0.0007097324123606
1770454264036,-0.127227783203125,-0.987091064453125,0.0403289794921875,0.0103727458044886,0.0002223739429609,-0.0033182986080646
1770454264047,-0.127349853515625,-0.989349365234375,0.0402984619140625,0.0094707338139414,0.0009363674325868,-0.0030386666767299
1770454264057,-0.1253814697265625,-0.9885711669921876,0.040802001953125,0.0070999874733388,-0.0005563343293033,-0.0020431771408766
1770454264067,-0.123260498046875,-0.9909515380859376,0.04150390625,0.0043912860564887,0.0019694075454026,-0.0003358246176503
1770454264077,-0.1248626708984375,-0.9888916015625,0.04351806640625,-0.0011427623685449,0.0003368898760527,0.0039478698745369
1770454264087,-0.1251373291015625,-0.9869842529296876,0.045806884765625,-0.0058608185499906,0.0007259777048602,0.0040330910123884
1770454264097,-0.12628173828125,-0.986785888671875,0.046722412109375,-0.0091697964817285,0.0018056231783702,0.0047460193745791
1770454264107,-0.12713623046875,-0.98614501953125,0.047027587890625,-0.01449531968683,0.0037001960445195,0.0054869106970727
1770454264117,-0.1275482177734375,-0.988739013671875,0.0467529296875,-0.0207524169236421,0.002625344088301,0.0049433596432209
1770454264127,-0.1248931884765625,-0.9908905029296876,0.045501708984375,-0.024067785590887,0.0019592875614762,0.0039787627756595
1770454264137,-0.1237945556640625,-0.99163818359375,0.0441436767578125,-0.0278790351003408,0.0008703210623934,0.0025406556669622
1770454264147,-0.125030517578125,-0.9937896728515624,0.043304443359375,-0.030942203477025,0.0045095304958522,0.0010500843636691
1770454264157,-0.124847412109375,-0.9952392578125,0.0421905517578125,-0.0309419371187686,0.0092582134529948,0.0025044367648661
1770454264167,-0.125091552734375,-0.992889404296875,0.037200927734375,-0.0273658446967601,0.0074331490322947,0.0005147890187799
1770454264177,-0.128265380859375,-0.986114501953125,0.0353546142578125,-0.0219476427882909,0.0024152207188308,0.0024844629224389
1770454264187,-0.12884521484375,-0.980133056640625,0.0349273681640625,-0.0164628624916076,-0.0061321947723627,-0.0006585997180081
1770454264197,-0.1290130615234375,-0.9842987060546876,0.0361328125,-0.018870361149311,-0.0001909486454678,-0.0011219898005947
1770454264207,-0.127197265625,-0.99102783203125,0.038665771484375,-0.0221761427819728,0.0124675882980227,0.0011986887548118
1770454264217,-0.12359619140625,-0.9936981201171876,0.039154052734375,-0.020397949963808,0.0201734453439712,0.0078243669122457
1770454264228,-0.125030517578125,-0.99224853515625,0.0359039306640625,-0.0136556243523955,0.0109972571954131,0.0058115501888096
1770454264237,-0.1264801025390625,-0.9905548095703124,0.035125732421875,-0.0079418122768402,0.000735831388738,0.0017417073249816
1770454264248,-0.127197265625,-0.9830780029296876,0.032196044921875,-0.0009105347562581,0.0035097799263894,-0.0063247410580515
1770454264258,-0.128509521484375,-0.9812469482421876,0.032562255859375,0.0041044638492167,0.0062317969277501,-0.0065774749964475
1770454264268,-0.1261138916015625,-0.997650146484375,0.0357666015625,0.0070259515196084,0.0048051415942609,-0.0052203284576535
1770454264278,-0.12451171875,-0.98590087890625,0.0326995849609375,0.0146692236885428,0.0040306942537426,-0.0095149418339133
1770454264288,-0.128692626953125,-0.9814605712890624,0.0327606201171875,0.0213164743036031,0.0039992691017687,-0.0108664957806468
1770454264298,-0.1327972412109375,-0.9756622314453124,0.0348968505859375,0.0298966467380523,-0.002772883279249,-0.0156852193176746
1770454264308,-0.1352386474609375,-0.9753570556640624,0.037109375,0.0361742489039897,-0.0096321208402514,-0.019621904939413
1770454264318,-0.1345367431640625,-0.980438232421875,0.0408782958984375,0.0312703028321266,-0.0059428438544273,-0.017748637124896
1770454264328,-0.1268463134765625,-0.990264892578125,0.0470123291015625,0.0214741323143243,-0.000161920193932,-0.0131411021575331
1770454264338,-0.1202545166015625,-0.9964752197265624,0.0474090576171875,0.0085080005228519,0.00945102609694,-0.0045028729364275
1770454264348,-0.118804931640625,-0.99884033203125,0.0481719970703125,0.0002735066518653,0.0118755679577589,-0.0096078859642148
1770454264358,-0.1263580322265625,-1.0009002685546875,0.0408172607421875,-0.0088155958801507,0.0026517093647271,0.0044378917664289
1770454264368,-0.1160125732421875,-0.9872589111328124,0.039215087890625,-0.0183209497481584,0.0023742080666124,0.0100062955170869
1770454264378,-0.1201629638671875,-0.9980926513671876,0.0385589599609375,-0.0195971373468637,-0.0031276163645088,0.0088259819895029
1770454264388,-0.123626708984375,-0.9947662353515624,0.0394134521484375,-0.0179185457527637,-0.0102518387138843,0.0066576362587511
1770454264398,-0.129241943359375,-0.9931182861328124,0.039825439453125,-0.0214219354093074,-0.0117125827819108,0.0050730556249618
1770454264408,-0.1309967041015625,-0.99334716796875,0.0438995361328125,-0.0234984010457992,-0.0070041134022176,0.001880191732198
1770454264419,-0.1266326904296875,-0.9908599853515624,0.044952392578125,-0.0201217792928218,-0.005748433060944,0.0022554311435669
1770454264428,-0.1249847412109375,-0.9907379150390624,0.0448455810546875,-0.0169909670948982,-0.0026274747215211,-0.0031071100383996
1770454264438,-0.125335693359375,-0.987274169921875,0.0410919189453125,-0.01540984865278,-0.0016495619202032,-0.0007494135061278
1770454264448,-0.1251983642578125,-0.9857635498046876,0.041107177734375,-0.0114566525444388,0.0002444782003294,0.001637311419472
1770454264458,-0.1235809326171875,-0.98785400390625,0.0401763916015625,-0.0116926087066531,0.0038245655596256,0.004750280175358
1770454264469,-0.1257171630859375,-0.9873046875,0.0377349853515625,-0.0083170523867011,0.0043180491775274,0.0030463899020105
1770454264479,-0.1272430419921875,-0.9864501953125,0.0368804931640625,-0.0061742723919451,0.0027049726340919,0.0050770500674843
1770454264489,-0.128173828125,-0.9845428466796876,0.0381317138671875,-0.000135554902954,0.0007930893916636,0.0026921895332634
1770454264499,-0.1281280517578125,-0.986480712890625,0.0374908447265625,0.0040749027393758,0.0016434367280453,0.0009321063989773
1770454264509,-0.127960205078125,-0.9903564453125,0.0383758544921875,0.003566239029169,-0.0016791230300441,-0.0019012306584045
1770454264519,-0.12646484375,-0.9953155517578124,0.0374908447265625,-0.0037097833119332,0.0039372174069285,-0.0034543862566351
1770454264529,-0.123291015625,-1.00018310546875,0.0377044677734375,-0.0075410068966448,0.0126492157578468,0.0064709489233791
1770454264539,-0.122833251953125,-0.99530029296875,0.0379486083984375,-0.0087716532871127,0.0046562706120312,0.004831506870687
1770454264549,-0.1275787353515625,-0.988311767578125,0.039337158203125,-0.0096771279349923,0.0013542174128815,0.0032509206794202
1770454264559,-0.128387451171875,-0.98590087890625,0.03973388671875,-0.0112305497750639,0.0062088938429951,-0.0004881574132014
1770454264569,-0.1287078857421875,-0.9819793701171876,0.040618896484375,-0.0094438353553414,0.0091852424666285,-0.0023031015880405
1770454264579,-0.1281585693359375,-0.982391357421875,0.040496826171875,-0.0091290501877665,0.009687514975667,-0.0029260150622576
1770454264589,-0.12713623046875,-0.9861907958984376,0.0380859375,-0.007032343186438,0.0100912498310208,-0.0031406658235937
1770454264599,-0.126922607421875,-0.9854278564453124,0.0337677001953125,-0.0036067189648747,0.007578557357192,-0.0030141656752675
1770454264609,-0.1263885498046875,-0.9865570068359376,0.032440185546875,0.0011709919199347,0.0003478088474366,-0.0020072245970368
1770454264620,-0.1258544921875,-0.9909210205078124,0.0348358154296875,4.0746363083599135e-05,0.0021467742044478,-0.0030964573379606
1770454264629,-0.125732421875,-0.9928131103515624,0.0354766845703125,-0.0019318570848554,0.0006780407857149,-0.0004708468914031
1770454264639,-0.12384033203125,-0.9931182861328124,0.0386505126953125,-0.0026296053547412,0.0056762616150081,0.0028812738601118
1770454264650,-0.124908447265625,-0.9923248291015624,0.04010009765625,-0.0032008532434701,0.005740710068494,0.0003749730822164
1770454264659,-0.126312255859375,-0.9909210205078124,0.039794921875,0.0019057580502703,0.0067058396525681,-0.0023449133150279
1770454264670,-0.1277923583984375,-0.98944091796875,0.03814697265625,0.0031393342651426,0.0029302760958671,-0.0018570221727713
1770454264680,-0.12811279296875,-0.9872589111328124,0.0400543212890625,0.0064877266995608,0.0011661982862278,-0.0008594020619057
1770454264690,-0.128997802734375,-0.985076904296875,0.0404510498046875,0.0082534020766615,-0.0024993766564875,-7.137271313695237e-05
1770454264700,-0.1270294189453125,-0.9859161376953124,0.04278564453125,0.0097349192947149,-0.0008410262526012,0.0007267766632139
1770454264710,-0.1261444091796875,-0.9880828857421876,0.0427398681640625,0.0092917690053582,0.004341484978795,0.0010157296201214
1770454264720,-0.1272430419921875,-0.987823486328125,0.0416259765625,0.0063564330339431,0.0061207432299852,0.0006111954571679
1770454264730,-0.1250457763671875,-0.9872894287109376,0.04156494140625,0.006468285806477,0.0015981629258021,0.0025020397733896
1770454264740,-0.1257171630859375,-0.986480712890625,0.0410919189453125,0.0022077604662626,0.0008255799184553,0.0022319953422993
1770454264750,-0.125640869140625,-0.9874114990234376,0.0416107177734375,0.0022543659433722,-0.0005004079430364,0.0001075917098205
1770454264760,-0.126617431640625,-0.988372802734375,0.0433502197265625,-0.0026604980230331,0.0001211738272104,-0.0046671899035573
1770454264770,-0.1269378662109375,-0.98822021484375,0.0448455810546875,-0.0059090219438076,0.000720385054592,-0.0029811426065862
1770454264780,-0.126922607421875,-0.990875244140625,0.04498291015625,-0.0093354452401399,0.0005507417372427,-0.0043811663053929
1770454264790,-0.127105712890625,-0.99017333984375,0.0443572998046875,-0.0164423566311597,0.0007803061744198,0.001365402713418
1770454264800,-0.126678466796875,-0.9896087646484376,0.04400634765625,-0.017903633415699,0.0007299724384211,0.0012458267156034
1770454264810,-0.12689208984375,-0.9882049560546876,0.0429229736328125,-0.0203585345298051,-0.0014623417519032,-0.0001744370529195
1770454264820,-0.12750244140625,-0.9874267578125,0.0417022705078125,-0.0207769181579351,-0.0014903049450367,-0.0028189560398459
1770454264830,-0.12884521484375,-0.9872894287109376,0.041229248046875,-0.0233583189547061,0.0033409355673938,-0.0019941749051213
1770454264840,-0.1272735595703125,-0.988616943359375,0.041107177734375,-0.0238235741853714,0.0100971087813377,0.001333178486675
1770454264850,-0.1251983642578125,-0.9886322021484376,0.040313720703125,-0.027378361672163,0.0120518691837787,0.0017915084026753
1770454264860,-0.1246185302734375,-0.99224853515625,0.03662109375,-0.0264851376414299,0.0118116522207856,0.0017821873771026
1770454264871,-0.124542236328125,-0.9954833984375,0.0349578857421875,-0.0235175769776105,0.0070861391723155,0.0032703618053346
1770454264880,-0.1241302490234375,-0.9944610595703124,0.0327911376953125,-0.0156782958656549,0.0034658377990126,0.0043806335888803
1770454264891,-0.1242523193359375,-0.9887542724609376,0.0316925048828125,-0.0122955488041043,-0.0013390374369919,0.0030037793330848
1770454264901,-0.127593994140625,-0.9834136962890624,0.0337677001953125,-0.0065124942921102,0.0007667240570299,-0.0001544633414596
1770454264911,-0.1328887939453125,-0.98211669921875,0.0357208251953125,-0.0012527509825304,-0.000214650775888,-0.0018343853298574
1770454264921,-0.132904052734375,-0.9875030517578124,0.0360260009765625,-0.0014852449530735,-0.001030909596011,-0.0071678981184959
1770454264931,-0.12774658203125,-0.993682861328125,0.0354156494140625,0.0003278351214248,0.0067862668074667,-0.0010721886064857
1770454264941,-0.121826171875,-0.9937896728515624,0.0360107421875,0.0038099181838333,0.0058664111420512,0.0044061997905373
1770454264951,-0.121551513671875,-0.9916839599609376,0.03717041015625,0.0107115004211664,-0.0021635519806295,-0.002142779296264
1770454264961,-0.1250152587890625,-0.9816436767578124,0.0355224609375,0.0106917927041649,0.0027039074338972,-0.0073479278944432
1770454264971,-0.1312713623046875,-0.982208251953125,0.039764404296875,0.0071247546002268,0.0065465825609862,-0.0111834118142724
1770454264981,-0.1285858154296875,-0.9964141845703124,0.0433197021484375,0.0071865399368107,0.0084731131792068,-0.0077652451582252
1770454264991,-0.1226043701171875,-0.9894256591796876,0.0415191650390625,0.0067883976735174,0.0079213064163923,-0.010627344250679
1770454265001,-0.1265411376953125,-0.9799957275390624,0.0392913818359375,0.0118196411058306,0.0049596047028899,-0.0144814709201455
1770454265012,-0.13262939453125,-0.976226806640625,0.0377960205078125,0.0186234861612319,-0.0014583469601348,-0.0205849036574363
1770454265021,-0.1328582763671875,-0.976226806640625,0.0396728515625,0.0201239101588726,-0.0041105891577899,-0.0200171172618865
1770454265031,-0.130615234375,-0.98260498046875,0.0451812744140625,0.01506017614156,0.0042536007240414,-0.0145469848066568
1770454265041,-0.1254730224609375,-0.98883056640625,0.0470733642578125,0.0062395199202001,0.0106316050514578,-0.011634818278253
1770454265051,-0.122772216796875,-0.99456787109375,0.0477142333984375,-0.003874899353832,0.0087375650182366,-0.0062429821118712
1770454265061,-0.1228179931640625,-0.996124267578125,0.045501708984375,-0.0118830250576138,0.0077087860554456,-0.0029811426065862
1770454265071,-0.120941162109375,-0.994140625,0.042633056640625,-0.0220922529697418,0.0043548010289669,0.0011419634101912
1770454265081,-0.1229248046875,-0.9934234619140624,0.038055419921875,-0.0280979480594396,-0.00159443449229,-0.0003768372989725
1770454265092,-0.1231842041015625,-0.993408203125,0.03662109375,-0.0307675004005432,-0.0065196845680475,0.0022596921771764
1770454265102,-0.1243438720703125,-0.9943695068359376,0.0357818603515625,-0.0312415417283773,-0.0075282235629856,0.0048432247713208
1770454265112,-0.1254425048828125,-0.993011474609375,0.037506103515625,-0.0307565815746784,-0.006033391226083,0.0011997540714219
1770454265122,-0.1278076171875,-0.9927520751953124,0.0399322509765625,-0.0274507999420166,-0.0043843621388077,-0.0006293049664236
1770454265132,-0.1275787353515625,-0.9929351806640624,0.04071044921875,-0.0235849544405937,-0.0018192053539678,-0.0014013553736731
1770454265142,-0.1290740966796875,-0.990509033203125,0.0387725830078125,-0.0182700846344232,-0.0015318501973524,-0.0052405684255063
1770454265152,-0.1270751953125,-0.9881134033203124,0.03802490234375,-0.0139019675552845,-0.0017270599491894,-0.0035433357115834
1770454265162,-0.12432861328125,-0.98834228515625,0.035980224609375,-0.0059985038824379,-0.0050168628804385,0.0001749696821207
1770454265172,-0.1224822998046875,-0.9874267578125,0.035797119140625,-0.0033912693616002,-0.0015678029740229,0.0021494373213499
1770454265182,-0.122772216796875,-0.985443115234375,0.034637451171875,0.0016138756182044,0.0035981968976557,0.0037832865491509
1770454265192,-0.1240234375,-0.986663818359375,0.0357666015625,0.0068674935027956,0.0009853695519268,0.0019755328539758
1770454265202,-0.1255950927734375,-0.98663330078125,0.0349578857421875,0.0110052470117807,-0.0005720470217056,-2.7164242055732757e-05
1770454265212,-0.1270751953125,-0.9862518310546876,0.0365447998046875,0.0126609336584806,0.0039097866974771,-0.0012743226252496
1770454265222,-0.1294403076171875,-0.990386962890625,0.0378265380859375,0.0079007996246218,0.0047966195270419,-0.0009294432238675
1770454265232,-0.1268463134765625,-0.9948883056640624,0.039581298828125,0.0011134676169604,0.0074592479504644,-0.0032839439809322
1770454265242,-0.12164306640625,-0.999664306640625,0.040191650390625,-0.0025582325179129,0.0131829138845205,0.0002623213513288
1770454265252,-0.119873046875,-1.00146484375,0.0377960205078125,-3.408846168895252e-05,0.0050163301639258,0.0052349758334457
1770454265262,-0.1239471435546875,-0.9887237548828124,0.036407470703125,0.0008721852791495,-0.0005182511522434,0.0031467911321669
1770454265272,-0.12872314453125,-0.9847564697265624,0.0379791259765625,0.0018527611391618,-0.0014932344201952,-0.00038935415796
1770454265282,-0.1290130615234375,-0.98309326171875,0.0403594970703125,-0.0021358551457524,0.0027987160719931,-0.0022466427180916
1770454265292,-0.127838134765625,-0.9822845458984376,0.042205810546875,-0.0021718079224228,0.0058829230256378,-0.0039619845338165
1770454265302,-0.1280517578125,-0.9854583740234376,0.041107177734375,-0.0044488105922937,0.0111924670636653,-0.0034591800067573
1770454265313,-0.12725830078125,-0.9857025146484376,0.0407867431640625,-0.002691390691325,0.0072248894721269,-0.0029912625905126
1770454265323,-0.125946044921875,-0.987213134765625,0.0377044677734375,-0.0022679478861391,0.00135714688804,-0.0017270599491894
1770454265333,-0.125335693359375,-0.988525390625,0.037078857421875,-0.0038008634001016,0.0007368966471403,-0.0022852586116641
1770454265343,-0.123199462890625,-0.9923858642578124,0.0372772216796875,-0.0084235789254307,0.0061998390592634,-0.0009576727170497
1770454265353,-0.1217193603515625,-0.99359130859375,0.038909912109375,-0.0101200118660926,0.0051654670387506,-0.0020461066160351
1770454265363,-0.12286376953125,-0.9931182861328124,0.040435791015625,-0.012542157433927,0.0053505566902458,-0.0007981493836268
1770454265373,-0.1242828369140625,-0.99224853515625,0.04119873046875,-0.0131389712914824,0.0048834383487701,-0.0021302625536918
1770454265383,-0.1239166259765625,-0.9908447265625,0.039825439453125,-0.010013485327363,0.0073007899336516,-0.0001624528231332
1770454265393,-0.12738037109375,-0.9874420166015624,0.039398193359375,-0.0069532473571598,0.0056408415548503,0.0004114583716727
1770454265403,-0.1291961669921875,-0.9850921630859376,0.038604736328125,-0.0031156321056187,0.0023411849979311,0.0006460828590206
1770454265413,-0.1277618408203125,-0.9859619140625,0.0382537841796875,0.0024639565963298,-0.0025044367648661,0.001325188903138
1770454265423,-0.126495361328125,-0.9855804443359376,0.0360565185546875,0.0039747678674757,-0.0037627802230417,0.0012029499048367
1770454265433,-0.1260986328125,-0.985565185546875,0.0389404296875,0.0014937670202925,0.0069471220485866,0.0011779161868616
1770454265443,-0.124755859375,-0.989013671875,0.0410308837890625,-0.0012953615514561,0.0074904067441821,0.002510828198865
1770454265453,-0.1255950927734375,-0.9901885986328124,0.040008544921875,0.0029497172217816,0.0039731701835989,-0.0008958873804658
1770454265463,-0.12640380859375,-0.986846923828125,0.0372161865234375,0.003891411004588,0.0012311793398112,-0.003713778220117
1770454265473,-0.1271820068359375,-0.9866943359375,0.03692626953125,0.0036823528353124,-0.003687945427373,-0.0033776871860027
1770454265483,-0.1256256103515625,-0.98736572265625,0.0376739501953125,0.0038546593859791,-0.0057649449445307,-0.0024394555948674
1770454265494,-0.1258697509765625,-0.989349365234375,0.039886474609375,0.0026788737159222,-0.0019547601696103,-0.0069095715880393
1770454265503,-0.1274566650390625,-0.989471435546875,0.0398712158203125,0.0002615224220789,0.0011108045000582,-0.0067431237548589
1770454265513,-0.127655029296875,-0.9902801513671876,0.042205810546875,-0.0002016012876993,0.0046498794108629,-0.00734952557832
1770454265524,-0.12823486328125,-0.9898529052734376,0.0410919189453125,-0.0013715279055759,0.0045811696909368,-0.0053135389462113
1770454265534,-0.1261444091796875,-0.9864654541015624,0.0401611328125,-0.0042994073592126,0.0014684670604765,-0.0017318536993116
1770454265544,-0.1236419677734375,-0.9864044189453124,0.0402679443359375,-0.0046725161373615,0.0030008498579263,-0.0012756541837006
1770454265554,-0.1263580322265625,-0.9882354736328124,0.0417633056640625,-0.0052541503682732,0.0067923921160399,-0.0011001517996191
1770454265564,-0.124725341796875,-0.987762451171875,0.0407867431640625,-0.0099154813215136,0.0059449742548167,0.0009329052991233
1770454265574,-0.1253662109375,-0.9896392822265624,0.041961669921875,-0.0109506519511342,0.0044426852837204,0.0003712446487043
1770454265584,-0.123016357421875,-0.99005126953125,0.0403594970703125,-0.0097311902791261,0.004807005636394,-0.0003763046697713
1770454265594,-0.1227874755859375,-0.9935150146484376,0.0399017333984375,-0.0102635566145181,0.0013299826532602,1.4381069377122913e-05
1770454265604,-0.121734619140625,-0.9945831298828124,0.03985595703125,-0.0124201839789748,-0.0063814665190875,0.0039350870065391
1770454265614,-0.121063232421875,-0.9927520751953124,0.0391693115234375,-0.0094211986288428,-0.0019603527616709,0.0036791570018976
1770454265624,-0.1273956298828125,-0.987030029296875,0.0394439697265625,-0.0102560995146632,0.0037143107037991,0.0024085629265755
1770454265634,-0.1309661865234375,-0.9825286865234376,0.03900146484375,-0.0089420955628156,0.0002527339966036,-0.0015100123127922
1770454265644,-0.130889892578125,-0.9851837158203124,0.0381317138671875,-0.004480502102524,0.0004644552827812,-0.0051801144145429
1770454265654,-0.1245880126953125,-0.9914398193359376,0.0364990234375,-0.0034836810082197,0.0078688422217965,-0.0016152071766555
1770454265664,-0.12054443359375,-0.9932861328125,0.0349884033203125,-0.0010277138790115,0.0060842577368021,0.0010282464791089
1770454265674,-0.123504638671875,-0.9931640625,0.03814697265625,-0.0001549959706608,0.0008194546680897,-0.0022359900176525
1770454265684,-0.1270751953125,-0.98211669921875,0.0401763916015625,0.0016623451374471,0.0024386565200984,-0.0081759048625826
1770454265694,-0.130706787109375,-0.9810028076171876,0.0404205322265625,-0.0017819210188463,0.0095769930630922,-0.0107711553573608
1770454265704,-0.1286163330078125,-0.9931182861328124,0.0402679443359375,-0.0041966093704104,0.0121346935629844,-0.0073186331428587
1770454265714,-0.120941162109375,-0.9962310791015624,0.0400238037109375,0.0009824400767683,0.0110880713909864,-0.0080081252381205
1770454265724,-0.1214447021484375,-0.979644775390625,0.0373687744140625,0.0063527044840157,0.0080310283228755,-0.0139251369982957
1770454265734,-0.1302642822265625,-0.976654052734375,0.0337066650390625,0.0155086517333984,0.0014564828015863,-0.0178173463791608
1770454265745,-0.1329803466796875,-0.974700927734375,0.0362091064453125,0.0212086159735918,0.0029760824982076,-0.0188935305923223
1770454265755,-0.13201904296875,-0.9780120849609376,0.0405426025390625,0.0203023422509431,0.0024892566725611,-0.0187579747289419
1770454265765,-0.1270599365234375,-0.986968994140625,0.044097900390625,0.0161898881196975,0.0053012883290648,-0.0139022329822182
1770454265775,-0.1229248046875,-0.994964599609375,0.044189453125,0.0101964445784688,0.0094177369028329,-0.0075724320486187
1770454265785,-0.120635986328125,-0.99810791015625,0.0445709228515625,0.0034184334799647,0.0098566254600882,-0.0026695525739341
1770454265795,-0.1214141845703125,-0.9991302490234376,0.043426513671875,-0.0052485577762126,0.002951847622171,0.001506017637439
1770454265805,-0.120758056640625,-0.99591064453125,0.041046142578125,-0.0141632230952382,-0.0024181501939892,0.0019648801535367
1770454265815,-0.1208038330078125,-0.99359130859375,0.0402069091796875,-0.0227724239230155,-0.0034304177388548,0.0020799287594854
1770454265825,-0.1224517822265625,-0.99176025390625,0.0422515869140625,-0.0273464024066925,-0.0007382282637991,0.0034562505315989
1770454265835,-0.123626708984375,-0.9916534423828124,0.0434417724609375,-0.0291466992348432,0.0003976099542342,0.0025246767327189
1770454265845,-0.12677001953125,-0.99163818359375,0.040283203125,-0.0270438678562641,-0.0015574166318401,0.0006591323763132
1770454265855,-0.1276702880859375,-0.99139404296875,0.0379791259765625,-0.0203595999628305,-0.0057335193268954,-0.0015478292480111
1770454265865,-0.1267547607421875,-0.98895263671875,0.037567138671875,-0.0150082446634769,-0.0070943948812782,-0.0048253815621137
1770454265875,-0.1268768310546875,-0.9888916015625,0.0382843017578125,-0.0113690346479415,-0.0075833513401448,-0.0061223409138619
1770454265886,-0.1251678466796875,-0.985198974609375,0.039459228515625,-0.0100057628005743,-0.0036962011363357,-0.001390702673234
1770454265895,-0.1239166259765625,-0.987335205078125,0.04278564453125,-0.0100536989048123,0.0003291667089797,-0.0033587787766009
1770454265905,-0.123046875,-0.9884796142578124,0.043060302734375,-0.0078153125941753,0.0024152207188308,-0.0016799219883978
1770454265916,-0.1236572265625,-0.98846435546875,0.0416259765625,-0.0082579301670193,0.0082294335588812,-0.0002261023764731
1770454265925,-0.125152587890625,-0.989776611328125,0.0377349853515625,-0.0023949807509779,0.0066629624925553,0.0007470166892744
1770454265935,-0.1244354248046875,-0.9871826171875,0.033660888671875,0.0040131174027919,0.0047076698392629,0.0024895230308175
1770454265945,-0.1236419677734375,-0.988433837890625,0.03375244140625,0.0081918835639953,-0.0003968109958805,0.0008884305134415
1770454265956,-0.1232147216796875,-0.9936065673828124,0.03564453125,0.0062650865875184,0.0010495517635717,0.0002215749991592
1770454265966,-0.1213531494140625,-0.998809814453125,0.0382232666015625,-0.0008261125767603,0.0094957668334245,0.0002569950302131
1770454265976,-0.1193695068359375,-1.003265380859375,0.039459228515625,-0.0039691752754151,0.0113892750814557,0.0063399211503565
1770454265986,-0.1215362548828125,-0.9915924072265624,0.0421295166015625,-0.0055257929489016,0.0063002402894198,0.0028077706228941
1770454265996,-0.1275787353515625,-0.9854583740234376,0.0416259765625,-0.0067657604813575,0.0058235344476997,0.0014418354257941
1770454266006,-0.1292572021484375,-0.98382568359375,0.0390167236328125,-0.0070129018276929,0.0062842611223459,-0.0006450176006183
1770454266016,-0.127166748046875,-0.982391357421875,0.0388031005859375,-0.0056834518909454,0.0049851713702082,-0.0018415758386254
1770454266026,-0.125518798828125,-0.9857940673828124,0.04052734375,-0.0025526399258524,0.0052253883332014,-0.0033553165849298
1770454266036,-0.123046875,-0.986968994140625,0.0381927490234375,-0.0033915357198566,0.0074011906981468,-0.0032344090286642
1770454266046,-0.1249237060546875,-0.9880523681640624,0.0400543212890625,-0.0020967067684978,0.0054799863137304,-0.0041550640016794
1770454266056,-0.1250152587890625,-0.9887847900390624,0.0394744873046875,-0.0055710668675601,0.0047851679846644,-0.0014724617358297
1770454266066,-0.12396240234375,-0.99114990234375,0.039794921875,-0.0097205378115177,0.0053942329250276,0.0022200110834091
1770454266076,-0.122772216796875,-0.9927520751953124,0.03851318359375,-0.0129980901256203,0.0070917317643761,0.0008649947121739
1770454266086,-0.12261962890625,-0.99139404296875,0.03912353515625,-0.0146644301712512,0.0070706927217543,0.0041020670905709
1770454266096,-0.1217193603515625,-0.9948577880859376,0.04150390625,-0.0156790949404239,0.0038767636287957,0.0020325244404375
1770454266106,-0.1236724853515625,-0.9932708740234376,0.041717529296875,-0.0174767281860113,0.0067796092480421,0.0001033306471072
1770454266116,-0.1265869140625,-0.98931884765625,0.0428924560546875,-0.0190772879868745,0.0100052300840616,-0.0030192257836461
1770454266126,-0.12725830078125,-0.988037109375,0.0415496826171875,-0.0187060441821813,0.0080150496214628,-0.0023009711876511
1770454266136,-0.126007080078125,-0.987518310546875,0.0397186279296875,-0.0165555402636528,0.0047944886609911,0.0011667308863252
1770454266146,-0.1254730224609375,-0.988006591796875,0.03814697265625,-0.0113602457568049,0.005176652688533,0.0041516018100082
1770454266156,-0.1231536865234375,-0.9881591796875,0.0364990234375,-0.0065833339467644,0.0047625307925045,0.003534014802426
1770454266167,-0.1239471435546875,-0.9867401123046876,0.0338134765625,-0.0025371934752911,0.0084592644125223,0.0015353123890236
1770454266177,-0.1256866455078125,-0.9871978759765624,0.0323486328125,0.0015395734226331,0.0056704026646912,0.003353452309966
1770454266187,-0.1268768310546875,-0.9867095947265624,0.03387451171875,0.0055034225806593,0.0014207963831722,0.001465537585318
1770454266197,-0.12841796875,-0.9882965087890624,0.0357208251953125,0.0081759048625826,-0.0027177559677511,0.0023747407831251
1770454266207,-0.1261749267578125,-0.9881591796875,0.0373382568359375,0.0065106297843158,-0.0027257453184574,-0.0005685848882421
1770454266217,-0.125244140625,-0.9895782470703124,0.0395965576171875,0.0049369679763913,2.9294771593413316e-05,-0.0017718010349199
1770454266227,-0.123321533203125,-0.9926910400390624,0.0405120849609375,0.0032501218374818,-0.0007925567333586,-0.0036083168815821
1770454266237,-0.1214141845703125,-0.990875244140625,0.0417633056640625,-0.0004396878939587,0.0005850964807905,-0.004169977735728
1770454266247,-0.12359619140625,-0.989013671875,0.04156494140625,-0.0026109630707651,0.002591788303107,-0.0009177253232337
1770454266257,-0.124359130859375,-0.986175537109375,0.0415496826171875,-0.0063375243917107,0.0036693033762276,0.0014751249691471
1770454266267,-0.124603271484375,-0.987640380859375,0.0415802001953125,-0.0121392207220196,0.002993392990902,0.0014937670202925
1770454266277,-0.1229705810546875,-0.98760986328125,0.0421295166015625,-0.0155821554362773,0.0053742588497698,0.0035920715890824
1770454266287,-0.122467041015625,-0.99090576171875,0.041656494140625,-0.017698036506772,0.0081705776974558,0.0043271039612591
1770454266297,-0.1242828369140625,-0.992431640625,0.0398712158203125,-0.0184514448046684,0.0083692502230405,0.0039534624665975
1770454266307,-0.124603271484375,-0.9912261962890624,0.0391845703125,-0.0189185626804828,0.0040298951789736,0.0038791603874415
1770454266317,-0.12445068359375,-0.99163818359375,0.03814697265625,-0.0236952099949121,0.0018122810870409,0.0062770708464086
1770454266327,-0.1253662109375,-0.9927825927734376,0.0402984619140625,-0.0266723576933145,0.0069362032227218,0.0065298047848045
1770454266337,-0.1255950927734375,-0.99041748046875,0.0424041748046875,-0.0272390786558389,0.008551144041121,0.0059484364464879
1770454266347,-0.125640869140625,-0.9859161376953124,0.0390777587890625,-0.0261655580252408,0.0026525084394961,0.0054994276724755
1770454266357,-0.126495361328125,-0.9851531982421876,0.037322998046875,-0.0258718114346265,0.0055929045192897,0.0009318400407209
1770454266368,-0.12518310546875,-0.99176025390625,0.03533935546875,-0.0237833596765995,0.0074952007271349,0.0030386666767299
1770454266377,-0.120361328125,-0.993804931640625,0.031890869140625,-0.0180967114865779,0.003768905531615,0.0090616717934608
1770454266388,-0.1194610595703125,-0.9930419921875,0.0318603515625,-0.014174940995872,-0.0049124667420983,0.0071202274411916
1770454266398,-0.1234893798828125,-0.9859161376953124,0.03228759765625,-0.0097967041656374,-0.0033547841012477,0.0016293219523504
1770454266408,-0.1273345947265625,-0.9851837158203124,0.0341949462890625,-0.0069196913391351,0.0049614692106842,-0.0019688750617206
1770454266418,-0.1298675537109375,-0.9854278564453124,0.0359344482421875,-0.006778810173273,0.0074746944010257,-0.0023161512799561
1770454266428,-0.124725341796875,-0.9934539794921876,0.035980224609375,-0.0034213629551231,0.0130580114200711,-0.0040935450233519
1770454266438,-0.1251678466796875,-0.984283447265625,0.03289794921875,0.003065831027925,0.0119839580729603,-0.0093250581994652
1770454266448,-0.12860107421875,-0.9794158935546876,0.0302581787109375,0.0142388567328453,0.0002103897277265,-0.012034292332828
1770454266458,-0.134124755859375,-0.9728240966796876,0.0329742431640625,0.023429425433278,-0.0102411862462759,-0.0157731045037508
1770454266468,-0.13275146484375,-0.9737548828125,0.0362701416015625,0.0234653782099485,-0.0075212996453046,-0.0188487879931926
1770454266478,-0.1292877197265625,-0.982635498046875,0.0408172607421875,0.0181451812386512,-0.0019201391842216,-0.0147959906607866
1770454266488,-0.1225433349609375,-0.991668701171875,0.0437164306640625,0.0097708720713853,0.0059178103692829,-0.0075806877575814
1770454266498,-0.1178436279296875,-0.9961395263671876,0.0460357666015625,-0.002935602562502,0.012891030870378,0.0011299792677164
1770454266508,-0.1194000244140625,-0.994842529296875,0.0425262451171875,-0.0091293165460228,0.0108467889949679,0.0045934203080832
1770454266518,-0.1211700439453125,-0.996124267578125,0.0396881103515625,-0.0167230535298585,0.0023542344570159,0.0084081320092082
1770454266528,-0.12200927734375,-0.9950103759765624,0.0377960205078125,-0.0270318835973739,-0.0009856359101831,0.0098891155794262
1770454266538,-0.1235198974609375,-0.9950714111328124,0.0392303466796875,-0.0314455404877662,-0.0043047335930168,0.0094749946147203
1770454266548,-0.12567138671875,-0.995941162109375,0.0399322509765625,-0.0349659733474254,-0.0064158211462199,0.004800081718713
1770454266558,-0.1273345947265625,-0.9949188232421876,0.038818359375,-0.033184852451086,-0.007497863844037,0.0026040389202535
1770454266568,-0.1285400390625,-0.9922332763671876,0.037567138671875,-0.0315470062196254,-0.0075074508786201,3.888214996550232e-05
1770454266578,-0.1280364990234375,-0.99127197265625,0.0346832275390625,-0.0269498582929372,-0.0100941797718405,0.0013403689954429
1770454266588,-0.124603271484375,-0.989166259765625,0.0366058349609375,-0.0238400846719741,-0.0073886741884052,0.0025893915444612
1770454266599,-0.1219024658203125,-0.98760986328125,0.0352630615234375,-0.0189103074371814,-0.004187021870166,0.0033233587164431
1770454266609,-0.122772216796875,-0.9886932373046876,0.035919189453125,-0.0183739475905895,-0.0007843009079806,0.0059399143792688
1770454266619,-0.1211090087890625,-0.9882965087890624,0.036163330078125,-0.01335069257766,-0.0012591425329446,0.01087262108922
1770454266629,-0.120574951171875,-0.987701416015625,0.034332275390625,-0.0098489020019769,0.0052850432693958,0.0084840320050716
1770454266639,-0.1227874755859375,-0.98779296875,0.03155517578125,-0.0020266654901206,0.0020074907224625,0.0034671693574637
1770454266649,-0.1260833740234375,-0.9866790771484376,0.0314483642578125,0.0027907264884561,-0.001349956379272,0.0015994944842532
1770454266659,-0.1266937255859375,-0.9877471923828124,0.0325469970703125,0.0056355153210461,-0.0027712853625416,0.0012082761386409
1770454266669,-0.1260833740234375,-0.99578857421875,0.034210205078125,0.0016572851454839,-0.0001952097081812,-0.0036581179592758
1770454266679,-0.1256256103515625,-0.9977874755859376,0.033843994140625,-0.0038602519780397,0.0051127364858984,0.0006697850185446
1770454266689,-0.12237548828125,-0.99908447265625,0.03369140625,-0.0043992758728563,0.010013485327363,0.0088475532829761
1770454266699,-0.1225738525390625,-0.9916839599609376,0.0353546142578125,-0.0031792817171663,0.0030059099663048,0.0097314566373825
1770454266709,-0.127471923828125,-0.986724853515625,0.0355682373046875,-0.0016258598770946,0.0014844459947198,0.0071985241957008
1770454266719,-0.1277618408203125,-0.9835662841796876,0.0338287353515625,-0.0014397049089893,0.00322908279486,0.0047718519344925
1770454266729,-0.1275634765625,-0.9824676513671876,0.0366058349609375,-0.0009536779834888,0.0033385388087481,0.0015329155139625
1770454266739,-0.125152587890625,-0.984283447265625,0.040008544921875,-0.0021214741282165,0.0033899378031492,-5.0333743274677545e-05
1770454266749,-0.1259765625,-0.989227294921875,0.0407562255859375,-0.0030309436842799,0.0050349724479019,-0.0029784792568534
1770454266760,-0.12823486328125,-0.987274169921875,0.0389251708984375,-0.0042259041219949,0.0078280959278345,-0.0040727723389863
1770454266769,-0.12799072265625,-0.988525390625,0.034515380859375,-0.0042565301991999,0.0072414013557136,0.0005464806454256
1770454266780,-0.124176025390625,-0.990386962890625,0.0317230224609375,-0.0028498487081378,0.0043478766456246,0.0021129520609974
1770454266789,-0.1240386962890625,-0.9920806884765624,0.0321044921875,-0.0021859225817024,0.0022405174095183,0.0064879930578172
1770454266800,-0.12261962890625,-0.99176025390625,0.0349578857421875,-0.001195226679556,0.0036698358599096,0.0055393748916685
1770454266809,-0.1248321533203125,-0.9918975830078124,0.0353240966796875,-0.0014223942998796,0.004424575716257,0.0030551783274859
1770454266820,-0.1274261474609375,-0.98968505859375,0.0357513427734375,0.0012319782981649,0.0006601976347155,0.003704457078129
1770454266830,-0.12646484375,-0.99127197265625,0.03619384765625,0.0004524710529949,-0.0013864416396245,0.0022213426418602
1770454266840,-0.1258697509765625,-0.9903106689453124,0.0371246337890625,0.0004809668753296,-0.0006356965750455,0.0022253373172134
1770454266850,-0.1255340576171875,-0.987213134765625,0.0386199951171875,0.0007065366371534,0.0021225393284112,0.0023057649377733
1770454266860,-0.1267547607421875,-0.9871826171875,0.03759765625,0.0037164413370192,0.001022387528792,0.0042722430080175
1770454266870,-0.1265411376953125,-0.9877777099609376,0.0377044677734375,0.0033747577108442,-0.0006466155173256,0.002182993106544
1770454266880,-0.1263427734375,-0.987518310546875,0.0376434326171875,0.0028597023338079,-0.0008402272942475,0.0062025021761655
1770454266890,-0.1240692138671875,-0.988250732421875,0.0385894775390625,0.0016335829859599,0.0007518103811889,0.0038472025189548
1770454266900,-0.1251983642578125,-0.98699951171875,0.03753662109375,-0.0004554005572572,0.0036863475106656,0.0023497070651501
1770454266910,-0.127471923828125,-0.9881744384765624,0.038116455078125,0.0021134845446795,0.0009438242996111,0.0029537118971347
1770454266920,-0.126983642578125,-0.9879150390625,0.0354461669921875,0.0029281456954777,-0.0002596582053229,-0.0006412891671061
1770454266930,-0.12872314453125,-0.989959716796875,0.0361785888671875,0.0038706383202224,-0.0037436054553836,-0.0028197548817843
1770454266940,-0.12933349609375,-0.9885101318359376,0.0378265380859375,0.0017273263074457,-0.00664645107463,-0.0008980178972706
1770454266950,-0.1284942626953125,-0.98504638671875,0.0393524169921875,-0.0042163166217505,-0.0061721419915556,7.909588020993397e-05
1770454266960,-0.1292572021484375,-0.9844207763671876,0.0436248779296875,-0.0099684782326221,0.0012543488992378,-0.0008881642133928
1770454266970,-0.1283721923828125,-0.9854278564453124,0.0460052490234375,-0.014421016909182,0.0087234508246183,-0.0006452839006669
1770454266980,-0.126861572265625,-0.987640380859375,0.040863037109375,-0.0175720695406198,0.0082728434354066,0.0026847326662391
1770454266990,-0.1243743896484375,-0.989288330078125,0.037811279296875,-0.0163632612675428,0.0062773367390036,0.001275121467188
1770454267000,-0.1237640380859375,-0.99090576171875,0.034576416015625,-0.0149611067026853,0.006582002621144,0.0031241541728377
1770454267010,-0.1243133544921875,-0.994964599609375,0.0326385498046875,-0.0143246110528707,0.003042128868401,0.0052922335453331
1770454267021,-0.12274169921875,-0.9962158203125,0.034210205078125,-0.0132159367203712,0.0022634204942733,0.0076765618287026
1770454267031,-0.124114990234375,-0.9933929443359376,0.0340423583984375,-0.0128385666757822,0.0027521105948835,0.0053103431127965
1770454267041,-0.1275787353515625,-0.9864349365234376,0.03448486328125,-0.0085234474390745,0.00192200334277,0.0046586678363382
1770454267051,-0.1307373046875,-0.9851837158203124,0.0344085693359375,-0.0100491717457771,-0.0010120011866092,0.0024280040524899
1770454267061,-0.1273040771484375,-0.9901580810546876,0.0359649658203125,-0.0089785810559988,0.0053553506731987,0.0041404166258871
1770454267071,-0.123565673828125,-0.993194580078125,0.0333099365234375,-0.0098779303953051,0.0065953182056546,0.0082400869578123
1770454267081,-0.1223602294921875,-0.99212646484375,0.033477783203125,-0.0025920546613633,0.0040911482647061,0.009066998027265
1770454267091,-0.123626708984375,-0.9967193603515624,0.0337066650390625,0.0002892192860599,-0.003834685543552,0.0071567129343748
1770454267101,-0.124786376953125,-0.9915924072265624,0.03485107421875,0.002853843383491,0.0015156050212681,0.003034938359633
1770454267111,-0.1257171630859375,-0.9766693115234376,0.037811279296875,0.0049084722995758,0.0068720206618309,-0.0074568511918187
1770454267121,-0.13092041015625,-0.9882659912109376,0.0386199951171875,0.0024783376138657,0.0083056008443236,-0.0058642807416617
1770454267131,-0.127960205078125,-0.988616943359375,0.037567138671875,0.0035249600186944,0.0096036251634359,-0.0074954666197299
1770454267141,-0.1278533935546875,-0.9835205078125,0.0358734130859375,0.0084366276860237,0.0109708923846483,-0.0083902888000011
1770454267151,-0.13006591796875,-0.973663330078125,0.0333251953125,0.0162830986082553,0.0043204464018344,-0.0150444628670811
1770454267161,-0.1326141357421875,-0.9685211181640624,0.0343170166015625,0.0209260545670986,-0.0019174759509041,-0.0194298904389143
1770454267171,-0.13275146484375,-0.977996826171875,0.038360595703125,0.0181225445121526,-0.0061356569640338,-0.0163329001516103
1770454267181,-0.1288909912109375,-0.9865875244140624,0.04241943359375,0.0098907137289643,0.0005621932796202,-0.0115112476050853
1770454267191,-0.1250457763671875,-0.9928741455078124,0.045074462890625,-0.0021321268286556,0.0084182517603039,-0.0080472733825445
1770454267201,-0.123504638671875,-0.998260498046875,0.0438385009765625,-0.0124132595956325,0.0076483320444822,-0.0043047335930168
1770454267211,-0.123779296875,-0.9974212646484376,0.0409088134765625,-0.0213034246116876,0.0035374767612665,-0.0001089232900994
1770454267222,-0.1226806640625,-0.998382568359375,0.035675048828125,-0.0270052514970302,-0.0014583469601348,0.0049777142703533
1770454267231,-0.1221466064453125,-0.9983978271484376,0.0341033935546875,-0.029659891501069,-0.0009416937828063,0.0079205073416233
1770454267242,-0.123565673828125,-0.9972381591796876,0.03466796875,-0.0333185419440269,-0.0050754523836076,0.0135496305301785
1770454267252,-0.12530517578125,-0.9942626953125,0.036163330078125,-0.0330160073935985,-0.0047707869671285,0.0089820437133312
1770454267262,-0.1298370361328125,-0.99365234375,0.0363311767578125,-0.0289514902979135,-0.0050336406566202,0.0056536244228482
1770454267272,-0.131103515625,-0.99273681640625,0.035736083984375,-0.0217769350856542,-0.0102912532165646,0.0034128408879041
1770454267282,-0.127288818359375,-0.9910125732421876,0.0361480712890625,-0.0152612449601292,-0.0105794072151184,0.0030272151343524
1770454267292,-0.1241302490234375,-0.9896240234375,0.0349578857421875,-0.0140050314366817,-0.0075236964039504,0.0038658445701003
1770454267302,-0.1225128173828125,-0.9897918701171876,0.036163330078125,-0.0079386169090867,-0.0050954259932041,0.0041630533523857
1770454267312,-0.1213531494140625,-0.9883880615234376,0.03607177734375,-0.0071745561435818,-0.0030807447619736,0.0043771713972091
1770454267322,-0.1217498779296875,-0.9869384765625,0.0350341796875,-0.0028628981672227,0.0027009779587388,0.0048157940618693
1770454267332,-0.1247711181640625,-0.9862213134765624,0.033660888671875,-0.0012319782981649,0.0020567593164741,0.004578772932291
1770454267342,-0.127685546875,-0.9869384765625,0.0329437255859375,0.0059495018795132,0.0005693838465958,0.0032969934400171
1770454267352,-0.12799072265625,-0.985198974609375,0.03228759765625,0.0104734133929014,-0.0024948492646217,0.0038751657120883
1770454267362,-0.1305084228515625,-0.9923553466796876,0.032196044921875,0.0082608591765165,-0.0005478122038766,0.0034226945135742
1770454267372,-0.13037109375,-0.9987335205078124,0.0354766845703125,0.0019616845529526,0.0037065874785184,-0.0006695187184959
1770454267382,-0.1248931884765625,-0.99810791015625,0.03680419921875,-0.0027723505627363,0.0110531840473413,0.0077719027176499
1770454267392,-0.1213531494140625,-0.997222900390625,0.0358734130859375,-0.0003773699281737,0.0078957397490739,0.0090531501919031
1770454267402,-0.127655029296875,-0.989349365234375,0.035858154296875,-0.0009606021922081,0.0028533106669783,0.0072262212634086
1770454267412,-0.1299896240234375,-0.9807586669921876,0.037017822265625,-0.0001960086519829,0.0063740098848938,0.002379800658673
1770454267422,-0.129486083984375,-0.98052978515625,0.0373077392578125,0.0009347695158794,0.0088422270491719,0.0015419702976942
1770454267432,-0.1282806396484375,-0.983154296875,0.0359039306640625,0.0039601204916834,0.0046874298714101,-0.0007352987886406
1770454267442,-0.1271820068359375,-0.988494873046875,0.0352935791015625,0.0069425944238901,0.0013496900210157,-0.001644235686399
1770454267453,-0.1277618408203125,-0.986175537109375,0.0349884033203125,0.010242517106235,-0.0007390272221527,-0.0017318536993116
1770454267463,-0.128387451171875,-0.9858856201171876,0.033294677734375,0.0064080981537699,0.0024426514282822,-0.0009392969077453
1770454267473,-0.1274261474609375,-0.9882049560546876,0.036590576171875,0.0035534559283405,0.0085130603983998,-0.001390436431393
1770454267483,-0.1271820068359375,-0.992523193359375,0.0384368896484375,-0.0009331716573797,0.0079798959195613,-0.0004261057765688
1770454267493,-0.1255035400390625,-0.995147705078125,0.0376434326171875,0.0003840278368443,0.002405633451417,0.0013219931861385
1770454267503,-0.124298095703125,-0.9929962158203124,0.0374755859375,0.0001187769812531,0.003998736385256,0.0009949569357559
1770454267513,-0.12451171875,-0.9884033203125,0.03717041015625,0.0001280980504816,0.0054477620869874,0.002936934120953
