timestamp_ms,acc_x,acc_y,acc_z,gyro_x,gyro_y,gyro_z
1770448143123,-0.1513824462890625,-0.9944610595703124,-0.0064239501953125,-0.0315813608467578,0.0084941526874899,0.0050637344829738
1770448143129,-0.15313720703125,-0.9918212890625,-0.0096435546875,-0.0342005789279937,0.007474161684513,0.0080472733825445
1770448143140,-0.1530914306640625,-0.9890594482421876,-0.0082550048828125,-0.0366347096860408,0.0076161078177392,0.0097959050908684
1770448143150,-0.154083251953125,-0.991363525390625,-0.0073089599609375,-0.0396478101611137,0.0074778897687792,0.0102302664890885
1770448143160,-0.1538848876953125,-0.9887237548828124,-0.0069580078125,-0.0365215241909027,0.0067375311627984,0.0071188956499099
1770448143170,-0.157440185546875,-0.9854736328125,-0.0057830810546875,-0.0348272211849689,0.0035135084763169,0.0020868529099971
1770448143180,-0.1587371826171875,-0.986724853515625,-0.0025634765625,-0.035044003278017,0.0066078351810574,-0.0011494202772155
1770448143190,-0.1600799560546875,-0.9858551025390624,0.0016937255859375,-0.0373060926795005,0.0095932390540838,-0.0066885291598737
1770448143200,-0.1607666015625,-0.9843292236328124,0.005279541015625,-0.037091176956892,0.0088906968012452,-0.0079862875863909
1770448143210,-0.1598663330078125,-0.98712158203125,0.001190185546875,-0.0359332337975502,0.0073521886952221,-0.0074163707904517
1770448143220,-0.15765380859375,-0.98883056640625,-0.002044677734375,-0.0336650200188159,0.0049204565584659,-0.007284278050065
1770448143230,-0.155731201171875,-0.9877471923828124,-0.0066070556640625,-0.0263530444353818,0.0041473405435681,-0.0058179418556392
1770448143240,-0.152587890625,-0.98870849609375,-0.0111083984375,-0.0182570349425077,0.0010362359462305,-0.0045798378996551
1770448143250,-0.1506805419921875,-0.9881744384765624,-0.013031005859375,-0.0117671769112348,0.0021246699616312,-0.0008082693675532
1770448143260,-0.150848388671875,-0.9855804443359376,-0.0128021240234375,-0.0094584831967949,0.0049817091785371,0.0037776939570903
1770448143270,-0.1510467529296875,-0.985626220703125,-0.0114898681640625,-0.0064059677533805,0.0047659929841756,0.0059404470957815
1770448143280,-0.1517791748046875,-0.9886474609375,-0.0108795166015625,-0.0028543761000037,0.0014737932942807,0.0073375413194298
1770448143290,-0.1513214111328125,-0.99139404296875,-0.01226806640625,0.0011411645682528,0.0003555320145096,0.0094377100467681
1770448143300,-0.15069580078125,-0.9945068359375,-0.0110931396484375,0.0017246630741283,0.0031518512405455,0.0145962536334991
1770448143310,-0.1494293212890625,-0.989501953125,-0.011444091796875,0.0057375142350792,0.0023268037475645,0.0143983801826834
1770448143320,-0.1566009521484375,-0.9791717529296876,-0.012115478515625,0.0098643489181995,0.0039707729592919,0.0127181923016905
1770448143331,-0.1605072021484375,-0.9765777587890624,-0.0079193115234375,0.0126540102064609,0.0063796024769544,0.0063995760865509
1770448143340,-0.159515380859375,-0.9785308837890624,-0.0062103271484375,0.0121032679453492,0.0050751860253512,0.0025798040442168
1770448143351,-0.15966796875,-0.9860992431640624,-0.0059051513671875,0.0123416213318705,0.0032051142770797,-0.0018823222490027
1770448143361,-0.157958984375,-0.9867401123046876,-0.0078125,0.0134731978178024,0.002280997345224,-0.0016495619202032
1770448143371,-0.1573944091796875,-0.9847259521484376,-0.0095062255859375,0.0148236872628331,0.0045071337372064,-0.0017049557063728
1770448143381,-0.15869140625,-0.9842987060546876,-0.0087890625,0.0135408425703644,0.0031326764728873,-0.0004439489566721
1770448143391,-0.158660888671875,-0.98590087890625,-0.0069122314453125,0.0137024959549307,0.0037052559200674,-0.0031806132756173
1770448143401,-0.15771484375,-0.98858642578125,-0.005340576171875,0.0132476286962628,0.0021049624774605,-0.0026514432393014
1770448143411,-0.157745361328125,-0.9884796142578124,-0.0058441162109375,0.0136234005913138,-0.0022708773612976,-0.0016956346808001
1770448143421,-0.1555328369140625,-0.9881744384765624,-0.00384521484375,0.0127096697688102,-0.0012681973166763,-0.0018748653819784
1770448143431,-0.1551666259765625,-0.986114501953125,-0.0028839111328125,0.0128004839643836,-0.0011520835105329,-0.0008623315370641
1770448143441,-0.1575775146484375,-0.98199462890625,-0.000701904296875,0.0126121984794735,-0.000208791825571,8.069378236541525e-05
1770448143451,-0.1573333740234375,-0.9812164306640624,-0.0004119873046875,0.0103192161768674,-0.0013164004776626,0.0004186489095445
1770448143461,-0.1568603515625,-0.98199462890625,0.0018463134765625,0.0045308358967304,-0.0008061388507485,0.000637560733594
1770448143471,-0.1557464599609375,-0.98150634765625,0.004913330078125,1.145159239968052e-05,-0.0002335592289455,0.0025092302821576
1770448143481,-0.1573333740234375,-0.98095703125,0.006988525390625,-0.007106112781912,0.003246126929298,0.0026927222497761
1770448143491,-0.1564788818359375,-0.983306884765625,0.004608154296875,-0.0120561299845576,0.0029004486277699,0.004129231441766
1770448143501,-0.155242919921875,-0.984893798828125,0.0030670166015625,-0.0165510140359401,0.0070571103133261,0.004994492046535
1770448143511,-0.152923583984375,-0.9864654541015624,0.00360107421875,-0.0211473628878593,0.0113205648958683,0.0072696306742727
1770448143521,-0.1542510986328125,-0.9881134033203124,-0.0006866455078125,-0.0217841248959302,0.0131656033918261,0.0071910675615072
1770448143531,-0.154571533203125,-0.9869537353515624,-0.004150390625,-0.0169504880905151,0.0085069350898265,0.0061007691547274
1770448143541,-0.1559906005859375,-0.98602294921875,-0.0059661865234375,-0.0172279886901378,0.0082653863355517,0.0057923751883208
1770448143551,-0.157958984375,-0.9834442138671876,-0.0080413818359375,-0.01310461666435,0.0041936798952519,0.0034530546981841
1770448143562,-0.158477783203125,-0.983978271484375,-0.0081787109375,-0.0096608828753232,-0.0022935143206268,0.0006692523602396
1770448143571,-0.1600494384765625,-0.985931396484375,-0.007781982421875,-0.0079814940690994,-0.0019006980583071,-0.0009147958480753
1770448143582,-0.157562255859375,-0.9857025146484376,-0.00531005859375,-0.0071921329945325,-0.0009864348685368,-0.0005683185881935
1770448143592,-0.1579132080078125,-0.9833526611328124,-0.004791259765625,-0.0069910641759634,0.0038453382439911,-0.0002253034326713
1770448143602,-0.1572723388671875,-0.9816131591796876,-0.005523681640625,-0.0084488783031702,0.0063356603495776,-0.0021619540639221
1770448143612,-0.156829833984375,-0.983428955078125,-0.0054473876953125,-0.0064168865792453,0.0060621537268161,0.0013454289874061
1770448143622,-0.1565399169921875,-0.9854888916015624,-0.0070648193359375,-0.0059252670034766,0.0054845139384269,0.002208026824519
1770448143632,-0.1568756103515625,-0.9871978759765624,-0.0072479248046875,-0.0028439897578209,0.0044560013338923,0.0020767329260706
1770448143642,-0.1558837890625,-0.9878997802734376,-0.0092620849609375,-0.0011992214713245,0.001498028053902,0.0038860845379531
1770448143652,-0.155853271484375,-0.9885711669921876,-0.0086669921875,0.0013579458463937,0.0033262881916016,0.0044860946945846
1770448143662,-0.1544189453125,-0.993133544921875,-0.0078277587890625,0.0021238708868622,0.0060078250244259,0.0080792317166924
1770448143672,-0.1524658203125,-0.9921722412109376,-0.009124755859375,0.0093306507915258,0.0023307986557483,0.0086973514407873
1770448143682,-0.157501220703125,-0.98516845703125,-0.0084991455078125,0.015769375488162,-0.0002639192680362,0.0083687175065279
1770448143692,-0.1600799560546875,-0.978973388671875,-0.0088348388671875,0.0186594389379024,0.001114000333473,0.0047566718421876
1770448143702,-0.1612548828125,-0.9810943603515624,-0.00579833984375,0.0190700981765985,0.0007661914569325,0.001634914544411
1770448143712,-0.159576416015625,-0.9884033203125,-0.0029296875,0.0200975444167852,-0.0005278385360725,0.0022053637076169
1770448143722,-0.1551361083984375,-0.9857330322265624,-0.00390625,0.0205923598259687,0.000169643361005,0.0020748688839375
1770448143732,-0.1561431884765625,-0.98583984375,-0.0042572021484375,0.0219076965004205,-0.0055873119272291,0.0003472761891316
1770448143743,-0.15838623046875,-0.985321044921875,-0.0028839111328125,0.0230174344033002,-0.000582167005632,-0.0013073458103463
1770448143752,-0.1575775146484375,-0.980682373046875,-0.0012054443359375,0.0263839364051818,0.0013390374369919,-0.005632852204144
1770448143762,-0.158233642578125,-0.9803924560546876,0.000823974609375,0.0259477104991674,0.0007257114048115,-0.0078712385147809
1770448143772,-0.1556549072265625,-0.9911041259765624,0.001739501953125,0.0241016075015068,0.0001230380439665,-0.0034546526148915
1770448143783,-0.1526641845703125,-0.988800048828125,-0.0002593994140625,0.028401281684637,0.0007558051147498,-0.0082542011514306
1770448143793,-0.158355712890625,-0.970458984375,0.0011444091796875,0.0278822313994169,-0.0003352919884491,-0.0121767716482281
1770448143803,-0.166015625,-0.9643707275390624,0.0051727294921875,0.023602532222867,0.0039316248148679,-0.0138665474951267
1770448143813,-0.16357421875,-0.96759033203125,0.0093536376953125,0.0128971561789512,0.0058056912384927,-0.0139776011928915
1770448143823,-0.160736083984375,-0.982574462890625,0.009063720703125,0.0035196337848901,0.0074517908506095,-0.0140407178550958
1770448143833,-0.154205322265625,-0.992401123046875,0.00634765625,-0.0063282032497227,0.0039497343823313,-0.0131261879578232
1770448143843,-0.1511077880859375,-0.99627685546875,0.0009765625,-0.0138636175543069,0.0050906324759125,-0.0049433596432209
1770448143853,-0.1498260498046875,-0.9954071044921876,-0.000732421875,-0.0200296342372894,0.0026477146893739,-0.0012562130577862
1770448143863,-0.1544189453125,-0.9937591552734376,-0.003875732421875,-0.0252832528203725,-0.0015638081822544,0.0045859632082283
1770448143873,-0.1536865234375,-0.9911346435546876,-0.001251220703125,-0.0307246223092079,0.0053593451157212,0.0077218357473611
1770448143883,-0.152099609375,-0.98822021484375,1.52587890625e-05,-0.0386683009564876,0.007032343186438,0.009212939068675
1770448143893,-0.156219482421875,-0.9888458251953124,0.0044403076171875,-0.0432683788239955,0.0086851008236408,0.0064885257743299
1770448143903,-0.1583099365234375,-0.986175537109375,0.00335693359375,-0.0455760061740875,0.0128156635910272,0.0031262848060578
1770448143913,-0.158233642578125,-0.9864501953125,0.0048065185546875,-0.0492301285266876,0.0185366664081811,0.0014788532862439
1770448143923,-0.15838623046875,-0.986785888671875,0.008056640625,-0.0513814315199852,0.0191587805747985,-0.0013582120882347
1770448143933,-0.159515380859375,-0.9890594482421876,0.0074310302734375,-0.0542094409465789,0.0162388905882835,-0.0008490157779306
1770448143943,-0.159210205078125,-0.9892730712890624,0.00140380859375,-0.0485302507877349,0.0119639849290251,0.0008623315370641
1770448143953,-0.1569366455078125,-0.987396240234375,-0.0058441162109375,-0.0388280898332595,0.008829710073769,-0.0001009338011499
1770448143963,-0.1549530029296875,-0.987548828125,-0.0112457275390625,-0.0268300157040357,0.0043500075116753,0.0012053466634824
1770448143973,-0.1528472900390625,-0.986907958984375,-0.016265869140625,-0.0151342116296291,0.0051132692024111,0.0044967476278543
1770448143983,-0.1522674560546875,-0.987091064453125,-0.018707275390625,-0.0032985913567245,0.001488440670073,0.0049912966787815
1770448143993,-0.152496337890625,-0.9869232177734376,-0.017486572265625,0.0065194182097911,-0.0004889564006589,0.0081748394295573
1770448144003,-0.153900146484375,-0.9853363037109376,-0.0189056396484375,0.0143690854310989,-0.0045132590457797,0.012304869480431
1770448144014,-0.154205322265625,-0.98883056640625,-0.017120361328125,0.0194663759320974,-0.0086046736687421,0.0118361534550786
1770448144024,-0.152984619140625,-0.99200439453125,-0.0128326416015625,0.0219234079122543,-0.004226969089359,0.0154495304450392
1770448144034,-0.149871826171875,-0.995758056640625,-0.0080108642578125,0.0173164065927267,-0.0005829659639857,0.0182644911110401
1770448144044,-0.154876708984375,-0.9875335693359376,-0.004638671875,0.0166463553905487,-0.0025800704024732,0.0161448810249567
1770448144054,-0.1609649658203125,-0.97857666015625,-0.0045623779296875,0.0159664489328861,0.0024716798216104,0.0124526750296354
1770448144064,-0.16143798828125,-0.9768524169921876,0.000213623046875,0.0140215428546071,0.007504787761718,0.006950051523745
1770448144074,-0.162872314453125,-0.976318359375,0.0015106201171875,0.0132806515321135,0.0093301180750131,0.0021230720449239
1770448144084,-0.16400146484375,-0.9797515869140624,-0.0015869140625,0.0125948879867792,0.0040107206441462,-0.0013475595042109
1770448144094,-0.160125732421875,-0.98590087890625,-0.00341796875,0.0123583991080522,0.0026921895332634,-3.888214996550232e-05
1770448144104,-0.15838623046875,-0.9881591796875,-0.0023345947265625,0.0115908756852149,-7.350324449362233e-05,-0.0005283711361698
1770448144114,-0.1570281982421875,-0.9892578125,-0.0024261474609375,0.0123525401577353,-0.0014383733505383,-0.0006061354652047
1770448144124,-0.1578216552734375,-0.9896392822265624,-0.002349853515625,0.0112784868106246,-0.0049947584047913,-0.0005083974683657
1770448144134,-0.1577606201171875,-0.9886474609375,-0.0012969970703125,0.0118529312312603,-0.0044536041095852,0.0037017939612269
1770448144145,-0.154449462890625,-0.986785888671875,-0.00201416015625,0.0134247289970517,-0.0052759884856641,0.0041364217177033
1770448144154,-0.156036376953125,-0.9847869873046876,-0.0021820068359375,0.0130960941314697,-0.0065420549362897,0.0054490938782691
1770448144164,-0.1564788818359375,-0.9841156005859376,-0.00018310546875,0.0108238859102129,-0.006140983197838,0.0061545651406049
1770448144174,-0.159423828125,-0.9823455810546876,0.0014190673828125,0.0087061394006013,-0.0010120011866092,0.0063329972326755
1770448144184,-0.157745361328125,-0.981964111328125,0.005035400390625,0.0035920715890824,-0.0016713999211788,0.0083990776911377
1770448144194,-0.159332275390625,-0.9834747314453124,0.0064544677734375,-0.0009038768475875,0.002371278591454,0.0065806708298623
1770448144204,-0.160125732421875,-0.98382568359375,0.0070953369140625,-0.0055585498921573,0.0082059977576136,0.0059479037299752
1770448144214,-0.15850830078125,-0.983184814453125,0.0052947998046875,-0.0088153295218944,0.0078113176859915,0.0029076393693685
1770448144224,-0.16094970703125,-0.98382568359375,0.0021209716796875,-0.0088153295218944,0.0078113176859915,0.0029076393693685
1770448144235,-0.1579437255859375,-0.9832916259765624,-0.0003509521484375,-0.0059875850565731,0.0077801588922739,0.0042293663136661
1770448144245,-0.1586456298828125,-0.983245849609375,-0.003997802734375,-0.0032714270055294,0.0039159120060503,0.0014133396325632
1770448144255,-0.15972900390625,-0.98455810546875,-0.00567626953125,-2.423476507829037e-05,0.0018026937032118,0.0027422569692134
1770448144265,-0.1597137451171875,-0.9850616455078124,-0.006439208984375,0.0052312472835183,-0.0012226572725921,0.001422660658136
1770448144275,-0.1598358154296875,-0.9833831787109376,-0.00726318359375,0.0091655347496271,-0.0027121631428599,-0.0015126754296943
1770448144285,-0.16064453125,-0.9858551025390624,-0.0046539306640625,0.0108100371435284,8.628641808172688e-05,-0.0015020228456705
1770448144295,-0.1595001220703125,-0.98779296875,-0.002227783203125,0.0122404210269451,-0.0018317222129553,-0.0003384877636563
1770448144305,-0.157989501953125,-0.988433837890625,-0.00244140625,0.0146891977638006,-0.0017358483746647,-0.0022980417124927
1770448144315,-0.1587677001953125,-0.9827423095703124,-0.00250244140625,0.0140795996412634,-0.0039414782077074,-0.0023028354626148
1770448144325,-0.16180419921875,-0.9814910888671876,0.000274658203125,0.0143211483955383,-0.00140721432399,-0.0023779366165399
1770448144335,-0.1614990234375,-0.98114013671875,0.00286865234375,0.0102315982803702,0.0015004249289631,-0.0022602248936891
1770448144345,-0.15972900390625,-0.98187255859375,0.0012664794921875,0.0083663202822208,0.0041966093704104,-0.0046477485448122
1770448144355,-0.1582183837890625,-0.9843292236328124,-0.000396728515625,0.0075239627622067,0.0028069717809557,-0.0031880701426416
1770448144365,-0.157501220703125,-0.98516845703125,-3.0517578125e-05,0.0068629658780992,0.0003150519623886,-0.0012863067677244
1770448144375,-0.155487060546875,-0.9882354736328124,-0.0001983642578125,0.0078472699970006,-0.0036605149507522,-0.0008852347382344
1770448144385,-0.1554718017578125,-0.9946136474609376,-0.0008697509765625,0.0084795048460364,-0.0019036275334656,0.0030378678347915
1770448144398,-0.1553497314453125,-0.9920501708984376,0.0002593994140625,0.0097993677482008,0.0034818167332559,0.0062967780977487
1770448144405,-0.1551513671875,-0.9835205078125,-0.00054931640625,0.0114167053252458,0.0018413095967844,0.0059753344394266
1770448144415,-0.1592864990234375,-0.97967529296875,-0.001190185546875,0.0142966471612453,0.0008080030675046,0.0047513456083834
1770448144425,-0.1615753173828125,-0.9793701171875,0.0003662109375,0.0142250088974833,0.0004830974212381,5.486111695063301e-05
1770448144435,-0.16204833984375,-0.9862823486328124,0.003448486328125,0.013342703692615,0.001881523290649,-3.355582884978503e-05
1770448144445,-0.158660888671875,-0.98516845703125,0.0019989013671875,0.0126785105094313,0.0023105584550648,-0.0009052084642462
1770448144455,-0.15972900390625,-0.991119384765625,0.0017242431640625,0.0102292019873857,-0.0014207963831722,0.0005097290268167
1770448144466,-0.157012939453125,-0.98724365234375,0.0028076171875,0.0137299271300435,0.0041864891536533,-0.0029936593491584
1770448144476,-0.158172607421875,-0.9786834716796876,0.00213623046875,0.0179169494658708,-0.0005739112384617,-0.0072344769723713
1770448144486,-0.1607513427734375,-0.983306884765625,0.004547119140625,0.0191723629832267,-0.0085056042298674,-0.0081604579463601
1770448144496,-0.1569366455078125,-0.9903411865234376,0.00543212890625,0.0200147200375795,-0.0049550775438547,-0.0097149452194571
1770448144506,-0.155303955078125,-0.9779815673828124,0.0055084228515625,0.0202115289866924,-5.0333743274677545e-05,-0.012033493258059
1770448144516,-0.16107177734375,-0.9702606201171876,0.006744384765625,0.0181702151894569,0.0060475063510239,-0.0127589385956525
1770448144526,-0.164093017578125,-0.96856689453125,0.0100555419921875,0.013717676512897,0.014748852699995,-0.0138518996536731
1770448144536,-0.16229248046875,-0.9726715087890624,0.012786865234375,0.0056102150119841,0.0149888033047318,-0.0137749342247843
1770448144546,-0.1607208251953125,-0.9822998046875,0.012664794921875,0.0013238573446869,0.008460596203804,-0.0142428521066904
1770448144556,-0.156005859375,-0.992767333984375,0.007598876953125,-0.0062786685302853,0.0020287961233407,-0.0084275733679533
1770448144566,-0.1522674560546875,-0.996490478515625,0.0043792724609375,-0.0146993175148963,-0.0009994843276217,-0.0044485442340373
1770448144576,-0.1531219482421875,-0.9930572509765624,0.0031585693359375,-0.0223423242568969,0.0018034926615655,0.0013427657540887
1770448144586,-0.153656005859375,-0.99139404296875,0.0017242431640625,-0.0320764444768428,0.011060107499361,0.0041265678592026
1770448144597,-0.153778076171875,-0.9903717041015624,0.0027618408203125,-0.038739938288927,0.0128327077254652,0.0058608185499906
1770448144606,-0.1557464599609375,-0.989593505859375,0.00115966796875,-0.0391146466135978,0.0096640791743993,0.0062853265553712
1770448144616,-0.158721923828125,-0.9881591796875,0.00103759765625,-0.0398201160132885,0.0059790629893541,0.0056099486537277
1770448144626,-0.16094970703125,-0.98822021484375,0.00244140625,-0.0380842685699462,0.0065479143522679,0.00229750899598
1770448144636,-0.16168212890625,-0.9875640869140624,0.006072998046875,-0.0342024452984333,0.0054994276724755,-0.0025321335997432
1770448144647,-0.1616058349609375,-0.988006591796875,0.005096435546875,-0.0314018651843071,0.0034439999144524,-0.0041595911607146
1770448144656,-0.162017822265625,-0.985687255859375,0.0042572021484375,-0.0284015480428934,0.002830940298736,-0.0061473748646676
1770448144667,-0.1611175537109375,-0.98583984375,0.0020904541015625,-0.0223961193114519,0.00280457502231,-0.0078552598133683
1770448144677,-0.1583709716796875,-0.9856719970703124,-0.001922607421875,-0.0135214012116193,0.0031534489244222,-0.0077543258666992
1770448144686,-0.15875244140625,-0.986846923828125,-0.007781982421875,-0.0025816683191806,-0.0001802960032364,-0.0072038508951663
1770448144697,-0.1559600830078125,-0.985992431640625,-0.0127105712890625,0.0091311801224946,-0.0049398974515497,-0.0049201902002096
1770448144707,-0.15460205078125,-0.9849395751953124,-0.0128326416015625,0.0194456037133932,-0.0044791707769036,-0.0033257554750889
1770448144717,-0.153472900390625,-0.983489990234375,-0.0096282958984375,0.0248022861778736,-0.0064017064869403,-5.459480235003866e-05
1770448144727,-0.1536102294921875,-0.9840240478515624,-0.007781982421875,0.0306103732436895,-0.0081886872649192,-3.941478280466981e-05
1770448144737,-0.1549224853515625,-0.986663818359375,-0.004608154296875,0.0315970741212368,-0.014496118761599,-0.0005054679932072
1770448144747,-0.1561126708984375,-0.987091064453125,0.000885009765625,0.0305874701589345,-0.013000220991671,0.0035537220537662
1770448144757,-0.1528778076171875,-0.9923858642578124,0.0044097900390625,0.0228531174361705,-0.008829710073769,0.0070443274453282
1770448144767,-0.152313232421875,-0.9921417236328124,0.0061187744140625,0.0177323911339044,-0.0041428133845329,0.008665925823152
1770448144777,-0.156341552734375,-0.9803009033203124,0.0051116943359375,0.0136971697211265,0.0001906823308672,0.0057500312104821
1770448144787,-0.159515380859375,-0.97357177734375,0.0070648193359375,0.0102276038378477,0.0063748084940016,0.0024402544368058
1770448144797,-0.1605224609375,-0.9733428955078124,0.00897216796875,0.0061287325806915,0.0052163335494697,-0.001129446667619
1770448144807,-0.16168212890625,-0.9825592041015624,0.010345458984375,0.0024405207950621,0.0042501385323703,-0.0052019525319337
1770448144817,-0.15777587890625,-0.9835662841796876,0.005706787109375,0.0014892396284267,0.0012058793799951,-0.006132461130619
1770448144828,-0.1570892333984375,-0.9854888916015624,0.0034332275390625,-0.0023782027419656,0.0010178601369261,-0.0058405785821378
1770448144837,-0.1576690673828125,-0.987884521484375,0.0030364990234375,-0.007105313707143,0.0025371934752911,-0.0047968858852982
1770448144847,-0.1575927734375,-0.9897613525390624,0.007049560546875,-0.010200971737504,0.0055156727321445,-0.0024682176299393
1770448144857,-0.15728759765625,-0.9903564453125,0.006591796875,-0.0088659292086958,0.0037249634042382,-0.0011797803454101
1770448144867,-0.156219482421875,-0.9881134033203124,0.0026702880859375,-0.0083343628793954,-0.0002463423879817,0.0006740460521541
1770448144878,-0.15704345703125,-0.9864349365234376,0.0025177001953125,-0.0072800172492861,-0.0011235876008868,0.0020218719728291
1770448144887,-0.156524658203125,-0.9839019775390624,0.0007781982421875,-0.0068927933461964,0.0006479470757767,0.0018554243724793
1770448144898,-0.159759521484375,-0.981170654296875,0.0042572021484375,-0.0065343319438397,0.0038080539088696,0.0044272388331592
1770448144907,-0.1589813232421875,-0.9814300537109376,0.005157470703125,-0.0070366039872169,0.0061574946157634,0.0041814292781054
1770448144918,-0.1583251953125,-0.982421875,0.005828857421875,-0.0087918937206268,0.0087439566850662,0.0058666775003075
1770448144928,-0.157012939453125,-0.9852294921875,0.005035400390625,-0.0065638930536806,0.0082358252257108,0.0044000749476253
1770448144938,-0.157623291015625,-0.9855804443359376,0.002410888671875,-0.0039135152474045,0.0078243669122457,0.000916393706575
1770448144948,-0.1589813232421875,-0.984771728515625,0.0025177001953125,-0.0016575515037402,0.0072238245047628,-0.000768588273786
1770448144958,-0.1583251953125,-0.9844818115234376,-0.000732421875,0.0010146644199267,0.006296245381236,8.362325752386823e-05
1770448144968,-0.15655517578125,-0.9844818115234376,-0.0004119873046875,0.0049726543948054,0.0046149916015565,6.285060226218775e-05
1770448144978,-0.157318115234375,-0.986846923828125,0.000213623046875,0.0053841127082705,0.0051532168872654,-0.0006641923682764
1770448144988,-0.1573333740234375,-0.985443115234375,0.0010986328125,0.0058759986422955,0.0065002436749637,-0.0029478529468178
1770448144998,-0.1584014892578125,-0.9854736328125,0.0020599365234375,0.0083585977554321,0.0057700048200786,-0.0036610474344342
1770448145008,-0.1592254638671875,-0.98663330078125,0.0024261474609375,0.0120824957266449,0.0013438310706987,-0.0020564929582178
1770448145018,-0.1571502685546875,-0.9861907958984376,0.000640869140625,0.0118843559175729,-0.0011177286505699,-0.0041593248024582
1770448145028,-0.1578216552734375,-0.9866790771484376,0.0030364990234375,0.0109727559611201,-0.0015877765836194,-0.0039033952634781
1770448145038,-0.1575469970703125,-0.98492431640625,0.006439208984375,0.0078478027135133,-0.000859135761857,-0.0034794199746102
1770448145048,-0.1574554443359375,-0.9817352294921876,0.0076141357421875,0.0062056980095803,-0.0005597964627668,-0.0034333472140133
1770448145058,-0.157989501953125,-0.9812164306640624,0.0068817138671875,0.0022090920247137,0.0030154972337186,-0.0043958136811852
1770448145068,-0.1593475341796875,-0.9816131591796876,0.0070037841796875,-0.0019307917682453,0.0047244476154446,-0.0020764668006449
1770448145079,-0.158111572265625,-0.98443603515625,0.0086822509765625,-0.0060626859776675,0.0061058294959366,-0.0045084655284881
1770448145088,-0.1580657958984375,-0.9838104248046876,0.0092620849609375,-0.0083884242922067,0.0051976912654936,-0.0028461201582103
1770448145099,-0.155731201171875,-0.9841461181640624,0.0080108642578125,-0.0114310858771204,0.0093053514137864,0.000318780366797
1770448145108,-0.15484619140625,-0.9892730712890624,0.0062713623046875,-0.0108574414625763,0.0027624969370663,0.0044434843584895
1770448145119,-0.1529541015625,-0.99676513671875,0.004669189453125,-0.0104678208008408,-0.0001065264441422,0.0062043662182986
1770448145129,-0.1535797119140625,-0.9902801513671876,0.00238037109375,-0.006875482853502,0.0006436860421672,0.0079809613525867
1770448145139,-0.1575927734375,-0.981842041015625,0.002349853515625,-0.0077250311151146,0.004751079250127,0.0043438822031021
1770448145149,-0.161895751953125,-0.977447509765625,0.0027008056640625,-0.0048125982284545,0.0026511768810451,0.0016500946367159
1770448145159,-0.16400146484375,-0.9801483154296876,0.003265380859375,-0.0043854271061718,0.0018977685831487,-0.0013789847726002
1770448145169,-0.1598663330078125,-0.9872283935546876,0.0048370361328125,-0.0054749264381825,0.0080731064081192,-0.0031153657473623
1770448145179,-0.154052734375,-0.990570068359375,0.0036773681640625,-0.004317516926676,0.0065721487626433,0.0002348908019484
1770448145189,-0.15576171875,-0.9945068359375,-0.0002288818359375,5.858954318682663e-05,-0.0025113609153777,-0.0031190942972898
1770448145199,-0.15618896484375,-0.9842071533203124,-0.001129150390625,0.0068552428856492,0.0009076052810996,-0.0073119751177728
1770448145209,-0.1595611572265625,-0.977630615234375,0.0005035400390625,0.0090712588280439,-0.0032708945218473,-0.0113011235371232
1770448145219,-0.1590728759765625,-0.9875030517578124,0.0049285888671875,0.0092430328950285,0.0002769687562249,-0.0103578325361013
1770448145229,-0.1501312255859375,-0.992767333984375,0.0043182373046875,0.0177971068769693,0.0028455876745283,-0.0120033994317054
1770448145239,-0.1556243896484375,-0.9736175537109376,0.00067138671875,0.0254150778055191,0.0016354472609236,-0.0126454876735806
1770448145249,-0.1629180908203125,-0.96856689453125,0.002410888671875,0.0276816952973604,0.0043436158448457,-0.0137949083000421
1770448145259,-0.162841796875,-0.9724578857421876,0.0088348388671875,0.0264126993715763,0.0075892102904617,-0.0172373093664646
1770448145269,-0.161529541015625,-0.975189208984375,0.0120086669921875,0.022669892758131,0.0054197991266846,-0.0170183982700109
1770448145279,-0.1581573486328125,-0.9851226806640624,0.01300048828125,0.0140585610643029,0.0053580137901008,-0.0123743778094649
1770448145289,-0.1547698974609375,-0.9941864013671876,0.0099639892578125,0.0081652514636516,-0.0002202434261562,-0.0086017437279224
1770448145299,-0.15228271484375,-0.9963531494140624,0.0066986083984375,0.0011680624447762,-0.0041617220267653,-0.0060456418432295
1770448145309,-0.152801513671875,-0.993408203125,0.004364013671875,-0.0086044073104858,-0.0046661244705319,0.0003499393642414
1770448145319,-0.15411376953125,-0.99072265625,0.0058441162109375,-0.0201830323785543,-0.0013371731620281,0.0043148533441126
1770448145330,-0.153533935546875,-0.98931884765625,0.0072784423828125,-0.0300873275846242,0.0032170985359698,0.0065790731459856
1770448145340,-0.1544036865234375,-0.990386962890625,0.0104827880859375,-0.036702886223793,0.0045651905238628,0.0069838734343647
1770448145350,-0.1574859619140625,-0.9888916015625,0.010528564453125,-0.0411122813820838,0.0062690810300409,0.0043018041178584
1770448145360,-0.1583404541015625,-0.9858245849609376,0.008148193359375,-0.0386909358203411,0.0062989084981381,0.0008945558220148
1770448145370,-0.16009521484375,-0.9863433837890624,0.0084686279296875,-0.0364735871553421,0.006206230726093,-0.0013728595804423
1770448145380,-0.1608428955078125,-0.98455810546875,0.0072479248046875,-0.02978958748281,0.0071995896287262,-0.0044666538015007
1770448145390,-0.159515380859375,-0.9844818115234376,0.0066986083984375,-0.0261000432074069,0.0045611960813403,-0.0082254391163587
1770448145400,-0.15948486328125,-0.9864654541015624,0.0037689208984375,-0.0165267791599035,0.0011709919199347,-0.0090994890779256
1770448145410,-0.15960693359375,-0.9872589111328124,-0.0006561279296875,-0.00824860855937,-0.0008559399866499,-0.0076829534955322
1770448145420,-0.1561737060546875,-0.9870147705078124,-0.003570556640625,0.0020224044565111,-0.0002053297212114,-0.0076587186194956
1770448145430,-0.1529083251953125,-0.986846923828125,-0.0078582763671875,0.012410863302648,-0.0007627293234691,-0.0053207296878099
1770448145440,-0.153564453125,-0.98504638671875,-0.0085906982421875,0.0209809150546789,-0.0003499393642414,-0.0036421390250325
1770448145450,-0.154876708984375,-0.98388671875,-0.007110595703125,0.0277293659746646,-0.0036900760605931,-0.0033902039285749
1770448145460,-0.155609130859375,-0.9846343994140624,-0.002716064453125,0.0302942562848329,-0.003345729317516,-0.0009161274065263
1770448145470,-0.1544036865234375,-0.985992431640625,0.0022430419921875,0.0295962411910295,-0.0077663101255893,0.0006002765148878
1770448145480,-0.1533966064453125,-0.9891204833984376,0.0049896240234375,0.028131503611803,-0.0088022798299789,0.0011326423846185
1770448145490,-0.15167236328125,-0.9946136474609376,0.0074310302734375,0.0215529631823301,-0.0072033181786537,0.0035870117135345
1770448145500,-0.1515045166015625,-0.991943359375,0.0084381103515625,0.0172966979444026,-0.0077495323494076,0.0047076698392629
1770448145510,-0.15545654296875,-0.98162841796875,0.0078582763671875,0.0112244253978133,0.0002860235108528,0.003336408175528
1770448145520,-0.1569976806640625,-0.97418212890625,0.01092529296875,0.0037441381718963,0.0089977560564875,0.0024016385432332
1770448145531,-0.1585235595703125,-0.9772796630859376,0.0146484375,-0.001252484624274,0.0122918197885155,-0.0019827233627438
1770448145541,-0.15911865234375,-0.98260498046875,0.013031005859375,-0.0022069616243243,0.0107791442424058,-0.005543902516365
1770448145551,-0.1585540771484375,-0.982391357421875,0.007415771484375,-0.0038386804517358,0.0039555933326482,-0.0051883705891668
1770448145561,-0.1584320068359375,-0.9851226806640624,0.0068817138671875,-0.004504204262048,0.0012839100090786,-0.0043263053521513
1770448145571,-0.156768798828125,-0.98797607421875,0.0068359375,-0.0044272388331592,0.001136637176387,-0.0029422603547573
1770448145581,-0.156463623046875,-0.9866485595703124,0.007415771484375,-0.007259510923177,0.0014173343079164,-0.0023369237314909
1770448145591,-0.156158447265625,-0.9896697998046876,0.0073394775390625,-0.0097692739218473,-0.0020226708147674,-0.0011576761025935
1770448145601,-0.156341552734375,-0.9888916015625,0.0089569091796875,-0.0111740911379456,-0.0048842374235391,0.0014530207263305
1770448145611,-0.1539764404296875,-0.98846435546875,0.0077056884765625,-0.0101977763697505,-0.0043657198548316,-0.0013203952694311
1770448145621,-0.154541015625,-0.9885406494140624,0.00701904296875,-0.0113802198320627,-0.0024980450980365,-0.0003557983145583
1770448145631,-0.1550750732421875,-0.9849395751953124,0.0068359375,-0.0135957039892673,0.0025640914682298,0.0025113609153777
1770448145641,-0.1569976806640625,-0.9818572998046876,0.00830078125,-0.0164370294660329,0.0066469837911427,0.0010482202051207
1770448145651,-0.1579437255859375,-0.9820556640625,0.01055908203125,-0.0179947130382061,0.0064432518556714,0.0001917476038215
1770448145661,-0.157806396484375,-0.9853515625,0.010406494140625,-0.0183907244354486,0.006672017276287,0.0011480887187644
1770448145671,-0.1567230224609375,-0.98626708984375,0.0087127685546875,-0.0182897914201021,0.0085372952744364,0.0005376922199502
1770448145681,-0.1562042236328125,-0.98504638671875,0.006134033203125,-0.0149965267628431,0.0088456897065043,0.00346743571572
1770448145691,-0.155548095703125,-0.9850616455078124,0.002349853515625,-0.0133437681943178,0.0057942396961152,0.0010399643797427
1770448145702,-0.1575469970703125,-0.9854583740234376,0.0016937255859375,-0.0105655584484338,0.0046208505518734,0.0020785972010344
1770448145711,-0.1558990478515625,-0.9842681884765624,0.0013275146484375,-0.0065958509221673,0.0038405444938689,0.0030301446095108
1770448145721,-0.154449462890625,-0.9841461181640624,0.0019073486328125,-0.0044224453158676,0.0021377194207161,0.0023758059833198
1770448145731,-0.156219482421875,-0.985565185546875,0.001373291015625,-0.001465537585318,0.0006775081856176,0.0013531520962715
1770448145741,-0.1568145751953125,-0.9844512939453124,0.0025177001953125,0.000471645820653,-0.0007099987124092,-0.0004207794554531
1770448145751,-0.158721923828125,-0.9850921630859376,0.003814697265625,0.0019992350134998,0.0026924558915197,-0.0031806132756173
1770448145762,-0.157012939453125,-0.9874725341796876,0.0044097900390625,0.0021033645607531,0.0023840616922825,-0.005364139098674
1770448145771,-0.15625,-0.9865875244140624,0.0041351318359375,0.0032597091048955,-0.0012644688831642,-0.0042152511887252
1770448145782,-0.158233642578125,-0.9842987060546876,0.0061798095703125,0.0018945727497339,0.0003547330561559,-0.0044429516419768
1770448145792,-0.157379150390625,-0.9835662841796876,0.0083770751953125,-0.0020133496727794,0.0010010822443291,-0.0036043222062289
1770448145802,-0.15740966796875,-0.9831695556640624,0.0090179443359375,-0.0088989529758691,0.0105754127725958,-0.0040567931719124
1770448145812,-0.156829833984375,-0.9819183349609376,0.0115509033203125,-0.0119272330775856,0.0105538405478,-0.001782453735359
1770448145822,-0.155914306640625,-0.984588623046875,0.0084991455078125,-0.013268400914967,0.0066041066311299,-0.001929193851538
1770448145832,-0.15472412109375,-0.9855804443359376,0.00421142578125,-0.0135874478146433,0.0048099351115524,-0.0021584921050816
1770448145842,-0.154998779296875,-0.9877471923828124,0.0037384033203125,-0.0127962222322821,0.0021065603941679,0.0004029362753499
1770448145852,-0.15521240234375,-0.992218017578125,0.0053253173828125,-0.0127086043357849,0.0055444352328777,0.005291168577969
1770448145863,-0.1523284912109375,-0.9930267333984376,0.0056304931640625,-0.0112984608858823,0.0047657266259193,0.0048416266217827
1770448145872,-0.1558074951171875,-0.9869537353515624,0.0026702880859375,-0.0062818643637001,-0.0002697782183531,0.0065290057100355
1770448145882,-0.1583709716796875,-0.9813385009765624,0.002410888671875,-0.0046267095021903,-0.0026386599056422,0.0045904908329248
1770448145892,-0.1593170166015625,-0.9788360595703124,0.0039825439453125,-0.0070035811513662,0.0029252162203192,0.0019068233668804
1770448145902,-0.1591033935546875,-0.9807891845703124,0.0067291259765625,-0.0095767276361584,0.0093210637569427,-0.0023568975739181
1770448145912,-0.1578521728515625,-0.9873046875,0.007171630859375,-0.0093791205435991,0.0079178437590599,-0.0033840788528323
1770448145922,-0.155364990234375,-0.9910736083984376,0.0029449462890625,-0.0098366513848304,0.0018442390719428,-0.0038429414853453
1770448145932,-0.1570892333984375,-0.9872283935546876,0.0044708251953125,-0.0094739291816949,0.0019084211671724,-0.0064925202168524
1770448145942,-0.1553955078125,-0.9785614013671876,0.0054473876953125,-0.0077306241728365,0.0029004486277699,-0.0083237094804644
1770448145952,-0.1581573486328125,-0.9842987060546876,0.00836181640625,-0.0077173081226646,-0.0002410160814179,-0.0089077409356832
1770448145963,-0.1534271240234375,-0.9964447021484376,0.0080413818359375,-0.0036892769858241,-0.0009379653492942,-0.0074424697086215
1770448145972,-0.1498260498046875,-0.9820098876953124,0.0005645751953125,0.0053795855492353,0.0026884609833359,-0.0098246671259403
1770448145983,-0.15692138671875,-0.967803955078125,-0.0002593994140625,0.0113863451406359,0.0008570052450522,-0.0097205378115177
1770448145993,-0.161956787109375,-0.970428466796875,0.005218505859375,0.01379996817559,0.0064211478456854,-0.0132665364071726
1770448146003,-0.1601409912109375,-0.9730224609375,0.0082244873046875,0.0126127311959862,0.0089879026636481,-0.0129789151251316
1770448146013,-0.1584930419921875,-0.9824066162109376,0.0115966796875,0.0110489223152399,0.0056166066788136,-0.0120723750442266
1770448146023,-0.1535491943359375,-0.99139404296875,0.0086822509765625,0.0050794472917914,0.0039582564495503,-0.0068107680417597
1770448146033,-0.15185546875,-0.9952545166015624,0.006927490234375,-0.0011845740955322,0.0030991204548627,-0.003883421421051
1770448146043,-0.153167724609375,-0.9937896728515624,0.0057525634765625,-0.0097892470657825,0.0066318036988377,0.0013614079216495
1770448146053,-0.1534423828125,-0.9901123046875,0.0046234130859375,-0.0211822502315044,0.0055196676403284,0.0042884880676865
1770448146063,-0.1531219482421875,-0.9914703369140624,0.0050048828125,-0.031764056533575,0.0046951528638601,0.0063638896681368
1770448146073,-0.15313720703125,-0.9910736083984376,0.0041351318359375,-0.0421538464725017,0.006811034400016,0.0053212619386613
1770448146083,-0.1566009521484375,-0.988525390625,0.006134033203125,-0.0475613921880722,0.0073031866922974,0.0041912826709449
1770448146093,-0.15704345703125,-0.986236572265625,0.00665283203125,-0.0468029268085956,0.0066299396567046,0.0033603766933083
1770448146103,-0.1593475341796875,-0.98541259765625,0.00628662109375,-0.0460636317729949,0.007940481416881,0.0008202536264434
1770448146113,-0.1597747802734375,-0.9849700927734376,0.0077362060546875,-0.0452561601996421,0.0115575864911079,-0.0018263958627358
1770448146123,-0.1586456298828125,-0.9857330322265624,0.007720947265625,-0.0376344621181488,0.0082392878830432,-0.0038333539851009
1770448146133,-0.158111572265625,-0.9862823486328124,0.003570556640625,-0.0269061829894781,0.004964665044099,-0.0022493058349937
1770448146143,-0.1573486328125,-0.985076904296875,-0.0025634765625,-0.0165211856365203,-0.0004455468442756,-0.0058688079006969
1770448146153,-0.156646728515625,-0.9864654541015624,-0.0053863525390625,-0.005288771353662,-0.0038005972746759,-0.0078182416036725
1770448146163,-0.155181884765625,-0.9868927001953124,-0.0081024169921875,0.004041080828756,-0.0059159458614885,-0.0048141963779926
1770448146173,-0.1531982421875,-0.986724853515625,-0.0059967041015625,0.0114830182865262,-0.0083684511482715,-0.0030021814163774
1770448146183,-0.1520538330078125,-0.985015869140625,-0.006134033203125,0.0168186612427234,-0.0071133030578494,-0.0007992146420292
1770448146193,-0.15155029296875,-0.98675537109375,-0.0030975341796875,0.0177784636616706,-0.0055950349196791,0.0008655273704789
1770448146203,-0.1513824462890625,-0.9865264892578124,-0.001068115234375,0.0173345152288675,-0.006819556467235,0.0030943269375711
1770448146214,-0.1529083251953125,-0.990692138671875,0.00201416015625,0.0167776476591825,-0.004228567238897,0.003476756857708
1770448146224,-0.1509246826171875,-0.993408203125,0.005035400390625,0.0143770752474665,-0.0006687197601422,0.0078009315766394
1770448146234,-0.1502685546875,-0.993072509765625,0.0052337646484375,0.0078920116648077,0.0026397253386676,0.0113895405083894
1770448146244,-0.1531219482421875,-0.9832305908203124,0.0059967041015625,0.007661648094654,0.0036916739773005,0.0107051087543368
1770448146254,-0.1580657958984375,-0.974945068359375,0.005889892578125,0.0082118567079305,0.0063196811825037,0.0060573597438633
1770448146264,-0.1606292724609375,-0.9732513427734376,0.006561279296875,0.0067255469039082,0.0052829124033451,0.0020048276055604
1770448146274,-0.158447265625,-0.9798431396484376,0.0059051513671875,0.0085375616326928,0.0032511870376765,-0.0026040389202535
1770448146284,-0.1557159423828125,-0.9832000732421876,0.00189208984375,0.0070680296048521,0.0007640608819201,-0.0028951223939657
1770448146294,-0.1554107666015625,-0.9868621826171876,0.0011749267578125,0.0072608422487974,-0.0014090784825384,-0.0027041737921535
1770448146304,-0.1570892333984375,-0.987945556640625,0.0007476806640625,0.0063079632818698,0.0008218514849431,-0.0034927357919514
1770448146314,-0.1561737060546875,-0.9869537353515624,0.004119873046875,0.0031683626584708,0.0015030881622806,-0.0039931437931954
1770448146324,-0.1558837890625,-0.989715576171875,0.0062713623046875,0.0005123922019265,0.0030008498579263,-0.0033257554750889
1770448146334,-0.1549835205078125,-0.989990234375,0.0066070556640625,-0.0014383733505383,-7.856325100874528e-05,-0.0022740731947124
1770448146345,-0.155364990234375,-0.9886627197265624,0.0056304931640625,-9.108010999625547e-05,-0.0020301276817917,-0.0015574166318401
1770448146354,-0.1562347412109375,-0.9867095947265624,0.0067596435546875,-0.0029550434555858,-0.0011584750609472,-0.0007558051147498
1770448146364,-0.1571807861328125,-0.9831390380859376,0.0070037841796875,-0.0049108690582215,0.0006593986763618,-0.0009896307019516
1770448146374,-0.15887451171875,-0.9819793701171876,0.00823974609375,-0.0075857480987906,0.0048679918982088,0.0006146575906313
1770448146384,-0.1586456298828125,-0.9821624755859376,0.009735107421875,-0.0090840421617031,0.0062709455378353,-0.0005438174703158
1770448146394,-0.1566925048828125,-0.98455810546875,0.0109405517578125,-0.0113719636574387,0.0071726916357874,0.0018293253378942
1770448146404,-0.1551971435546875,-0.9854583740234376,0.0078582763671875,-0.010913367383182,0.0051348409615457,0.0002316950121894
1770448146414,-0.1550140380859375,-0.984527587890625,0.00634765625,-0.0102560995146632,0.004365986213088,0.0009267800487577
1770448146425,-0.1543426513671875,-0.9855499267578124,0.0033416748046875,-0.0088036116212606,0.002740659052506,-0.0006037385901436
1770448146435,-0.154327392578125,-0.9868316650390624,0.0034332275390625,-0.0072592445649206,0.0062757390551269,0.0044517400674521
1770448146445,-0.15264892578125,-0.9847869873046876,0.0030364990234375,-0.0070701600052416,0.0037899445742368,0.003606985323131
1770448146455,-0.1549835205078125,-0.9863128662109376,0.0020751953125,-0.0046392264775931,0.0007270429632626,0.0022636868525296
1770448146465,-0.1562347412109375,-0.98553466796875,0.002166748046875,-0.0044978125952184,0.0019611518364399,0.0043249735608696
1770448146475,-0.15545654296875,-0.985198974609375,0.0028076171875,-0.0054251253604888,0.0005451490869745,0.0004404868523124
1770448146485,-0.15692138671875,-0.986846923828125,0.0045166015625,-0.0044930190779268,0.0033878071699291,9.986854274757206e-05
1770448146495,-0.158111572265625,-0.9862213134765624,0.006927490234375,-0.0063345949165523,0.0051979576237499,-0.0013057478936389
1770448146505,-0.1564178466796875,-0.985443115234375,0.0053253173828125,-0.0066997143439948,0.0056597497314214,-0.0027497138362377
1770448146515,-0.156036376953125,-0.9870147705078124,0.0045928955078125,-0.0075354143045842,0.0048046088777482,-0.0042804987169802
1770448146525,-0.1553955078125,-0.98358154296875,0.0035858154296875,-0.0043420176953077,0.0056155412457883,-0.0059487028047442
1770448146535,-0.155975341796875,-0.983978271484375,0.0010223388671875,-0.00276436121203,0.0018932411912828,-0.0022066952660679
1770448146545,-0.155853271484375,-0.9848480224609376,0.00048828125,-0.0008146609761752,0.0017025588313117,-0.0023158849216997
1770448146555,-0.15472412109375,-0.9846954345703124,0.002227783203125,0.0005795038305222,0.0060925134457647,0.0015409049810841
1770448146565,-0.15350341796875,-0.9855194091796876,0.0033721923828125,0.0024674187880009,0.0042259041219949,0.002520149340853
1770448146576,-0.1555633544921875,-0.9869537353515624,0.0026702880859375,0.004612062126398,0.0045883604325354,0.0032051142770797
1770448146585,-0.1552886962890625,-0.985595703125,0.0017852783203125,0.0052027516067028,0.0034906051587313,0.0009856359101831
1770448146596,-0.1558074951171875,-0.988067626953125,0.003662109375,0.0069274147972464,0.001717206207104,0.0055012917146086
1770448146605,-0.1529693603515625,-0.992462158203125,0.00274658203125,0.0077039925381541,0.0002394181792624,0.0082771042361855
1770448146615,-0.152679443359375,-0.990264892578125,0.004119873046875,0.0068712220527231,-0.0008649947121739,0.0078115840442478
1770448146625,-0.157379150390625,-0.983612060546875,0.006011962890625,0.004195543937385,0.0003810983616858,0.0078278295695781
1770448146636,-0.1600494384765625,-0.9785919189453124,0.00750732421875,0.0011507519520819,0.0047300402075052,0.004136155359447
1770448146645,-0.1621551513671875,-0.9782562255859376,0.0083160400390625,-0.0011419634101912,0.0048549426719546,-0.0005632585380226
1770448146655,-0.1591339111328125,-0.9836578369140624,0.0088653564453125,-0.0037425402551889,0.003874899353832,-0.0032866070978343
1770448146666,-0.156768798828125,-0.9894866943359376,0.007354736328125,-0.0057449708692729,0.0042498726397752,-0.0029965888243168
1770448146676,-0.153961181640625,-0.99200439453125,0.0059661865234375,-0.00725365197286,0.0005006743012927,-0.0024421187117695
1770448146686,-0.153961181640625,-0.985626220703125,0.00274658203125,-0.0012788499007001,0.0038639802951365,-0.0069015817716717
1770448146696,-0.1584625244140625,-0.9791412353515624,0.0027313232421875,0.0018365158466622,-0.0011092065833508,-0.0083452817052602
1770448146706,-0.157501220703125,-0.9868316650390624,0.005767822265625,0.0016522251535207,-0.0040951427072286,-0.0077727017924189
1770448146716,-0.151275634765625,-0.996795654296875,0.0064544677734375,0.0047377636656165,0.00192306865938,-0.005166532471776
1770448146726,-0.1486053466796875,-0.9791259765625,0.00372314453125,0.0096137449145317,0.0067942566238343,-0.0061194114387035
1770448146736,-0.158660888671875,-0.9673614501953124,0.0045928955078125,0.0109844738617539,0.0054062171839177,-0.0069143651053309
1770448146746,-0.1620635986328125,-0.9703369140625,0.0103302001953125,0.0100329266861081,0.009875800460577,-0.0107722198590636
1770448146756,-0.160858154296875,-0.9738311767578124,0.0139923095703125,0.0067657604813575,0.0097985686734318,-0.0117048593237996
1770448146766,-0.159393310546875,-0.9844818115234376,0.014434814453125,0.0002450108295306,0.0055476306006312,-0.0082691153511404
1770448146776,-0.1530914306640625,-0.994049072265625,0.01251220703125,-0.0061297980137169,0.004285292699933,-0.0036996633280068
1770448146786,-0.15118408203125,-0.995086669921875,0.006988525390625,-0.0095410412177443,0.0032836776226758,0.0023491743486374
1770448146797,-0.15301513671875,-0.992706298828125,0.00103759765625,-0.0136819900944828,0.0033763556275516,0.0037891454994678
1770448146806,-0.1540069580078125,-0.989501953125,-0.0004730224609375,-0.0204120650887489,0.0016322514275088,0.0069937272928655
1770448146816,-0.1540985107421875,-0.990936279296875,0.0024261474609375,-0.0262957867234945,0.0048932922072708,0.0082544675096869
1770448146826,-0.1540374755859375,-0.9901580810546876,0.003082275390625,-0.0321102663874626,0.0088547440245747,0.0052520199678838
1770448146836,-0.15673828125,-0.987701416015625,0.006317138671875,-0.0356951467692852,0.0101748732849955,0.0030663637444376
1770448146846,-0.1591644287109375,-0.98626708984375,0.0067138671875,-0.0336519703269004,0.0080821616575121,-0.0026690200902521
1770448146856,-0.1616058349609375,-0.985992431640625,0.00579833984375,-0.0302915927022695,0.0057233995757997,-0.005363340023905
1770448146867,-0.160675048828125,-0.9858551025390624,0.007659912109375,-0.0285261832177639,0.0054688011296093,-0.0070512513630092
1770448146876,-0.16064453125,-0.9843292236328124,0.007537841796875,-0.023878701031208,0.0036317526828497,-0.0090512856841087
1770448146886,-0.159332275390625,-0.986053466796875,0.0056915283203125,-0.0175968371331691,0.0011984225129708,-0.0080515351146459
1770448146897,-0.1569976806640625,-0.9849700927734376,-0.000396728515625,-0.0052552158012986,-0.0040714405477046,-0.0086973514407873
1770448146907,-0.15582275390625,-0.98687744140625,-0.00567626953125,0.0040581249631941,-0.0110832778736948,-0.0064142234623432
1770448146917,-0.1504974365234375,-0.9866485595703124,-0.00653076171875,0.0095218662172555,-0.0095668733119964,-0.0040306942537426
1770448146927,-0.1497344970703125,-0.9871673583984376,-0.0038604736328125,0.013897705823183,-0.0024828650057315,0.0002066612942144
1770448146937,-0.1492462158203125,-0.988037109375,0.001129150390625,0.0161944162100553,-0.001945971744135,0.0026035062037408
1770448146947,-0.1504058837890625,-0.986328125,0.0030670166015625,0.0140849258750677,-0.0030059099663048,0.0031577101908624
1770448146957,-0.1528778076171875,-0.987701416015625,0.0050811767578125,0.0128169953823089,-0.005657619331032,0.0045894253998994
1770448146967,-0.152923583984375,-0.9896240234375,0.0069580078125,0.0114705013111233,-0.0054022222757339,0.0051593417301774
1770448146977,-0.1505126953125,-0.993499755859375,0.0088653564453125,0.0034394725225865,-0.000695883994922,0.0105328019708395
1770448146987,-0.14984130859375,-0.9882049560546876,0.0094757080078125,0.0014064153656363,-0.0006125270738266,0.0099610211327672
1770448146997,-0.1547698974609375,-0.9791107177734376,0.00701904296875,-0.0011949603212997,0.0016346483025699,0.0064203487709164
1770448147007,-0.1574249267578125,-0.975006103515625,0.00714111328125,-0.0011358382180333,0.0075260931625962,0.0032653016969561
1770448147017,-0.1579132080078125,-0.975738525390625,0.008331298828125,-0.0030061763245612,0.0055974321439862,5.4328484111465514e-05
1770448147027,-0.1573486328125,-0.9850006103515624,0.0078277587890625,-0.004792624618858,0.0089042792096734,-0.0027401263359934
1770448147037,-0.1548919677734375,-0.986968994140625,0.0035858154296875,-0.006402239203453,0.0023057649377733,-0.0010516822803765
1770448147048,-0.1570892333984375,-0.98736572265625,0.003448486328125,-0.0083479443565011,0.002192314248532,-0.0026937874499708
1770448147057,-0.157135009765625,-0.9873504638671876,0.0048980712890625,-0.0090696616098284,0.0050107375718653,-0.0025814019609242
1770448147067,-0.1590576171875,-0.986968994140625,0.0053558349609375,-0.0104366615414619,0.0010799118317663,-0.0027806065045297
1770448147078,-0.157196044921875,-0.98785400390625,0.0057220458984375,-0.0101080276072025,0.0006527407676912,-0.0002061286650132
1770448147087,-0.1549835205078125,-0.9888763427734376,0.0063629150390625,-0.0104188183322548,-9.933590627042577e-05,-0.0003419498680159
1770448147098,-0.156158447265625,-0.9879608154296876,0.00469970703125,-0.0096925748512148,0.0009859022684395,0.0008961536805145
1770448147108,-0.1570281982421875,-0.9846954345703124,0.0030517578125,-0.0054594799876213,-0.0020895162597298,0.0019755328539758
1770448147118,-0.1584014892578125,-0.9830169677734376,0.0029449462890625,-0.0046852994710206,0.002035453915596,0.0018341189716011
1770448147128,-0.15966796875,-0.9810028076171876,0.006195068359375,-0.0049955574795603,0.0048829056322574,0.0014362427173182
1770448147138,-0.1595306396484375,-0.98223876953125,0.008697509765625,-0.005175853613764,0.0044296355918049,0.0017686053179204
1770448147148,-0.156219482421875,-0.982421875,0.004730224609375,-0.0012900352012366,0.0002577939885668,0.0014855111949145
1770448147158,-0.1566925048828125,-0.9851837158203124,0.0022125244140625,0.0025321335997432,0.0023760723415762,-8.388957212446257e-05
1770448147168,-0.153228759765625,-0.985198974609375,0.002044677734375,0.003877029987052,0.0048602689057588,-0.0002482066047377
1770448147178,-0.155364990234375,-0.9863739013671876,0.0036468505859375,0.007301322184503,0.0041342913173139,0.0008077367674559
1770448147188,-0.1553192138671875,-0.98431396484375,0.00164794921875,0.0058400458656251,0.0061250040307641,0.0017603494925424
1770448147198,-0.15472412109375,-0.9862823486328124,0.004302978515625,0.0049351039342582,0.0042789010331034,0.0015395734226331
1770448147208,-0.155426025390625,-0.9883575439453124,0.003692626953125,0.0074762920849025,0.0023984429426491,0.0002423476544208
1770448147218,-0.1553192138671875,-0.985565185546875,0.0027313232421875,0.0074118436314165,-0.0006146575906313,0.0009622001089155
1770448147228,-0.156219482421875,-0.9854583740234376,0.003509521484375,0.0082400869578123,0.0008910936885513,0.0014927018200978
1770448147238,-0.157562255859375,-0.986602783203125,0.0072021484375,0.0078778965398669,-0.000303866690956,-0.002397111384198
1770448147248,-0.157684326171875,-0.98614501953125,0.007659912109375,0.0046919570304453,0.0013717942638322,-0.0044940845109522
1770448147258,-0.1552734375,-0.9868011474609376,0.007904052734375,0.0014647386269643,0.0037199032958596,-0.0047161919064819
1770448147268,-0.156158447265625,-0.9859161376953124,0.00762939453125,-0.0001520664955023,0.0039510657079517,-0.0030522488523274
1770448147278,-0.1544342041015625,-0.983154296875,0.0076446533203125,-0.0004010720585938,0.0051399008370935,-0.0017611484508961
1770448147288,-0.15582275390625,-0.98419189453125,0.0062713623046875,-0.0029707562644034,0.0045806369744241,-0.0020003002136945
1770448147299,-0.1549530029296875,-0.98406982421875,0.0055694580078125,-0.0058206049725413,0.0083908215165138,0.0003549993562046
1770448147308,-0.1570281982421875,-0.9840087890625,0.0066680908203125,-0.0039870184846222,0.0049510826356709,0.0007323693134821
1770448147319,-0.156585693359375,-0.9841766357421876,0.0047607421875,-0.0028048411477357,0.003223223844543,0.0020098877139389
1770448147329,-0.15673828125,-0.985107421875,0.002288818359375,0.0027449200861155,0.0009805759182199,-0.0001707086194073
1770448147339,-0.157379150390625,-0.9849395751953124,0.0030059814453125,0.0054213968105614,-0.0004604605492204,0.0024525050539523
1770448147349,-0.154754638671875,-0.99017333984375,0.0030975341796875,0.0078909462317824,-0.0007366303470917,0.0038517299108207
1770448147359,-0.1520843505859375,-0.9930877685546876,0.00628662109375,0.0059929112903773,0.0001693770464044,0.0049769151955842
1770448147369,-0.152740478515625,-0.9887237548828124,0.0062408447265625,0.0061822622083127,0.0008617989369668,0.005708485841751
1770448147379,-0.1583404541015625,-0.9818572998046876,0.0054779052734375,0.0021739383228123,0.0012828446924686,0.0037918086163699
1770448147389,-0.1606292724609375,-0.980255126953125,0.0101776123046875,-0.000598145998083,0.0019771307706832,0.0005408879951573
1770448147399,-0.160400390625,-0.9787445068359376,0.011566162109375,-0.0041678468696773,0.0071159661747515,-0.0041318945586681
1770448147409,-0.1589508056640625,-0.9810791015625,0.010498046875,-0.0029521139804273,0.0074920048937201,-0.0067132962867617
1770448147419,-0.15789794921875,-0.98828125,0.0088043212890625,-0.007620901800692,0.0069628343917429,-0.0046152579598128
1770448147429,-0.1522064208984375,-0.997833251953125,0.007720947265625,-0.0086776437237858,0.002771551720798,-0.0019504991360008
1770448147439,-0.1507720947265625,-0.99420166015625,0.0043792724609375,-0.0043870252557098,-0.001244228798896,-0.0022216090001165
1770448147449,-0.1537322998046875,-0.979095458984375,0.001922607421875,0.0030117689166218,-0.0016253271605819,-0.0055713327601552
1770448147459,-0.1553955078125,-0.9783477783203124,0.00396728515625,0.0033316144254058,-0.0010783139150589,-0.0048991511575877
1770448147469,-0.1544952392578125,-0.9886016845703124,0.006378173828125,0.0036506610922515,-0.0035041873343288,-0.0040986048988997
1770448147479,-0.1500244140625,-0.9961700439453124,0.005950927734375,0.0105106979608535,0.0013859090395271,-0.0040008667856454
1770448147489,-0.1526031494140625,-0.972320556640625,0.00250244140625,0.0149776181206107,0.00229750899598,-0.0075066522695124
1770448147499,-0.1630096435546875,-0.9683074951171876,0.008575439453125,0.0151901384815573,0.0069063757546246,-0.0079215727746486
1770448147509,-0.16064453125,-0.9685821533203124,0.014617919921875,0.0113447997719049,0.014283332042396,-0.0115546565502882
1770448147519,-0.16217041015625,-0.9741973876953124,0.0167236328125,0.009842243976891,0.0161826983094215,-0.00924729462713
1770448147530,-0.15771484375,-0.9882049560546876,0.0128021240234375,0.0056957025080919,0.0097519634291529,-0.008274707943201
1770448147540,-0.1537628173828125,-0.9959564208984376,0.007720947265625,0.0024117587599903,0.0029537118971347,-0.0038685076870024
1770448147550,-0.1527099609375,-0.995147705078125,0.00299072265625,-0.0003467435599304,-0.0037755635567009,0.0003645867400337
1770448147560,-0.1531982421875,-0.9921722412109376,0.0006103515625,-0.0056022256612777,-0.0050530820153653,0.004423510748893
1770448147570,-0.155120849609375,-0.991363525390625,0.0031585693359375,-0.0166306421160697,-0.0033941988367587,0.003859186777845
1770448147580,-0.1537628173828125,-0.9922027587890624,0.0084686279296875,-0.0265120342373847,0.0010215885704383,0.0032019184436649
1770448147590,-0.1558380126953125,-0.9905242919921876,0.0102996826171875,-0.0337478443980217,0.0068520470522344,0.0044578653760254
1770448147600,-0.15716552734375,-0.98663330078125,0.011138916015625,-0.0375513695180416,0.0109423957765102,0.0009369000908918
1770448147610,-0.1594085693359375,-0.98565673828125,0.0112152099609375,-0.0379806719720363,0.0115535920485854,-0.0028093685396015
1770448147620,-0.1600799560546875,-0.9832763671875,0.0114593505859375,-0.0369082167744636,0.0086486153304576,-0.0061423145234584
1770448147630,-0.1600341796875,-0.983062744140625,0.0109100341796875,-0.0323680602014064,0.0060618873685598,-0.0074752266518771
1770448147640,-0.1587066650390625,-0.9838409423828124,0.0095672607421875,-0.0277906190603971,0.0041942121461033,-0.0066552395001053
1770448147650,-0.1582489013671875,-0.984466552734375,0.005126953125,-0.0180668849498033,3.861583536490798e-05,-0.0090169310569763
1770448147660,-0.1556854248046875,-0.9857940673828124,-3.0517578125e-05,-0.0062222094275057,-0.0025651566684246,-0.006893326062709
1770448147670,-0.152862548828125,-0.98736572265625,-0.00531005859375,0.0042040660046041,-0.0056120795197784,-0.0031635691411793
1770448147680,-0.148345947265625,-0.9871063232421876,-0.0069122314453125,0.0147674940526485,-0.0066733490675687,-0.0010125337867066
1770448147690,-0.1508941650390625,-0.9868621826171876,-0.00457763671875,0.018661567941308,-0.0054240599274635,-0.0007968177669681
1770448147700,-0.152618408203125,-0.9852447509765624,-0.0002593994140625,0.0192141737788915,-0.0026549051981419,0.0017632789677008
1770448147710,-0.1526641845703125,-0.9857330322265624,0.0023345947265625,0.019495403394103,-0.003785949666053,0.0039500002749264
1770448147720,-0.1516265869140625,-0.9902496337890624,0.007568359375,0.0167145319283008,-0.0047952877357602,0.0046402919106185
1770448147730,-0.1517486572265625,-0.9926910400390624,0.010284423828125,0.0118787633255124,-0.0038506644777953,0.0055745285935699
1770448147740,-0.151123046875,-0.9955596923828124,0.0113067626953125,0.0057939733378589,-0.0001938781206263,0.0093333143740892
1770448147751,-0.151580810546875,-0.9840087890625,0.00860595703125,0.0028921929188072,0.0014287859667092,0.0066778762266039
1770448147761,-0.1583099365234375,-0.9779205322265624,0.008026123046875,0.0014136058744043,0.0070488546043634,0.0038866172544658
1770448147771,-0.1588897705078125,-0.976104736328125,0.009521484375,-0.0001997370854951,0.0105682220309972,7.456851017195731e-05
1770448147781,-0.1581268310546875,-0.9781646728515624,0.0081329345703125,-0.0002849582233466,0.0062871905975043,-0.003474626224488
1770448147791,-0.156402587890625,-0.9817962646484376,0.0055084228515625,-0.0008969526388682,0.0005555353709496,-0.0063353939913213
1770448147801,-0.1565704345703125,-0.98040771484375,0.0025634765625,-0.0027502465527504,0.000372043607058,-0.0065801385790109
1770448147811,-0.1595458984375,-0.9826202392578124,0.0044403076171875,-0.0055841160938143,-0.0036922064609825,-0.000345678301528
1770448147821,-0.1597747802734375,-0.9836883544921876,0.0055389404296875,-0.0027438548859208,-0.0049955574795603,-0.0010327738709747
1770448147831,-0.1574859619140625,-0.988128662109375,0.0069427490234375,-0.0049606701359152,-0.0034796863328665,-0.0009653958841226
1770448147841,-0.153106689453125,-0.9929046630859376,0.0089569091796875,-0.006745786871761,0.0019251991761848,0.0003667172859422
1770448147851,-0.1506500244140625,-0.9938201904296876,0.00946044921875,-0.0087910946458578,0.0029832730069756,0.0003155845915898
1770448147862,-0.1536102294921875,-0.9917755126953124,0.010955810546875,-0.0090241208672523,0.0006873618694953,0.0018405106384307
1770448147871,-0.15594482421875,-0.986297607421875,0.0087432861328125,-0.0113759590312838,0.0016516925534233,0.0053252568468451
1770448147881,-0.1576995849609375,-0.984527587890625,0.0089569091796875,-0.0111434645950794,0.0018692727899178,0.0047492152079939
1770448147891,-0.15814208984375,-0.98345947265625,0.009979248046875,-0.0116481343284249,0.0024993766564875,0.0053321812301874
1770448147901,-0.156036376953125,-0.98309326171875,0.009857177734375,-0.0114633105695247,0.0052134040743112,0.0035145736765116
1770448147911,-0.155609130859375,-0.9828643798828124,0.0091094970703125,-0.0133155388757586,0.0072640380822122,0.0041681132279336
1770448147921,-0.1550140380859375,-0.98553466796875,0.0091094970703125,-0.0095290569588541,0.0084909563884139,-0.0001057274930644
1770448147932,-0.1544036865234375,-0.9875335693359376,0.0088348388671875,-0.0062083611264824,0.0086898943409323,-0.0011251855175942
1770448147941,-0.153656005859375,-0.98724365234375,0.0059661865234375,-0.0038490667939186,0.0099277319386601,-0.0004703142330981
1770448147951,-0.1533050537109375,-0.9858551025390624,0.003082275390625,0.0012785836588591,0.005520200356841,0.0001446096430299
1770448147962,-0.15496826171875,-0.98468017578125,0.0013427734375,0.0052954293787479,0.0035430695861577,0.0008498146780766
1770448147971,-0.1547088623046875,-0.985595703125,0.0001983642578125,0.0070813451893627,0.0019582223612815,0.0014961638953536
1770448147982,-0.1534423828125,-0.9846954345703124,0.00115966796875,0.0105274757370352,-0.0009624664089642,0.000286556140054
1770448147992,-0.15655517578125,-0.9859161376953124,0.0026397705078125,0.0100835263729095,-0.0029020465444773,-0.0023321302141994
1770448148002,-0.1575927734375,-0.9850921630859376,0.0051727294921875,0.0073878751136362,0.0023606258910149,-0.0001363538467558
1770448148012,-0.157257080078125,-0.981689453125,0.0097198486328125,0.0035896748304367,0.0074792215600609,-0.0028229507151991
1770448148022,-0.15655517578125,-0.9837493896484376,0.011566162109375,0.0014564828015863,0.0056887785904109,-0.0038717035204172
1770448148032,-0.156402587890625,-0.987579345703125,0.0093231201171875,0.000190149701666,0.0048147290945053,-0.0015867113834246
1770448148042,-0.1559906005859375,-0.985626220703125,0.00714111328125,-0.001212004572153,0.0046152579598128,-0.0024040355347096
1770448148052,-0.157012939453125,-0.98394775390625,0.00811767578125,-0.0029917950741946,0.0030186930671334,-0.0011171960504725
1770448148062,-0.158782958984375,-0.98321533203125,0.0081024169921875,-0.0065556373447179,0.003933488857001,-6.764429417671636e-05
1770448148072,-0.1578216552734375,-0.984405517578125,0.01068115234375,-0.0070171630941331,0.0057572214864194,0.0007821703911758
1770448148082,-0.1575469970703125,-0.9828033447265624,0.00799560546875,-0.0064075654372572,0.0066246129572391,0.0036858150269836
1770448148092,-0.1565093994140625,-0.9844512939453124,0.006927490234375,-0.0057353838346898,0.0059487028047442,0.0039324234239757
1770448148102,-0.15484619140625,-0.985015869140625,0.0050201416015625,-0.0033939324785023,0.0028029771056026,0.0035065840929746
1770448148112,-0.15704345703125,-0.9862060546875,0.0041046142578125,-0.0011893677292391,0.0008002799004316,0.005110606085509
1770448148122,-0.1538238525390625,-0.9916839599609376,0.00592041015625,-0.0005278385360725,-0.0010524812387302,0.0062938486225903
1770448148132,-0.15350341796875,-0.990631103515625,0.0046844482421875,0.001212004572153,-0.0039529297500848,0.0062805325724184
1770448148142,-0.1562347412109375,-0.9849395751953124,0.0065155029296875,-0.0016740630380809,-0.0017704694764688,0.007537011988461
1770448148152,-0.15936279296875,-0.9806365966796876,0.009613037109375,-0.0055822520516812,0.0020442423410713,0.0041739721782505
1770448148163,-0.159515380859375,-0.979095458984375,0.0132598876953125,-0.0096891121938824,0.0042152511887252,-0.0004796353168785
1770448148172,-0.1592864990234375,-0.9788970947265624,0.014007568359375,-0.0127570740878582,0.0097429081797599,-0.0036187032237648
1770448148182,-0.1590423583984375,-0.98028564453125,0.013427734375,-0.014013553969562,0.0060874535702168,-0.0055385762825608
1770448148192,-0.1570892333984375,-0.9923095703125,0.009490966796875,-0.0170311816036701,0.0031577101908624,-0.001782453735359
1770448148203,-0.15032958984375,-0.999725341796875,0.00836181640625,-0.0188546478748321,0.0040357541292905,0.0014170679496601
1770448148213,-0.148529052734375,-0.9920654296875,0.0046539306640625,-0.0145443212240934,0.0008727178792469,-0.0004359594604466
1770448148223,-0.1555023193359375,-0.980926513671875,0.0027923583984375,-0.0075460667721927,0.0031358720734715,-0.0018586200894787
1770448148233,-0.1553497314453125,-0.9761199951171876,0.0035247802734375,-0.0029364014044404,0.0042842272669076,-0.0029409287963062
1770448148243,-0.1547393798828125,-0.985321044921875,0.005828857421875,0.0005291700945235,0.0006002765148878,-0.0021960425656288
1770448148253,-0.151153564453125,-0.994140625,0.0029296875,0.0086049400269985,-0.0003318298549856,-0.0027616980951279
1770448148263,-0.1533966064453125,-0.9725341796875,0.00018310546875,0.0133243277668952,0.0019800602458417,-0.0034365430474281
1770448148273,-0.16192626953125,-0.9675750732421876,0.0065155029296875,0.014282532967627,0.0057620154693722,-0.006376673001796
1770448148283,-0.16357421875,-0.966033935546875,0.013458251953125,0.0108521152287721,0.0101698134094476,-0.0135144768282771
1770448148293,-0.1630706787109375,-0.974212646484375,0.0164337158203125,0.0063196811825037,0.008069378323853,-0.0138721400871872
1770448148303,-0.157379150390625,-0.98828125,0.014739990234375,-0.0015552861150354,0.0053638727404177,-0.0093000251799821
1770448148313,-0.151824951171875,-0.9986724853515624,0.0086212158203125,-0.0057995659299194,0.0041518681682646,-0.0059646819718182
1770448148323,-0.152679443359375,-0.998443603515625,0.0036773681640625,-0.009894442744553,0.0047795753926038,0.0012876383261755
1770448148333,-0.153045654296875,-0.99334716796875,0.0018768310546875,-0.016034360975027,0.0039934101514518,0.0043326965533196
1770448148343,-0.1555938720703125,-0.99114990234375,0.002716064453125,-0.0185134969651699,0.0051204599440097,0.0065625617280602
1770448148353,-0.1566925048828125,-0.9894256591796876,0.0028076171875,-0.0222730804234743,0.0034669029992073,0.006287723314017
1770448148363,-0.156890869140625,-0.9913330078125,0.0047454833984375,-0.0250017568469047,0.005992644932121,0.0067913271486759
1770448148373,-0.1572113037109375,-0.9879150390625,0.0074462890625,-0.0287038162350654,0.0136787937954068,0.0073516559787094
1770448148383,-0.157806396484375,-0.9873199462890624,0.01123046875,-0.0261751450598239,0.0117820911109447,0.0009406284661963
1770448148393,-0.16046142578125,-0.9881591796875,0.013458251953125,-0.0274148471653461,0.0062994412146508,-0.0037406759802252
1770448148403,-0.1593475341796875,-0.9859619140625,0.0125579833984375,-0.0277852918952703,0.0063348612748086,-0.0055012917146086
1770448148414,-0.1583251953125,-0.98583984375,0.0137481689453125,-0.0306010525673627,0.0066206185147166,-0.0065425876528024
1770448148423,-0.1566314697265625,-0.987945556640625,0.0124053955078125,-0.0291501618921756,0.0055452338419854,-0.0046285740099847
1770448148434,-0.1555633544921875,-0.98870849609375,0.00787353515625,-0.0262656919658184,0.0028104339726269,-0.0040594562888145
1770448148444,-0.1532440185546875,-0.989044189453125,0.0015869140625,-0.0225191581994295,0.0016279903938993,-0.0045201834291219
1770448148454,-0.15203857421875,-0.990203857421875,-0.0010986328125,-0.0194011274725198,0.0002985403698403,-0.0015246596885845
1770448148464,-0.1521453857421875,-0.9910736083984376,-0.002227783203125,-0.0177763346582651,0.0017206683987751,0.0004450142150744
1770448148474,-0.1523284912109375,-0.9881744384765624,-0.0023651123046875,-0.0156276952475309,0.0072784190997481,0.0021313277538865
1770448148484,-0.1529541015625,-0.98779296875,-0.002777099609375,-0.0083633912727236,0.0106345349922776,0.0053937002085149
1770448148494,-0.1527252197265625,-0.9890899658203124,-0.005645751953125,0.0016423714114353,0.0072821476496756,0.0041713090613484
1770448148504,-0.1521759033203125,-0.9933013916015624,-0.010498046875,0.0159174483269453,0.0005944175645709,0.0079679116606712
1770448148514,-0.14642333984375,-0.9982757568359376,-0.0159912109375,0.034403245896101,-0.0052056810818612,0.0113120432943105
1770448148524,-0.147308349609375,-0.984527587890625,-0.0193939208984375,0.0539993196725845,-0.0098688760772347,0.0102598275989294
1770448148534,-0.154571533203125,-0.9763641357421876,-0.0154571533203125,0.0680946335196495,-0.0125059382990002,0.0098387822508811
1770448148544,-0.1544647216796875,-0.9782562255859376,-0.0048675537109375,0.0759485587477684,-0.0155472680926322,0.0061678811907768
1770448148554,-0.1564483642578125,-0.9798736572265624,0.003326416015625,0.0776295438408851,-0.0184562392532825,0.0017313209827989
1770448148564,-0.1593017578125,-0.9878997802734376,0.0084228515625,0.0780460685491561,-0.0193404089659452,-0.0005025385180488
1770448148574,-0.1604766845703125,-0.988372802734375,0.0137481689453125,0.0764766633510589,-0.0196589231491088,-0.0012756541837006
1770448148584,-0.16339111328125,-0.98065185546875,0.0149078369140625,0.076243370771408,-0.0150854755192995,-0.0036799560766667
1770448148594,-0.1634674072265625,-0.9817962646484376,0.0171051025390625,0.0693857297301292,-0.0121882231906056,-0.0070528495125472
1770448148605,-0.1627044677734375,-0.98370361328125,0.019622802734375,0.0618628337979316,-0.0088944248855113,-0.0091474251821637
1770448148614,-0.1601104736328125,-0.9832305908203124,0.0201568603515625,0.0550158470869064,-0.0093391733244061,-0.0122295022010803
1770448148624,-0.15887451171875,-0.9849853515625,0.0231170654296875,0.0428140424191951,-0.0093807186931371,-0.0116428071632981
1770448148635,-0.1578521728515625,-0.984619140625,0.0239715576171875,0.0305749531835317,-0.0061042313463985,-0.0124324345961213
1770448148645,-0.156829833984375,-0.984954833984375,0.0257110595703125,0.0208783838897943,-0.0085479477420449,-0.011060107499361
1770448148655,-0.157257080078125,-0.9847564697265624,0.0252227783203125,0.0128068756312131,-0.0081474082544446,-0.0079759014770388
1770448148665,-0.1532135009765625,-0.985107421875,0.0263824462890625,0.0022663499694317,-0.0092763230204582,-0.0041686459444463
1770448148675,-0.1525421142578125,-0.984619140625,0.0276641845703125,-0.0104579674080014,-0.007994276471436,-0.003107376396656
1770448148685,-0.15045166015625,-0.9839935302734376,0.0295562744140625,-0.0252068191766738,0.0018620821647346,0.0030522488523274
1770448148695,-0.149261474609375,-0.9820556640625,0.0313568115234375,-0.0380264781415462,0.0098907137289643,0.0063489759340882
1770448148705,-0.150726318359375,-0.980377197265625,0.0283050537109375,-0.0470463372766971,0.0114268250763416,0.011207646690309
1770448148715,-0.151092529296875,-0.9832916259765624,0.0251922607421875,-0.0511785000562667,0.0120574617758393,0.0147033119574189
1770448148725,-0.148773193359375,-0.9864959716796876,0.0216217041015625,-0.0529188737273216,0.0110111059620976,0.0183470491319894
1770448148735,-0.1518402099609375,-0.9869384765625,0.0185546875,-0.0519380308687686,0.009411078877747,0.0195486675947904
1770448148745,-0.1529998779296875,-0.9852752685546876,0.0160675048828125,-0.0529838539659976,0.0128854382783174,0.020674118772149
1770448148755,-0.1556243896484375,-0.983612060546875,0.0152740478515625,-0.0535918548703193,0.0178186781704425,0.0195231009274721
1770448148765,-0.1587982177734375,-0.981781005859375,0.0132904052734375,-0.0520746521651744,0.0201782379299402,0.014549913816154
1770448148775,-0.1591949462890625,-0.9811248779296876,0.01019287109375,-0.0484532862901687,0.0216024965047836,0.0102656865492463
1770448148785,-0.16278076171875,-0.9810791015625,0.00531005859375,-0.0408566184341907,0.0146902631968259,0.0057585532777011
1770448148796,-0.162017822265625,-0.9845428466796876,0.000274658203125,-0.0301025081425905,0.0078872181475162,0.0045556034892797
1770448148805,-0.160614013671875,-0.984619140625,-0.0025177001953125,-0.0190493240952491,0.0061604240909218,0.0004167847218923
1770448148815,-0.16119384765625,-0.983154296875,-0.003143310546875,-0.0124595994129776,0.004136155359447,-0.0017459683585911
1770448148825,-0.1611175537109375,-0.9869842529296876,-0.0003509521484375,-0.0070608388632535,0.0042980755679309,-0.0031164311803877
1770448148836,-0.159820556640625,-0.98834228515625,0.0036468505859375,-0.0047793090343475,0.0038472025189548,-0.0035590485204011
1770448148845,-0.1602630615234375,-0.98602294921875,0.002838134765625,-0.0037300232797861,0.0044011399149894,-0.0050994209013879
1770448148855,-0.1590118408203125,-0.984710693359375,0.003326416015625,-0.0019654128700494,0.0011086739832535,-0.0067516458220779
1770448148866,-0.1602630615234375,-0.9870758056640624,0.0036163330078125,0.0008149272762238,0.0009278453071601,-0.0056411079131066
1770448148876,-0.155975341796875,-0.9887542724609376,0.0043487548828125,0.0027670243289321,-0.0007821703911758,-0.0024325312115252
1770448148886,-0.154876708984375,-0.9949798583984376,0.0037994384765625,0.0062879896722733,-0.0031462584156543,0.0017680726014077
1770448148896,-0.1527862548828125,-0.9925537109375,0.0063629150390625,0.0058421762660145,-0.0010982876410707,0.0022932479623705
1770448148906,-0.1528167724609375,-0.98736572265625,0.012054443359375,0.0013467605458572,0.001847967505455,0.0046216496266424
1770448148916,-0.1556854248046875,-0.9831085205078124,0.0125732421875,0.0016913736471906,0.0015627428656443,0.0053468286059796
1770448148926,-0.1596832275390625,-0.98040771484375,0.0130157470703125,-0.0039244340732693,0.0046810382045805,0.0052765212021768
1770448148936,-0.155853271484375,-0.983245849609375,0.014068603515625,-0.0063074305653572,0.0082936165854334,0.0063388561829924
1770448148946,-0.1523590087890625,-0.9879302978515624,0.012420654296875,-0.0078962724655866,0.0074126427061855,0.0065508438274264
1770448148956,-0.1525726318359375,-0.986419677734375,0.0102386474609375,-0.0080632530152797,0.0035854137968271,0.0091402353718876
1770448148966,-0.1551971435546875,-0.9869537353515624,0.007781982421875,-0.0052432315424084,0.0004024036461487,0.0124132595956325
1770448148976,-0.1552734375,-0.983978271484375,0.0112152099609375,-0.0037161749787628,0.0016972325975075,0.0088584730401635
1770448148986,-0.1574249267578125,-0.9777679443359376,0.0152130126953125,-0.0049731871113181,0.002092711860314,0.0007379619055427
1770448148996,-0.160919189453125,-0.9788970947265624,0.0186614990234375,-0.012606605887413,0.0052448292262852,0.0004881574132014
1770448149006,-0.1578826904296875,-0.9950714111328124,0.0175018310546875,-0.0133669376373291,0.0097229350358247,-0.0012141350889578
1770448149016,-0.1566925048828125,-0.98046875,0.013031005859375,-0.0120457438752055,0.0083439499139785,-0.0045566684566438
1770448149026,-0.1646881103515625,-0.969268798828125,0.011474609375,-0.0111357420682907,0.0142644234001636,-0.0080613885074853
1770448149036,-0.1654052734375,-0.9628753662109376,0.012939453125,-0.0151619082316756,0.0174418408423662,-0.0136572225019335
1770448149046,-0.166595458984375,-0.9708404541015624,0.016082763671875,-0.0213934388011693,0.0145155591890215,-0.0158881526440382
1770448149056,-0.1623077392578125,-0.984375,0.0132904052734375,-0.0291104800999164,0.0094472980126738,-0.0144718838855624
1770448149067,-0.1548919677734375,-0.9940032958984376,0.010650634765625,-0.0335904508829116,0.0068536452017724,-0.0120153836905956
1770448149077,-0.150970458984375,-0.9949798583984376,0.0034942626953125,-0.032998964190483,0.0026114957872778,-0.0041348240338265
1770448149087,-0.151519775390625,-0.9959716796875,-0.0015869140625,-0.036809679120779,-0.0004018710169475,0.00131799839437
1770448149097,-0.1508636474609375,-0.9953155517578124,-7.62939453125e-05,-0.0372027605772018,0.0047390949912369,0.0064123594202101
1770448149107,-0.151214599609375,-0.9933013916015624,0.0026397705078125,-0.0374325923621654,0.0085950857028365,0.0078283622860908
1770448149117,-0.1540985107421875,-0.9908599853515624,0.0035552978515625,-0.0344527810811996,0.0127402963116765,0.0091711273416876
1770448149127,-0.1555023193359375,-0.9879608154296876,0.0030670166015625,-0.0310452673584222,0.0143626937642693,0.0076238312758505
1770448149137,-0.157867431640625,-0.987274169921875,0.003692626953125,-0.0288931671530008,0.0136372484266757,0.0077519291080534
1770448149147,-0.1593780517578125,-0.9873199462890624,0.0052947998046875,-0.0263631641864776,0.005550826434046,0.0015765913994982
1770448149157,-0.161895751953125,-0.987884521484375,0.0077056884765625,-0.0234744325280189,0.0008817726047709,0.0008157262345775
1770448149167,-0.16131591796875,-0.986663818359375,0.0101165771484375,-0.0204951558262109,0.0018138790037482,-0.0003371562052052
1770448149177,-0.1593475341796875,-0.98590087890625,0.008697509765625,-0.0173611473292112,-0.0007518103811889,0.0004090615548193
1770448149187,-0.1582794189453125,-0.9872589111328124,0.0031280517578125,-0.0091479578986763,-0.0067955879494547,-0.0014713965356349
1770448149198,-0.1573333740234375,-0.9864044189453124,-0.0015411376953125,-0.0017297230660915,-0.0058163437061011,-0.0021070931106805
1770448149207,-0.1552276611328125,-0.9850921630859376,-0.00238037109375,0.0032754219137132,-0.0034634410403668,1.7310547264060006e-05
1770448149217,-0.1536407470703125,-0.9849090576171876,-0.0009307861328125,0.0068315407261252,-0.0020706076174974,0.0023505059070885
1770448149227,-0.154510498046875,-0.983306884765625,0.00152587890625,0.0077170417644083,0.0010460896883159,0.005764412228018
1770448149237,-0.155792236328125,-0.984283447265625,0.0027618408203125,0.0069689597003161,-0.0015757924411445,0.0064704162068665
1770448149247,-0.1552276611328125,-0.989593505859375,0.004058837890625,0.0070416643284261,-0.0087040094658732,0.0052376389503479
1770448149257,-0.1534576416015625,-0.9947967529296876,0.0042266845703125,0.0060192765668034,-0.007653126027435,0.0102486424148082
1770448149267,-0.14984130859375,-0.9941253662109376,0.0050048828125,0.0020839234348386,-0.0003494067350402,0.0143115613609552
1770448149277,-0.154022216796875,-0.983184814453125,0.0062103271484375,0.0020434434991329,-0.0004546015989035,0.0129352398216724
1770448149287,-0.1591796875,-0.9774932861328124,0.006591796875,0.0013140037190169,0.0023680827580392,0.0114854145795106
1770448149298,-0.15966796875,-0.9776611328125,0.009796142578125,0.0015219965716823,0.0034120420459657,0.0075231636874377
1770448149307,-0.158447265625,-0.9747314453125,0.0086517333984375,0.0016668725293129,0.0020591560751199,0.0048853028565645
1770448149318,-0.1598052978515625,-0.978729248046875,0.0090179443359375,-5.219795639277436e-05,0.0016082830261439,0.0021616879384964
1770448149328,-0.1596527099609375,-0.9873199462890624,0.0080108642578125,-0.0040583913214504,0.0026117621455341,0.0006042712484486
1770448149338,-0.158447265625,-0.9868011474609376,0.0077972412109375,-0.0035585158038884,0.003343598684296,0.001040230737999
1770448149348,-0.1601409912109375,-0.9866180419921876,0.0061187744140625,-0.0053175338543951,0.000283360335743,0.0037910097744315
1770448149358,-0.1591033935546875,-0.9872283935546876,0.0049591064453125,-0.004734834190458,-0.0015691345324739,0.0012197277974337
1770448149368,-0.1602630615234375,-0.985595703125,0.0050201416015625,-0.0023885890841484,9.374327055411412e-05,0.0030740867368876
1770448149378,-0.1595001220703125,-0.9869842529296876,0.0027923583984375,0.0007765777409076,-0.0031372036319226,0.0015041533624753
1770448149388,-0.1589813232421875,-0.985382080078125,0.0024261474609375,0.0040187099948525,-0.0042402851395308,0.0003065298369619
1770448149398,-0.159698486328125,-0.9843292236328124,0.0039215087890625,0.0057726679369807,0.0005408879951573,0.0033076461404561
1770448149408,-0.1600799560546875,-0.98419189453125,0.006744384765625,0.0078448737040162,-0.0003012035158462,0.0014764565275982
1770448149418,-0.160125732421875,-0.9828948974609376,0.006439208984375,0.0098494347184896,-0.0004950816510245,0.0008833705214783
1770448149428,-0.1614532470703125,-0.9856109619140624,0.00701904296875,0.009982593357563,-0.0010876349406316,0.0005752427969127
1770448149438,-0.1593170166015625,-0.98577880859375,0.0081329345703125,0.0089785810559988,0.0042719766497612,0.0017571536591276
1770448149448,-0.1578216552734375,-0.9857177734375,0.0080718994140625,0.0120510701090097,0.0029419939965009,-0.0004117247008252
1770448149458,-0.1584625244140625,-0.983673095703125,0.0058135986328125,0.016252739354968,-0.0015441008144989,-0.0020801951177418
1770448149468,-0.158111572265625,-0.983154296875,0.00384521484375,0.0167885664850473,0.0008756473544053,-0.0011038802331313
1770448149478,-0.156402587890625,-0.9832916259765624,0.006500244140625,0.0161203797906637,0.0010128001449629,-0.0009787116432562
1770448149488,-0.1564788818359375,-0.9837799072265624,0.007659912109375,0.0153688360005617,0.0020226708147674,-0.0006522081675939
1770448149498,-0.1576995849609375,-0.98291015625,0.0089263916015625,0.0152047853916883,0.0043729105964303,-0.0006940197781659
1770448149508,-0.159149169921875,-0.9840087890625,0.010162353515625,0.0154884122312068,-0.0008178567513823,0.000539822736755
1770448149519,-0.1598358154296875,-0.98565673828125,0.0098724365234375,0.0127749172970652,-0.0020951088517904,-8.229167724493891e-05
1770448149529,-0.1586456298828125,-0.9871673583984376,0.0099029541015625,0.0138359209522604,-0.0021505025215446,-0.000271109805908
1770448149539,-0.1578369140625,-0.98834228515625,0.0115814208984375,0.0095239961519837,0.0006764429272152,-0.0018809906905516
1770448149549,-0.1572418212890625,-0.9882659912109376,0.0125885009765625,0.0068224859423935,-0.0017933726776391,-0.0006969492533244
1770448149559,-0.1569061279296875,-0.9858245849609376,0.011505126953125,0.0050733219832181,-0.0015305186389014,-0.0037529265973716
1770448149569,-0.15911865234375,-0.9817047119140624,0.010223388671875,0.0031403994653373,-0.0019885823130607,-0.0058176754973828
1770448149579,-0.1609344482421875,-0.98114013671875,0.0131378173828125,-0.003410177771002,0.0051055462099611,-0.0017800568602979
1770448149589,-0.15966796875,-0.9831695556640624,0.0152130126953125,-0.0040163132362067,0.0060059609822928,-0.0010130665032193
1770448149599,-0.16015625,-0.984283447265625,0.0121917724609375,-0.0048544099554419,0.0067023774608969,-0.0021856562234461
1770448149609,-0.1569061279296875,-0.982818603515625,0.0106048583984375,-0.0040141828358173,0.0076185050420463,-0.0027518442366272
1770448149619,-0.1583099365234375,-0.9853057861328124,0.00830078125,-0.0045502767898142,0.0087591363117098,0.0005419532535597
1770448149629,-0.1577301025390625,-0.99462890625,0.005279541015625,-0.0032021848019212,0.0063979779370129,0.0032511870376765
1770448149639,-0.1541595458984375,-0.996429443359375,0.005645751953125,0.0014338459586724,0.0012871057260781,0.0071420655585825
1770448149649,-0.154296875,-0.9895782470703124,0.0028076171875,0.0080526005476713,-0.0022517025936394,0.006582801695913
1770448149659,-0.15850830078125,-0.98193359375,0.002227783203125,0.01071123406291,-0.0005515406373888,0.0070866714231669
1770448149669,-0.1624908447265625,-0.9767303466796876,0.0081634521484375,0.0092534190043807,0.0030453247018158,0.004023237619549
1770448149680,-0.1636810302734375,-0.9765777587890624,0.0110321044921875,0.0095865810289978,0.0044565335847437,-0.0006506102508865
1770448149689,-0.1636962890625,-0.9853057861328124,0.0142822265625,0.0108907306566834,0.0044421525672078,-0.001528920722194
1770448149699,-0.1591339111328125,-0.9878997802734376,0.0107574462890625,0.0086467517539858,0.001212004572153,0.0003097256412729
1770448149709,-0.1588134765625,-0.992828369140625,0.0111846923828125,0.0098342550918459,-0.0052150022238492,-7.190534961409867e-05
1770448149719,-0.15679931640625,-0.988922119140625,0.012451171875,0.0113274892792105,-0.0015363775892183,-0.003810983384028
1770448149730,-0.1576385498046875,-0.976409912109375,0.011260986328125,0.0113461315631866,0.0002593918761704,-0.0066421898081898
1770448149740,-0.15960693359375,-0.9827728271484376,0.014495849609375,0.0051281829364597,-0.0018698053900152,-0.0052693304605782
1770448149750,-0.154510498046875,-0.99176025390625,0.0158538818359375,0.0062379222363233,0.003327886108309,-0.0078057250939309
1770448149760,-0.1557159423828125,-0.9767608642578124,0.012725830078125,0.0082304989919066,0.0064547033980488,-0.010080331005156
1770448149770,-0.1624298095703125,-0.9694671630859376,0.0120086669921875,0.0082238409668207,0.0090286489576101,-0.0104646254330873
1770448149780,-0.16058349609375,-0.9701995849609376,0.0139312744140625,0.0089876363053917,0.0145142273977398,-0.0136588206514716
1770448149790,-0.162872314453125,-0.9706573486328124,0.015411376953125,0.0097722029313445,0.0095157409086823,-0.0174596831202507
1770448149800,-0.160980224609375,-0.98150634765625,0.01434326171875,0.0091149350628256,0.0092512890696525,-0.0175355840474367
1770448149810,-0.155426025390625,-0.9901885986328124,0.0111083984375,0.0047731837257742,0.0066613648086786,-0.0114766266196966
1770448149820,-0.1540374755859375,-0.9974822998046876,0.0100555419921875,0.0007009439868852,0.0004095941840205,-0.0064243436791002
1770448149830,-0.1540374755859375,-0.9949951171875,0.0067291259765625,-0.0033433323260396,0.0008617989369668,0.0001518001809017
1770448149840,-0.154449462890625,-0.9925537109375,0.00543212890625,-0.0092827146872878,0.0028173581231385,0.0021947110071778
1770448149850,-0.15618896484375,-0.9894866943359376,0.008056640625,-0.0159643199294805,0.0074826837517321,0.0065303370356559
1770448149860,-0.15570068359375,-0.988983154296875,0.010284423828125,-0.0213148761540651,0.0080502033233642,0.0050078080967068
1770448149870,-0.158782958984375,-0.987548828125,0.0113372802734375,-0.0205883663147687,0.0109096392989158,0.0038157771341502
1770448149880,-0.160888671875,-0.9871673583984376,0.0116119384765625,-0.0180405192077159,0.0095727322623133,-0.0014189322246238
1770448149890,-0.1618194580078125,-0.9879913330078124,0.0146942138671875,-0.0159211754798889,0.0087109338492155,-0.004701810888946
1770448149900,-0.163238525390625,-0.987518310546875,0.0159759521484375,-0.0137064913287758,0.0060549629852175,-0.007219829596579
1770448149911,-0.1635894775390625,-0.984893798828125,0.016937255859375,-0.0137147465720772,0.0039593214169144,-0.0096403770148754
1770448149920,-0.1617431640625,-0.9835205078125,0.01409912109375,-0.0086062708869576,0.0013078784104436,-0.0101389205083251
1770448149932,-0.16119384765625,-0.984222412109375,0.00970458984375,-0.0030208237003535,-0.0005283711361698,-0.0073143718764185
1770448149940,-0.156707763671875,-0.9840545654296876,0.004638671875,0.0057241981849074,-0.0045374939218163,-0.0083306338638067
1770448149951,-0.1560821533203125,-0.986572265625,0.0009002685546875,0.0140737406909465,-0.0063830646686255,-0.0061175473965704
1770448149961,-0.15423583984375,-0.98529052734375,0.00140380859375,0.0183515772223472,-0.0086941560730338,-0.0057726679369807
1770448149971,-0.1548004150390625,-0.98504638671875,0.0058135986328125,0.022057631984353,-0.0071673654019832,-0.0051316451281309
1770448149981,-0.1552734375,-0.984222412109375,0.0078582763671875,0.0193939376622438,-0.0067108995281159,-0.0018745990237221
1770448149991,-0.15484619140625,-0.985748291015625,0.0096588134765625,0.0191529225558042,-0.0065268753096461,-0.0011787151452153
1770448150001,-0.1544647216796875,-0.9895172119140624,0.0139007568359375,0.0152122424915432,-0.004316717851907,0.0004623247659765
1770448150011,-0.1517486572265625,-0.99176025390625,0.0170745849609375,0.0067963870242238,-0.0038056571502238,0.0032543828710913
1770448150021,-0.1513671875,-0.9934844970703124,0.0186004638671875,-0.000311589858029,0.0032788838725537,0.0069447252899408
1770448150031,-0.1532440185546875,-0.9824981689453124,0.017486572265625,-0.00426079146564,0.00202107289806,0.0053577474318444
1770448150041,-0.15887451171875,-0.9775238037109376,0.017730712890625,-0.005861883983016,0.0065617626532912,0.0022101574577391
1770448150051,-0.16094970703125,-0.972625732421875,0.0161590576171875,-0.0082113249227404,0.0079007996246218,-0.0001288969942834
1770448150061,-0.1619415283203125,-0.979583740234375,0.016754150390625,-0.0109192263334989,0.0078624505549669,-0.0039547942578792
1770448150071,-0.1591339111328125,-0.985565185546875,0.0147552490234375,-0.0084262415766716,0.0096699381247162,-0.0050837080925703
1770448150081,-0.155792236328125,-0.98431396484375,0.0091552734375,-0.0049249837175011,0.004604339133948,-0.0069292788393795
1770448150091,-0.1573333740234375,-0.9862060546875,0.00579833984375,-0.0036216326989233,0.000818655709736,-0.0055473647080361
1770448150101,-0.1575927734375,-0.9903564453125,0.0088958740234375,-0.0024114924017339,0.001294029993005,-0.0048714540898799
1770448150111,-0.156219482421875,-0.9909820556640624,0.01226806640625,-0.0018216022290289,0.0001001348573481,-0.0041433461010456
1770448150121,-0.1570587158203125,-0.989013671875,0.0111083984375,0.0003928162623196,-0.001202150946483,-0.003304183948785
1770448150131,-0.155548095703125,-0.987548828125,0.0114898681640625,-6.73779723001644e-05,-0.0016588830621913,-0.001996039180085
1770448150141,-0.1566619873046875,-0.9866943359375,0.0131072998046875,-0.0001789644302334,0.0015891082584857,-0.0026125609874725
1770448150151,-0.1591949462890625,-0.9829864501953124,0.01580810546875,-0.0015148060629144,0.005682120565325,-0.0008772452711127
1770448150165,-0.1594696044921875,-0.9817352294921876,0.0168304443359375,-0.0059449742548167,0.006967095658183,-0.0026493126060813
1770448150172,-0.1588592529296875,-0.9851837158203124,0.015411376953125,-0.0054253917187452,0.005910353269428,-0.0028258801903575
1770448150182,-0.158538818359375,-0.9853363037109376,0.0161895751953125,-0.0085993474349379,0.0072706961072981,-0.00013102752564
1770448150192,-0.158050537109375,-0.9839630126953124,0.0147857666015625,-0.0044751758687198,0.0083641903474926,-0.0018429075134918
1770448150202,-0.15679931640625,-0.984466552734375,0.0106048583984375,-0.0010130665032193,0.0042754388414323,-0.0009888317435979
1770448150212,-0.1552886962890625,-0.9855804443359376,0.008941650390625,0.0039718383923172,0.0028852687682956,0.0001645833544898
1770448150222,-0.1551055908203125,-0.9871063232421876,0.0070648193359375,0.0071860076859593,0.002255963627249,-0.0011113371001556
1770448150232,-0.15460205078125,-0.9842071533203124,0.0081939697265625,0.0103820674121379,0.0025451830588281,0.0018399780383333
1770448150242,-0.1558380126953125,-0.9851837158203124,0.0084991455078125,0.0112601108849048,0.0025470473337918,0.0001390170073136
1770448150252,-0.1571502685546875,-0.983642578125,0.0109100341796875,0.0119599904865026,0.0017851168522611,0.0014948323369026
1770448150262,-0.1585845947265625,-0.98272705078125,0.0130767822265625,0.0124875623732805,0.0004615258076228,-0.0001701759902061
1770448150272,-0.1588897705078125,-0.985107421875,0.014495849609375,0.0090693952515721,0.0023947143927216,-0.0012383698485791
1770448150282,-0.1575775146484375,-0.9842071533203124,0.01611328125,0.0082336952909827,0.0031414648983627,-0.0020746025256812
1770448150292,-0.15771484375,-0.9859466552734376,0.0172119140625,0.0039481362327933,0.0040016658604145,-0.0050900997593998
1770448150302,-0.156829833984375,-0.9863128662109376,0.0180206298828125,0.001015463261865,0.0036490634083747,-0.0058821239508688
1770448150312,-0.15618896484375,-0.9853668212890624,0.016937255859375,0.001104679191485,0.0039630499668419,-0.0054440340027213
1770448150322,-0.158416748046875,-0.9852142333984376,0.0157012939453125,-0.0010213222121819,0.0012924320762977,-0.0059894490987062
1770448150332,-0.1567840576171875,-0.9834442138671876,0.0154876708984375,-0.0025190841406583,0.0003227751294616,-0.0062166168354451
1770448150342,-0.155853271484375,-0.983978271484375,0.015045166015625,-0.003155313199386,0.0034408040810376,-0.001619468210265
1770448150352,-0.155181884765625,-0.9837493896484376,0.013580322265625,-0.0041888859122991,0.0059524313546717,-0.0006194512825459
1770448150362,-0.1556854248046875,-0.982269287109375,0.01348876953125,-0.0057524279691278,0.0069673620164394,0.000263386638835
1770448150372,-0.157379150390625,-0.9816131591796876,0.0131072998046875,-0.0034836810082197,0.0069476547650992,-0.0003664509567897
1770448150382,-0.15789794921875,-0.98651123046875,0.0135040283203125,-0.0034461303148418,0.0040117856115102,0.0015680692158639
1770448150392,-0.155731201171875,-0.9954833984375,0.013031005859375,-0.0009251821320503,0.0022772690281271,0.0037241643294692
1770448150403,-0.152069091796875,-0.99627685546875,0.013427734375,-5.352953667170368e-05,-0.0002822950773406,0.0060911821201443
1770448150413,-0.1566009521484375,-0.9875335693359376,0.011322021484375,-0.0004503405361901,0.0024940504226833,0.0053188651800155
1770448150423,-0.1589813232421875,-0.979736328125,0.011962890625,-0.002256762702018,0.0020133496727794,0.0040820934809744
1770448150433,-0.16046142578125,-0.97857666015625,0.0150299072265625,-0.0041015343740582,0.0072081116959452,0.0014452975010499
1770448150443,-0.1627044677734375,-0.9780120849609376,0.01495361328125,-0.0043846284970641,0.0044091292656958,-0.0038972699549049
1770448150453,-0.1610260009765625,-0.9855194091796876,0.01434326171875,-0.005813680589199,0.00565921748057,-0.004923119675368
1770448150463,-0.15533447265625,-0.9928741455078124,0.014495849609375,-0.0070041134022176,0.0076110479421913,-0.001629055594094
1770448150473,-0.1538543701171875,-0.99554443359375,0.0147857666015625,-0.0030394657514989,0.0012586099328473,-0.0039492016658186
1770448150483,-0.15625,-0.9877471923828124,0.012939453125,0.0015896408585831,0.0033377397339791,-0.0042064627632498
1770448150493,-0.1576690673828125,-0.9726715087890624,0.0112762451171875,0.0066959857940673,0.0014873754698783,-0.0097967041656374
1770448150503,-0.161285400390625,-0.9851837158203124,0.016021728515625,0.0038517299108207,-0.0043662525713443,-0.0067793428897857
1770448150513,-0.1527099609375,-0.992095947265625,0.0150909423828125,0.0088851042091846,-0.0005880259559489,-0.00823316257447
1770448150523,-0.152618408203125,-0.97418212890625,0.010894775390625,0.0152772236615419,-3.462109361862531e-06,-0.0124220484867692
1770448150533,-0.1609649658203125,-0.9699554443359376,0.01171875,0.0138859879225492,0.0003978762542828,-0.012959474697709
1770448150543,-0.1600341796875,-0.9724884033203124,0.0179443359375,0.0104931211099028,0.0070121032185852,-0.0170594099909067
1770448150553,-0.1583099365234375,-0.973846435546875,0.0254058837890625,0.0032192291691899,0.0119392173364758,-0.0162122584879398
1770448150563,-0.15594482421875,-0.9825897216796876,0.025543212890625,-0.0024202808272093,0.0127834398299455,-0.0134508274495601
1770448150573,-0.1532745361328125,-0.99200439453125,0.019378662109375,-0.0098707405850291,0.0056474995799362,-0.009736250154674
1770448150583,-0.1513824462890625,-0.9957427978515624,0.0164794921875,-0.0142977125942707,0.0044165863655507,-0.0051801144145429
1770448150593,-0.15240478515625,-0.9940032958984376,0.01470947265625,-0.0238896198570728,0.0057020941749215,0.002487126039341
1770448150604,-0.152069091796875,-0.9927215576171876,0.015716552734375,-0.0363926291465759,0.0088211884722113,0.0053862431086599
1770448150614,-0.1533050537109375,-0.990875244140625,0.0161895751953125,-0.0484719276428222,0.014297978952527,0.0052762548439204
1770448150624,-0.156158447265625,-0.9898529052734376,0.0160675048828125,-0.054036870598793,0.0131783857941627,0.0077958712354302
1770448150634,-0.1578826904296875,-0.9879150390625,0.01324462890625,-0.0538616329431533,0.0186839383095502,0.003246926004067
1770448150644,-0.158721923828125,-0.9865264892578124,0.0102996826171875,-0.0471464730799198,0.0152916042134165,0.0014660701854154
1770448150654,-0.1594696044921875,-0.9870758056640624,0.0099334716796875,-0.0386603102087974,0.0125533426180481,-0.001343032112345
1770448150664,-0.1595916748046875,-0.9863739013671876,0.0106353759765625,-0.0305824093520641,0.0102305328473448,-0.0058829230256378
1770448150674,-0.1605224609375,-0.9848785400390624,0.0096893310546875,-0.0231497939676046,0.0072746905498206,-0.0068642976693809
1770448150684,-0.16009521484375,-0.9840545654296876,0.008209228515625,-0.0128042120486497,0.0071476581506431,-0.0091500887647271
1770448150694,-0.1574249267578125,-0.9868011474609376,0.00445556640625,0.0003707120195031,0.0036682379432022,-0.006580404471606
1770448150704,-0.15496826171875,-0.987060546875,0.0007171630859375,0.0155619150027632,-0.0008127967594191,-0.0067620323970913
1770448150714,-0.1536712646484375,-0.987457275390625,-0.002044677734375,0.027544543147087,-0.0082518048584461,-0.0042069954797625
1770448150724,-0.1540374755859375,-0.987548828125,0.0001220703125,0.0365798473358154,-0.0119522670283913,-0.003433879930526
1770448150734,-0.1534881591796875,-0.9854736328125,0.0031890869140625,0.03864486515522,-0.0075769596733152,-0.0018349179299548
1770448150744,-0.1529541015625,-0.9857025146484376,0.0109100341796875,0.0371838547289371,-0.0043550673872232,-0.0010452907299622
1770448150754,-0.1538543701171875,-0.9848480224609376,0.0138397216796875,0.033383522182703,-0.0023776702582836,0.0007099987124092
1770448150764,-0.154266357421875,-0.9888916015625,0.016632080078125,0.0269498582929372,-0.0056206015869975,-0.0014506238512694
1770448150774,-0.1531829833984375,-0.9918212890625,0.020599365234375,0.0176927112042903,-0.0029220203869044,0.0048765144310891
1770448150785,-0.150665283203125,-0.993865966796875,0.0198974609375,0.0095319859683513,-0.0016570187872275,0.0057646785862743
1770448150794,-0.1521759033203125,-0.9850616455078124,0.0186767578125,0.0018636800814419,-0.0042157839052379,0.00454495055601
1770448150804,-0.1556396484375,-0.978668212890625,0.0175628662109375,-0.0023172164801508,0.0033233587164431,0.0018607506062835
1770448150814,-0.158782958984375,-0.9735565185546876,0.0231170654296875,-0.0104763433337211,0.0082480758428573,-0.0007150587625801
1770448150824,-0.1596221923828125,-0.9792633056640624,0.0240478515625,-0.0177339892834424,0.0076906764879822,-0.0045334990136325
1770448150834,-0.1573486328125,-0.9863433837890624,0.0231170654296875,-0.0217540320008993,0.0059532304294407,-0.0014210627414286
1770448150844,-0.1544647216796875,-0.9859771728515624,0.019256591796875,-0.0273823551833629,0.0036075180396437,-0.0007731156656518
1770448150855,-0.1536712646484375,-0.9871673583984376,0.018829345703125,-0.0325443595647811,0.0056051551364362,0.003384344978258
1770448150865,-0.1537628173828125,-0.9886627197265624,0.01763916015625,-0.0364434942603111,0.008192416280508,0.0031502533238381
1770448150875,-0.1561279296875,-0.98944091796875,0.0150299072265625,-0.0365537516772747,0.0070935958065092,0.0058411112986505
1770448150885,-0.155517578125,-0.98895263671875,0.0129547119140625,-0.0345747545361518,0.0063889236189424,0.0081159835681319
1770448150895,-0.1550140380859375,-0.98828125,0.0095367431640625,-0.0290031563490629,0.0037651772145181,0.005656820256263
1770448150905,-0.1558990478515625,-0.9873809814453124,0.006317138671875,-0.0241679195314645,0.0063146213069558,0.0069023808464407
1770448150915,-0.1575927734375,-0.98486328125,0.005859375,-0.017258882522583,0.0066688214428722,0.0040336237289011
1770448150925,-0.1580352783203125,-0.9831390380859376,0.0063629150390625,-0.0100622214376926,0.0087844366207718,0.0039036613889038
1770448150935,-0.1587677001953125,-0.9817962646484376,0.0059814453125,-0.0034546526148915,0.006041913293302,0.0027292075101286
1770448150946,-0.159881591796875,-0.9843902587890624,0.0069122314453125,-0.0010167949367314,0.0038860845379531,0.0008239820599555
1770448150955,-0.160125732421875,-0.9842376708984376,0.0098419189453125,0.0004354268312454,0.0067540425807237,-0.0025486452504992
1770448150965,-0.15814208984375,-0.9854888916015624,0.01190185546875,0.0040346891619265,0.008004130795598,-0.0041753039695322
1770448150975,-0.1585540771484375,-0.986114501953125,0.0087890625,0.0068256817758083,0.0103652896359562,-0.0045896917581558
1770448150985,-0.15704345703125,-0.9831390380859376,0.00653076171875,0.0100145507603883,0.00911679957062,-0.0045984801836311
1770448150995,-0.158233642578125,-0.984130859375,0.00592041015625,0.0157182421535253,0.0073671024292707,-0.0038373488932847
1770448151005,-0.1557464599609375,-0.9839630126953124,0.0064544677734375,0.0177395828068256,0.007588677573949,-0.0019744676537811
1770448151015,-0.153167724609375,-0.9848785400390624,0.00634765625,0.0201942175626754,0.0062688146717846,-0.000835433602333
1770448151025,-0.1531982421875,-0.984588623046875,0.00750732421875,0.0258611589670181,0.0048027448356151,-0.0007198524544946
1770448151035,-0.151397705078125,-0.983001708984375,0.00518798828125,0.0292284581810235,0.0003094593121204,0.0001131843455368
1770448151045,-0.1528778076171875,-0.9888916015625,0.0082244873046875,0.0235814917832613,0.0089681949466466,-0.0011941614793613
1770448151055,-0.157470703125,-0.986328125,0.023834228515625,0.0223612319678068,0.0079881511628627,-0.0036293559242039
1770448151066,-0.155487060546875,-0.98419189453125,0.0213470458984375,0.0170958954840898,-2.1305288555595325e-06,-0.0020341223571449
1770448151076,-0.1582183837890625,-0.9860382080078124,0.0211181640625,0.0110851414501667,0.0032637037802487,-0.0019622170366346
1770448151086,-0.15460205078125,-0.9836578369140624,0.0225982666015625,-0.0003201119543518,0.0074568511918187,0.0016737966798245
1770448151096,-0.155670166015625,-0.986175537109375,0.027496337890625,-0.0113155050203204,0.0121847605332732,0.0008785768295638
1770448151106,-0.15716552734375,-0.9842987060546876,0.0263519287109375,-0.0251839160919189,0.0185981858521699,0.0005422196118161
1770448151116,-0.157684326171875,-0.9808807373046876,0.0264739990234375,-0.0319331660866737,0.0208765193819999,0.0032573123462498
1770448151126,-0.1580963134765625,-0.9788970947265624,0.02276611328125,-0.0367052853107452,0.0169086754322052,0.0036836843937635
1770448151136,-0.1569976806640625,-0.9782562255859376,0.0140533447265625,-0.0378429852426052,0.0161238424479961,0.0007744472241029
1770448151146,-0.1593170166015625,-0.9859619140625,0.0165557861328125,-0.0437418892979621,0.0207654666155576,0.0006692523602396
1770448151156,-0.1564483642578125,-0.9908905029296876,0.017425537109375,-0.0472239702939987,0.0148298125714063,0.0037851508241146
1770448151166,-0.1561737060546875,-0.994598388671875,0.013580322265625,-0.0449722670018672,0.0123192500323057,0.0080786990001797
1770448151176,-0.154510498046875,-0.9867401123046876,0.0118408203125,-0.0383423306047916,0.0086454199627041,0.0073612434789538
1770448151186,-0.15716552734375,-0.981964111328125,0.0057830810546875,-0.0354807637631893,0.006214752793312,0.0070555126294493
1770448151196,-0.161041259765625,-0.97845458984375,0.0079193115234375,-0.0350493304431438,0.0192365441471338,0.0070512513630092
1770448151206,-0.158233642578125,-0.9772186279296876,0.00677490234375,-0.0319094620645046,0.0204829052090644,0.0033159018494188
1770448151216,-0.1589202880859375,-0.9856719970703124,0.0069732666015625,-0.0264313407242298,0.0203540083020925,0.0066504459828138
1770448151226,-0.15380859375,-0.9945220947265624,0.0030517578125,-0.0221804026514291,0.0125786419957876,0.0047593349590897
1770448151236,-0.1521453857421875,-0.9970855712890624,0.001739501953125,-0.0152836153283715,0.0084834992885589,0.0039840890094637
1770448151246,-0.15557861328125,-0.985321044921875,0.0012359619140625,-0.0081117218360304,0.0142867937684059,0.0021012341603636
1770448151256,-0.1578826904296875,-0.976531982421875,0.0023956298828125,0.00108071079012,0.0069825421087443,-0.0024495755787938
1770448151267,-0.158233642578125,-0.9866180419921876,0.0043182373046875,0.0062432484701275,-0.0031601069495081,-0.0046863644383847
1770448151277,-0.15380859375,-0.995147705078125,0.003875732421875,0.0159531328827142,-0.0060882526449859,-0.0054086139425635
1770448151287,-0.15625,-0.97674560546875,0.0023956298828125,0.0260345302522182,-0.0028671592008322,-0.0082286354154348
1770448151297,-0.16314697265625,-0.9687347412109376,0.0062103271484375,0.0268073789775371,0.0029385320376604,-0.0106587698683142
1770448151307,-0.16241455078125,-0.9699249267578124,0.015106201171875,0.0248757880181074,0.0120859574526548,-0.0138958422467112
1770448151317,-0.161376953125,-0.9739532470703124,0.0178070068359375,0.018466891720891,0.0113346800208091,-0.0175520963966846
1770448151327,-0.159759521484375,-0.985931396484375,0.018829345703125,0.0094196004793047,0.0077194385230541,-0.0152370100840926
1770448151337,-0.155517578125,-0.9956817626953124,0.0160369873046875,0.0036546560004353,-0.0015984292840585,-0.0106838028877973
1770448151347,-0.15460205078125,-0.9981842041015624,0.012359619140625,-0.0046797064132988,-0.0022264027502387,-0.0068794777616858
1770448151357,-0.15496826171875,-0.99237060546875,0.012298583984375,-0.01207503862679,-0.0030618363525718,-0.0018823222490027
1770448151367,-0.1545562744140625,-0.9888763427734376,0.0099029541015625,-0.0215601529926061,-0.0041856900788843,0.0032099080272018
1770448151377,-0.1534881591796875,-0.9898223876953124,0.0121612548828125,-0.034086063504219,0.0036618465092033,0.007005977910012
1770448151387,-0.1529541015625,-0.9890594482421876,0.015472412109375,-0.0437658578157424,0.0100571615621447,0.0049396310932934
1770448151398,-0.15625,-0.986480712890625,0.0179901123046875,-0.0511494688689708,0.0121820978820323,0.0041121868416666
1770448151407,-0.158721923828125,-0.98541259765625,0.018646240234375,-0.0532368570566177,0.0162918884307146,0.0033720945939421
1770448151417,-0.1580352783203125,-0.987274169921875,0.018646240234375,-0.0547055900096893,0.0190914031118154,0.0023867250420153
1770448151427,-0.1571807861328125,-0.9872894287109376,0.0174102783203125,-0.0564201325178146,0.017053285613656,-0.0004090615548193
1770448151437,-0.15765380859375,-0.987335205078125,0.016510009765625,-0.0517702549695968,0.0110313454642891,-0.0010146644199267
1770448151447,-0.158966064453125,-0.9869537353515624,0.0115814208984375,-0.0463837422430515,0.0028884646017104,-0.0019038938917219
1770448151457,-0.15753173828125,-0.9864959716796876,0.00628662109375,-0.0366895720362663,-0.0020341223571449,-0.0013531520962715
1770448151467,-0.1537628173828125,-0.9862518310546876,0.0009765625,-0.0274902135133743,-0.0026317357551306,0.0010588727891445
1770448151478,-0.153228759765625,-0.9863128662109376,-0.0016937255859375,-0.0187529157847166,-0.002168612089008,0.0034642398823052
1770448151488,-0.1543731689453125,-0.987518310546875,-0.00177001953125,-0.0120635870844125,-0.0021102889440953,0.0035840822383761
1770448151498,-0.152557373046875,-0.9877166748046876,-0.0007781982421875,-0.0070943948812782,-0.0036013927310705,0.0042093922384083
1770448151507,-0.1554412841796875,-0.9875946044921876,0.0007476806640625,-0.0053550843149423,0.0009451558580622,0.0077111828140914
1770448151518,-0.1555328369140625,-0.9866180419921876,0.00103759765625,-0.0034027209039777,0.0006189186242409,0.0086123961955308
1770448151528,-0.1542205810546875,-0.98956298828125,0.0042877197265625,-0.002469282830134,-0.0045374939218163,0.0063116918317973
1770448151538,-0.1544036865234375,-0.993927001953125,0.005340576171875,-0.0034868768416345,-0.0034250915050506,0.0106627643108367
1770448151548,-0.1507415771484375,-0.99334716796875,0.0040740966796875,-0.0035515916533768,-0.0029390645213425,0.0086590014398098
1770448151558,-0.1553955078125,-0.9825592041015624,0.0037994384765625,-0.002535329433158,-0.00112971290946,0.0091109406203031
1770448151568,-0.1612701416015625,-0.976318359375,0.005615234375,-0.0026562367565929,0.004618720151484,0.0048727858811616
1770448151578,-0.1597442626953125,-0.9756317138671876,0.0072784423828125,-0.0010066748363897,0.0055207330733537,0.0008950884221121
1770448151588,-0.160369873046875,-0.981903076171875,0.007965087890625,9.667274571256712e-05,0.0041590584442019,-0.0006719155353493
1770448151598,-0.15887451171875,-0.9851531982421876,0.00262451171875,0.0019805929623544,-0.0021222729701548,-0.0037009948864579
1770448151608,-0.157470703125,-0.9883880615234376,0.00372314453125,0.0029198897536844,-0.0023145533632487,-0.0022935143206268
1770448151618,-0.1588134765625,-0.98760986328125,0.004638671875,0.0011611381778493,-0.0029044435359537,-0.0001179780374513
1770448151628,-0.156951904296875,-0.987518310546875,0.0069122314453125,-0.0017430388834327,-0.0018588864477351,0.0005925533478148
1770448151638,-0.1552276611328125,-0.9884796142578124,0.0091094970703125,-0.00211135414429,-0.0013214604696258,0.0019563580863177
1770448151648,-0.1569976806640625,-0.98638916015625,0.0081939697265625,-0.0012170645641162,-0.0056885122321546,0.0027795413043349
1770448151658,-0.158111572265625,-0.9864044189453124,0.0064544677734375,-0.0008098672842606,-0.0097338538616895,0.0020003002136945
1770448151668,-0.1574554443359375,-0.9849853515625,0.0068817138671875,-0.0009914948605,-0.0076645775698125,0.0074368771165609
1770448151678,-0.1578369140625,-0.98394775390625,0.0113067626953125,-0.003516171593219,-0.0015363775892183,0.0050032804720103
1770448151688,-0.1600341796875,-0.98455810546875,0.0127716064453125,-0.0070043797604739,-0.0002111886715283,0.0058653457090258
1770448151699,-0.1606597900390625,-0.9824981689453124,0.0135498046875,-0.0083548687398433,0.0022762038279324,0.0056139435619115
1770448151708,-0.1612701416015625,-0.9837493896484376,0.0148162841796875,-0.0140151511877775,0.00369593501091,0.0029875340405851
1770448151719,-0.1584320068359375,-0.9838104248046876,0.0131072998046875,-0.0158793646842241,0.0029851372819393,0.0035079156514257
1770448151729,-0.159423828125,-0.9836578369140624,0.0113525390625,-0.0188671648502349,0.0062738750129938,-0.0001198422469315
1770448151739,-0.15850830078125,-0.9836883544921876,0.01104736328125,-0.0205212533473968,0.0068573732860386,0.0006490123341791
1770448151749,-0.1578521728515625,-0.983642578125,0.0084228515625,-0.0229993257671594,0.0076869479380548,0.0004181162803433
1770448151759,-0.1556243896484375,-0.9864044189453124,0.0066680908203125,-0.0226286128163337,0.0045699845068156,-9.58738019107841e-06
1770448151769,-0.156280517578125,-0.98388671875,0.0039520263671875,-0.0192900747060775,0.005870406050235,0.0014908375451341
1770448151779,-0.155181884765625,-0.9847412109375,0.005706787109375,-0.0186181589961051,0.0053034187294542,0.0023315974976867
1770448151789,-0.155548095703125,-0.9855804443359376,0.00421142578125,-0.0199601259082555,0.0054626758210361,0.002191515173763
1770448151799,-0.154266357421875,-0.9850006103515624,0.0041961669921875,-0.0180778037756681,0.0062738750129938,0.0003512709517963
1770448151809,-0.1560211181640625,-0.985504150390625,0.00506591796875,-0.0170365069061517,4.447478931979276e-05,0.0022397185675799
1770448151819,-0.1573486328125,-0.9873199462890624,0.004425048828125,-0.0160623230040073,0.0002484729338902,0.0017606157343834
1770448151829,-0.15582275390625,-0.98638916015625,0.0079498291015625,-0.016163257881999,0.0038602519780397,0.0041729072108864
1770448151839,-0.1562042236328125,-0.986297607421875,0.00634765625,-0.0169952288269996,0.0039105857722461,0.001283377292566
1770448151849,-0.15728759765625,-0.9861297607421876,0.0047149658203125,-0.0157976057380437,0.0082419505342841,0.0032168321777135
1770448151859,-0.1591033935546875,-0.98394775390625,0.005401611328125,-0.016997892409563,0.0064536384306848,0.0028306739404797
1770448151869,-0.15966796875,-0.984588623046875,0.00494384765625,-0.0162575338035821,0.0067487163469195,0.0042847599834203
1770448151879,-0.159423828125,-0.984375,0.0054168701171875,-0.0183403920382261,0.0102622248232364,0.0055047539062798
1770448151889,-0.157745361328125,-0.9856109619140624,0.0038299560546875,-0.0150050483644008,0.009442769922316,0.0038594531361013
1770448151899,-0.1575164794921875,-0.98577880859375,0.0044097900390625,-0.0115389442071318,0.0078611187636852,0.0019925772212445
1770448151909,-0.1589508056640625,-0.988922119140625,0.0014801025390625,-0.0115440040826797,0.0044972798787057,0.0033459956757724
1770448151919,-0.159454345703125,-0.9926300048828124,0.0007476806640625,-0.0050147324800491,0.0017891116440296,0.0039822249673306
1770448151930,-0.15753173828125,-0.990478515625,-0.0003662109375,0.002192846732214,-0.0044709146022796,0.0045721149072051
1770448151940,-0.1603851318359375,-0.98358154296875,-0.0019683837890625,0.0072848107665777,-0.0026631611399352,0.0053721284493803
1770448151950,-0.161834716796875,-0.9782867431640624,0.0017852783203125,0.0062056980095803,-0.0042019356042146,0.0028844696935266
1770448151960,-0.162078857421875,-0.9801177978515624,0.004608154296875,0.004800081718713,-0.0037265613209456,-0.0001723065215628
1770448151970,-0.159942626953125,-0.98822021484375,0.0079345703125,0.0017339842161163,-0.0014247911749407,-0.0011438276851549
1770448151980,-0.1558685302734375,-0.9876861572265624,0.0075225830078125,-0.002723614918068,0.0003363572468515,0.0023403859231621
1770448151990,-0.157562255859375,-0.9878387451171876,0.0068817138671875,-0.0036410738248378,-0.0052437642589211,0.003744670888409
1770448152000,-0.1585693359375,-0.9898681640625,0.006866455078125,-0.0051819789223372,0.0005230448441579,0.0011254518758505
1770448152010,-0.1575469970703125,-0.9781341552734376,0.0098419189453125,-0.0042376220226287,0.0036519928835332,-0.0030224213842302
1770448152020,-0.1617431640625,-0.9721832275390624,0.0133514404296875,-0.0088155958801507,0.0034951325505971,-0.0071985241957008
1770448152030,-0.1593780517578125,-0.987274169921875,0.0122222900390625,-0.0100425137206912,0.0032149681355804,-0.0060070259496569
1770448152040,-0.1526336669921875,-0.9867401123046876,0.009063720703125,-0.0082400869578123,0.0033228259999305,-0.0085138594731688
1770448152050,-0.160064697265625,-0.971466064453125,0.008331298828125,-0.0093327816575765,0.0048743835650384,-0.0079921465367078
1770448152060,-0.1637420654296875,-0.9653167724609376,0.01177978515625,-0.0159989409148693,0.0137858530506491,-0.0122747756540775
1770448152070,-0.162933349609375,-0.9642791748046876,0.013824462890625,-0.0235239677131176,0.015140869654715,-0.015933159738779
1770448152080,-0.1603851318359375,-0.979461669921875,0.012115478515625,-0.0295621529221534,0.0135501632466912,-0.0130095416679978
1770448152090,-0.153717041015625,-0.991058349609375,0.006103515625,-0.0340069681406021,0.0110220247879624,-0.0093652717769145
1770448152100,-0.1504364013671875,-0.996490478515625,0.0004119873046875,-0.0377087630331516,0.0059732040390372,-0.0035989959724247
1770448152110,-0.1507110595703125,-0.9945220947265624,-0.002899169921875,-0.0418592989444732,0.0080163814127445,0.0033878071699291
1770448152121,-0.1525421142578125,-0.9945220947265624,-0.0021209716796875,-0.0474359579384326,0.0142231443896889,0.0082789687439799
1770448152130,-0.1539459228515625,-0.9937744140625,0.002288818359375,-0.0481976233422756,0.0158900171518325,0.0130636040121316
1770448152140,-0.156646728515625,-0.993499755859375,0.002716064453125,-0.0522687956690788,0.0201718471944332,0.0131227262318134
1770448152151,-0.1583709716796875,-0.98944091796875,0.0033721923828125,-0.0532528348267078,0.0261080339550972,0.012532303109765
1770448152161,-0.161346435546875,-0.9862823486328124,0.0030517578125,-0.049879141151905,0.0266750194132328,0.0070480559952557
1770448152170,-0.16448974609375,-0.9850616455078124,0.0006103515625,-0.0469158440828323,0.0217106211930513,0.0012711267918348
1770448152181,-0.16522216796875,-0.986083984375,0.0009002685546875,-0.04164944216609,0.0204173903912305,-0.0008364989189431
1770448152191,-0.162109375,-0.9866485595703124,0.00177001953125,-0.0413700751960277,0.0259836632758378,-0.0015097459545359
1770448152201,-0.1599578857421875,-0.9847259521484376,0.0017852783203125,-0.0343909971415996,0.0191720966249704,-0.006214752793312
1770448152211,-0.16265869140625,-0.9877777099609376,-0.0048980712890625,-0.0180873908102512,0.0040424121543765,-0.004807804711163
1770448152221,-0.158355712890625,-0.9868011474609376,-0.0135498046875,0.000794154650066,-0.0028756812680512,-0.005437109619379
1770448152231,-0.15606689453125,-0.9867706298828124,-0.0199737548828125,0.0195366833359003,-0.0128582743927836,-0.0021065603941679
1770448152241,-0.1543731689453125,-0.987060546875,-0.01898193359375,0.034416563808918,-0.0136090191081166,0.0006801713607273
1770448152251,-0.15460205078125,-0.9856109619140624,-0.015350341796875,0.0415378548204898,-0.0119615877047181,0.0048759817145764
1770448152261,-0.155670166015625,-0.9848175048828124,-0.008087158203125,0.0442311093211174,-0.0126500148326158,0.0064049023203551
1770448152271,-0.1564483642578125,-0.985687255859375,-0.0035247802734375,0.0421791449189186,-0.0148820104077458,0.0070062442682683
1770448152281,-0.156829833984375,-0.9886932373046876,0.0012664794921875,0.0414233393967151,-0.0181462466716766,0.0047074034810066
1770448152291,-0.152618408203125,-0.9954833984375,0.003814697265625,0.033001359552145,-0.0082520712167024,0.0092784529551863
1770448152301,-0.15374755859375,-0.99169921875,0.00732421875,0.0240185167640447,0.002288986928761,0.0118539966642856
1770448152311,-0.1581268310546875,-0.98162841796875,0.009521484375,0.0179656837135553,0.0027720844373106,0.0066328691318631
1770448152321,-0.162872314453125,-0.9761810302734376,0.0086212158203125,0.0151121076196432,0.0024085629265755,0.0018213358707726
1770448152331,-0.1623992919921875,-0.977569580078125,0.0069122314453125,0.0124137923121452,0.0050075417384505,-0.0031854070257395
1770448152341,-0.16143798828125,-0.97625732421875,0.0051422119140625,0.0114281568676233,0.001971804536879,-0.0053106094710528
1770448152351,-0.1613311767578125,-0.985137939453125,0.0061798095703125,0.0075503280386328,-0.0030605047941207,-0.0042261704802513
1770448152361,-0.157196044921875,-0.9898529052734376,0.003509521484375,0.0080605894327163,-0.0038091193418949,-0.0030466562602669
1770448152372,-0.157379150390625,-0.98907470703125,0.002593994140625,0.0087953554466366,-0.0067074373364448,-0.0010104032699018
1770448152382,-0.15765380859375,-0.990020751953125,0.0020599365234375,0.010652644559741,-0.0065612299367785,0.0009805759182199
1770448152392,-0.1550750732421875,-0.9899444580078124,0.001983642578125,0.0133469644933938,-0.005044559482485,0.0035406725946813
1770448152402,-0.1567840576171875,-0.9881134033203124,0.0042266845703125,0.0137632163241505,-0.0052357744425535,0.0054741273634135
1770448152412,-0.1572113037109375,-0.9860076904296876,0.0043487548828125,0.0118249673396348,-0.0042469431646168,0.0033071134239435
1770448152422,-0.1583251953125,-0.985931396484375,0.0049591064453125,0.0109847402200102,-0.005038434639573,0.0020740698091685
1770448152432,-0.161346435546875,-0.98455810546875,0.007598876953125,0.0098214717581868,-0.0052349758334457,0.003157443832606
1770448152442,-0.16156005859375,-0.9831390380859376,0.0095672607421875,0.0037238982040435,-0.0013747237389907,0.0049297772347927
1770448152452,-0.1590576171875,-0.9830169677734376,0.00982666015625,0.0010322412708774,0.0034748925827443,0.0026786073576658
1770448152462,-0.161529541015625,-0.9851837158203124,0.011199951171875,-0.0011741877533495,0.0051537491381168,0.0043132556602358
1770448152472,-0.1598968505859375,-0.985443115234375,0.0098114013671875,-0.0015574166318401,0.0061990399844944,0.0015757924411445
1770448152482,-0.1607513427734375,-0.984710693359375,0.004608154296875,0.0025281386915594,0.0065407236106693,0.0036839507520198
1770448152492,-0.1597900390625,-0.985015869140625,0.0026702880859375,0.005469333846122,0.0059862532652914,0.0032551817130297
1770448152502,-0.1591796875,-0.9832916259765624,0.001007080078125,0.010694989003241,0.004563592839986,0.0008388957357965
