timestamp_ms,acc_x,acc_y,acc_z,gyro_x,gyro_y,gyro_z
1768731599995,0.1459197998046875,-0.259765625,-0.950347900390625,0.0040221721865236,0.021686652675271,0.0173875130712986
1768731600003,0.1427001953125,-0.26580810546875,-0.9452362060546876,-0.0049707903526723,0.0436127260327339,0.0135935731232166
1768731600013,0.136749267578125,-0.2695465087890625,-0.939208984375,-0.0073708309791982,0.0462793484330177,0.0027521105948835
1768731600023,0.1345062255859375,-0.2743682861328125,-0.9405364990234376,-0.0148417968302965,0.0251269247382879,-0.0050232545472681
1768731600033,0.1367950439453125,-0.2706146240234375,-0.9379425048828124,-0.0246406309306621,0.0201015397906303,-0.0092033520340919
1768731600050,0.1347503662109375,-0.2684326171875,-0.9365081787109376,-0.0447917059063911,0.0043326965533196,-0.0032850091811269
1768731600054,0.1389617919921875,-0.2599639892578125,-0.93804931640625,-0.0633462145924568,-0.0158087909221649,0.0047396277077496
1768731600063,0.1358184814453125,-0.26141357421875,-0.942901611328125,-0.0712632611393928,-0.0095532918348908,-0.0011094729416072
1768731600074,0.1281280517578125,-0.26922607421875,-0.9561614990234376,-0.0585799552500247,0.0044775726273655,-0.0158655159175395
1768731600084,0.1255340576171875,-0.26495361328125,-0.969268798828125,-0.0375870577991008,0.0233599171042442,-0.0197894182056188
1768731600094,0.1321868896484375,-0.251617431640625,-0.9734344482421876,-0.0187582410871982,0.0304316747933626,-0.0232733637094497
1768731600104,0.131195068359375,-0.2540740966796875,-0.9672393798828124,-0.0047982172109186,0.0356607921421527,-0.0315834917128086
1768731600114,0.13134765625,-0.256134033203125,-0.963836669921875,0.0059239356778562,0.0292628146708011,-0.0363865047693252
1768731600124,0.1360321044921875,-0.2590179443359375,-0.961669921875,0.0088158622384071,0.0032069785520434,-0.034299649298191
1768731600134,0.1400909423828125,-0.2578125,-0.957733154296875,0.0128390993922948,0.0002668487431947,-0.0287610739469528
1768731600144,0.1407012939453125,-0.2623443603515625,-0.9571380615234376,0.0194258950650692,0.0060075586661696,-0.0258928500115871
1768731600154,0.1410369873046875,-0.2681427001953125,-0.954559326171875,0.0225543119013309,0.0223817378282547,-0.0296449773013591
1768731600164,0.1438751220703125,-0.2674407958984375,-0.95611572265625,0.0195473358035087,0.0371833220124244,-0.0326745882630348
1768731600174,0.1511077880859375,-0.2606658935546875,-0.9523162841796876,0.0020975056104362,0.0301001109182834,-0.0132990274578332
1768731600184,0.158203125,-0.252593994140625,-0.936767578125,-0.0175989679992198,0.027092071250081,-0.0148748196661472
1768731600194,0.1484375,-0.2632598876953125,-0.9329681396484376,-0.0315177105367183,0.0141232758760452,-0.0225801430642604
1768731600204,0.1498260498046875,-0.26409912109375,-0.9290924072265624,-0.0397812351584434,-0.0089961579069495,-0.0253453031182289
1768731600214,0.1524658203125,-0.262939453125,-0.9333343505859376,-0.0363942272961139,-0.0374155491590499,-0.0286601409316062
1768731600224,0.1500396728515625,-0.263153076171875,-0.9471893310546876,-0.0363947600126266,-0.0672757104039192,-0.0220445822924375
1768731600234,0.15191650390625,-0.2587127685546875,-0.9498443603515624,-0.0298862606287002,-0.0585820861160755,-0.0238150507211685
1768731600244,0.148193359375,-0.2618865966796875,-0.9479522705078124,-0.0325235873460769,-0.0226794797927141,-0.0251458324491977
1768731600254,0.15301513671875,-0.256195068359375,-0.942840576171875,-0.0483022853732109,-0.0185294765979051,-0.0104089649394154
1768731600265,0.159820556640625,-0.252593994140625,-0.94024658203125,-0.0551442131400108,-0.0124441524967551,-0.0016740630380809
1768731600274,0.1564483642578125,-0.255828857421875,-0.953887939453125,-0.0470279641449451,0.0133957006037235,-0.0077540599741041
1768731600285,0.1506805419921875,-0.258941650390625,-0.9633026123046876,-0.0316042639315128,0.0472130514681339,-0.0148071758449077
1768731600294,0.14996337890625,-0.2587432861328125,-0.9614715576171876,-0.0181584972888231,0.0486311838030815,-0.0152031872421503
1768731600305,0.150421142578125,-0.2572174072265625,-0.957855224609375,-0.0011949603212997,0.0271160397678613,-0.0157257001847028
1768731600315,0.14703369140625,-0.26031494140625,-0.9744720458984376,0.027465445920825,0.0310439355671405,-0.0139134190976619
1768731600324,0.14874267578125,-0.25433349609375,-0.98150634765625,0.0399759113788604,0.0452162139117717,-0.0030455910600721
1768731600335,0.1450958251953125,-0.257232666015625,-0.9636383056640624,0.053648579865694,0.0450012981891632,-0.0133554860949516
1768731600345,0.1409454345703125,-0.26446533203125,-0.960052490234375,0.0653241425752639,0.0473571307957172,-0.0246265158057212
1768731600355,0.142608642578125,-0.2600250244140625,-0.955535888671875,0.0571146830916404,0.0390677750110626,-0.028565065935254
1768731600365,0.150146484375,-0.25445556640625,-0.939361572265625,0.0405564792454242,0.0328034870326519,-0.0245141312479972
1768731600375,0.152587890625,-0.2525482177734375,-0.9327545166015624,0.017749436199665,0.0314535312354564,-0.0186554435640573
1768731600385,0.14996337890625,-0.256072998046875,-0.9378814697265624,0.0082813659682869,0.0390624478459358,-0.0165353007614612
1768731600395,0.148284912109375,-0.2611846923828125,-0.951202392578125,-0.0051473579369485,0.0555940195918083,-0.0072800172492861
1768731600405,0.15313720703125,-0.2554779052734375,-0.93914794921875,-0.0410931073129177,0.0454777367413044,0.0067692226730287
1768731600415,0.1492462158203125,-0.2601776123046875,-0.921356201171875,-0.0681313797831535,0.0461943931877613,0.0029862024821341
1768731600425,0.1462554931640625,-0.2675018310546875,-0.9262542724609376,-0.0756217911839485,0.0540363378822803,-0.0044972798787057
1768731600435,0.15228271484375,-0.2641754150390625,-0.9404144287109376,-0.0625659078359603,0.0366083458065986,-0.0069191586226224
1768731600445,0.1534423828125,-0.2659759521484375,-0.9603729248046876,-0.0335342586040496,0.0321169234812259,-0.0176362507045269
1768731600455,0.14764404296875,-0.265472412109375,-0.9709930419921876,-0.0092470282688736,0.0425237566232681,-0.0203561373054981
1768731600466,0.1519012451171875,-0.2546844482421875,-0.981292724609375,0.0112180337309837,0.0513167157769203,-0.019809391349554
1768731600475,0.1544952392578125,-0.2568511962890625,-0.9747161865234376,0.0211865119636058,0.0612455122172832,-0.0137693416327238
1768731600486,0.1574554443359375,-0.251495361328125,-0.96087646484375,0.0124121950939297,0.0504535846412181,-0.0059588230215013
1768731600495,0.15643310546875,-0.258148193359375,-0.947113037109375,0.0043396209366619,0.0212957020848989,-0.0023648869246244
1768731600506,0.1590423583984375,-0.2598724365234375,-0.945068359375,0.0011640676530078,0.0187491867691278,0.0005435511702671
1768731600516,0.155303955078125,-0.2603912353515625,-0.941650390625,-0.0099754026159644,0.0216435100883245,-0.0041609229519963
1768731600526,0.1498260498046875,-0.2593536376953125,-0.93841552734375,-0.009377522394061,0.0297645535320043,-0.002788063371554
1768731600536,0.161376953125,-0.24560546875,-0.9445037841796876,-0.0060818609781563,0.0434305630624294,0.0100869890302419
1768731600546,0.1654205322265625,-0.241302490234375,-0.939666748046875,-0.0129637354984879,0.0223524440079927,0.0190882068127393
1768731600556,0.1620330810546875,-0.2503204345703125,-0.9244537353515624,-0.0393447428941726,-0.0213412418961524,0.0297592263668775
1768731600566,0.1608123779296875,-0.2574615478515625,-0.9150390625,-0.0619832091033458,-0.0273168422281742,0.0282018110156059
1768731600576,0.1568756103515625,-0.262603759765625,-0.9245758056640624,-0.0715476870536804,-0.0069287461228668,0.0251514259725809
1768731600586,0.1517333984375,-0.267486572265625,-0.93853759765625,-0.0618793480098247,0.0210309829562902,0.0042557315900921
1768731600596,0.1491241455078125,-0.2698822021484375,-0.9484405517578124,-0.0588515996932983,0.0063918530941009,-0.0071175643242895
1768731600606,0.1572113037109375,-0.2586669921875,-0.94940185546875,-0.0621635057032108,-0.0248899031430482,-0.0067897289991378
1768731600616,0.1580047607421875,-0.2526702880859375,-0.9556884765625,-0.0620537847280502,-0.0358717143535614,-0.0021483721211552
1768731600626,0.1569976806640625,-0.2472076416015625,-0.9700775146484376,-0.0561817809939384,-0.0440111346542835,0.0061076935380697
1768731600636,0.155975341796875,-0.2467498779296875,-0.9789276123046876,-0.0481875017285347,-0.0263908617198467,0.0183188188821077
1768731600646,0.1499786376953125,-0.248779296875,-0.972015380859375,-0.0356674492359161,0.0224256794899702,0.0188714265823364
1768731600656,0.1490478515625,-0.253692626953125,-0.9637908935546876,-0.0320777744054794,0.0208016838878393,0.0202618613839149
1768731600666,0.1544036865234375,-0.2528076171875,-0.9483184814453124,-0.0307605750858783,-0.003827495034784,0.0167547445744276
1768731600676,0.1541748046875,-0.2530517578125,-0.9468536376953124,-0.0139541653916239,0.0153145072981715,0.00168471573852
1768731600686,0.1470794677734375,-0.2601165771484375,-0.9546051025390624,0.0011579424608498,0.0226065088063478,-0.0105652930215001
1768731600696,0.1492919921875,-0.2592010498046875,-0.948272705078125,-0.0068786786869168,0.014095046557486,-0.006418218370527
1768731600707,0.1553192138671875,-0.253021240234375,-0.9332122802734376,-0.0259455796331167,0.0007930893916636,-0.0072158346883952
1768731600716,0.151702880859375,-0.2588348388671875,-0.931610107421875,-0.0265354700386524,-0.0033438650425523,-0.0129640018567442
1768731600727,0.15478515625,-0.259735107421875,-0.9500732421875,-0.0168468914926052,0.002740659052506,-0.0151648381724953
1768731600737,0.1601104736328125,-0.250152587890625,-0.9523162841796876,-0.0314860194921493,-0.0230075810104608,0.0036996633280068
1768731600747,0.1664276123046875,-0.2424163818359375,-0.939483642578125,-0.0405045486986637,-0.0210837144404649,0.0122934179380536
1768731600757,0.156341552734375,-0.255462646484375,-0.9470977783203124,-0.0346645042300224,-0.0028192223981022,0.0045992792584002
1768731600767,0.15234375,-0.252166748046875,-0.966949462890625,-0.0095628788694739,0.021976139396429,0.006785468198359
1768731600777,0.1584625244140625,-0.2420806884765625,-0.984405517578125,0.0290204659104347,0.0345654338598251,0.0018437063554301
1768731600787,0.1578369140625,-0.24737548828125,-0.9861602783203124,0.0564475618302822,0.0375103577971458,-0.0040434775874018
1768731600797,0.1573028564453125,-0.2506256103515625,-0.9775390625,0.0702251568436622,0.043935764580965,-0.0078019965440034
1768731600807,0.156646728515625,-0.2493438720703125,-0.9672393798828124,0.0751272439956665,0.0489038936793804,-0.000999750685878
1768731600817,0.1569366455078125,-0.252685546875,-0.9593658447265624,0.0702669695019722,0.0501835420727729,0.0046453517861664
1768731600827,0.1637725830078125,-0.24798583984375,-0.945526123046875,0.0431570559740066,-0.000835433602333,0.0339001752436161
1768731600837,0.1632843017578125,-0.248748779296875,-0.92840576171875,0.0190392043441534,0.0023848607670515,0.0265740863978862
1768731600847,0.146240234375,-0.26690673828125,-0.9341888427734376,0.0056829191744327,0.0245418287813663,0.0169403683394193
1768731600857,0.1503448486328125,-0.262847900390625,-0.935882568359375,-0.0040280311368405,0.0273171085864305,0.0106814065948128
1768731600867,0.1531982421875,-0.2570037841796875,-0.935028076171875,-0.0108140315860509,0.0221774745732545,0.0103722130879759
1768731600877,0.1549224853515625,-0.2485504150390625,-0.93890380859375,-0.0069380672648549,0.0278366915881633,0.010072074830532
1768731600887,0.152099609375,-0.252227783203125,-0.9515380859375,0.0052546830847859,0.0294694751501083,0.0031225562561303
1768731600898,0.146575927734375,-0.2606964111328125,-0.962982177734375,0.0357904881238937,0.0353523977100849,-0.0121637219563126
1768731600907,0.1447296142578125,-0.263519287109375,-0.978546142578125,0.0628857538104057,0.0490684770047664,-0.0205875672399997
1768731600918,0.1507720947265625,-0.25543212890625,-0.9756622314453124,0.0705327540636062,0.0511870197951793,-0.0197401493787765
1768731600927,0.15411376953125,-0.255584716796875,-0.960906982421875,0.0661752894520759,0.0538067743182182,-0.0173550210893154
1768731600938,0.1557159423828125,-0.257568359375,-0.953704833984375,0.0574345290660858,0.0465025193989276,-0.0128492191433906
1768731600948,0.15924072265625,-0.260040283203125,-0.9478759765625,0.0502767525613307,0.0365862399339675,-0.0092792520299553
1768731600958,0.163726806640625,-0.2550048828125,-0.9422607421875,0.0359726473689079,0.002520149340853,0.0055697350762784
1768731600968,0.1636199951171875,-0.2564849853515625,-0.9324188232421876,0.0171560831367969,0.0060546966269612,0.0024751420132815
1768731600978,0.1556854248046875,-0.2644805908203125,-0.924560546875,0.0028253474738448,0.0260923206806182,-0.0045196507126092
1768731600988,0.154571533203125,-0.2649078369140625,-0.920806884765625,-0.0136423092335462,0.0261604972183704,-0.0078571243211627
1768731600998,0.1604766845703125,-0.257293701171875,-0.9236297607421876,-0.0252608824521303,0.0129240546375513,-0.0072770877741277
1768731601008,0.162811279296875,-0.25164794921875,-0.9299163818359376,-0.0427413396537303,-0.0215380489826202,0.0016769925132393
1768731601018,0.1629791259765625,-0.252471923828125,-0.93988037109375,-0.040004938840866,-0.0194445382803678,0.0009637979674153
1768731601028,0.1565704345703125,-0.2557220458984375,-0.9548797607421876,-0.0376539006829261,-0.0083476779982447,0.009949835948646
1768731601038,0.1608428955078125,-0.2486114501953125,-0.95361328125,-0.0476596653461456,-0.0231564510613679,0.0168825760483741
1768731601048,0.15234375,-0.259185791015625,-0.946502685546875,-0.0516655892133712,-0.0419897958636283,0.011983691714704
1768731601058,0.1508026123046875,-0.264801025390625,-0.9554290771484376,-0.0319645889103412,-0.0402518138289451,0.0001083906536223
1768731601068,0.150665283203125,-0.2622222900390625,-0.966094970703125,-0.0085247782990336,-0.0124593330547213,-0.010922422632575
1768731601079,0.1490325927734375,-0.2614898681640625,-0.96636962890625,0.0051100733689963,0.0198791660368442,-0.0211084801703691
1768731601088,0.1493988037109375,-0.2586517333984375,-0.9602203369140624,0.0161360930651426,0.0338357277214527,-0.0246124025434255
1768731601098,0.1535491943359375,-0.2580108642578125,-0.951324462890625,0.0071652350015938,0.0191579815000295,-0.0203950200229883
1768731601109,0.160491943359375,-0.2546234130859375,-0.9417572021484376,-0.010226272046566,-0.0145318042486906,-0.0163882933557033
1768731601118,0.1566925048828125,-0.2588348388671875,-0.9416656494140624,-0.0187981892377138,-0.0138284638524055,-0.0176636818796396
1768731601129,0.1558837890625,-0.26171875,-0.9471282958984376,-0.0311283580958843,-0.0088848378509283,-0.0146415270864963
1768731601139,0.161041259765625,-0.254058837890625,-0.940673828125,-0.0516344308853149,-0.0294617526233196,0.0037752971984446
1768731601149,0.1684417724609375,-0.2456512451171875,-0.9389801025390624,-0.0517502799630165,-0.0226725563406944,0.0082733761519193
1768731601159,0.1602630615234375,-0.2593536376953125,-0.95001220703125,-0.0423775501549243,0.0107261473312973,0.0071503212675452
1768731601169,0.16094970703125,-0.2528533935546875,-0.954071044921875,-0.03620221093297,0.0105631621554493,0.0095711341127753
1768731601179,0.1582794189453125,-0.2564697265625,-0.9483642578125,-0.0355755724012851,-0.0046613309532403,0.0046139266341924
1768731601189,0.1593475341796875,-0.2531280517578125,-0.954071044921875,-0.0171795189380645,-0.0197942107915878,0.0012708604335784
1768731601199,0.1577301025390625,-0.2557220458984375,-0.9706573486328124,0.0065015750005841,-0.0033023196738213,-0.007186806295067
1768731601209,0.146636962890625,-0.25732421875,-0.9701080322265624,0.0279621258378028,0.0309496596455574,-0.0167454238981008
1768731601219,0.1537017822265625,-0.24755859375,-0.9674835205078124,0.0415746085345745,0.0330849811434745,-0.0027060380671173
1768731601229,0.16650390625,-0.2403717041015625,-0.9562835693359376,0.0274372175335884,0.0296423137187957,0.0148537810891866
1768731601239,0.165740966796875,-0.2489471435546875,-0.9346160888671876,0.0038432078436017,0.0137608190998435,0.0216517653316259
1768731601249,0.1624755859375,-0.25714111328125,-0.9242706298828124,-0.0253005623817443,-0.0060730725526809,0.035369973629713
1768731601259,0.1661834716796875,-0.2565765380859375,-0.918731689453125,-0.0493984408676624,-0.0163075998425483,0.0323875024914741
1768731601269,0.15765380859375,-0.2623443603515625,-0.9271240234375,-0.0611392557621002,-0.0431764982640743,0.0355398841202259
1768731601279,0.1656036376953125,-0.255401611328125,-0.93896484375,-0.0651244074106216,-0.0588092543184757,0.0395370237529277
1768731601289,0.1600341796875,-0.2545318603515625,-0.9481658935546876,-0.0603493601083755,-0.0458782762289047,0.029954969882965
1768731601299,0.152740478515625,-0.2610626220703125,-0.9570159912109376,-0.0420885980129241,-0.0173757951706647,0.0176290608942508
1768731601309,0.152618408203125,-0.255401611328125,-0.966217041015625,-0.0294015649706125,0.0061846589669585,0.0163568686693906
1768731601319,0.1574554443359375,-0.2497406005859375,-0.9675750732421876,-0.0208112727850675,-0.0007448861724697,0.0240976121276617
1768731601329,0.1609039306640625,-0.245849609375,-0.963043212890625,-0.0097205378115177,0.0027102991007268,0.0265253502875566
1768731601340,0.1564483642578125,-0.24993896484375,-0.9634552001953124,0.0023710122331976,0.0248339772224426,0.0238009374588727
1768731601349,0.157073974609375,-0.2508392333984375,-0.9609832763671876,0.0158330257982015,0.0244036093354225,0.0234411433339118
1768731601360,0.159210205078125,-0.2511444091796875,-0.953704833984375,0.0214451048523187,0.0221598967909812,0.0153824184089899
1768731601370,0.154083251953125,-0.2554931640625,-0.9476165771484376,0.0213934388011693,0.0160833615809679,0.0105328019708395
1768731601380,0.1545257568359375,-0.256195068359375,-0.940765380859375,0.0183108299970626,0.0060592242516577,0.0082826968282461
1768731601390,0.153564453125,-0.2589263916015625,-0.9394683837890624,0.0065431203693151,-0.0140122221782803,0.0072816149331629
1768731601400,0.150665283203125,-0.26153564453125,-0.9386444091796876,-0.0079346224665641,-0.0223905257880687,0.009875800460577
1768731601410,0.150115966796875,-0.26202392578125,-0.9432525634765624,-0.0180533025413751,-0.0215737354010343,0.0134825194254517
1768731601420,0.1468353271484375,-0.2581787109375,-0.9491119384765624,-0.0189989916980266,-0.0059031629934906,0.0108236195519566
1768731601430,0.1474761962890625,-0.2545166015625,-0.952728271484375,-0.0145520446822047,0.0424350760877132,0.0058512310497462
1768731601440,0.147216796875,-0.2517852783203125,-0.953704833984375,-0.0119940787553787,0.0450676083564758,0.0017358483746647
1768731601450,0.14886474609375,-0.2515106201171875,-0.9522247314453124,0.0002886866568587,0.0284822415560483,-0.0019739349372684
1768731601460,0.152435302734375,-0.250152587890625,-0.9579620361328124,0.0104430532082915,0.0260803364217281,-0.003842675127089
1768731601470,0.1507415771484375,-0.2498931884765625,-0.9566650390625,0.016300143674016,0.0177654139697551,-0.0082185147330164
1768731601480,0.1495513916015625,-0.2541046142578125,-0.95550537109375,0.0300982482731342,0.0179949793964624,-0.0134127447381615
1768731601490,0.1475982666015625,-0.25677490234375,-0.959930419921875,0.0412997677922248,0.0248608756810426,-0.0173619464039802
1768731601500,0.1515655517578125,-0.2586517333984375,-0.954315185546875,0.0434060618281364,0.0200757067650556,-0.0190703645348548
1768731601510,0.1569671630859375,-0.2555999755859375,-0.942962646484375,0.0411583557724952,-0.0024482440203428,-0.0171158704906702
1768731601520,0.1590423583984375,-0.2558441162109375,-0.940673828125,0.0335539653897285,-0.001471662777476,-0.0138492360711097
1768731601530,0.161712646484375,-0.2523040771484375,-0.9439849853515624,0.0213114134967327,-0.0090614054352045,-0.0150362076237797
1768731601541,0.16082763671875,-0.2548828125,-0.943817138671875,-0.0167949590831995,-0.0269884746521711,0.0001605886063771
1768731601551,0.1639404296875,-0.248504638671875,-0.932220458984375,-0.0639398321509361,-0.0356264375150203,0.0187763515859842
1768731601561,0.1590728759765625,-0.2524261474609375,-0.92987060546875,-0.095192827284336,-0.0313118509948253,0.0210605431348085
1768731601571,0.151123046875,-0.2634124755859375,-0.9429931640625,-0.0923917144536972,0.0037713022902607,0.0175078865140676
1768731601581,0.15521240234375,-0.2591094970703125,-0.9586639404296876,-0.0779214277863502,0.0101596927270293,0.0195398796349763
1768731601591,0.158111572265625,-0.2562255859375,-0.9601593017578124,-0.0674216523766517,-0.0085692536085844,0.0143855968490242
1768731601601,0.15460205078125,-0.2568206787109375,-0.9547271728515624,-0.0529827922582626,-0.0133102126419544,0.014674549922347
1768731601611,0.1551361083984375,-0.25238037109375,-0.9628448486328124,-0.0351196378469467,-0.0057625477202236,0.0143658900633454
1768731601621,0.1571502685546875,-0.2527618408203125,-0.9665374755859376,-0.0197143163532018,-0.011847604997456,0.0102587630972266
1768731601631,0.1569061279296875,-0.2533721923828125,-0.96380615234375,-0.0072129052132368,-0.0094654066488146,0.0009920274605974
1768731601641,0.1539306640625,-0.2525482177734375,-0.9620361328125,0.0051441621035337,0.0288556162267923,-0.0120553309097886
1768731601651,0.15167236328125,-0.256622314453125,-0.9590301513671876,0.0197052620351314,0.0645161420106887,-0.0222640261054039
1768731601661,0.1559906005859375,-0.2523040771484375,-0.9600067138671876,0.0329829826951026,0.065773420035839,-0.0170066803693771
1768731601671,0.16546630859375,-0.246337890625,-0.9527130126953124,0.0322141274809837,0.0506999306380748,-0.0084515418857336
1768731601681,0.1662139892578125,-0.2439727783203125,-0.9378204345703124,0.0079902820289134,0.0322042740881443,0.0068057081662118
1768731601691,0.166046142578125,-0.244415283203125,-0.921875,-0.016997892409563,0.0245135985314846,0.0103668868541717
1768731601701,0.1605072021484375,-0.25140380859375,-0.927032470703125,-0.0287128705531358,0.0427626445889472,0.0105730155482888
1768731601711,0.1626129150390625,-0.2509307861328125,-0.9405364990234376,-0.0323851034045219,0.0644639432430267,0.0107730189338326
1768731601721,0.1625823974609375,-0.251953125,-0.9463958740234376,-0.0374829284846782,0.0666328221559524,0.0093322489410638
1768731601731,0.1670379638671875,-0.24737548828125,-0.94573974609375,-0.0443016849458217,0.059728842228651,0.0111104417592287
1768731601741,0.167510986328125,-0.244140625,-0.9433135986328124,-0.0485251918435096,0.0536589659750461,0.0078571243211627
1768731601752,0.160369873046875,-0.2480010986328125,-0.9468231201171876,-0.0415921844542026,0.0502336099743843,0.0064432518556714
1768731601761,0.1606903076171875,-0.2469635009765625,-0.9567718505859376,-0.0289496257901191,0.0451698750257492,0.0058453720994293
1768731601771,0.158721923828125,-0.2451324462890625,-0.9598846435546876,-0.0205071400851011,0.0373662821948528,0.004800081718713
1768731601782,0.155364990234375,-0.250091552734375,-0.9609222412109376,-0.0140963774174451,0.0259418524801731,0.0081660505384206
1768731601792,0.1558074951171875,-0.2479400634765625,-0.9578399658203124,-0.0138058271259069,0.0119179124012589,0.0078243669122457
1768731601802,0.1569366455078125,-0.2508697509765625,-0.9567108154296876,-0.0128204571083188,0.0225415285676717,0.0037862160243093
1768731601812,0.15435791015625,-0.25091552734375,-0.9597015380859376,-0.0113871442154049,0.0677244514226913,-0.003991013392806
1768731601822,0.1492462158203125,-0.252593994140625,-0.9538421630859376,-0.0279117915779352,0.0598966218531131,1.8375811123405583e-05
1768731601832,0.1575775146484375,-0.2436676025390625,-0.942474365234375,-0.0416361279785633,0.0201284382492303,0.0072145033627748
1768731601842,0.1561279296875,-0.2516021728515625,-0.9438934326171876,-0.0355715751647949,0.005421130452305,-0.0029891319572925
1768731601852,0.1451416015625,-0.2592926025390625,-0.9541778564453124,-0.0117088537663221,0.0074376761913299,-0.0075809541158378
1768731601862,0.1468658447265625,-0.2639923095703125,-0.9608154296875,0.0108505170792341,0.0020865867845714,-0.0228669662028551
1768731601872,0.1448822021484375,-0.266326904296875,-0.963104248046875,0.0360192544758319,-0.0010689928894862,-0.0251431707292795
1768731601882,0.1507415771484375,-0.26605224609375,-0.9630279541015624,0.043609794229269,-0.0459680259227752,-0.0322314389050006
1768731601892,0.149261474609375,-0.271759033203125,-0.9601898193359376,0.0479789786040782,-0.0468087829649448,-0.0243974849581718
1768731601902,0.1559906005859375,-0.2574920654296875,-0.9649658203125,0.0573865920305252,-0.0270390734076499,-0.0142548363655805
1768731601912,0.1617584228515625,-0.253631591796875,-0.9672393798828124,0.0691313967108726,-0.0149302138015627,-0.0087428912520408
1768731601922,0.165374755859375,-0.2552337646484375,-0.9676971435546876,0.0884102880954742,-0.0110840760171413,-0.0059447083622217
1768731601932,0.16412353515625,-0.26055908203125,-0.9673614501953124,0.0898337513208389,-0.0090065440163016,-0.0115535920485854
1768731601942,0.1552581787109375,-0.2710418701171875,-0.9556732177734376,0.0800604820251464,-0.011528824456036,-0.0197569262236356
1768731601952,0.1510772705078125,-0.27978515625,-0.948577880859375,0.0749325677752494,-0.0053854444995522,-0.0334706082940101
1768731601962,0.1473236083984375,-0.2807464599609375,-0.948333740234375,0.0747410804033279,0.0092395711690187,-0.0466260910034179
1768731601973,0.1533355712890625,-0.2728729248046875,-0.9462432861328124,0.0610247366130352,0.0127693247050046,-0.0439954213798046
1768731601983,0.1630096435546875,-0.2589263916015625,-0.9298248291015624,0.0346650369465351,-0.0048144627362489,-0.0422377362847328
1768731601993,0.1664581298828125,-0.2537841796875,-0.92474365234375,0.0122326975688338,-0.0315696448087692,-0.043503001332283
1768731602003,0.174530029296875,-0.2465362548828125,-0.9345855712890624,0.0015757924411445,-0.0179521031677722,-0.038996934890747
1768731602013,0.1782989501953125,-0.2369537353515625,-0.9407958984375,-0.0156990680843591,0.0034927357919514,-0.0256113540381193
1768731602024,0.1812896728515625,-0.2341766357421875,-0.9334564208984376,-0.03629782050848,0.0096491649746894,-0.0181430503726005
1768731602033,0.1800994873046875,-0.237884521484375,-0.9258270263671876,-0.0591804981231689,-0.0130391027778387,-0.008805476129055
1768731602043,0.1805419921875,-0.2380523681640625,-0.926849365234375,-0.0660109743475914,-0.0431056581437587,-0.0023782027419656
1768731602053,0.171844482421875,-0.2488861083984375,-0.936767578125,-0.0569695420563221,-0.0388720333576202,-0.006058691535145
1768731602063,0.16064453125,-0.2590789794921875,-0.951904296875,-0.0386959984898567,-0.0261892601847648,-0.0090185282751917
1768731602073,0.157379150390625,-0.2629547119140625,-0.9552459716796876,-0.029046032577753,-0.0194802246987819,-0.0090848412364721
1768731602083,0.1569671630859375,-0.2654876708984375,-0.94891357421875,-0.0254776626825332,-0.0140953129157423,-0.0148298125714063
1768731602093,0.152557373046875,-0.273590087890625,-0.9448394775390624,-0.0214155428111553,-0.0059923785738646,-0.0192213654518127
1768731602103,0.15667724609375,-0.26904296875,-0.9417266845703124,-0.0178996380418539,-0.007644603960216,-0.0194229669868946
1768731602113,0.163543701171875,-0.2614593505859375,-0.9405059814453124,-0.0152327483519911,-0.0147664295509457,-0.0130066126585006
1768731602123,0.167572021484375,-0.257781982421875,-0.931732177734375,-0.0212765261530876,-0.0290835835039615,-0.0145826712250709
1768731602133,0.1671600341796875,-0.2568817138671875,-0.92022705078125,-0.0286340415477752,-0.0594460144639015,-0.005642439238727
1768731602143,0.175140380859375,-0.249755859375,-0.9179840087890624,-0.0328852459788322,-0.0747048631310463,-0.0038549257442355
1768731602153,0.169647216796875,-0.2521209716796875,-0.9218902587890624,-0.0346653014421463,-0.0746164470911026,-0.0013696637470275
1768731602163,0.1727752685546875,-0.2495269775390625,-0.9315338134765624,-0.029688386246562,-0.040906686335802,-0.0012319782981649
1768731602173,0.17364501953125,-0.245574951171875,-0.939208984375,-0.0367806516587734,-0.0013203952694311,0.0052552158012986
1768731602184,0.173614501953125,-0.2465362548828125,-0.93072509765625,-0.0620798841118812,0.0185316056013107,0.015500396490097
1768731602194,0.1780853271484375,-0.2463531494140625,-0.92364501953125,-0.0894103050231933,0.0242321025580167,0.0210983604192733
1768731602204,0.173858642578125,-0.251617431640625,-0.927520751953125,-0.1083206161856651,0.0209215264767408,0.0229897387325763
1768731602214,0.1709747314453125,-0.257598876953125,-0.9419403076171876,-0.1111622080206871,0.047906007617712,0.0234864167869091
1768731602224,0.1664581298828125,-0.2534942626953125,-0.9606781005859376,-0.1071685329079628,0.0650264024734497,0.0193025916814804
1768731602234,0.163970947265625,-0.25616455078125,-0.9649810791015624,-0.1208899393677711,0.0384416654706001,0.0142633579671382
1768731602244,0.1663055419921875,-0.250335693359375,-0.96795654296875,-0.1201634258031845,0.0182293374091386,0.015767777338624
1768731602254,0.1641693115234375,-0.24658203125,-0.984375,-0.105172760784626,0.0120508037507534,0.0122569324448704
1768731602264,0.16217041015625,-0.2466278076171875,-0.9983062744140624,-0.0801515579223632,0.0319661870598793,0.0104766096919775
1768731602274,0.1574249267578125,-0.245880126953125,-0.9986114501953124,-0.0612321980297565,0.0423229560256004,0.0111879399046301
1768731602284,0.15277099609375,-0.2469635009765625,-0.991119384765625,-0.0407431684434413,0.0316676497459411,0.0093154711648821
1768731602294,0.1480560302734375,-0.2530975341796875,-0.98956298828125,-0.0111543834209442,0.0350794233381748,0.0068107680417597
1768731602304,0.145782470703125,-0.2495269775390625,-0.9808502197265624,0.0044155209325253,0.0475645884871482,-0.0030285466928035
1768731602314,0.1458740234375,-0.250396728515625,-0.9744415283203124,0.0249242577701807,0.0341984517872333,-0.0092656696215271
1768731602324,0.1440887451171875,-0.2529296875,-0.96624755859375,0.0301965177059173,0.0245530139654874,-0.0196445416659116
1768731602334,0.14361572265625,-0.24951171875,-0.949310302734375,0.0271831508725881,0.0109272161498665,-0.0235284958034753
1768731602345,0.1518707275390625,-0.2442779541015625,-0.944671630859375,0.0173382442444562,-0.0074592479504644,-0.0195707716047763
1768731602354,0.1566009521484375,-0.23773193359375,-0.936370849609375,-0.0119743710383772,-0.040992971509695,-0.0096417078748345
1768731602365,0.1568603515625,-0.240936279296875,-0.9255218505859376,-0.0411519631743431,-0.0303903967142105,-0.0020596887916326
1768731602375,0.154449462890625,-0.24298095703125,-0.922119140625,-0.0580364055931568,0.0001648496690904,-0.0025246767327189
1768731602386,0.153472900390625,-0.2464447021484375,-0.9232025146484376,-0.0677212551236152,-0.0038972699549049,-0.0022224078420549
1768731602395,0.1604766845703125,-0.2428741455078125,-0.9260406494140624,-0.0640887022018432,-0.010671286843717,-0.0022556975018233
1768731602405,0.1638641357421875,-0.2377166748046875,-0.9381866455078124,-0.0562315806746482,-0.0241996124386787,-0.0024274713359773
1768731602415,0.166229248046875,-0.2371063232421875,-0.9536285400390624,-0.0369255281984806,-0.0367468297481536,-0.0051082093268632
1768731602425,0.168792724609375,-0.235748291015625,-0.973724365234375,-0.0110092414543032,-0.0143363289535045,-0.0058232680894434
1768731602435,0.1690521240234375,-0.23199462890625,-0.981689453125,0.0019158780341967,0.0183814037591218,-0.003230414353311
1768731602445,0.17413330078125,-0.227294921875,-0.973541259765625,0.0035467979032546,0.0163230467587709,0.0053454968146979
1768731602455,0.1739654541015625,-0.234344482421875,-0.96759033203125,0.0010157296201214,0.0241748448461294,0.0043313652276992
1768731602465,0.170684814453125,-0.2389068603515625,-0.9618072509765624,-0.0001533980830572,0.0270662382245063,0.0036139094736427
1768731602475,0.1717376708984375,-0.236114501953125,-0.95751953125,-0.0038850193377584,0.0201207138597965,0.0104624945670366
1768731602485,0.1685638427734375,-0.2376708984375,-0.9545745849609376,-0.0089514171704649,0.0291424393653869,0.0038645130116492
1768731602495,0.1591339111328125,-0.241180419921875,-0.9481658935546876,-0.0116350846365094,0.0349715650081634,-0.0007981493836268
1768731602505,0.1598358154296875,-0.240875244140625,-0.94635009765625,-0.010122675448656,0.0372440405189991,-0.0026184199377894
1768731602515,0.1612548828125,-0.2346343994140625,-0.947052001953125,-0.0132494922727346,0.0348823517560958,-0.004538026638329
1768731602525,0.1639251708984375,-0.2289886474609375,-0.946380615234375,-0.0138377845287323,0.0107623664662241,0.0004058657505083
1768731602535,0.1660003662109375,-0.2266845703125,-0.9398956298828124,-0.0254864506423473,0.0074906731024384,0.0112792858853936
1768731602545,0.173370361328125,-0.219879150390625,-0.94219970703125,-0.0367060825228691,-0.0162596628069877,0.0151360761374235
1768731602555,0.160247802734375,-0.2368927001953125,-0.942657470703125,-0.0391689725220203,-0.0312926769256591,0.0135616147890686
1768731602565,0.1586761474609375,-0.2333221435546875,-0.954986572265625,-0.0251857805997133,-0.0097415773198008,0.0080227730795741
1768731602575,0.157501220703125,-0.2347259521484375,-0.96380615234375,-0.0181433167308568,0.0063095614314079,-0.000241548710619
1768731602585,0.1508636474609375,-0.2401123046875,-0.9613037109375,-0.0188788827508687,0.0278521366417408,-0.0015640745405107
1768731602595,0.1561431884765625,-0.23284912109375,-0.9556121826171876,-0.0232805553823709,0.0345973931252956,0.0113474633544683
1768731602606,0.16650390625,-0.2274627685546875,-0.9439544677734376,-0.0375766716897487,0.0030802120454609,0.0219574961811304
1768731602616,0.1661529541015625,-0.2367095947265625,-0.935394287109375,-0.0448668077588081,-0.0157435424625873,0.023345535621047
1768731602626,0.16473388671875,-0.244232177734375,-0.936004638671875,-0.0500991195440292,-0.0213907752186059,0.0225615017116069
1768731602636,0.1664886474609375,-0.2447967529296875,-0.9400787353515624,-0.064532920718193,-0.0402201227843761,0.0215633492916822
1768731602646,0.16632080078125,-0.242645263671875,-0.9420623779296876,-0.0726323947310447,-0.0672927573323249,0.0205241832882165
1768731602656,0.1672821044921875,-0.2414703369140625,-0.9609375,-0.0664735659956932,-0.0685231313109397,0.0222808048129081
1768731602666,0.1633148193359375,-0.2420501708984375,-0.9771728515625,-0.05208370834589,-0.0706400796771049,0.0250816512852907
1768731602676,0.1627655029296875,-0.238983154296875,-0.9832763671875,-0.0375116877257823,-0.0900273621082305,0.0250211972743272
1768731602686,0.1634063720703125,-0.2345428466796875,-0.9868316650390624,-0.0128572089597582,-0.0788844302296638,0.0198176465928554
1768731602696,0.1565704345703125,-0.23443603515625,-0.990875244140625,0.0076701701618731,-0.056316003203392,0.0154143758118152
1768731602706,0.1587371826171875,-0.230682373046875,-0.9845428466796876,0.0275237690657377,-0.0639353096485138,0.023828100413084
1768731602716,0.1635284423828125,-0.2282867431640625,-0.9774627685546876,0.0398752428591251,-0.0577277429401874,0.0252014938741922
1768731602726,0.1547698974609375,-0.232208251953125,-0.971527099609375,0.0551452785730361,-0.0516261756420135,0.0201436169445514
1768731602736,0.1507720947265625,-0.23712158203125,-0.96533203125,0.0501774176955223,-0.0325888358056545,0.0157912131398916
1768731602746,0.1525115966796875,-0.2364501953125,-0.95294189453125,0.0374035649001598,-0.0157797615975141,0.0156181082129478
1768731602756,0.14794921875,-0.237884521484375,-0.9436492919921876,0.0187718234956264,-0.0040812944062054,0.013023923151195
1768731602766,0.146392822265625,-0.244232177734375,-0.936553955078125,0.00961241312325,-0.0190293509513139,0.0090824449434876
1768731602776,0.14068603515625,-0.2491302490234375,-0.940704345703125,0.0095988316461443,-0.0083151878789067,-0.0126201873645186
1768731602786,0.142608642578125,-0.2443084716796875,-0.944427490234375,0.0046930224634706,-0.0317038670182228,-0.0153794884681701
1768731602796,0.15521240234375,-0.2323150634765625,-0.94384765625,-0.0160676501691341,-0.0650857910513877,0.0012884372845292
1768731602806,0.15545654296875,-0.2294158935546875,-0.937713623046875,-0.0329851135611534,-0.0610702782869339,0.0054717306047677
1768731602817,0.1478271484375,-0.2329254150390625,-0.94287109375,-0.0374906510114669,-0.0177377182990312,-8.57537888805382e-05
1768731602827,0.1493072509765625,-0.231719970703125,-0.9542083740234376,-0.0198136512190103,0.0037747644819319,-0.0070030484348535
1768731602837,0.15264892578125,-0.2351531982421875,-0.96197509765625,-0.0040932786650955,0.0009294432238675,-0.0170309152454137
1768731602847,0.148162841796875,-0.2407684326171875,-0.9582977294921876,0.0105842007324099,0.0038501319941133,-0.0272212345153093
1768731602857,0.15618896484375,-0.23541259765625,-0.9587554931640624,0.0170543510466814,-0.0235993359237909,-0.0173606146126985
1768731602867,0.16168212890625,-0.232574462890625,-0.9558258056640624,0.0187273491173982,-0.0409018918871879,-0.010808172635734
1768731602877,0.15972900390625,-0.2352447509765625,-0.9628448486328124,0.0113325491547584,-0.0297768041491508,0.0037555897142738
1768731602887,0.16326904296875,-0.2333526611328125,-0.956390380859375,-0.0043801008723676,-0.0383039787411689,0.0162849631160497
1768731602897,0.161376953125,-0.2383270263671875,-0.9531402587890624,-0.0199928823858499,-0.0512615889310836,0.0197803620249032
1768731602907,0.1563262939453125,-0.24224853515625,-0.9538421630859376,-0.010848119854927,-0.04667429625988,0.0157478041946887
1768731602917,0.1527099609375,-0.244476318359375,-0.967376708984375,0.0139589589089155,-0.0363156646490097,0.0069971894845366
1768731602927,0.1561431884765625,-0.2390594482421875,-0.9747161865234376,0.0487222671508789,-0.036323919892311,-0.0015845808666199
1768731602937,0.1525726318359375,-0.2386932373046875,-0.972869873046875,0.0704957395792007,-0.0387322157621383,-0.0051508196629583
1768731602947,0.1531219482421875,-0.237548828125,-0.9680633544921876,0.0881082862615585,-0.0474074631929397,0.0026200178544968
1768731602957,0.154296875,-0.2363433837890625,-0.9677276611328124,0.0947262421250343,-0.0464987941086292,0.001488440670073
1768731602967,0.1464996337890625,-0.24468994140625,-0.9671783447265624,0.0850592330098152,-0.0188093744218349,0.0046291067264974
1768731602977,0.15283203125,-0.2400360107421875,-0.9573516845703124,0.071584440767765,-0.0065796058624982,0.0086936233565211
1768731602988,0.151275634765625,-0.243438720703125,-0.945281982421875,0.049871951341629,-0.0099146822467446,0.0088512822985649
1768731602998,0.1504058837890625,-0.244964599609375,-0.9324951171875,0.0240054670721292,-0.0158652495592832,0.0126912938430905
1768731603008,0.15435791015625,-0.2388458251953125,-0.9239044189453124,0.0018362496048212,-0.0500450581312179,0.0212485641241073
1768731603018,0.1519775390625,-0.2438812255859375,-0.9288482666015624,-0.0104667553678154,-0.058396466076374,0.0194711703807115
1768731603028,0.1405487060546875,-0.2531585693359375,-0.941070556640625,-0.012408466078341,-0.0295288637280464,0.0153179699555039
1768731603038,0.136138916015625,-0.2534637451171875,-0.9508819580078124,-0.0169712603092193,-0.0164644606411457,0.0116009963676333
1768731603048,0.13665771484375,-0.253204345703125,-0.94873046875,-0.0153379430994391,-0.0244547426700592,0.0076765618287026
1768731603058,0.13848876953125,-0.24969482421875,-0.950439453125,-0.010807373560965,-0.0444281846284866,0.0093519566580653
1768731603068,0.1408233642578125,-0.244873046875,-0.9575347900390624,-0.0010381002211943,-0.055965531617403,0.0080688456073403
1768731603078,0.1446380615234375,-0.242462158203125,-0.9665374755859376,0.0150721604004502,-0.0513065978884696,0.0098265316337347
1768731603088,0.1457366943359375,-0.24053955078125,-0.9708709716796876,0.0332602187991142,-0.0288263224065303,0.002919090911746
1768731603098,0.14337158203125,-0.2418060302734375,-0.971893310546875,0.0467163734138011,-0.0065646921284496,0.0002886866568587
1768731603108,0.143768310546875,-0.241790771484375,-0.969512939453125,0.0538507141172885,-0.005656820256263,0.0035760926548391
1768731603118,0.144683837890625,-0.2423248291015625,-0.9630584716796876,0.0563514232635498,-0.019521502777934,0.005951898638159
1768731603128,0.1406402587890625,-0.247955322265625,-0.9602813720703124,0.0591850280761718,-0.0211372431367635,0.0102031026035547
1768731603138,0.1388702392578125,-0.2492218017578125,-0.9605255126953124,0.0530927777290344,-0.0225242171436548,0.0130950296297669
1768731603148,0.1410675048828125,-0.24755859375,-0.95294189453125,0.0370166078209877,-0.0276566613465547,0.0217066276818513
1768731603158,0.14129638671875,-0.248138427734375,-0.944427490234375,0.018761970102787,-0.0338727459311485,0.0193888787180185
1768731603168,0.1373443603515625,-0.257354736328125,-0.9361419677734376,0.0020130835473537,-0.0413162820041179,0.0093724625185132
1768731603178,0.135406494140625,-0.2590179443359375,-0.93133544921875,-0.002878877101466,-0.0692347288131713,0.0001454086013836
1768731603188,0.1365509033203125,-0.2572479248046875,-0.9408111572265624,0.0037875475827604,-0.0607360526919364,-0.004757737275213
1768731603198,0.1390228271484375,-0.243011474609375,-0.95758056640625,0.0229583121836185,-0.0677209869027137,0.0036485306918621
1768731603209,0.1430206298828125,-0.240081787109375,-0.96478271484375,0.0304974559694528,-0.0808122903108596,0.0055207330733537
1768731603219,0.134674072265625,-0.2489013671875,-0.960540771484375,0.0299363266676664,-0.0538019798696041,-0.0029451898299157
1768731603228,0.1261138916015625,-0.2570343017578125,-0.95892333984375,0.039986565709114,-0.0191329475492239,-0.0095745967701077
1768731603240,0.134613037109375,-0.24285888671875,-0.966766357421875,0.0609791986644268,0.0078954733908176,-0.0134255271404981
1768731603249,0.1349945068359375,-0.2496795654296875,-0.9670867919921876,0.0624130442738533,0.0222650915384292,-0.0212573520839214
1768731603259,0.133209228515625,-0.2457427978515625,-0.9477386474609376,0.0528586879372596,0.0252518262714147,-0.0143850641325116
1768731603269,0.139678955078125,-0.2386474609375,-0.937530517578125,0.0460950583219528,0.0341379977762699,-0.0061082262545824
1768731603279,0.1472015380859375,-0.2372894287109375,-0.9344940185546876,0.0331156104803085,0.0096789924427866,0.0135453697293996
1768731603289,0.1475830078125,-0.2441864013671875,-0.9332427978515624,0.0116673083975911,-0.0248416997492313,0.0221769418567419
1768731603299,0.1394500732421875,-0.2568817138671875,-0.9307098388671876,-0.0154069196432828,-0.0392890833318233,0.0251154731959104
1768731603309,0.1376495361328125,-0.2606201171875,-0.9290924072265624,-0.0424095094203949,-0.0513976775109767,0.0300833340734243
1768731603319,0.1360321044921875,-0.258270263671875,-0.9334564208984376,-0.058402057737112,-0.0590302981436252,0.0267290826886892
1768731603329,0.13433837890625,-0.2551727294921875,-0.9412384033203124,-0.0603717304766178,-0.0702307522296905,0.0231204982846975
1768731603339,0.132659912109375,-0.2545623779296875,-0.9606170654296876,-0.0361438877880573,-0.0392246358096599,0.0133229959756135
1768731603349,0.1253814697265625,-0.2572174072265625,-0.9835052490234376,-0.005918875336647,0.0128513500094413,0.00515215145424
1768731603359,0.1290740966796875,-0.2518157958984375,-0.9843902587890624,0.0158455427736043,0.0162002742290496,0.0038312235847115
1768731603369,0.133056640625,-0.2496185302734375,-0.9753875732421876,0.0282771773636341,-0.0028533106669783,0.0030322752427309
1768731603379,0.1342926025390625,-0.2502593994140625,-0.9733734130859376,0.0440063402056694,-0.0074352794326841,0.0033316144254058
1768731603389,0.1332244873046875,-0.250091552734375,-0.9693603515625,0.0560174621641635,0.0109415976330637,-0.0029449234716594
1768731603399,0.1287841796875,-0.253509521484375,-0.959228515625,0.0502740889787673,0.0059471051208674,-0.0024319987278431
1768731603409,0.1315765380859375,-0.2526702880859375,-0.94476318359375,0.0436699837446212,-0.0046176551841199,-0.0021345235873013
1768731603419,0.12811279296875,-0.257293701171875,-0.944427490234375,0.0282050054520368,0.0052126049995422,-0.0040538636967539
1768731603429,0.1265411376953125,-0.260650634765625,-0.935577392578125,0.0078802937641739,0.0072517874650657,-0.0079002669081091
1768731603440,0.12615966796875,-0.2584075927734375,-0.9303741455078124,-0.0198512021452188,-0.0229833461344242,0.003106577321887
1768731603450,0.13623046875,-0.2516937255859375,-0.9277191162109376,-0.0406182669103145,-0.0551844239234924,0.0095367794856429
1768731603460,0.1325531005859375,-0.2539215087890625,-0.9359283447265624,-0.0439852997660636,-0.0467219650745391,0.0054925032891333
1768731603470,0.1277618408203125,-0.25921630859375,-0.948150634765625,-0.0396408848464489,-0.046930756419897,-0.0032242890447378
1768731603480,0.1237640380859375,-0.2606353759765625,-0.9571533203125,-0.0332679413259029,-0.0443584099411964,-0.0106984507292509
1768731603490,0.1282501220703125,-0.250091552734375,-0.963165283203125,-0.0227636359632015,-0.0403279811143875,-0.0022082931827753
1768731603500,0.1337127685546875,-0.2459869384765625,-0.9736328125,-0.0039771646261215,-0.0189286842942237,-0.003760383464396
1768731603510,0.12664794921875,-0.2521820068359375,-0.9718017578125,0.0014460964594036,0.0116289593279361,-0.0084661887958645
1768731603520,0.1302490234375,-0.2472991943359375,-0.963592529296875,0.0056632119230926,0.0100326603278517,-0.0018221348291262
1768731603530,0.1388702392578125,-0.2473602294921875,-0.96014404296875,0.0132108768448233,0.0139541653916239,-0.0023132218047976
1768731603540,0.1370849609375,-0.2526092529296875,-0.9564666748046876,0.0180599596351385,0.0265764836221933,-0.00963931158185
1768731603550,0.133941650390625,-0.25408935546875,-0.9503173828125,0.0064594973810017,0.0022540995851159,-0.0102209458127617
1768731603560,0.1360626220703125,-0.251007080078125,-0.950531005859375,0.0009560748003423,-0.0166250485926866,-0.0022461100015789
1768731603570,0.1363067626953125,-0.24969482421875,-0.9579315185546876,-0.0007542071980424,0.0147512489929795,-0.0017278589075431
1768731603580,0.1306610107421875,-0.255126953125,-0.95562744140625,-0.0044003408402204,0.0290289875119924,-0.003319896524772
1768731603590,0.1278228759765625,-0.260040283203125,-0.9494781494140624,-0.0094579504802823,0.0100065609440207,-0.0051161986775696
1768731603600,0.1356964111328125,-0.2529754638671875,-0.94732666015625,-0.0231465976685285,-0.0394467413425445,0.0077865505591034
1768731603610,0.140472412109375,-0.245330810546875,-0.9469757080078124,-0.0327526219189167,-0.0317992083728313,0.0100510362535715
1768731603620,0.1279296875,-0.2545623779296875,-0.9544677734375,-0.0283589363098144,0.0084861628711223,0.0043556001037359
1768731603630,0.124969482421875,-0.2579193115234375,-0.9604644775390624,-0.0163707174360752,0.0117496000602841,-0.0027422569692134
1768731603641,0.1291351318359375,-0.2546844482421875,-0.9608154296875,8.229167724493891e-05,0.0273011289536952,-0.0127096697688102
1768731603651,0.13043212890625,-0.254730224609375,-0.966217041015625,0.0167619362473487,0.0434494726359844,-0.0147680267691612
1768731603660,0.1331329345703125,-0.251129150390625,-0.9629974365234376,0.0247439630329608,0.0366086103022098,-0.0162071995437145
1768731603671,0.1347503662109375,-0.2486572265625,-0.959075927734375,0.0330074839293956,0.0128473555669188,-0.0160538014024496
1768731603681,0.1357421875,-0.2516326904296875,-0.9625701904296876,0.0365311130881309,0.015098525211215,-0.0149075770750641
1768731603691,0.1353759765625,-0.252685546875,-0.96484375,0.039272304624319,0.0411104187369346,-0.0119695775210857
1768731603701,0.132080078125,-0.254180908203125,-0.957000732421875,0.0297547001391649,0.0310854818671941,-0.0081306304782629
1768731603711,0.13494873046875,-0.2570037841796875,-0.9453277587890624,0.0154516603797674,0.0023920512758195,-0.0058120829053223
1768731603721,0.136810302734375,-0.256866455078125,-0.94024658203125,0.0063087623566389,-0.0007539408979937,-0.0061351242475211
1768731603731,0.1320648193359375,-0.260528564453125,-0.9428863525390624,0.0047079361975193,-0.004136155359447,-0.0078978706151247
1768731603741,0.131988525390625,-0.2593536376953125,-0.9432525634765624,0.0036253612488508,-0.0258007049560546,-0.0074214311316609
1768731603751,0.1334686279296875,-0.254791259765625,-0.9553680419921876,0.016013853251934,0.0020610203500837,-0.0136915771290659
1768731603761,0.1284332275390625,-0.25628662109375,-0.9681243896484376,0.0254201386123895,0.0434920825064182,-0.0173733979463577
1768731603771,0.12890625,-0.2541656494140625,-0.9641571044921876,0.0230177007615566,0.046878557652235,-0.021444572135806
1768731603781,0.13372802734375,-0.252197265625,-0.956207275390625,0.0221567004919052,0.0260917879641056,-0.0212829187512397
1768731603791,0.1397705078125,-0.24951171875,-0.9571685791015624,0.0159536655992269,0.0235468707978725,-0.0137075567618012
1768731603801,0.1372833251953125,-0.2545623779296875,-0.9456939697265624,0.0032168321777135,0.0324032120406627,-0.0183893926441669
1768731603811,0.13116455078125,-0.2615509033203125,-0.939178466796875,-0.0003651193692348,0.0119421472772955,-0.0195625163614749
1768731603821,0.13690185546875,-0.255218505859375,-0.9486846923828124,0.0006657902849838,-0.0011222560424357,-0.0098201399669051
1768731603831,0.1394805908203125,-0.2496337890625,-0.94927978515625,-0.0061303302645683,0.0178287979215383,-0.011430287733674
1768731603841,0.12945556640625,-0.260589599609375,-0.941070556640625,-0.0239940155297517,0.022007830440998,-0.0176237355917692
1768731603852,0.1325531005859375,-0.2598419189453125,-0.9351348876953124,-0.0426380075514316,-0.0126518793404102,-0.0099748698994517
1768731603862,0.14202880859375,-0.2530975341796875,-0.9361572265625,-0.0488282591104507,-0.0190218947827816,-0.0097474362701177
1768731603872,0.1360015869140625,-0.2498016357421875,-0.953277587890625,-0.034751322120428,0.0097101517021656,-0.0090158656239509
1768731603882,0.137359619140625,-0.24920654296875,-0.9663848876953124,-0.0165736507624387,0.0061114220879971,-0.0128249851986765
1768731603892,0.1393890380859375,-0.2480926513671875,-0.9705047607421876,0.0046016760170459,0.0033174997661262,-0.0120476083829998
1768731603902,0.1396331787109375,-0.254730224609375,-0.9727325439453124,0.0146883986890316,0.0057747983373701,-0.0187728889286518
1768731603912,0.1375579833984375,-0.2515869140625,-0.96734619140625,0.0219766721129417,0.0150947971269488,-0.0112220281735062
1768731603922,0.1398773193359375,-0.2512359619140625,-0.9603424072265624,0.0210978277027606,0.019246932119131,-0.0145528437569737
1768731603932,0.1390838623046875,-0.2517547607421875,-0.9490966796875,0.0198594592511653,0.0229196976870298,-0.0112451976165175
1768731603942,0.14422607421875,-0.2435455322265625,-0.9410858154296876,0.02023496478796,0.0314370170235633,0.0003507383225951
1768731603952,0.1501312255859375,-0.2381134033203125,-0.939788818359375,0.0089069418609142,0.0148404650390148,0.0144519098103046
1768731603962,0.1480560302734375,-0.2466278076171875,-0.9311065673828124,-0.0081402184441685,-0.000794953550212,0.0170442312955856
1768731603973,0.1405487060546875,-0.2606353759765625,-0.9276123046875,-0.031605064868927,-0.0198397506028413,0.0186983197927474
1768731603982,0.1420135498046875,-0.2633056640625,-0.9297027587890624,-0.0493467785418033,-0.0331595502793788,0.0152407381683588
1768731603992,0.135711669921875,-0.2682342529296875,-0.943023681640625,-0.0539638996124267,-0.0216336566954851,0.0105019090697169
1768731604002,0.1350250244140625,-0.2636260986328125,-0.955963134765625,-0.0507364124059677,-0.0137978373095393,0.0055638761259615
1768731604012,0.1385040283203125,-0.257110595703125,-0.963226318359375,-0.0484993606805801,-0.0027369307354092,0.005871205125004
1768731604022,0.1371002197265625,-0.25372314453125,-0.96466064453125,-0.0384664312005043,0.0005185174522921,0.0033353429753333
1768731604032,0.1367034912109375,-0.252105712890625,-0.974639892578125,-0.0201556012034416,0.0012972257100045,0.0022327941842377
1768731604042,0.1397857666015625,-0.2476806640625,-0.9831695556640624,0.0057124802842736,0.0132984947413206,0.0073460633866488
1768731604052,0.1401214599609375,-0.2465362548828125,-0.98681640625,0.0363492183387279,0.0230113100260496,0.0113120432943105
1768731604062,0.140472412109375,-0.2472686767578125,-0.9810028076171876,0.049484197050333,0.013130716048181,0.0098853874951601
1768731604073,0.1390380859375,-0.24945068359375,-0.965057373046875,0.0456801354885101,-0.013244698755443,0.0130076771602034
1768731604083,0.1380767822265625,-0.25360107421875,-0.9493255615234376,0.0389689691364765,-0.0123080648481845,0.011779161170125
1768731604093,0.1326446533203125,-0.25762939453125,-0.9427337646484376,0.0288843791931867,-0.0038788940291851,0.0035380094777792
1768731604103,0.13031005859375,-0.2616729736328125,-0.941009521484375,0.0188985895365476,-0.0048810415901243,0.0019760655704885
1768731604113,0.1343231201171875,-0.2626800537109375,-0.9405517578125,0.0101487739011645,-0.0077434070408344,0.0014098774408921
1768731604123,0.1311492919921875,-0.2621307373046875,-0.939483642578125,-0.0015680692158639,-0.0125205852091312,-0.0024133566766977
1768731604133,0.132171630859375,-0.260589599609375,-0.939117431640625,-0.0125506790354847,-0.0297515038400888,-0.0062983757816255
1768731604143,0.137451171875,-0.2556304931640625,-0.9456024169921876,-0.0136463036760687,-0.02127998881042,-0.0033201628830283
1768731604153,0.13616943359375,-0.2557373046875,-0.9521636962890624,-0.0085506113246083,-0.0099394498392939,-0.0094414390623569
1768731604163,0.1309814453125,-0.258941650390625,-0.95904541015625,-0.0050552124157547,0.0087751159444451,-0.0098563591018319
1768731604173,0.135772705078125,-0.250213623046875,-0.965362548828125,0.0055729309096932,0.0186842046678066,-0.0065718824043869
1768731604183,0.1390533447265625,-0.2484893798828125,-0.95965576171875,-0.0034895399585366,0.0258193463087081,0.0006101301987655
1768731604193,0.14178466796875,-0.2421417236328125,-0.94659423828125,-0.0067417924292385,0.0168109387159347,0.0094821853563189
1768731604203,0.13995361328125,-0.2505950927734375,-0.9502410888671876,-0.0076525933109223,0.0074291541241109,0.0029976540245115
1768731604213,0.1352386474609375,-0.2578125,-0.94873046875,-0.0175254642963409,0.018181400373578,0.0056051551364362
1768731604223,0.1359100341796875,-0.2544708251953125,-0.9440155029296876,-0.0233937390148639,0.0086635295301675,0.0027720844373106
1768731604233,0.1345977783203125,-0.25921630859375,-0.9507598876953124,-0.0166303757578134,0.0122310994192957,-0.0040991376154124
1768731604243,0.1377105712890625,-0.2586517333984375,-0.9585113525390624,-0.0125884963199496,0.0232193022966384,-0.005600893869996
1768731604253,0.13507080078125,-0.2555694580078125,-0.9540557861328124,-0.0184799414128065,0.0130905015394091,-0.0038139128591865
1768731604264,0.1348419189453125,-0.2559051513671875,-0.9506988525390624,-0.0240403544157743,-0.0067660268396139,-0.0001368864759569
1768731604273,0.1332244873046875,-0.25634765625,-0.9557647705078124,-0.0201313663274049,-0.00091692636488,-0.0095285242423415
1768731604284,0.128570556640625,-0.2611236572265625,-0.964996337890625,-0.0098166782408952,0.0141230095177888,-0.0171864442527294
1768731604294,0.127960205078125,-0.2599639892578125,-0.968170166015625,-1.810949470382184e-05,0.0239604599773883,-0.0186935272067785
1768731604304,0.1306304931640625,-0.2564239501953125,-0.96759033203125,0.0018346516881138,0.0279562678188085,-0.0170743241906166
1768731604314,0.1351318359375,-0.2537841796875,-0.9561920166015624,-0.0025968484114855,0.0113687682896852,-0.0142713477835059
1768731604324,0.1334075927734375,-0.2574310302734375,-0.9436187744140624,-0.0142732113599777,-0.0028977855108678,-0.0162064004689455
1768731604334,0.1357879638671875,-0.2577667236328125,-0.94122314453125,-0.0220925193279981,-0.011404987424612,-0.011372230015695
1768731604344,0.137451171875,-0.2551116943359375,-0.94378662109375,-0.0268641039729118,-0.0024788703303784,-0.0108912633731961
1768731604354,0.1384735107421875,-0.25225830078125,-0.94915771484375,-0.0260646231472492,0.0066073024645447,-0.0084267742931842
1768731604364,0.1375579833984375,-0.2516632080078125,-0.9532928466796876,-0.0202070008963346,0.0060866544954478,-0.002895388752222
1768731604374,0.139495849609375,-0.2525634765625,-0.957427978515625,-0.0105871306732296,-0.0067785438150167,-0.0024296017363667
1768731604384,0.1378173828125,-0.254547119140625,-0.95965576171875,-0.0051846420392394,-0.0231553856283426,-0.0009406284661963
1768731604394,0.138092041015625,-0.256561279296875,-0.956939697265625,-0.0064613614231348,-0.0368938371539115,-0.0026847326662391
1768731604404,0.139007568359375,-0.2548065185546875,-0.955810546875,-0.0060565611347556,-0.0445890389382839,-8.81506348378025e-05
1768731604414,0.1399688720703125,-0.25628662109375,-0.9590606689453124,-0.004211523104459,-0.0382927954196929,0.0048490837216377
1768731604424,0.1430206298828125,-0.2538909912109375,-0.95794677734375,-0.0005566006875596,-0.0008146609761752,0.006108758971095
1768731604434,0.137115478515625,-0.2566986083984375,-0.9583892822265624,0.005838181823492,0.0375084914267063,-6.285060226218775e-05
1768731604444,0.13787841796875,-0.2556610107421875,-0.9604339599609376,0.0111080445349216,0.0287411008030176,0.0054602790623903
1768731604454,0.14337158203125,-0.25006103515625,-0.95159912109375,0.0094875115901231,0.0108635667711496,0.0077279605902731
1768731604464,0.1432952880859375,-0.247161865234375,-0.944915771484375,0.0044437507167458,-0.0058805258013308,0.0084912227466702
1768731604475,0.143951416015625,-0.2476959228515625,-0.9465484619140624,-0.0003613909648265,-0.0128513500094413,0.0110917994752526
1768731604484,0.14398193359375,-0.2489166259765625,-0.9468841552734376,-0.0088637992739677,0.0028035095892846,0.0099399825558066
1768731604495,0.1394195556640625,-0.252532958984375,-0.947784423828125,-0.0168588757514953,0.0262846015393733,0.0093543529510498
1768731604505,0.13861083984375,-0.2526702880859375,-0.9455108642578124,-0.026691798120737,0.0110105732455849,0.0157025307416915
1768731604515,0.140655517578125,-0.250518798828125,-0.9449005126953124,-0.0307866744697093,0.0037736992817372,0.0143054360523819
1768731604525,0.134552001953125,-0.2573089599609375,-0.95086669921875,-0.0317488759756088,0.0142175517976284,0.0111517207697033
1768731604535,0.1301422119140625,-0.2611236572265625,-0.9498748779296876,-0.033640518784523,0.0176064241677522,0.0027912592049688
1768731604545,0.128692626953125,-0.2597503662109375,-0.9557647705078124,-0.0298162195831537,0.0284609366208314,-0.0005363606614992
1768731604555,0.1331787109375,-0.2484588623046875,-0.9620513916015624,-0.0241687186062335,0.0253098830580711,0.0170487575232982
1768731604565,0.140899658203125,-0.2397308349609375,-0.9621734619140624,-0.0115498630329966,0.0141094271093606,0.0137810595333576
1768731604575,0.1295928955078125,-0.2496795654296875,-0.9605255126953124,-0.0052885054610669,0.007481884676963,0.0110475914552807
1768731604585,0.1320037841796875,-0.2549285888671875,-0.95703125,-0.0036490634083747,-0.003507649526,0.0008562062866985
1768731604595,0.1287994384765625,-0.2528839111328125,-0.957366943359375,0.0060898503288626,0.0051087420433759,-0.0055689360015094
1768731604605,0.13232421875,-0.2496490478515625,-0.9580078125,0.0071569788269698,0.0149645684286952,-0.0023166837636381
1768731604615,0.1304168701171875,-0.248260498046875,-0.9526824951171876,0.0038381477352231,0.0209566801786422,-0.0034445326309651
1768731604626,0.126861572265625,-0.2496337890625,-0.9490509033203124,0.0044695832766592,0.0219585616141557,-0.0028186896815896
1768731604635,0.134918212890625,-0.244110107421875,-0.9468536376953124,0.0044677192345261,0.0003480751474853,0.0021710088476538
1768731604645,0.143341064453125,-0.241180419921875,-0.944122314453125,-0.0060861217789351,-0.0177531652152538,0.0127118006348609
1768731604655,0.1390228271484375,-0.2480926513671875,-0.9371337890625,-0.030860710889101,-0.0237362217158079,0.0144806718453764
1768731604665,0.1347503662109375,-0.258209228515625,-0.9374237060546876,-0.0460433922708034,-0.0208663996309041,0.0144724166020751
1768731604675,0.1361083984375,-0.258026123046875,-0.94384765625,-0.0542973279953002,-0.0180631559342145,0.0157904140651226
1768731604685,0.1375885009765625,-0.25457763671875,-0.9515380859375,-0.0530144833028316,-0.0090060122311115,0.013375193811953
1768731604695,0.1333465576171875,-0.2578887939453125,-0.96307373046875,-0.0475970804691314,0.0080171804875135,0.0068323398008942
1768731604706,0.1320953369140625,-0.2558746337890625,-0.9727630615234376,-0.0376845262944698,0.0172884427011013,0.0019497001776471
1768731604716,0.136077880859375,-0.253326416015625,-0.9790802001953124,-0.0178905837237834,0.0266843419522047,0.0017590179340913
1768731604726,0.1355743408203125,-0.251556396484375,-0.98382568359375,0.0081474082544446,0.0237785670906305,0.0002386192354606
1768731604736,0.13861083984375,-0.248626708984375,-0.986328125,0.0330775268375873,0.0205452218651771,0.0030397321097552
1768731604746,0.1368408203125,-0.2466888427734375,-0.97930908203125,0.0496623627841472,0.0245354361832141,0.0041473405435681
1768731604756,0.1394195556640625,-0.24725341796875,-0.9683074951171876,0.0498740822076797,0.0048581385053694,0.0135144768282771
1768731604766,0.1434478759765625,-0.2452850341796875,-0.9509429931640624,0.0412861853837966,-0.0001904160162666,0.0215449724346399
1768731604776,0.1364288330078125,-0.2548065185546875,-0.94183349609375,0.0307086445391178,0.0303821396082639,0.0162380915135145
1768731604786,0.1332855224609375,-0.257843017578125,-0.9415435791015624,0.0320612639188766,0.0134082166478037,0.0201976802200078
1768731604796,0.139892578125,-0.251922607421875,-0.9437408447265624,0.0196770317852497,0.008316253311932,0.0190171003341674
1768731604806,0.140533447265625,-0.2578582763671875,-0.9394683837890624,0.0058823903091251,0.0217846576124429,0.0199761055409908
1768731604816,0.1370086669921875,-0.2620391845703125,-0.93756103515625,-0.0124782407656311,0.0232834853231906,0.0142870601266622
1768731604826,0.1339111328125,-0.2606048583984375,-0.9336395263671876,-0.0290068835020065,0.0182740781456232,0.0146633647382259
1768731604836,0.1365203857421875,-0.256103515625,-0.943878173828125,-0.0277783684432506,0.0222698859870433,0.0146883986890316
1768731604846,0.134429931640625,-0.260986328125,-0.9601287841796876,-0.0214608162641525,0.0339995138347148,0.0049268477596342
1768731604856,0.13323974609375,-0.256927490234375,-0.9630279541015624,-0.0028413266409188,0.0517896935343742,0.0064459149725735
1768731604866,0.1397857666015625,-0.244781494140625,-0.967926025390625,0.016063654795289,0.0533345937728881,0.0110127041116356
1768731604876,0.144989013671875,-0.243072509765625,-0.9697418212890624,0.0294513665139675,0.0410819239914417,0.0080225067213177
1768731604886,0.1393585205078125,-0.25213623046875,-0.96026611328125,0.0258920509368181,0.0257264021784067,0.005877329967916
1768731604896,0.143157958984375,-0.249298095703125,-0.948486328125,0.0195353515446186,0.0093000251799821,0.0127546768635511
1768731604906,0.1449432373046875,-0.2475128173828125,-0.9483795166015624,0.0142276715487241,0.0154061205685138,0.0150801492854952
1768731604916,0.140594482421875,-0.25286865234375,-0.94842529296875,0.012533102184534,0.0386296845972538,0.0093101449310779
1768731604927,0.1383209228515625,-0.254486083984375,-0.9452362060546876,0.000241548710619,0.0341515801846981,0.0112278871238231
1768731604937,0.1387939453125,-0.2511444091796875,-0.9341888427734376,-0.0230099782347679,0.0137232691049575,0.0177491698414087
1768731604947,0.14227294921875,-0.25177001953125,-0.9317474365234376,-0.0402424931526184,0.0105346664786338,0.0188780836760997
1768731604957,0.1365966796875,-0.2547760009765625,-0.94158935546875,-0.0421727523207664,0.0215407125651836,0.0131136709824204
1768731604967,0.1318817138671875,-0.2604827880859375,-0.9527587890625,-0.0328748598694801,0.0355571955442428,0.0041159153915941
1768731604977,0.1369781494140625,-0.254791259765625,-0.9590911865234376,-0.0282793082296848,0.0196144469082355,0.0054437676444649
1768731604987,0.1405487060546875,-0.252685546875,-0.956298828125,-0.0323115997016429,0.0158274322748184,0.0062658851966261
1768731604997,0.1369781494140625,-0.254638671875,-0.95013427734375,-0.0328066833317279,0.0124540068209171,-0.0003779025573749
1768731605007,0.135711669921875,-0.2592926025390625,-0.9583892822265624,-0.0283221844583749,-0.0011049455497413,-0.0029617014806717
1768731605024,0.137725830078125,-0.2571563720703125,-0.964935302734375,-0.0100044310092926,0.0092126727104187,-0.0051782503724098
1768731605027,0.134552001953125,-0.256622314453125,-0.970184326171875,0.0061175473965704,0.0128713240846991,-0.00768375210464
1768731605037,0.1401214599609375,-0.25457763671875,-0.9670257568359376,0.0127639984712004,0.0032575787045061,-0.0003486077766865
1768731605047,0.1412353515625,-0.253387451171875,-0.9567718505859376,0.0161565989255905,-0.0050610713660717,0.002086320426315
1768731605057,0.1390838623046875,-0.256134033203125,-0.9503936767578124,0.0201641246676445,0.0038818235043436,-0.0019630161114037
1768731605067,0.1380767822265625,-0.253814697265625,-0.950592041015625,0.0123964818194508,-0.003336408175528,-0.002740659052506
1768731605077,0.1405792236328125,-0.252227783203125,-0.9485626220703124,0.0058219362981617,-0.002550242934376,-0.001676726154983
1768731605087,0.1403350830078125,-0.255828857421875,-0.9517822265625,0.0039231027476489,0.0283429585397243,-0.0022570290602743
1768731605097,0.1348876953125,-0.2597808837890625,-0.950439453125,0.0019299928098917,0.0356935486197471,-0.0057769292034208
1768731605107,0.1327362060546875,-0.2611083984375,-0.947601318359375,0.0010396981379017,0.0231306198984384,-0.0100840590894222
1768731605118,0.1431884765625,-0.2526702880859375,-0.9530029296875,0.006966296583414,0.0029720878228545,-0.0077372817322611
1768731605127,0.144287109375,-0.2506256103515625,-0.95526123046875,0.0129107385873794,0.0023574302904307,-0.0108784800395369
1768731605138,0.1440277099609375,-0.255126953125,-0.9589385986328124,0.0166226532310247,0.0187262836843729,-0.0124087324365973
1768731605148,0.1460418701171875,-0.2494659423828125,-0.9571380615234376,0.0066192867234349,0.0170391704887151,-0.0093314498662948
1768731605158,0.1509857177734375,-0.248321533203125,-0.948883056640625,-0.0017832526937127,-0.0063503077253699,-0.003190200543031
1768731605168,0.147796630859375,-0.2515716552734375,-0.954803466796875,0.0010578075889497,-0.0007856325246393,-0.0035188347101211
1768731605178,0.142486572265625,-0.257110595703125,-0.96185302734375,0.0122880917042493,0.0133592151105403,-0.0065708174370229
1768731605188,0.1419677734375,-0.25714111328125,-0.96099853515625,0.020561734214425,0.0179225411266088,-0.0066930563189089
1768731605198,0.1431732177734375,-0.25531005859375,-0.9541778564453124,0.0229410026222467,0.0103541035205125,-0.0057646785862743
1768731605208,0.1445159912109375,-0.25579833984375,-0.9472503662109376,0.016013054177165,0.0047609331086277,-0.0037065874785184
1768731605218,0.141448974609375,-0.2597503662109375,-0.946868896484375,0.0106672914698719,0.0224411264061927,-0.006359894759953
1768731605228,0.1404571533203125,-0.2579345703125,-0.94573974609375,-0.0047366982325911,0.032401081174612,-0.001692172489129
1768731605238,0.1432037353515625,-0.252777099609375,-0.9448699951171876,-0.0096430396661162,0.0481667295098304,0.0069772158749401
1768731605248,0.14898681640625,-0.247344970703125,-0.95123291015625,-0.0002253034326713,0.0487707331776618,0.0097365165129303
1768731605258,0.1443634033203125,-0.2513275146484375,-0.9520263671875,0.0020703414920717,0.0468455366790294,0.0134132774546742
1768731605268,0.149383544921875,-0.2483978271484375,-0.943695068359375,-0.0077021280303597,0.0305749531835317,0.0088366344571113
1768731605280,0.1449432373046875,-0.251861572265625,-0.9391632080078124,-0.0095053547993302,0.0125195197761058,0.0098188081756234
1768731605288,0.146881103515625,-0.2561187744140625,-0.9456634521484376,-0.0070520504377782,-9.747169679030776e-05,0.0071447286754846
1768731605298,0.1459808349609375,-0.255645751953125,-0.9522705078125,-0.0007811051327735,-0.0098963063210248,0.0061348578892648
1768731605308,0.1426544189453125,-0.254302978515625,-0.954498291015625,0.0090140011161565,0.0036706349346786,0.0053103431127965
1768731605318,0.1494903564453125,-0.2448883056640625,-0.951904296875,0.021412881091237,0.0202735792845487,0.0134867802262306
1768731605329,0.1544952392578125,-0.2432861328125,-0.952850341796875,0.0216552279889583,0.0188037808984518,0.0183478482067585
1768731605338,0.15423583984375,-0.2488555908203125,-0.9469146728515624,0.0082667181268334,0.0165313053876161,0.0236707087606191
1768731605349,0.15179443359375,-0.2546844482421875,-0.938262939453125,-0.0161371584981679,0.0182546377182006,0.0286742560565471
1768731605359,0.149932861328125,-0.259185791015625,-0.9334869384765624,-0.0390312895178794,0.0081008030101656,0.0330200009047985
1768731605369,0.1517486572265625,-0.25726318359375,-0.9353179931640624,-0.05353220179677,0.0102920522913336,0.035501267760992
1768731605379,0.1483001708984375,-0.2560882568359375,-0.94598388671875,-0.065064750611782,-0.0027766118291765,0.0364741198718547
1768731605389,0.1464691162109375,-0.2594146728515625,-0.955322265625,-0.0562896393239498,-0.0007006776868365,0.031586155295372
1768731605399,0.1432952880859375,-0.2593231201171875,-0.973876953125,-0.0320514105260372,0.0151224937289953,0.0303027778863906
1768731605409,0.1424102783203125,-0.2563629150390625,-0.98382568359375,-0.0056277918629348,0.0248885713517665,0.0248443633317947
1768731605419,0.1407318115234375,-0.25433349609375,-0.980865478515625,0.0210938341915607,0.0229428671300411,0.0215036943554878
1768731605429,0.14208984375,-0.253173828125,-0.9759674072265624,0.0414497070014476,0.0242845676839351,0.0194477345794439
1768731605439,0.14080810546875,-0.25347900390625,-0.969482421875,0.0545521900057792,0.0141272703185677,0.0184088349342346
1768731605449,0.1423797607421875,-0.2538299560546875,-0.9610443115234376,0.0528887808322906,0.0019124159589409,0.021311679854989
1768731605459,0.143157958984375,-0.2503662109375,-0.9533843994140624,0.0476876273751258,-0.005608350969851,0.0260478463023901
1768731605469,0.139923095703125,-0.25604248046875,-0.9422760009765624,0.0296537652611732,-0.0103647569194436,0.0240528713911771
1768731605479,0.133026123046875,-0.266143798828125,-0.9320068359375,0.0115983327850699,-0.0011805793037638,0.0177587568759918
1768731605489,0.1328887939453125,-0.2644805908203125,-0.9268798828125,-0.0053436327725648,0.0085127940401434,0.0122950160875916
1768731605500,0.1336212158203125,-0.2670440673828125,-0.9280853271484376,-0.0207265838980674,0.0241838991641998,0.002821619156748
1768731605509,0.1336212158203125,-0.2644805908203125,-0.9294281005859376,-0.0309866778552532,0.0181915201246738,-0.0002599245344754
1768731605519,0.141387939453125,-0.2556915283203125,-0.9337005615234376,-0.0330423712730407,-0.0199279021471738,0.0032594427466392
1768731605529,0.1466827392578125,-0.2518768310546875,-0.9467926025390624,-0.0274912789463996,-0.031361386179924,0.0066640279255807
1768731605540,0.14312744140625,-0.250396728515625,-0.9601287841796876,-0.017798438668251,-0.0017512947088107,0.0042043323628604
1768731605550,0.144439697265625,-0.2456207275390625,-0.9672393798828124,-0.0113075152039527,0.0111743574962019,0.0089737875387072
1768731605560,0.1495819091796875,-0.244903564453125,-0.9579315185546876,-0.0140766706317663,-0.01482954621315,0.014575214125216
1768731605570,0.1478118896484375,-0.25146484375,-0.9488983154296876,-0.0202101971954107,-0.0229165013879537,0.0150726931169629
1768731605580,0.142669677734375,-0.2575531005859375,-0.948577880859375,-0.0169523525983095,-0.01940911822021,0.0139339249581098
1768731605590,0.1421356201171875,-0.2589111328125,-0.9541778564453124,-0.012606605887413,-0.0069287461228668,0.0065447185188531
1768731605600,0.142486572265625,-0.257415771484375,-0.953094482421875,-0.0142614934593439,-0.0074832164682447,0.0077173081226646
1768731605610,0.1472015380859375,-0.252227783203125,-0.947113037109375,-0.0186953898519277,0.0016812535468488,0.0076643112115561
1768731605620,0.145843505859375,-0.25244140625,-0.9471282958984376,-0.0221167542040348,0.0189590435475111,0.005675462540239
1768731605630,0.1397705078125,-0.2561187744140625,-0.95147705078125,-0.0261389259248971,0.0304897315800189,0.002829608740285
1768731605640,0.141326904296875,-0.2528228759765625,-0.9573974609375,-0.0211364440619945,0.0296263359487056,0.0131115410476922
1768731605650,0.142913818359375,-0.2533111572265625,-0.9649200439453124,-0.0132329808548092,0.0348072499036788,0.008381500840187
1768731605660,0.1367340087890625,-0.261138916015625,-0.9613800048828124,-0.009115201421082,0.0393138490617275,-0.0046434877440333
1768731605670,0.1389617919921875,-0.259521484375,-0.960205078125,-0.0029840720817446,0.0254827234894037,-0.00497158896178
1768731605680,0.144378662109375,-0.25457763671875,-0.957122802734375,-0.0001347559446003,0.0283232498914003,-0.0087921600788831
1768731605690,0.14093017578125,-0.2581634521484375,-0.949249267578125,-0.0119187114760279,0.0299728121608495,-0.0078145135194063
1768731605700,0.14404296875,-0.2557830810546875,-0.944183349609375,-0.0169584769755601,0.0098214717581868,-0.0063138222321867
1768731605710,0.14495849609375,-0.2568359375,-0.9480438232421876,-0.0107730189338326,0.0124880950897932,-0.0086238477379083
1768731605720,0.1448822021484375,-0.2572021484375,-0.9610443115234376,0.0062214103527367,0.0206626672297716,-0.0077564567327499
1768731605730,0.143768310546875,-0.257476806640625,-0.9639434814453124,0.0197598561644554,0.0174604821950197,-0.0126106003299355
1768731605741,0.1413726806640625,-0.256988525390625,-0.96063232421875,0.0232081171125173,0.0020929782185703,-0.01018872205168
1768731605751,0.1485595703125,-0.2485809326171875,-0.9605712890625,0.030409837141633,0.0064648236148059,-0.005241101142019
1768731605761,0.1453857421875,-0.2531890869140625,-0.9599456787109376,0.0324506163597106,0.0206131339073181,-0.006436061579734
1768731605770,0.1436614990234375,-0.2586822509765625,-0.951446533203125,0.0285078082233667,0.0366126075387001,-0.0084755104035139
1768731605781,0.143707275390625,-0.2576751708984375,-0.94183349609375,0.0203572027385234,0.0319488793611526,-0.0083767063915729
1768731605791,0.1485748291015625,-0.255401611328125,-0.94244384765625,0.011153052560985,0.0152822835370898,-0.0052227252162992
1768731605801,0.148834228515625,-0.2571258544921875,-0.944183349609375,0.0056717339903116,0.0119488043710589,-0.0038871499709784
1768731605811,0.1463775634765625,-0.2598876953125,-0.9451904296875,0.0009653958841226,0.0184852667152881,-0.0060467072762548
1768731605821,0.145843505859375,-0.2563018798828125,-0.942840576171875,-0.0087468866258859,0.0133104790002107,-0.009025452658534
1768731605831,0.15142822265625,-0.2476654052734375,-0.9409942626953124,-0.0235455390065908,-0.0068326061591506,-0.0001113201360567
1768731605841,0.1555023193359375,-0.24615478515625,-0.9417724609375,-0.03329324349761,-0.0074645741842687,0.0050219227559864
1768731605851,0.1456451416015625,-0.2554168701171875,-0.9437103271484376,-0.0358975455164909,0.0026338663883507,-0.0017888452857732
1768731605861,0.1383514404296875,-0.260498046875,-0.9461517333984376,-0.0298106260597705,0.0043284357525408,-0.0070935958065092
1768731605871,0.1435394287109375,-0.2551727294921875,-0.9591064453125,-0.0103903226554393,-0.0108353374525904,-0.001857554889284
1768731605881,0.1499786376953125,-0.2528839111328125,-0.966033935546875,0.0021955100819468,-0.0122289694845676,0.0010516822803765
1768731605891,0.14544677734375,-0.2581787109375,-0.9600982666015624,0.0079175774008035,-0.0198272336274385,-0.001937449676916
1768731605901,0.140625,-0.2657318115234375,-0.9538116455078124,0.0133158052340149,-0.0294873174279928,-0.0132255237549543
1768731605911,0.143310546875,-0.262054443359375,-0.9554443359375,0.0163171887397766,0.005772934295237,-0.015442606061697
1768731605921,0.149627685546875,-0.251251220703125,-0.957489013671875,0.0037049897946417,0.0469746999442577,-0.0080800307914614
1768731605931,0.153778076171875,-0.247802734375,-0.94732666015625,-0.0052962284535169,0.029452696442604,-0.0049750511534512
1768731605941,0.15155029296875,-0.2559814453125,-0.9424591064453124,-0.012981578707695,0.013914749957621,-0.0068427259102463
1768731605952,0.1515655517578125,-0.2494964599609375,-0.945648193359375,-0.0102664856240153,0.0028011128306388,-0.0032245554029941
1768731605961,0.1517333984375,-0.2548065185546875,-0.952545166015625,-0.0034820830915123,0.0299381911754608,-0.0021449099294841
1768731605972,0.148681640625,-0.2546234130859375,-0.956085205078125,0.0042024683207273,0.0490330569446086,-0.0026453179307281
1768731605982,0.1431884765625,-0.2599029541015625,-0.9496917724609376,-0.0015683355741202,0.0330048203468322,-0.0038469361606985
1768731605992,0.1474761962890625,-0.250640869140625,-0.9477691650390624,-0.0020932445768266,0.0236810948699712,0.0094523578882217
1768731606002,0.15478515625,-0.2413787841796875,-0.9506378173828124,-0.0004889564006589,0.0376014374196529,0.0180711466819047
1768731606012,0.1556243896484375,-0.247314453125,-0.9505615234375,-0.0011731224367395,0.0249522216618061,0.0191185679286718
1768731606022,0.1530914306640625,-0.2572021484375,-0.9451904296875,-0.0020788635592907,-0.0085612637922167,0.0158319603651762
1768731606032,0.1547698974609375,-0.259124755859375,-0.9537506103515624,0.0005004079430364,-0.0138601558282971,0.0169350411742925
1768731606042,0.1567535400390625,-0.2570343017578125,-0.9584197998046876,0.0010002832859754,0.0190469287335872,0.0210783872753381
1768731606052,0.1490631103515625,-0.2647857666015625,-0.9586334228515624,-0.0034280209802091,0.0446609444916248,0.015066834166646
1768731606062,0.14599609375,-0.2671966552734375,-0.9537353515625,-0.00197100546211,0.0441243164241313,0.0123690515756607
1768731606072,0.15118408203125,-0.2611541748046875,-0.9538116455078124,0.0031137678306549,0.0287352409213781,0.0115740979090332
1768731606082,0.1517791748046875,-0.2579498291015625,-0.9541168212890624,0.0076659093610942,0.0080339582636952,0.0085737807676196
1768731606092,0.146942138671875,-0.2591705322265625,-0.9564971923828124,0.0106249470263719,6.684534309897572e-05,0.0032194955274462
1768731606102,0.1453857421875,-0.258544921875,-0.957794189453125,0.0137693416327238,-0.0076496638357639,0.007831291295588
1768731606112,0.1457061767578125,-0.25543212890625,-0.9571075439453124,0.0180461127310991,-0.0024186829105019,0.0079759014770388
1768731606122,0.1438140869140625,-0.255096435546875,-0.9593353271484376,0.0276380199939012,0.0076198363676667,0.0070656328462064
1768731606132,0.1448974609375,-0.2539520263671875,-0.958984375,0.0317249074578285,0.014339524321258,0.006924751214683
1768731606143,0.1457977294921875,-0.2548828125,-0.94915771484375,0.0291653424501419,0.0272460021078586,0.0015861787833273
1768731606153,0.1440277099609375,-0.2584381103515625,-0.9403839111328124,0.0226539131253957,0.033484723418951,0.0015592807903885
1768731606162,0.142333984375,-0.26007080078125,-0.9310150146484376,0.0040772994980216,0.0212735962122678,-0.0021744710393249
1768731606173,0.1458740234375,-0.261688232421875,-0.9286651611328124,-0.0034900726750493,-0.0017518273089081,-0.00351537251845
1768731606183,0.1468048095703125,-0.2641143798828125,-0.938629150390625,-0.0077934744767844,-0.0064895907416939,-0.0071865399368107
1768731606193,0.1464996337890625,-0.2612762451171875,-0.9390716552734376,-0.0250188000500202,-0.0005339637864381,-0.007407050114125
1768731606203,0.1505584716796875,-0.2555084228515625,-0.9374237060546876,-0.032253012061119,-0.0101663507521152,-0.0057793259620666
1768731606213,0.1548919677734375,-0.2540130615234375,-0.9474945068359376,-0.0296396519988775,-0.0220919866114854,-0.0072882729582488
1768731606223,0.1522216796875,-0.2544403076171875,-0.960174560546875,-0.0132356444373726,-0.0199864916503429,-0.0066770776174962
1768731606233,0.1509857177734375,-0.2522125244140625,-0.9629364013671876,0.0017339842161163,-0.0252928398549556,-0.00586294895038
1768731606243,0.1552276611328125,-0.2496490478515625,-0.9618377685546876,0.0131821148097515,-0.0375620238482952,0.0002993392990902
1768731606253,0.1520843505859375,-0.25341796875,-0.963470458984375,0.0265671629458665,-0.0247945617884397,0.0003869573120027
1768731606263,0.1466827392578125,-0.258544921875,-0.962188720703125,0.0350125767290592,-0.0033838124945759,-0.0022799321450293
1768731606273,0.144683837890625,-0.258514404296875,-0.952972412109375,0.0358165875077247,0.0212557539343833,-0.0038410772103816
1768731606283,0.1473236083984375,-0.259490966796875,-0.947174072265625,0.0333528965711593,0.0339710153639316,-0.0052355085499584
1768731606293,0.1473236083984375,-0.262664794921875,-0.9403533935546876,0.022963372990489,0.0245010815560817,-0.0062600262463092
1768731606303,0.1522979736328125,-0.259765625,-0.932281494140625,0.006574279628694,-0.0014849785948172,-0.0025489113759249
1768731606313,0.15167236328125,-0.2568206787109375,-0.934722900390625,-0.0073636402375996,-0.0117884827777743,-0.002454369328916
1768731606323,0.1526641845703125,-0.26043701171875,-0.9432220458984376,-0.0183534417301416,0.0034234935883432,-0.0006559365428984
1768731606333,0.1498565673828125,-0.2598419189453125,-0.943145751953125,-0.0294598881155252,0.0241452828049659,-0.0029387981630861
1768731606343,0.1529693603515625,-0.258087158203125,-0.94140625,-0.040920004248619,0.0043089943937957,0.0004990763845853
1768731606354,0.157989501953125,-0.2551422119140625,-0.9434814453125,-0.0441586710512638,-0.0230153035372495,0.0074065173976123
1768731606363,0.155364990234375,-0.2552947998046875,-0.9566497802734376,-0.0240294355899095,-0.0128721231594681,0.0079482039436697
1768731606374,0.152130126953125,-0.25921630859375,-0.977294921875,0.0014748586108908,0.0152529887855052,0.0088669946417212
1768731606384,0.1510162353515625,-0.2603302001953125,-0.9805145263671876,0.0182719472795724,0.0194394774734973,0.0117109846323728
1768731606394,0.1519317626953125,-0.25872802734375,-0.970672607421875,0.0258379895240068,0.0238810982555151,0.0095929726958274
1768731606404,0.14935302734375,-0.2642974853515625,-0.96368408203125,0.0340024419128894,0.0150702958926558,0.0094624776393175
1768731606414,0.1498870849609375,-0.26483154296875,-0.9631500244140624,0.0420113652944564,0.0094760600477457,0.009318932890892
1768731606424,0.15191650390625,-0.262481689453125,-0.9593963623046876,0.0510195083916187,0.0154849495738744,0.0112667689099907
1768731606434,0.14849853515625,-0.26556396484375,-0.9576873779296876,0.0509521290659904,0.0292497649788856,0.0087711205706
1768731606444,0.1450653076171875,-0.2668304443359375,-0.9463348388671876,0.0477198511362075,0.0194794256240129,0.0084006749093532
1768731606454,0.147430419921875,-0.2651824951171875,-0.9383697509765624,0.0347997918725013,0.0042205778881907,0.0087317060679197
1768731606464,0.149658203125,-0.259857177734375,-0.934783935546875,0.020428841933608,-0.0118966065347194,0.0116089852526783
1768731606474,0.147857666015625,-0.2607421875,-0.9350128173828124,0.0084374267607927,-0.0168050788342952,0.0110172312706708
1768731606484,0.1436614990234375,-0.2650604248046875,-0.9341888427734376,-0.0012410330818966,-0.0042554652318358,0.0035396073944866
1768731606494,0.1396636962890625,-0.263946533203125,-0.9367523193359376,-0.0052421661093831,0.0058293933980166,0.0003406183095648
1768731606504,0.1412200927734375,-0.2617950439453125,-0.94415283203125,-0.0016684704460203,-0.0010010822443291,-0.001823200029321
1768731606514,0.1439361572265625,-0.25958251953125,-0.9546356201171876,0.0055385762825608,0.0037579864729195,-0.0016575515037402
1768731606525,0.1416778564453125,-0.2599029541015625,-0.957061767578125,0.0122798355296254,0.0268161669373512,-0.0069870692677795
1768731606534,0.14178466796875,-0.26019287109375,-0.95758056640625,0.0161049347370862,0.0403767190873622,-0.0084677869454026
1768731606544,0.1461334228515625,-0.2604217529296875,-0.95013427734375,0.0034234935883432,0.0298532359302043,-0.0101509047672152
1768731606554,0.147552490234375,-0.260833740234375,-0.936187744140625,-0.015132613480091,0.0070906663313508,-0.0130236567929387
1768731606564,0.147064208984375,-0.2646942138671875,-0.93182373046875,-0.0230001248419284,-0.0107067069038748,-0.0168647337704896
1768731606574,0.145751953125,-0.266510009765625,-0.9420318603515624,-0.0179355908185243,-0.0200669188052415,-0.0177712738513946
1768731606585,0.14398193359375,-0.2662506103515625,-0.9483184814453124,-0.008822520263493,-0.013833257369697,-0.0217255353927612
1768731606595,0.1451873779296875,-0.2666473388671875,-0.94677734375,-0.0054703992791473,-0.0081047983840107,-0.0219676159322261
1768731606605,0.146026611328125,-0.2628021240234375,-0.9472503662109376,-0.0150945307686924,-0.010228669270873,-0.0151232928037643
1768731606615,0.154266357421875,-0.25421142578125,-0.944854736328125,-0.0105421226471662,-0.0097373155876994,-0.0118611864745616
1768731606625,0.155548095703125,-0.261810302734375,-0.951751708984375,-0.0105202849954366,-0.0073620425537228,-0.0158772338181734
1768731606635,0.1556396484375,-0.2568817138671875,-0.9510650634765624,-0.008423046208918,0.0035033884923905,-0.007219829596579
1768731606645,0.159332275390625,-0.2562255859375,-0.95074462890625,-0.0115866148844361,0.00819081813097,-0.0095711341127753
1768731606655,0.159088134765625,-0.2572784423828125,-0.950897216796875,-0.012827381491661,0.0078097200021147,-0.0059257997199893
1768731606665,0.1567840576171875,-0.2596282958984375,-0.950286865234375,-0.0171725954860448,0.0103682186454534,-0.0055582835339009
1768731606675,0.1492462158203125,-0.2608184814453125,-0.9568328857421876,-0.0150878727436065,0.0355220399796962,-0.0008884305134415
1768731606685,0.153106689453125,-0.256439208984375,-0.9585723876953124,-0.0018740664236247,0.0487108156085014,0.003613643348217
1768731606695,0.1565399169921875,-0.2525177001953125,-0.956817626953125,0.0066112973727285,0.0384081080555915,0.01190219912678
1768731606705,0.1590423583984375,-0.256195068359375,-0.9441070556640624,0.0012817793758586,0.001963814953342,0.0174479652196168
1768731606715,0.1598968505859375,-0.26153564453125,-0.938232421875,-0.0002282329078298,-0.0277876891195774,0.0167488865554332
1768731606725,0.1540374755859375,-0.2680511474609375,-0.9441680908203124,-0.0016713999211788,-0.0262534413486719,0.0132407043129205
1768731606735,0.1495208740234375,-0.2693328857421875,-0.952301025390625,-0.0032751555554568,-0.0278087276965379,0.0139341913163661
1768731606745,0.15118408203125,-0.2653045654296875,-0.96044921875,0.0004530037112999,-0.0260292030870914,0.0169187951833009
1768731606755,0.1490631103515625,-0.2641448974609375,-0.9695892333984376,0.0079631181433796,0.0003158508916385,0.0169547479599714
1768731606765,0.14544677734375,-0.2649688720703125,-0.9676666259765624,0.0082328962162137,0.0086360983550548,0.0173393096774816
1768731606775,0.1446685791015625,-0.2640533447265625,-0.952789306640625,0.0004572647449094,0.0055801211856305,0.0127991521731019
1768731606786,0.143280029296875,-0.265289306640625,-0.9429168701171876,-0.0027518442366272,0.0033073797821998,0.010079531930387
1768731606795,0.14483642578125,-0.264404296875,-0.9465484619140624,0.0018053569365292,0.0020876519847661,0.0099290637299418
1768731606806,0.14556884765625,-0.26165771484375,-0.95037841796875,0.0097724692896008,-0.004121774341911,0.0102616921067237
1768731606816,0.1471099853515625,-0.259613037109375,-0.949249267578125,0.0137514984235167,0.0023249397054314,0.0119354892522096
1768731606826,0.144134521484375,-0.2608489990234375,-0.947021484375,0.010416954755783,-0.001700428314507,0.0099578257650136
1768731606836,0.1435546875,-0.260894775390625,-0.9380035400390624,0.0023073628544807,-0.0128446919843554,0.0038575888611376
1768731606846,0.146392822265625,-0.256683349609375,-0.9408111572265624,0.0054197991266846,-0.0220200810581445,0.008528240956366
1768731606856,0.1480712890625,-0.258087158203125,-0.9522552490234376,0.00600116699934,-0.0172205325216054,0.0077788271009922
1768731606866,0.14105224609375,-0.2665252685546875,-0.9440460205078124,-0.00276436121203,-0.0142023712396621,0.0036171053070575
1768731606876,0.138641357421875,-0.26739501953125,-0.935394287109375,-0.0159552637487649,-0.035075694322586,0.0063822655938565
1768731606886,0.1429595947265625,-0.266510009765625,-0.9342803955078124,-0.0216946434229612,-0.0448726676404476,0.0028921929188072
1768731606896,0.1445159912109375,-0.269073486328125,-0.945343017578125,-0.015344601124525,-0.0339912548661232,-0.0025542378425598
1768731606906,0.1439208984375,-0.26202392578125,-0.9557647705078124,-0.0026775421574711,-0.0116611830890178,0.0014269216917455
1768731606916,0.1509246826171875,-0.2534637451171875,-0.958526611328125,0.0055002267472445,-0.0050267167389392,0.0014223942998796
1768731606926,0.1558685302734375,-0.2560882568359375,-0.9582061767578124,0.0036389431916177,-0.0065614962950348,0.0042509376071393
1768731606936,0.1572113037109375,-0.2554931640625,-0.9552764892578124,0.0034866104833781,0.0039795613847672,0.0102257393300533
1768731606946,0.1556243896484375,-0.254638671875,-0.9557952880859376,0.0096917757764458,0.0082217110320925,0.0180426500737667
1768731606956,0.15716552734375,-0.2560272216796875,-0.96002197265625,0.0201247092336416,0.0145879974588751,0.0227423310279846
1768731606966,0.1544342041015625,-0.2600555419921875,-0.961761474609375,0.0335174798965454,0.0329456999897956,0.0206592064350843
1768731606976,0.1504974365234375,-0.2656097412109375,-0.959869384765625,0.0366805158555507,0.035834964364767,0.0187542457133531
1768731606987,0.15032958984375,-0.2687530517578125,-0.9488067626953124,0.026557307690382,0.0227005183696746,0.0182799380272626
1768731606997,0.150665283203125,-0.2674560546875,-0.9415130615234376,0.0173305198550224,0.005044559482485,0.0181116256862878
1768731607007,0.1496124267578125,-0.267791748046875,-0.94256591796875,0.0137309925630688,0.0087884319946169,0.015473498031497
1768731607017,0.146697998046875,-0.269195556640625,-0.9455413818359376,0.0114995297044515,0.0169440954923629,0.0172868445515632
1768731607027,0.14984130859375,-0.26568603515625,-0.947662353515625,0.0099895168095827,0.0263820718973875,0.0148218227550387
1768731607037,0.1504058837890625,-0.263519287109375,-0.9486846923828124,0.0088214548304677,0.0471065267920494,0.0152404718101024
1768731607047,0.1500091552734375,-0.2644500732421875,-0.94854736328125,0.0090129356831312,0.0469978675246238,0.016734505072236
1768731607057,0.153717041015625,-0.2646484375,-0.950042724609375,0.0068219532258808,0.0179933812469244,0.0241029392927885
1768731607067,0.1541900634765625,-0.2657012939453125,-0.948455810546875,0.00721903052181,-0.000753674597945,0.0290180686861276
1768731607077,0.15130615234375,-0.2693023681640625,-0.950469970703125,0.0149493888020515,0.0091221258044242,0.0294931773096323
1768731607087,0.1481170654296875,-0.2709197998046875,-0.9562835693359376,0.0201737117022275,0.0265543796122074,0.0256350561976432
1768731607097,0.147552490234375,-0.2740631103515625,-0.955047607421875,0.0202043373137712,0.0486753955483436,0.0277775693684816
1768731607107,0.1487274169921875,-0.2654266357421875,-0.9523468017578124,0.0220965128391981,0.0428478643298149,0.0381479188799858
1768731607117,0.1540985107421875,-0.26165771484375,-0.9512176513671876,0.0223116967827081,0.0243362318724393,0.0429549254477024
1768731607127,0.1519012451171875,-0.262451171875,-0.9525299072265624,0.0311738979071378,0.0239729769527912,0.0393356867134571
1768731607137,0.146270751953125,-0.2670135498046875,-0.9535980224609376,0.0397748425602912,0.0195265635848045,0.0333057604730129
1768731607147,0.142181396484375,-0.2715911865234375,-0.9593505859375,0.0543449968099594,0.0136668095365166,0.0305065102875232
1768731607157,0.1412353515625,-0.2724609375,-0.9574127197265624,0.0610079616308212,0.0075860144570469,0.0295107532292604
1768731607167,0.1435546875,-0.2683563232421875,-0.9494781494140624,0.055746354162693,-0.014077203348279,0.032313197851181
1768731607177,0.1435699462890625,-0.270416259765625,-0.935150146484375,0.0432707741856575,-0.0375132858753204,0.0307933334261178
1768731607187,0.141082763671875,-0.2765960693359375,-0.9307098388671876,0.0332184061408042,-0.0356149859726429,0.0278231091797351
1768731607197,0.144134521484375,-0.2735595703125,-0.9327239990234376,0.0243897624313831,-0.0231266245245933,0.0266558453440666
1768731607208,0.14605712890625,-0.2714996337890625,-0.9268341064453124,0.0102600939571857,-0.0237748380750417,0.0288028866052627
1768731607218,0.1496734619140625,-0.27117919921875,-0.926605224609375,-0.0026439863722771,-0.0249413028359413,0.0303264800459146
1768731607228,0.15155029296875,-0.2710418701171875,-0.9273223876953124,-0.0145504465326666,-0.0110396016389131,0.0286513529717922
1768731607238,0.148895263671875,-0.27508544921875,-0.9329376220703124,-0.0215210039168596,-0.0070227556861937,0.0273978020995855
1768731607248,0.150177001953125,-0.27783203125,-0.9402923583984376,-0.0217905156314373,-0.0222235471010208,0.0232408735901117
1768731607258,0.1523284912109375,-0.2750701904296875,-0.953582763671875,-0.0165185220539569,-0.015623434446752,0.0190778207033872
1768731607268,0.1508331298828125,-0.2793731689453125,-0.96136474609375,-0.0104776741936802,-0.0076488647609949,0.0172857791185379
1768731607278,0.1499786376953125,-0.281707763671875,-0.9613189697265624,-0.0078371502459049,0.0121160512790083,0.0141174169257283
1768731607288,0.1500701904296875,-0.2812957763671875,-0.9521331787109376,-0.0079500684514641,0.0293293930590152,0.0118249673396348
1768731607298,0.1510467529296875,-0.275787353515625,-0.9508209228515624,0.0003560646437108,0.0165129303932189,0.0139549644663929
1768731607308,0.1567230224609375,-0.2735595703125,-0.960174560546875,0.0164109319448471,-0.0020482372492551,0.0084930872544646
1768731607318,0.1571502685546875,-0.2646636962890625,-0.9628143310546876,0.0270060505717992,0.0059369849041104,0.0185060407966375
1768731607328,0.1555633544921875,-0.26910400390625,-0.9532928466796876,0.0174061544239521,0.0190450642257928,0.0101988418027758
1768731607338,0.14215087890625,-0.2769317626953125,-0.9425201416015624,0.01640853472054,0.0320977494120597,0.0132449651136994
1768731607348,0.1460113525390625,-0.271514892578125,-0.94769287109375,0.0234118495136499,0.0456351302564144,0.0107439905405044
1768731607358,0.1421356201171875,-0.276123046875,-0.9475860595703124,0.0274707730859518,0.0564779229462146,-0.0023315974976867
1768731607368,0.1398773193359375,-0.2721099853515625,-0.945709228515625,0.0310322176665067,0.0606697387993335,0.0027678234037011
1768731607378,0.149810791015625,-0.2623138427734375,-0.9433746337890624,0.0329235941171646,0.0519822426140308,0.0116526614874601
1768731607388,0.147674560546875,-0.2688140869140625,-0.9358062744140624,0.0255248006433248,0.0435746423900127,0.006116481963545
1768731607398,0.14227294921875,-0.27862548828125,-0.92742919921875,0.0044954158365726,0.0295235365629196,0.0079418122768402
1768731607408,0.14556884765625,-0.2797393798828125,-0.91943359375,-0.0222967825829982,0.013202354311943,0.0113424025475978
1768731607419,0.142333984375,-0.2803497314453125,-0.9185943603515624,-0.0420238822698593,-0.0122603941708803,0.0097341202199459
1768731607429,0.1386260986328125,-0.28253173828125,-0.9340057373046876,-0.0338226780295372,-0.0189260207116603,0.0029337382875382
1768731607439,0.140716552734375,-0.27825927734375,-0.9590606689453124,-0.0189505219459533,-0.0016136092599481,-0.0037297571543604
1768731607449,0.1414947509765625,-0.274688720703125,-0.9709320068359376,-0.0014522217679768,0.0214336533099412,-0.0067844027653336
1768731607459,0.1433258056640625,-0.2729339599609375,-0.97283935546875,0.0085791070014238,0.0492101572453975,-0.0065939868800342
1768731607469,0.14715576171875,-0.2673797607421875,-0.965728759765625,0.0145288752391934,0.0387186333537101,-0.0003318298549856
1768731607479,0.1529541015625,-0.2648773193359375,-0.960723876953125,0.0223532430827617,0.0233018603175878,0.0025811356026679
1768731607489,0.1537628173828125,-0.26666259765625,-0.9611663818359376,0.0360096655786037,0.0341774113476276,0.0037928740493953
1768731607499,0.15325927734375,-0.267852783203125,-0.9587249755859376,0.0456827990710735,0.0612519048154354,0.0043279030360281
1768731607509,0.15460205078125,-0.2672882080078125,-0.951080322265625,0.0444529503583908,0.0728742033243179,0.0037744981236755
1768731607519,0.1575164794921875,-0.26849365234375,-0.93695068359375,0.0374901182949543,0.0644229352474212,0.0069931945763528
1768731607529,0.15545654296875,-0.275604248046875,-0.9329681396484376,0.0325728580355644,0.0651158839464187,0.0033790187444537
1768731607539,0.1514434814453125,-0.279571533203125,-0.9318084716796876,0.0280113946646451,0.0423477217555046,0.0058573563583195
1768731607549,0.1537628173828125,-0.2812042236328125,-0.93341064453125,0.0252118799835443,0.0137624172493815,0.0074616447091102
1768731607559,0.15191650390625,-0.279388427734375,-0.9373321533203124,0.025402296334505,0.0075495289638638,0.0038075214251875
1768731607569,0.1470184326171875,-0.2842864990234375,-0.9376678466796876,0.0247402340173721,-0.0017145430902019,0.0003568635729607
1768731607579,0.14019775390625,-0.2887115478515625,-0.938934326171875,0.0250973626971244,0.0241743121296167,-0.0072571136988699
1768731607589,0.1375885009765625,-0.284027099609375,-0.9451141357421876,0.0415114909410476,0.0471363514661788,-0.0081822965294122
1768731607599,0.1433258056640625,-0.278350830078125,-0.9525604248046876,0.0483038835227489,0.0431155115365982,-0.0080805635079741
1768731607609,0.1424560546875,-0.277740478515625,-0.9462127685546876,0.0514472126960754,0.0344317443668842,-0.0143768088892102
1768731607620,0.1445770263671875,-0.278564453125,-0.9400634765625,0.0439355000853538,0.0302761457860469,-0.0229119732975959
1768731607629,0.1417388916015625,-0.2811126708984375,-0.9324798583984376,0.0303112994879484,0.027437750250101,-0.0277203116565942
1768731607640,0.1469268798828125,-0.2793121337890625,-0.9277801513671876,0.0139504363760352,-0.0032178976107388,-0.031185083091259
1768731607649,0.1508026123046875,-0.2828369140625,-0.929168701171875,-0.0044552022591233,0.0055002267472445,-0.0345180295407772
1768731607660,0.1484832763671875,-0.2810516357421875,-0.9278564453125,-0.0201601292937994,0.0195846203714609,-0.037643514573574
1768731607670,0.1485748291015625,-0.28277587890625,-0.9326019287109376,-0.0259700808674097,-0.0077713704667985,-0.042284607887268
1768731607680,0.1531982421875,-0.2830047607421875,-0.9476165771484376,-0.0183965843170881,-0.0310942698270082,-0.0451967716217041
1768731607690,0.1555633544921875,-0.2793426513671875,-0.956298828125,-0.0076264943927526,-0.0362594723701477,-0.04790760576725
1768731607700,0.1525421142578125,-0.277374267578125,-0.9544525146484376,-0.0098057594150304,-0.0185217522084712,-0.053592387586832
1768731607710,0.1503753662109375,-0.2822723388671875,-0.947967529296875,-0.0193364135921001,-0.0168098732829093,-0.0584436021745204
1768731607720,0.155670166015625,-0.2825927734375,-0.9424591064453124,-0.0321542061865329,-0.0344708934426307,-0.05947957187891
1768731607730,0.162200927734375,-0.2789764404296875,-0.9405059814453124,-0.0353358872234821,-0.0273405443876981,-0.0612990446388721
1768731607741,0.164093017578125,-0.2797698974609375,-0.9508819580078124,-0.0252925734966993,-0.0013938985066488,-0.062992013990879
1768731607750,0.1669921875,-0.2812042236328125,-0.958740234375,-0.0180828645825386,0.0049332394264638,-0.0611099600791931
1768731607760,0.1725311279296875,-0.2789306640625,-0.9518585205078124,-0.0219487082213163,0.0093996273353695,-0.0560147985816001
1768731607770,0.17999267578125,-0.2718048095703125,-0.9464111328125,-0.0270728971809148,-0.0027145601343363,-0.0454122237861156
1768731607780,0.1827392578125,-0.2709197998046875,-0.9451751708984376,-0.0328255891799926,-0.0028482507914304,-0.0367209948599338
1768731607790,0.180389404296875,-0.270843505859375,-0.950103759765625,-0.0230613760650157,0.0418960526585578,-0.0340578369796276
1768731607800,0.173370361328125,-0.275390625,-0.9621429443359376,-0.0131280524656176,0.072060078382492,-0.0315579250454902
1768731607810,0.1680908203125,-0.2816162109375,-0.958221435546875,-0.0010002832859754,0.0855793505907058,-0.029125927016139
1768731607821,0.1664581298828125,-0.2830352783203125,-0.9523773193359376,0.0111722266301512,0.0699961259961128,-0.0238856244832277
1768731607831,0.160430908203125,-0.2826690673828125,-0.9494171142578124,0.0134316524490714,0.041557028889656,-0.0268182978034019
1768731607841,0.1558990478515625,-0.2830657958984375,-0.94158935546875,0.0147701576352119,0.0144361974671483,-0.0223279427736997
1768731607851,0.1538238525390625,-0.2780303955078125,-0.934814453125,0.0114076500758528,0.0299576334655284,-0.0228416658937931
1768731607861,0.148223876953125,-0.274169921875,-0.928802490234375,0.0015779229579493,0.0391476675868034,-0.0214203372597694
1768731607871,0.147979736328125,-0.272216796875,-0.9284515380859376,-0.0033513219095766,0.0437112599611282,-0.0217460412532091
1768731607881,0.150482177734375,-0.2711334228515625,-0.9261627197265624,-0.0141714792698621,0.040102943778038,-0.0220283363014459
1768731607891,0.1516265869140625,-0.268951416015625,-0.9205169677734376,-0.0294569581747055,0.0253298580646514,-0.0267631709575653
1768731607901,0.1532135009765625,-0.2693939208984375,-0.92242431640625,-0.0357356257736682,0.0041265678592026,-0.0283040758222341
1768731607911,0.1580047607421875,-0.2685699462890625,-0.932373046875,-0.0349121764302253,-0.0066373962908983,-0.0251173377037048
1768731607921,0.1593017578125,-0.2650604248046875,-0.9361419677734376,-0.0371351167559623,-0.0186202898621559,-0.0225055757910013
1768731607931,0.1615142822265625,-0.2656097412109375,-0.9411163330078124,-0.0400550067424774,-0.0409591495990753,-0.0161560662090778
1768731607941,0.164093017578125,-0.2684326171875,-0.9491119384765624,-0.0389204993844032,-0.0485725961625576,-0.012687299400568
1768731607954,0.1632080078125,-0.27203369140625,-0.9580535888671876,-0.0246355719864368,-0.0341137610375881,-0.0068326061591506
1768731607961,0.16265869140625,-0.2686004638671875,-0.9623565673828124,-0.0126739833503961,-0.0268617086112499,-0.0027409254107624
1768731607971,0.163330078125,-0.2597808837890625,-0.9586639404296876,0.0015419702976942,-0.0183017756789922,0.0095367794856429
1768731607981,0.1659393310546875,-0.2563629150390625,-0.9555816650390624,0.0105503788217902,-0.0010495517635717,0.0088262483477592
1768731607991,0.159027099609375,-0.2715911865234375,-0.9466400146484376,0.0088883005082607,-0.0022674154024571,-0.0005123922019265
1768731608001,0.1568450927734375,-0.2778778076171875,-0.94061279296875,0.0046181874349713,-0.0149358063936233,-0.0082416841760277
1768731608011,0.156494140625,-0.272125244140625,-0.9392852783203124,-0.0003888215287588,0.0039923447184264,-0.0109083075076341
1768731608021,0.1584014892578125,-0.2700347900390625,-0.9370574951171876,-0.0150380712002515,-0.0021670141723006,-0.010415356606245
1768731608031,0.15643310546875,-0.2741241455078125,-0.928070068359375,-0.0342431925237178,-0.0127402963116765,-0.0092033520340919
1768731608042,0.163482666015625,-0.2634124755859375,-0.9238433837890624,-0.0437240451574325,-0.0230414029210805,0.0011518171522766
1768731608051,0.1699371337890625,-0.2568359375,-0.9263916015625,-0.0528522953391075,-0.0379782728850841,0.0135176731273531
1768731608062,0.16552734375,-0.2650604248046875,-0.91632080078125,-0.072783924639225,-0.0493297316133976,0.0160785689949989
1768731608072,0.1591339111328125,-0.275482177734375,-0.907440185546875,-0.0976780876517295,-0.0502967275679111,0.0113362781703472
1768731608082,0.157196044921875,-0.27825927734375,-0.9131622314453124,-0.1218513399362564,-0.0584947355091571,0.0059545617550611
1768731608092,0.1561737060546875,-0.2755889892578125,-0.9213104248046876,-0.1449087262153625,-0.0639669969677925,0.0084494110196828
1768731608102,0.154998779296875,-0.2740325927734375,-0.9349365234375,-0.1497852355241775,-0.057887002825737,0.0028855351265519
1768731608112,0.150970458984375,-0.2769622802734375,-0.9569091796875,-0.1367615759372711,-0.0588068589568138,-0.0023955134674906
1768731608122,0.1564178466796875,-0.26898193359375,-0.9757232666015624,-0.1111920326948165,-0.0631384924054145,0.0002852245524991
1768731608132,0.1553497314453125,-0.2655181884765625,-0.986602783203125,-0.076843112707138,-0.0434334948658943,-0.0015784555580466
1768731608142,0.1520538330078125,-0.2661590576171875,-0.987213134765625,-0.0496178865432739,-0.0298716127872467,-0.0076238312758505
1768731608152,0.150299072265625,-0.266143798828125,-0.9813995361328124,-0.01811801828444,-0.0168929640203714,-0.0072973277419805
1768731608162,0.1541595458984375,-0.2648162841796875,-0.984771728515625,0.013432185165584,-0.0083322320133447,-0.0073798857629299
1768731608172,0.1559600830078125,-0.2622222900390625,-0.97943115234375,0.039701871573925,0.0061857243999838,-0.0030831415206193
1768731608182,0.1561737060546875,-0.261932373046875,-0.9677581787109376,0.0440912954509258,-0.0013435647124424,0.0021326593123376
1768731608192,0.158843994140625,-0.26007080078125,-0.9433746337890624,0.0317952148616313,-0.012408466078341,0.0058280616067349
1768731608202,0.1544189453125,-0.266876220703125,-0.92889404296875,0.0163624621927738,-0.0129568111151456,0.0023656859993934
1768731608212,0.1536865234375,-0.26934814453125,-0.9263153076171876,-0.0034743598662316,-0.0145110320299863,1.5180017726379448e-05
1768731608222,0.1538543701171875,-0.2647552490234375,-0.9229736328125,-0.0293365828692913,-0.0157251674681901,0.002984870923683
1768731608232,0.1537017822265625,-0.26287841796875,-0.9257354736328124,-0.0415493063628673,-0.0219484418630599,0.0058158109895884
1768731608243,0.1493682861328125,-0.268768310546875,-0.938446044921875,-0.0436484105885028,-0.033090841025114,-0.0014711301773786
1768731608253,0.1430816650390625,-0.2714691162109375,-0.948944091796875,-0.0315765663981437,-0.0302279442548751,-0.0082683162763714
1768731608263,0.1454620361328125,-0.2638702392578125,-0.960845947265625,-0.008488293737173,-0.0045409561134874,-0.0114036556333303
1768731608273,0.14776611328125,-0.260223388671875,-0.9705963134765624,0.0102614257484674,-0.0034477282315492,-0.0135120805352926
1768731608283,0.1493682861328125,-0.259033203125,-0.9697113037109376,0.0173808541148901,-0.0146074388176202,-0.0120686469599604
1768731608293,0.1529541015625,-0.2565155029296875,-0.9653778076171876,0.0213566869497299,-0.0183691531419754,-0.0064219464547932
1768731608303,0.154754638671875,-0.25457763671875,-0.959442138671875,0.0295887850224971,-0.0041297636926174,-0.0030245520174503
1768731608313,0.1465911865234375,-0.26531982421875,-0.9597015380859376,0.028851356357336,0.0071521853096783,-0.0118164457380771
1768731608323,0.141204833984375,-0.27252197265625,-0.9512481689453124,0.025186313316226,-0.0035755599383264,-0.0087077375501394
1768731608333,0.1501922607421875,-0.267303466796875,-0.946197509765625,0.0222381930798292,-0.005265868268907,-0.0058248657733201
1768731608343,0.1469268798828125,-0.2702789306640625,-0.9427947998046876,0.0155126471072435,0.0039247004315257,-0.0127347037196159
1768731608353,0.1449432373046875,-0.2738189697265625,-0.93682861328125,0.0045817024074494,-0.0085010761395096,-0.0136708049103617
1768731608363,0.153472900390625,-0.26800537109375,-0.9369659423828124,0.0045478800311684,-0.0296457763761281,-0.0154295563697814
1768731608373,0.15325927734375,-0.2661590576171875,-0.94256591796875,0.0051806471310555,-0.0195523966103792,-0.0206378996372222
1768731608384,0.151214599609375,-0.267547607421875,-0.9468841552734376,0.0092417011037468,-0.0179995074868202,-0.0236691106110811
1768731608393,0.1569061279296875,-0.26397705078125,-0.94879150390625,0.0126494821161031,-0.0235918778926134,-0.0219697467982769
1768731608403,0.1611480712890625,-0.2611541748046875,-0.9549713134765624,0.0160921514034271,-0.0287767872214317,-0.0134542901068925
1768731608413,0.162078857421875,-0.258453369140625,-0.953857421875,0.0163129270076751,-0.0064248759299516,-0.0075979987159371
1768731608423,0.160247802734375,-0.2628326416015625,-0.951263427734375,0.0125083345919847,0.0114028565585613,-0.0043787695467472
1768731608433,0.1597747802734375,-0.2648773193359375,-0.9413604736328124,0.003753192955628,0.0110316118225455,-0.0005099953268654
1768731608443,0.16265869140625,-0.2646484375,-0.933685302734375,-0.0056522930972278,-0.000884169479832,0.0033915357198566
1768731608454,0.162139892578125,-0.2667388916015625,-0.935577392578125,-0.0114177707582712,-0.0112489257007837,-0.0007701861904934
1768731608463,0.15716552734375,-0.2705078125,-0.9400482177734376,-0.0176825914531946,-0.0167675279080867,0.0031941954512149
1768731608473,0.156463623046875,-0.2684326171875,-0.949554443359375,-0.0110342754051089,-0.0041398839093744,0.0060288640670478
1768731608484,0.1512451171875,-0.2709503173828125,-0.9575653076171876,-0.0063556339591741,0.0091247884556651,0.0064690844155848
1768731608494,0.14776611328125,-0.2730560302734375,-0.955291748046875,-0.0019084211671724,0.0057186055928468,0.005167331546545
1768731608504,0.1460418701171875,-0.2730865478515625,-0.9517364501953124,0.000110521184979,0.0135006289929151,-0.0025590313598513
1768731608514,0.14447021484375,-0.2730865478515625,-0.9483489990234376,0.0057244645431637,0.0204871650785207,-0.0030842067208141
1768731608524,0.14599609375,-0.26806640625,-0.951263427734375,0.0053207296878099,0.0209329780191183,-0.0035113778430968
1768731608534,0.14813232421875,-0.2636566162109375,-0.9436187744140624,-0.0054554855450987,0.0058887819759547,0.0048541435971856
1768731608544,0.1487274169921875,-0.2601165771484375,-0.93890380859375,-0.0100526344031095,0.0046554720029234,0.0043148533441126
1768731608554,0.142822265625,-0.265350341796875,-0.944732666015625,-0.0046331011690199,0.022515695542097,0.0021989720407873
1768731608564,0.1431121826171875,-0.267608642578125,-0.9498291015625,0.0011142665753141,0.0115338843315839,-0.0014570154016837
1768731608574,0.1431884765625,-0.2697906494140625,-0.9451446533203124,0.0019422433106228,0.0025196166243404,-0.0067354007624089
1768731608584,0.1413116455078125,-0.269317626953125,-0.9412384033203124,0.0016839167801663,-0.0038376150187104,-0.0111061809584498
1768731608594,0.143463134765625,-0.269805908203125,-0.9404144287109376,-0.0039385487325489,-0.0204791761934757,-0.0122417528182268
1768731608604,0.1447296142578125,-0.270782470703125,-0.9439697265625,-0.0077663101255893,-0.0324753858149051,-0.0095684714615345
1768731608614,0.1485443115234375,-0.267791748046875,-0.9500885009765624,-0.0035542547702789,-0.0401974879205226,-0.0078850872814655
1768731608624,0.146514892578125,-0.2707366943359375,-0.9533538818359376,-0.0014855111949145,-0.0312655121088027,-0.0089330412447452
1768731608634,0.1422271728515625,-0.274658203125,-0.950714111328125,-0.0088970884680747,0.0039092539809644,-0.0120361568406224
1768731608644,0.1434783935546875,-0.268402099609375,-0.9449920654296876,-0.0206165947020053,-0.0070685623213648,0.003647731617093
1768731608654,0.15472412109375,-0.2578277587890625,-0.945831298828125,-0.012411662377417,-0.0338823348283767,0.010137322358787
1768731608664,0.1509246826171875,-0.2654571533203125,-0.9530792236328124,-0.0031822111923247,-0.0257716756314039,0.0083844298496842
1768731608675,0.1475830078125,-0.267364501953125,-0.9558563232421876,0.0081514036282897,-0.0176895149052143,0.000835966260638
1768731608685,0.148895263671875,-0.2696380615234375,-0.9557342529296876,0.0152423363178968,-0.0109431948512792,-0.0030631679110229
1768731608695,0.14794921875,-0.2697906494140625,-0.9480743408203124,0.0134092820808291,-0.0079386169090867,-0.0092033520340919
1768731608705,0.147247314453125,-0.2696380615234375,-0.9462127685546876,0.0115754297003149,-0.009277387522161,-0.0090755205601453
1768731608715,0.1519012451171875,-0.261505126953125,-0.94677734375,0.0076565882191061,-0.0125125963240861,0.0007480819476768
1768731608725,0.155181884765625,-0.256195068359375,-0.94140625,-0.0016761935548856,-0.0126518793404102,0.0093346461653709
1768731608735,0.15594482421875,-0.260162353515625,-0.93145751953125,-0.0101809985935688,-0.0175326541066169,0.0111988587304949
1768731608745,0.1561279296875,-0.2662200927734375,-0.933624267578125,-0.0154577856883406,-0.0130779854953289,0.0136529617011547
1768731608755,0.1536407470703125,-0.2720489501953125,-0.942291259765625,-0.0248036161065101,0.0067761470563709,0.014111291617155
1768731608765,0.1505126953125,-0.2750091552734375,-0.9435882568359376,-0.0311818867921829,0.0145389949902892,0.0157073233276605
1768731608775,0.1466217041015625,-0.2749481201171875,-0.944976806640625,-0.0355936810374259,0.0210211295634508,0.013309147208929
1768731608786,0.141326904296875,-0.2747955322265625,-0.9473876953125,-0.0320157222449779,0.0279781054705381,0.0079000005498528
1768731608795,0.144287109375,-0.2711944580078125,-0.9579925537109376,-0.0192048531025648,0.0365534834563732,0.0073103769682347
1768731608805,0.148284912109375,-0.2683563232421875,-0.965057373046875,-0.0067276773042976,0.0447794571518898,0.0109442602843046
1768731608815,0.146453857421875,-0.265655517578125,-0.9642486572265624,0.0025553030427545,0.0259437169879674,0.0049396310932934
1768731608825,0.1476898193359375,-0.2633819580078125,-0.956878662109375,0.0083122579380869,-0.0099985720589756,0.0088432924821972
1768731608835,0.1528778076171875,-0.259307861328125,-0.9548187255859376,0.0145986499264836,-0.0218320619314908,0.0107338707894086
1768731608845,0.1463165283203125,-0.262481689453125,-0.9504241943359376,0.0149049134925007,-0.005380384158343,0.0020996362436562
1768731608855,0.1406402587890625,-0.266082763671875,-0.94281005859375,0.0101815313100814,0.0109842075034976,-0.003450391581282
1768731608865,0.1431427001953125,-0.2623138427734375,-0.93798828125,0.0012199940392747,0.0262190867215394,0.0002729740226641
1768731608876,0.14385986328125,-0.266143798828125,-0.9346466064453124,-0.0102712800726294,0.0137251336127519,0.0024216123856604
1768731608886,0.1409454345703125,-0.27349853515625,-0.9287872314453124,-0.0278532020747661,-0.008943160995841,-0.0059114187024533
1768731608896,0.13507080078125,-0.276519775390625,-0.9308929443359376,-0.0336900539696216,-0.0110377371311187,-0.0113764917477965
1768731608906,0.1381683349609375,-0.274078369140625,-0.9432220458984376,-0.0292409751564264,0.0047545414417982,-0.0159241054207086
1768731608916,0.1409454345703125,-0.2729644775390625,-0.9538116455078124,-0.0205686576664447,0.02307815477252,-0.0139831937849521
1768731608926,0.14190673828125,-0.2720184326171875,-0.95391845703125,-0.0211553517729043,0.0147424610331654,-0.0159110557287931
1768731608936,0.143341064453125,-0.2686004638671875,-0.9506072998046876,-0.0272574536502361,0.0048469533212482,-0.0159217081964015
1768731608946,0.149993896484375,-0.260498046875,-0.9526519775390624,-0.0223931893706321,-0.0098286624997854,-0.0101844603195786
1768731608956,0.152862548828125,-0.257476806640625,-0.953338623046875,-0.0171539522707462,-0.0263431910425424,-0.0055228634737432
1768731608966,0.1521148681640625,-0.2593841552734375,-0.9542999267578124,-0.0043148533441126,-0.0347992591559886,-0.0073591130785644
1768731608976,0.1493377685546875,-0.2648162841796875,-0.9566192626953124,-7.74979853304103e-05,-0.0276470743119716,-0.012877982109785
1768731608986,0.148590087890625,-0.266876220703125,-0.952880859375,-0.0064533720724284,-0.0219790674746036,-0.0074384752660989
1768731608996,0.14630126953125,-0.26617431640625,-0.9444580078125,-0.0161438155919313,-0.013644971884787,-0.0058749332092702
1768731609006,0.143157958984375,-0.271270751953125,-0.937347412109375,-0.0280968826264143,-0.015631690621376,-0.0104092312976717
1768731609016,0.139801025390625,-0.273223876953125,-0.93865966796875,-0.032496690750122,-0.0215883832424879,-0.0129863722249865
1768731609026,0.14605712890625,-0.268218994140625,-0.9499053955078124,-0.0219505727291107,0.0030748858116567,-0.0152527224272489
1768731609036,0.1468658447265625,-0.26397705078125,-0.9574432373046876,-0.0150796165689826,0.0094981640577316,-0.0119107216596603
1768731609046,0.14825439453125,-0.2637786865234375,-0.9559783935546876,-0.0127538787201046,-0.0003749730822164,-0.0053146043792366
1768731609056,0.148529052734375,-0.2623138427734375,-0.952728271484375,-0.0081806983798742,0.0061511029489338,-0.0069015817716717
1768731609066,0.14556884765625,-0.26239013671875,-0.9495697021484376,-0.0086584696546196,0.0074784224852919,-0.0095852492377161
1768731609076,0.1440277099609375,-0.266693115234375,-0.9445037841796876,-0.0156636480242013,0.0012599414912983,-0.0147453900426626
1768731609087,0.1386566162109375,-0.270355224609375,-0.9369354248046876,-0.0269069820642471,0.0108220214024186,-0.0225093029439449
1768731609096,0.138641357421875,-0.2688751220703125,-0.9384307861328124,-0.0344053767621517,0.0052179316990077,-0.0214861165732145
1768731609107,0.145263671875,-0.262664794921875,-0.945556640625,-0.0316498056054115,0.0099242692813277,-0.0188589096069335
1768731609116,0.14532470703125,-0.2606353759765625,-0.9483184814453124,-0.0312450043857097,0.0233332850039005,-0.0151866758242249
1768731609127,0.1458740234375,-0.26092529296875,-0.9440155029296876,-0.0274236351251602,0.0239508729428052,-0.0185598358511924
1768731609137,0.149871826171875,-0.258941650390625,-0.9503936767578124,-0.0177829917520284,0.0205388311296701,-0.0151994591578841
1768731609147,0.1532745361328125,-0.2593994140625,-0.95770263671875,-0.0057945060543715,0.0193049889057874,-0.0159129202365875
1768731609157,0.154541015625,-0.2592620849609375,-0.96002197265625,0.0009776464430615,0.0144641604274511,-0.0163387600332498
1768731609167,0.1556396484375,-0.257415771484375,-0.961090087890625,-0.0024357270449399,0.0070371367037296,-0.0083884242922067
1768731609177,0.156585693359375,-0.2547149658203125,-0.9554595947265624,-0.0047305729240179,-0.0019600866362452,-0.0016919062472879
1768731609187,0.154052734375,-0.259765625,-0.953582763671875,-0.0012719257501885,0.0047694551758468,0.000429834210081
1768731609197,0.153839111328125,-0.2627716064453125,-0.9588775634765624,0.0090608727186918,0.0162897575646638,-0.0004607268783729
1768731609207,0.151031494140625,-0.2636871337890625,-0.96185302734375,0.0182530395686626,0.0272630453109741,0.003212571144104
1768731609217,0.1514739990234375,-0.2643890380859375,-0.95623779296875,0.0183747466653585,0.0245077405124902,0.0060618873685598
1768731609227,0.15008544921875,-0.266204833984375,-0.94647216796875,0.0108766164630651,-0.0003451456723269,0.0043875579722225
1768731609237,0.1502532958984375,-0.268280029296875,-0.94390869140625,0.0109503855928778,-0.012189288623631,0.0037108487449586
1768731609247,0.150726318359375,-0.266754150390625,-0.9500579833984376,0.0151693653315305,-0.0042069954797625,0.0014125406742095
1768731609257,0.1496429443359375,-0.2658843994140625,-0.951171875,0.0091436970978975,0.0091231912374496,0.0019616845529526
1768731609267,0.1519317626953125,-0.2609405517578125,-0.94525146484375,-0.0007840346079319,0.025375397875905,0.0072608422487974
1768731609277,0.1524505615234375,-0.257781982421875,-0.9442901611328124,-0.0118979383260011,0.0212379097938537,0.0129711925983428
1768731609287,0.1510009765625,-0.2634429931640625,-0.94598388671875,-0.0086853671818971,0.0073287528939545,0.010642790235579
1768731609297,0.15069580078125,-0.268768310546875,-0.9538726806640624,0.0072525865398347,0.0193689037114381,0.0030274814926087
1768731609307,0.147430419921875,-0.271392822265625,-0.9594268798828124,0.0136375147849321,0.0318617932498455,-0.0063287359662353
1768731609317,0.148406982421875,-0.26873779296875,-0.9508514404296876,0.0011411645682528,0.0527471005916595,-0.0043401536531746
1768731609328,0.1568450927734375,-0.256591796875,-0.9444732666015624,-0.0053990264423191,0.0366914346814155,0.0104587664827704
1768731609338,0.1608734130859375,-0.2590179443359375,-0.95135498046875,-0.0026855315081775,0.0116523951292037,0.0137195410206913
1768731609348,0.157989501953125,-0.25885009765625,-0.957305908203125,0.0058975704014301,0.0113895405083894,0.0217875875532627
1768731609358,0.155487060546875,-0.2621002197265625,-0.9555511474609376,0.0063255401328206,0.0130747891962528,0.0128620024770498
1768731609368,0.1488189697265625,-0.2681884765625,-0.9464111328125,0.0130106071010231,0.0149557795375585,0.0038112497422844
1768731609378,0.1490936279296875,-0.2684326171875,-0.9499359130859376,0.0111519871279597,0.0279192496091127,0.0046871635131537
1768731609388,0.1489715576171875,-0.261993408203125,-0.954925537109375,0.0159390196204185,0.051463458687067,0.0045332326553761
