timestamp_ms,acc_x,acc_y,acc_z,gyro_x,gyro_y,gyro_z
1770453885434,0.014129638671875,-0.1045379638671875,-1.005401611328125,-0.024835841730237,-0.0096797915175557,0.0295280646532773
1770453885444,0.0092315673828125,-0.1030426025390625,-1.00341796875,-0.0190482586622238,-0.0119157815352082,0.0307712275534868
1770453885454,0.0050811767578125,-0.1025848388671875,-1.00103759765625,-0.0154207674786448,-0.0091948295012116,0.03292066603899
1770453885464,0.003936767578125,-0.10308837890625,-1.003448486328125,-0.0132236601784825,-0.0030077740084379,0.0329590141773223
1770453885474,0.00494384765625,-0.1041107177734375,-1.00921630859375,-0.0070051788352429,-0.0041257692500948,0.0361414924263954
1770453885484,0.0045318603515625,-0.1081085205078125,-1.0101318359375,-0.0003424825263209,0.0003366235469002,0.0358466804027557
1770453885494,0.001220703125,-0.106689453125,-1.0145111083984375,0.0122457472607493,-0.0021813951898366,0.0319653898477554
1770453885504,0.0024871826171875,-0.0994720458984375,-1.006378173828125,0.0200179163366556,0.008233961649239,0.0288662686944007
1770453885514,6.103515625e-05,-0.0951995849609375,-1.0029296875,0.0317581966519355,0.0180274695158004,0.0205998178571462
1770453885524,-0.00018310546875,-0.0916748046875,-1.0016326904296875,0.0451648160815238,0.0273589193820953,0.0061662830412387
1770453885534,0.0,-0.0956268310546875,-1.00201416015625,0.0713229179382324,0.0616465844213962,-0.0005486111622303
1770453885544,0.0064544677734375,-0.1048583984375,-0.9867706298828124,0.0611259378492832,0.010227870196104,-0.0010697918478399
1770453885554,0.008575439453125,-0.1058197021484375,-1.000885009765625,0.0556880310177803,0.0032855418976396,-0.006034190300852
1770453885564,0.00836181640625,-0.1070709228515625,-0.9874114990234376,0.0408542230725288,-0.0008317052270285,-0.0095897763967514
1770453885574,0.0100555419921875,-0.109283447265625,-0.9823150634765624,0.0262699536979198,-0.0007539408979937,-0.0074565848335623
1770453885585,0.0104827880859375,-0.1105194091796875,-0.9812469482421876,0.0120992735028266,0.0036703685764223,-0.0057420413941144
1770453885594,0.007354736328125,-0.109344482421875,-0.9844818115234376,0.0064491108059883,0.0142292696982622,-0.0052672000601887
1770453885604,0.0098114013671875,-0.1064605712890625,-0.990814208984375,0.0045524076558649,0.0196197740733623,-0.0049401638098061
1770453885614,0.009063720703125,-0.10321044921875,-0.9956817626953124,0.0112928682938218,0.0267189629375934,-0.0024112260434776
1770453885624,0.0084228515625,-0.0998687744140625,-1.000823974609375,0.0254981685429811,0.0335952453315258,-0.0013126720441505
1770453885635,0.009521484375,-0.1035308837890625,-1.0001983642578125,0.037675205618143,0.0344953909516334,0.0021813951898366
1770453885645,0.0089263916015625,-0.10821533203125,-0.996185302734375,0.0459730848670005,0.036091424524784,0.0084834992885589
1770453885655,0.0087890625,-0.110992431640625,-0.992706298828125,0.0541780181229114,0.0362091362476348,0.015082280151546
1770453885665,0.009796142578125,-0.1173553466796875,-0.9898223876953124,0.0524746589362621,0.0359966158866882,0.0245852377265691
1770453885675,0.008819580078125,-0.126373291015625,-0.9864654541015624,0.0459046401083469,0.0368565507233142,0.0339132249355316
1770453885685,0.008453369140625,-0.1269683837890625,-0.986114501953125,0.0376818664371967,0.0395378209650516,0.0415346585214138
1770453885695,0.007476806640625,-0.110992431640625,-0.9813232421875,0.0216467063874006,0.0433179140090942,0.0394986718893051
1770453885705,-0.003143310546875,-0.0957489013671875,-0.9826812744140624,0.011363442055881,0.0514032691717147,0.02058463729918
1770453885715,-0.011749267578125,-0.103485107421875,-0.9838104248046876,0.0070099723525345,0.0441845059394836,0.0069876019842922
1770453885725,0.0017242431640625,-0.117523193359375,-0.9794158935546876,-0.001987517112866,0.0212586838752031,0.0045822351239621
1770453885735,0.0094451904296875,-0.1203155517578125,-0.979888916015625,-0.0167001504451036,0.0129855731502175,0.0019888486713171
1770453885745,0.0138092041015625,-0.13323974609375,-0.974029541015625,-0.0269011221826076,0.0169331766664981,0.0113474633544683
1770453885755,0.019805908203125,-0.134674072265625,-0.97723388671875,-0.0291712004691362,0.0210184659808874,0.0311408750712871
1770453885765,0.019744873046875,-0.120330810546875,-0.9860687255859376,-0.0253993663936853,0.032320387661457,0.0410816557705402
1770453885775,0.0081024169921875,-0.09906005859375,-0.9960174560546876,-0.0143459159880876,0.0367737263441085,0.0369130112230777
1770453885785,-0.00250244140625,-0.0961151123046875,-1.00250244140625,0.0028154938481748,0.0255844555795192,0.024518659338355
1770453885795,0.0005340576171875,-0.1054534912109375,-1.0076446533203125,0.0185758154839277,0.0141541687771677,0.0178218744695186
1770453885805,0.0053558349609375,-0.1130218505859375,-1.0042877197265625,0.028719263151288,0.0090137347579002,0.0127477534115314
1770453885815,0.0047760009765625,-0.1110382080078125,-0.996856689453125,0.0312399454414844,0.0084560690447688,0.0059790629893541
1770453885825,0.0009613037109375,-0.107574462890625,-0.99029541015625,0.0317518040537834,0.003834685543552,0.0030136329587548
1770453885835,-0.000152587890625,-0.109588623046875,-0.987701416015625,0.0306764189153909,0.0004327636852394,0.0013909690314903
1770453885845,0.00579833984375,-0.1193389892578125,-0.989532470703125,0.030681213364005,-0.0038738341536372,0.007096791639924
1770453885856,0.0142669677734375,-0.129058837890625,-0.991912841796875,0.0301328692585229,-0.0063670855015516,0.0157262329012155
1770453885866,0.0192413330078125,-0.1323394775390625,-0.98760986328125,0.018989935517311,0.0025928535033017,0.0246914979070425
1770453885876,0.01898193359375,-0.1276397705078125,-0.9835662841796876,0.0090209254994988,0.0067439228296279,0.0313310250639915
1770453885886,0.01617431640625,-0.1216888427734375,-0.982574462890625,-6.870955257909372e-05,0.0147680267691612,0.0309299528598785
1770453885896,0.01275634765625,-0.1170654296875,-0.9866180419921876,-0.0071926652453839,0.016194948926568,0.0264462549239397
1770453885906,0.01043701171875,-0.1163787841796875,-0.9901580810546876,-0.0117266969755291,0.0218531005084514,0.0206711906939744
1770453885916,0.0060882568359375,-0.117584228515625,-0.994384765625,-0.0057047572918236,0.0269421357661485,0.0132894404232501
1770453885926,0.0056610107421875,-0.1158599853515625,-1.0020751953125,0.0051385695114731,0.022809175774455,0.0157262329012155
1770453885936,0.008758544921875,-0.117706298828125,-1.0001068115234375,0.0206821095198392,0.0213308557868003,0.013545636087656
1770453885946,0.0037689208984375,-0.1185302734375,-0.998443603515625,0.0313632488250732,0.0190852768719196,0.0095863146707415
1770453885956,0.001983642578125,-0.12298583984375,-0.9938507080078124,0.0381399281322956,0.0119501361623406,0.0111389374360442
1770453885966,0.0005645751953125,-0.1296234130859375,-0.99090576171875,0.0441139303147792,0.0079221054911613,0.0136998333036899
1770453885976,0.0069732666015625,-0.1236572265625,-0.9880523681640624,0.0478322356939315,0.0027057717088609,0.0156181082129478
1770453885986,0.005645751953125,-0.122467041015625,-0.9813385009765624,0.0404416993260383,-0.0083849625661969,0.0164918918162584
1770453885996,0.00189208984375,-0.1165008544921875,-0.968475341796875,0.0244432911276817,-0.0019571571610867,0.0131863756105303
1770453886006,0.000396728515625,-0.1165618896484375,-0.965606689453125,0.0077087860554456,-0.0062887887470424,0.0078893480822443
1770453886016,-0.002288818359375,-0.1182861328125,-0.9664154052734376,-0.0091389035806059,-0.0059321913868188,0.0025611619930714
1770453886026,0.005889892578125,-0.1138763427734375,-0.9676971435546876,-0.0308822821825742,-0.0046978159807622,0.0040546627715229
1770453886036,0.0052032470703125,-0.1155853271484375,-0.9695892333984376,-0.0505816861987113,0.0084446175023913,-1.1717908819264268e-05
1770453886046,0.011566162109375,-0.1162567138671875,-0.9868316650390624,-0.0531172789633274,0.0100944461300969,0.0035132421180605
1770453886057,0.0083770751953125,-0.117706298828125,-0.9959259033203124,-0.0505092479288578,0.0134170055389404,0.0092454301193356
1770453886066,0.0103607177734375,-0.119537353515625,-0.9994659423828124,-0.0474218428134918,0.0092816492542624,0.0158719066530466
1770453886077,0.011444091796875,-0.120697021484375,-0.99615478515625,-0.0482918992638587,0.0147826746106147,0.0239479430019855
1770453886087,0.0103302001953125,-0.1220855712890625,-0.9918060302734376,-0.0509808920323848,0.0158545970916748,0.029038043692708
1770453886097,0.0124053955078125,-0.1201019287109375,-0.9884490966796876,-0.0550683103501796,0.019972376525402,0.034843735396862
1770453886107,0.0110931396484375,-0.11572265625,-0.9987335205078124,-0.051049068570137,0.0174160078167915,0.03480751439929
1770453886117,0.0095977783203125,-0.1087188720703125,-1.00909423828125,-0.0397330299019813,0.0168516840785741,0.0344618372619152
1770453886127,0.00677490234375,-0.1064605712890625,-1.0201568603515625,-0.0196810271590948,0.0089953588321805,0.0284470878541469
1770453886137,0.0048675537109375,-0.10626220703125,-1.0275115966796875,0.0078800274059176,-0.0009054747642949,0.0174170732498168
1770453886147,0.0088043212890625,-0.10614013671875,-1.024871826171875,0.0281280409544706,-0.006916229147464,0.0128564098849892
1770453886157,0.0105438232421875,-0.107147216796875,-1.0151824951171875,0.0430497340857982,-0.0116638466715812,0.0069444589316844
1770453886167,0.008148193359375,-0.1115875244140625,-1.006500244140625,0.0504032522439956,-0.0126124648377299,0.0050570764578878
1770453886177,0.0099029541015625,-0.1112060546875,-1.0001373291015625,0.0546208992600441,-0.0088744517415761,0.0045665223151445
1770453886187,0.0084991455078125,-0.11041259765625,-0.9971771240234376,0.0638322457671165,-0.0060688112862408,-0.0033625070936977
1770453886197,0.0066680908203125,-0.109893798828125,-1.00006103515625,0.0738057792186737,-0.0093277217820286,-0.0115221664309501
1770453886207,0.0087738037109375,-0.1094970703125,-0.998291015625,0.0815606415271759,-0.0169661995023489,-0.0166527461260557
1770453886217,0.014923095703125,-0.1079559326171875,-0.9886322021484376,0.0811736807227134,-0.0209750570356845,-0.0244014803320169
1770453886227,0.0186614990234375,-0.1111907958984375,-0.97601318359375,0.0735415965318679,-0.0216128844767808,-0.0304156970232725
1770453886237,0.0215606689453125,-0.1141357421875,-0.96588134765625,0.0563034862279892,-0.0148676289245486,-0.0320796407759189
1770453886247,0.020782470703125,-0.1162261962890625,-0.9600067138671876,0.03727413341403,-0.0045393579639494,-0.0331781916320323
1770453886257,0.0157012939453125,-0.11883544921875,-0.962432861328125,0.0188320111483335,0.0020884508267045,-0.0289861112833023
1770453886268,0.01751708984375,-0.1243438720703125,-0.962738037109375,0.0009129316313192,0.0087226517498493,-0.0192503929138183
1770453886278,0.0200347900390625,-0.1290435791015625,-0.9651336669921876,-0.0163070671260356,0.0182599630206823,-0.0034519892651587
1770453886287,0.0158538818359375,-0.1195526123046875,-0.97308349609375,-0.0318753756582737,0.0195662435144186,0.0036626453511416
1770453886298,0.01031494140625,-0.107452392578125,-0.9762115478515624,-0.0473933480679988,0.0257815290242433,0.0001704423048067
1770453886308,0.0016632080078125,-0.107635498046875,-0.986480712890625,-0.0514432154595851,0.0303488504141569,-0.0087226517498493
1770453886318,0.0046539306640625,-0.112823486328125,-0.9922637939453124,-0.0515225790441036,0.0301051717251539,-0.0110931312665343
1770453886328,0.0090484619140625,-0.1160888671875,-0.9979248046875,-0.0516410917043685,0.0206520147621631,-0.0154119795188307
1770453886338,0.010711669921875,-0.127532958984375,-0.9994964599609376,-0.0534427165985107,0.0133978305384516,-0.0121538685634732
1770453886348,0.0182952880859375,-0.1439971923828125,-0.9895172119140624,-0.0602156706154346,0.0093322489410638,0.0111551824957132
1770453886358,0.030181884765625,-0.142120361328125,-0.9812774658203124,-0.0739650353789329,0.0174935068935155,0.0286540146917104
1770453886368,0.023162841796875,-0.111663818359375,-0.9791412353515624,-0.0827942192554473,0.0389404743909835,0.0253354497253894
1770453886378,0.00433349609375,-0.09576416015625,-0.9822540283203124,-0.0845950469374656,0.0575322695076465,0.0087426248937845
1770453886388,-0.007720947265625,-0.098114013671875,-0.9915008544921876,-0.0766814649105072,0.0617105029523372,-0.0061990399844944
1770453886398,-0.0087738037109375,-0.101348876953125,-1.0023956298828125,-0.0574845969676971,0.0627563223242759,-0.0131679996848106
1770453886408,-0.0110015869140625,-0.1010284423828125,-1.005706787109375,-0.0347896702587604,0.0645843222737312,-0.0213316529989242
1770453886418,-0.0125274658203125,-0.1032257080078125,-1.0004119873046875,-0.0157360862940549,0.0633653923869133,-0.0195768978446722
1770453886428,-0.0107574462890625,-0.1099090576171875,-0.9880218505859376,-0.0067705544643104,0.0710550025105476,-0.0114316185936331
1770453886439,-0.0027923583984375,-0.1172332763671875,-0.984619140625,-0.0066690878011286,0.080599769949913,0.002918291836977
1770453886448,0.00616455078125,-0.1274566650390625,-0.9843292236328124,-0.0120529346168041,0.0869359672069549,0.0202991459518671
1770453886458,0.0120849609375,-0.130096435546875,-0.9854583740234376,-0.0216325912624597,0.0924644172191619,0.0362663939595222
1770453886468,0.01904296875,-0.1276092529296875,-0.9820098876953124,-0.0398259758949279,0.0964447781443595,0.0405564792454242
1770453886479,0.0246124267578125,-0.1197509765625,-0.9751434326171876,-0.0702163726091384,0.1055160388350486,0.0384770855307579
1770453886488,0.0187835693359375,-0.114776611328125,-0.9783782958984376,-0.0989063382148742,0.1126482486724853,0.0300130266696214
1770453886499,0.01806640625,-0.1071929931640625,-0.989288330078125,-0.1197501048445701,0.1152594834566116,0.0222925227135419
1770453886509,0.016448974609375,-0.1045684814453125,-1.0002593994140625,-0.1247315481305122,0.1142634600400924,0.013939251191914
1770453886519,0.01458740234375,-0.1098785400390625,-1.018341064453125,-0.1094801574945449,0.1103539392352104,0.0107746170833706
1770453886529,0.0155181884765625,-0.110809326171875,-1.035247802734375,-0.0699279531836509,0.0958093479275703,0.0131411021575331
1770453886539,0.0172271728515625,-0.10760498046875,-1.0440521240234375,-0.0158884190022945,0.0729951113462448,0.0185265466570854
1770453886549,0.01409912109375,-0.10357666015625,-1.0448760986328125,0.0376232750713825,0.0520477555692195,0.0248933658003807
1770453886559,0.01373291015625,-0.114776611328125,-1.0404815673828125,0.0783717706799507,0.0294676106423139,0.0324223898351192
1770453886569,0.020538330078125,-0.11553955078125,-1.027618408203125,0.104857437312603,0.0134700024500489,0.0401237159967422
1770453886579,0.0224456787109375,-0.107513427734375,-1.0046539306640625,0.1053775548934936,0.004226969089359,0.037557229399681
1770453886589,0.0200958251953125,-0.1029205322265625,-0.98345947265625,0.0886249393224716,0.0059782639145851,0.0267344079911708
1770453886599,0.01995849609375,-0.097900390625,-0.9677276611328124,0.071269117295742,0.01855637319386,0.0163589995354414
1770453886609,0.025360107421875,-0.099639892578125,-0.9622039794921876,0.0576025769114494,0.0348408035933971,0.0061628208495676
1770453886620,0.0315399169921875,-0.108978271484375,-0.9651336669921876,0.0540991872549057,0.0445680022239685,0.0020785972010344
1770453886629,0.0398712158203125,-0.120208740234375,-0.971771240234375,0.0595522746443748,0.0395229086279869,0.0091349091380834
1770453886640,0.05438232421875,-0.1273651123046875,-0.9671783447265624,0.0572936497628688,0.0400685891509056,0.0222211498767137
1770453886649,0.052947998046875,-0.1274871826171875,-0.9661407470703124,0.0544243603944778,0.0388920046389102,0.0393314287066459
1770453886659,0.048797607421875,-0.124176025390625,-0.9644317626953124,0.04250218719244,0.0384533815085887,0.0533247403800487
1770453886669,0.044403076171875,-0.1228485107421875,-0.965911865234375,0.0306314118206501,0.0487270578742027,0.0630450099706649
1770453886679,0.0351409912109375,-0.1220703125,-0.9760284423828124,0.0228552483022212,0.0461698919534683,0.0685729384422302
1770453886689,0.0289764404296875,-0.1162109375,-0.9818878173828124,0.0211172699928283,0.0344117693603038,0.0677159279584884
1770453886700,0.029693603515625,-0.1172332763671875,-0.9815521240234376,0.0188882034271955,0.0252611488103866,0.0683486983180046
1770453886710,0.033782958984375,-0.1253814697265625,-0.978240966796875,0.0090249199420213,0.0161608606576919,0.072930134832859
1770453886720,0.0342559814453125,-0.137542724609375,-0.9711761474609376,-0.0087444894015789,0.0086595341563224,0.0745535939931869
1770453886730,0.0381317138671875,-0.1356353759765625,-0.9643402099609376,-0.040935181081295,0.0052064796909689,0.0802082866430282
1770453886740,0.03839111328125,-0.1298828125,-0.959197998046875,-0.0813957899808883,0.0180810000747442,0.0806517004966735
1770453886750,0.0275726318359375,-0.1266937255859375,-0.9683074951171876,-0.1129973903298378,0.0311477985233068,0.0735056400299072
1770453886760,0.0173187255859375,-0.1177520751953125,-0.9907379150390624,-0.1242793425917625,0.033308420330286,0.0623137094080448
1770453886770,0.014617919921875,-0.11083984375,-1.0144805908203125,-0.1152211278676986,0.0258784685283899,0.0471227690577507
1770453886780,0.0147857666015625,-0.1097259521484375,-1.0325469970703125,-0.0867447480559349,0.0142622925341129,0.0327614098787307
1770453886790,0.018035888671875,-0.111297607421875,-1.0347137451171875,-0.048734251409769,0.0065452507697045,0.0260899234563112
1770453886800,0.023162841796875,-0.119781494140625,-1.032684326171875,-0.0062650865875184,-0.0018977685831487,0.024197481572628
1770453886810,0.033447265625,-0.1231231689453125,-1.02545166015625,0.0294423103332519,-0.0083873597905039,0.0263708867132663
1770453886820,0.0370330810546875,-0.123870849609375,-1.011077880859375,0.0464825481176376,-0.0095223989337682,0.0329289212822914
1770453886830,0.0391693115234375,-0.1241302490234375,-0.993804931640625,0.0506282895803451,0.0013281183782964,0.0375982411205768
1770453886840,0.0342559814453125,-0.1220245361328125,-0.9806671142578124,0.0435645207762718,0.0101841939613223,0.0342874005436897
1770453886850,0.030059814453125,-0.1165618896484375,-0.975341796875,0.0338711477816104,0.0204269774258136,0.0299357939511537
1770453886860,0.0231781005859375,-0.1141204833984375,-0.9759521484375,0.0286787822842597,0.0232083834707736,0.0196298938244581
1770453886871,0.020751953125,-0.1188507080078125,-0.9813079833984376,0.0283421594649553,0.0225828066468238,0.0121490741148591
1770453886880,0.024932861328125,-0.1187896728515625,-0.98333740234375,0.0276161804795265,0.0178319942206144,0.0119237713515758
1770453886890,0.0250701904296875,-0.1112518310546875,-0.9835052490234376,0.0293645467609167,0.00984304305166,0.0033822145778685
1770453886900,0.01806640625,-0.1056365966796875,-0.9815216064453124,0.0289642736315727,-0.0017105482984334,-0.0084864292293787
1770453886911,0.0156402587890625,-0.107025146484375,-0.98046875,0.0300953183323144,-0.0053952978923916,-0.0218914505094289
1770453886921,0.018646240234375,-0.1056671142578125,-0.979766845703125,0.0291091501712799,-0.0122441491112113,-0.0302292741835117
1770453886931,0.019866943359375,-0.110992431640625,-0.973602294921875,0.0132636073976755,-0.0207135342061519,-0.0394792333245277
1770453886941,0.0214080810546875,-0.1202392578125,-0.9740447998046876,-0.0001944107643794,-0.0155254304409027,-0.0412281304597854
1770453886951,0.029266357421875,-0.1334991455078125,-0.9755859375,-0.013545636087656,-0.0195457376539707,-0.0307983923703432
1770453886961,0.0399932861328125,-0.1405181884765625,-0.97857666015625,-0.0243828371167182,-0.0186091046780347,-0.0174804572016
1770453886973,0.0404205322265625,-0.115264892578125,-0.98687744140625,-0.0274553261697292,-0.0007850998663343,-0.0136995669454336
1770453886981,0.024688720703125,-0.10003662109375,-0.9938812255859376,-0.0276452098041772,0.004432032816112,-0.0257487725466489
1770453886991,0.0195465087890625,-0.1023101806640625,-1.0042877197265625,-0.0202426873147487,-0.0046235141344368,-0.0368514917790889
1770453887001,0.02581787109375,-0.1071014404296875,-1.00982666015625,-0.0087226517498493,-0.014928082935512,-0.0425069816410541
1770453887011,0.02764892578125,-0.1071624755859375,-1.0109710693359375,0.0030703584197908,-0.016057264059782,-0.0505262911319732
1770453887021,0.02435302734375,-0.1083526611328125,-1.00604248046875,0.011242002248764,-0.016872989013791,-0.0546464659273624
1770453887031,0.022186279296875,-0.1104888916015625,-0.9997406005859376,0.0190855432301759,-0.0176668781787157,-0.0522568114101886
1770453887041,0.0268096923828125,-0.116485595703125,-0.998199462890625,0.0223894622176885,-0.0156556591391563,-0.0437397584319114
1770453887051,0.0357666015625,-0.1236724853515625,-0.994598388671875,0.0227785501629114,-0.0100473081693053,-0.0324056111276149
1770453887061,0.0435638427734375,-0.1289215087890625,-0.9880218505859376,0.018788069486618,-0.0056006275117397,-0.0174056217074394
1770453887071,0.0438690185546875,-0.1285400390625,-0.9840240478515624,0.0135222002863883,0.0055295214988291,-0.0074659055098891
1770453887081,0.0418243408203125,-0.12261962890625,-0.9813232421875,0.0040325582958757,0.0167241189628839,-0.0042128544300794
1770453887091,0.03509521484375,-0.1143951416015625,-0.9826812744140624,-0.001816009520553,0.0183816701173782,-0.011484881862998
1770453887101,0.027587890625,-0.110595703125,-0.9831390380859376,-0.0097738010808825,0.0209862422198057,-0.0195289608091115
1770453887111,0.025482177734375,-0.1100006103515625,-0.987396240234375,-0.0125240478664636,0.0169888362288475,-0.0224573723971843
1770453887121,0.0250244140625,-0.1135101318359375,-0.9915313720703124,-0.012426309287548,0.0152870770543813,-0.0234193056821823
1770453887131,0.0230255126953125,-0.1144256591796875,-0.9955291748046876,-0.0070576430298388,0.010651845484972,-0.0229058489203453
1770453887142,0.0203857421875,-0.1121368408203125,-1.0033416748046875,0.004176901653409,0.0050677293911576,-0.022352710366249
1770453887151,0.0201873779296875,-0.1089324951171875,-1.008514404296875,0.0177726056426763,-0.0006681871018372,-0.0212080832570791
1770453887162,0.02301025390625,-0.1143798828125,-1.0045928955078125,0.0281312372535467,-0.000246076087933,-0.0201803687959909
1770453887172,0.0293121337890625,-0.11712646484375,-1.000762939453125,0.0375220738351345,-0.0002671150432433,-0.0185944568365812
1770453887182,0.0320281982421875,-0.1125335693359375,-0.995361328125,0.0407953672111034,0.0012801815755665,-0.017258882522583
1770453887192,0.0345611572265625,-0.11212158203125,-0.990325927734375,0.0409303903579711,-0.0008783105295151,-0.0176389142870903
1770453887202,0.0389862060546875,-0.114227294921875,-0.9853973388671876,0.035690352320671,0.0028820729348808,-0.0141344610601663
1770453887212,0.0422210693359375,-0.1201934814453125,-0.9803009033203124,0.026930684223771,0.0061279335059225,-0.009694704785943
1770453887222,0.04351806640625,-0.1224517822265625,-0.9779205322265624,0.0195004642009735,0.0047580036334693,-0.0031792817171663
1770453887232,0.0428314208984375,-0.12445068359375,-0.9791259765625,0.0148093057796359,0.0023132218047976,0.0051122037693858
1770453887242,0.0386962890625,-0.1204071044921875,-0.9816741943359376,0.0115677062422037,0.0017979000695049,0.0127088706940412
1770453887252,0.03564453125,-0.1162872314453125,-0.984649658203125,0.0067804078571498,0.0016066851094365,0.0172010902315378
1770453887262,0.0344390869140625,-0.11572265625,-0.98748779296875,0.0038509308360517,0.0032016523182392,0.0222320687025785
1770453887272,0.031951904296875,-0.117828369140625,-0.99090576171875,-6.498113361885771e-05,0.0046536074951291,0.0237495377659797
1770453887282,0.0341644287109375,-0.1167755126953125,-0.9923248291015624,-0.0025249430909752,0.008699482306838,0.0268369410187006
1770453887292,0.03326416015625,-0.117645263671875,-0.991424560546875,-0.0059457733295857,0.0150407347828149,0.0304881334304809
1770453887302,0.0313262939453125,-0.1181640625,-0.9894866943359376,-0.008419849909842,0.0160825625061988,0.028887040913105
1770453887312,0.0296173095703125,-0.118560791015625,-0.986785888671875,-0.0084153227508068,0.0193718336522579,0.0221002418547868
1770453887322,0.0300445556640625,-0.11968994140625,-0.98736572265625,-0.0082930838689208,0.0137472376227378,0.0194610487669706
1770453887332,0.0283050537109375,-0.1202239990234375,-0.9882965087890624,-0.0060131512582302,0.0090781832113862,0.0153472647070884
1770453887343,0.026336669921875,-0.121734619140625,-0.98907470703125,-0.0050826431252062,0.006173207424581,0.0072957295924425
1770453887355,0.024139404296875,-0.119232177734375,-0.986602783203125,-0.008110923692584,0.0045159221626818,0.0087617998942732
1770453887363,0.024169921875,-0.1144561767578125,-0.9831085205078124,-0.0150452619418501,0.0058232680894434,0.0038850193377584
1770453887373,0.02349853515625,-0.11700439453125,-0.9813690185546876,-0.0204400271177291,0.0031878037843853,-0.0022525016684085
1770453887383,0.0243682861328125,-0.116729736328125,-0.98388671875,-0.0246827099472284,0.0005763080553151,-3.0892668291926384e-05
1770453887393,0.024749755859375,-0.11859130859375,-0.9913787841796876,-0.024951422587037,-0.0017480988753959,-0.0017073525814339
1770453887403,0.0305633544921875,-0.1176910400390625,-0.998779296875,-0.020886106416583,0.0024176177103072,-0.0007504787645302
1770453887413,0.0328369140625,-0.119384765625,-1.0003814697265625,-0.017828531563282,0.0069551113992929,0.0026423884555697
1770453887423,0.0326385498046875,-0.11956787109375,-1.003387451171875,-0.0055910404771566,0.0172077491879463,0.0108787463977932
1770453887433,0.03778076171875,-0.1187286376953125,-1.0068206787109375,0.0038378813769668,0.0208885036408901,0.0140087595209479
1770453887443,0.0435791015625,-0.1210174560546875,-1.00933837890625,0.0180847272276878,0.0256092231720685,0.0176668781787157
1770453887453,0.038970947265625,-0.1258697509765625,-1.0050811767578125,0.027416443452239,0.0239772386848926,0.0181078966706991
1770453887463,0.0370330810546875,-0.1246490478515625,-0.9952850341796876,0.0332295931875705,0.0183438528329134,0.0211939681321382
1770453887474,0.034027099609375,-0.12237548828125,-0.9897308349609376,0.0326663330197334,0.0238627213984727,0.0247879046946764
1770453887483,0.030517578125,-0.1204833984375,-0.9827728271484376,0.0274001993238925,0.0254542268812656,0.0248616747558116
1770453887493,0.0264434814453125,-0.12371826171875,-0.9810333251953124,0.0222653578966856,0.0241862963885068,0.0225577726960182
1770453887503,0.0256195068359375,-0.130828857421875,-0.9832763671875,0.016940901055932,0.0183585006743669,0.0301118288189172
1770453887513,0.027740478515625,-0.1250152587890625,-0.984527587890625,0.0125067373737692,0.0160785689949989,0.0328745916485786
1770453887523,0.02398681640625,-0.11468505859375,-0.9856719970703124,0.0107525130733847,0.0092254560440778,0.0289424359798431
1770453887533,0.01434326171875,-0.1151275634765625,-0.987945556640625,0.0138039626181125,0.0063082296401262,0.0155725684016942
1770453887544,0.018890380859375,-0.1206817626953125,-0.9967498779296876,0.0260712821036577,0.0017523600254207,0.0097263967618346
1770453887554,0.02752685546875,-0.119781494140625,-0.9970550537109376,0.0380152910947799,-0.0117003321647644,0.0052735917270183
1770453887564,0.0280609130859375,-0.124481201171875,-0.9875946044921876,0.032815471291542,-0.0151475276798009,-0.0017153420485556
1770453887574,0.0294647216796875,-0.1319580078125,-0.981170654296875,0.0210469625890254,-0.0092422338202595,0.0036570527590811
1770453887584,0.0365447998046875,-0.1425628662109375,-0.97808837890625,0.0120217753574252,-0.0107799433171749,0.0186402630060911
1770453887594,0.0406951904296875,-0.13055419921875,-0.9792938232421876,0.0069087725132703,-0.001849299063906,0.0274318903684616
1770453887604,0.0301971435546875,-0.1068878173828125,-0.97991943359375,0.0012871057260781,0.0050517502240836,0.0171470288187265
1770453887614,0.0169525146484375,-0.105438232421875,-0.9813079833984376,0.0013701963471248,0.0045694517903029,0.0041832933202385
1770453887624,0.01904296875,-0.10943603515625,-0.9847412109375,-0.0021603561472147,0.0014128069160506,-0.0049713226035237
1770453887634,0.0244293212890625,-0.1135711669921875,-0.9859771728515624,-0.0067375311627984,0.0005382248782552,-0.0116630475968122
1770453887644,0.0234375,-0.1142425537109375,-0.9852447509765624,-0.0103309340775012,2.1305288555595325e-06,-0.0173949692398309
1770453887655,0.0207366943359375,-0.11474609375,-0.986968994140625,-0.0127682592719793,0.0001107874995796,-0.0196847543120384
1770453887664,0.02044677734375,-0.1195526123046875,-0.9927215576171876,-0.007849134504795,-0.0013915016315877,-0.0204623974859714
1770453887674,0.025634765625,-0.1292724609375,-1.0003509521484375,-0.004996090196073,-0.0069204904139041,-0.0146319391205906
1770453887684,0.03955078125,-0.1327056884765625,-0.9964141845703124,-0.0048639974556863,-0.0041718417778611,-0.0012900352012366
1770453887694,0.0429840087890625,-0.136199951171875,-0.9862823486328124,-0.0108217550441622,0.0036980654112994,0.0073985275812447
1770453887704,0.0410614013671875,-0.1339111328125,-0.9795684814453124,-0.0203263107687234,0.014789598993957,0.0131261879578232
1770453887714,0.0393829345703125,-0.127655029296875,-0.974365234375,-0.0310585834085941,0.0272441376000642,0.0128500182181596
1770453887724,0.0340423583984375,-0.12506103515625,-0.97723388671875,-0.0380360670387744,0.03234488889575,0.007194263394922
1770453887734,0.025909423828125,-0.1236419677734375,-0.9834136962890624,-0.0399530082941055,0.027674239128828,0.0010910971323028
1770453887745,0.0226287841796875,-0.1243743896484375,-0.9892578125,-0.0372272618114948,0.0194013938307762,-0.0016511598369106
1770453887755,0.0210723876953125,-0.123443603515625,-0.9915924072265624,-0.0369715988636016,0.0104257427155971,-0.0030594393610954
1770453887764,0.019073486328125,-0.123291015625,-0.991790771484375,-0.0323483534157276,0.0081125209107995,-0.0010005496442317
1770453887775,0.0218505859375,-0.121826171875,-0.99005126953125,-0.0294500347226858,0.0029395972378551,-0.0023529028985649
1770453887785,0.022247314453125,-0.123992919921875,-0.991668701171875,-0.0255314595997333,0.0024109596852213,-0.010913367383182
1770453887795,0.025390625,-0.1281585693359375,-0.9944305419921876,-0.0141017045825719,0.0018122810870409,-0.0095351822674274
1770453887805,0.029541015625,-0.1237030029296875,-0.9980316162109376,-0.0008921589469537,-0.0020762004423886,-0.011795406229794
1770453887815,0.02764892578125,-0.120086669921875,-0.9974212646484376,0.0112585136666893,-0.0077205039560794,-0.0125927571207284
1770453887825,0.0284271240234375,-0.115997314453125,-0.9960174560546876,0.0223116967827081,-0.0110246874392032,-0.0171502251178026
1770453887835,0.0285797119140625,-0.1182403564453125,-0.99432373046875,0.0312029272317886,-0.0190178994089365,-0.0232179705053567
1770453887845,0.03216552734375,-0.1217193603515625,-0.9888458251953124,0.0321297049522399,-0.0280257761478424,-0.0263114981353282
1770453887855,0.034515380859375,-0.125,-0.979949951171875,0.0254747327417135,-0.0325190611183643,-0.0236374195665121
1770453887865,0.03521728515625,-0.1263885498046875,-0.975341796875,0.0134867802262306,-0.0286502875387668,-0.0201052688062191
1770453887875,0.03363037109375,-0.124176025390625,-0.976287841796875,0.0055055529810488,-0.0218898523598909,-0.0154141103848814
1770453887885,0.03070068359375,-0.1230621337890625,-0.9852447509765624,-0.0013464941876009,-0.0200549345463514,-0.0091418325901031
1770453887895,0.031158447265625,-0.1255035400390625,-0.9923095703125,-0.0065066353417932,-0.0201529394835233,-0.0062637547962367
1770453887906,0.03277587890625,-0.125946044921875,-0.991455078125,-0.0100901843979954,-0.018311096355319,-0.0004167847218923
1770453887915,0.0323333740234375,-0.1273956298828125,-0.98907470703125,-0.0166207887232303,-0.017822140827775,0.004930043593049
1770453887925,0.034698486328125,-0.12615966796875,-0.98699951171875,-0.0220549684017896,-0.0118553275242447,0.0067849354818463
1770453887935,0.0346221923828125,-0.1247711181640625,-0.991180419921875,-0.0162812359631061,-0.0076781595125794,0.0080278329551219
1770453887945,0.032745361328125,-0.1255340576171875,-0.9998931884765624,-0.0046599991619586,-0.0104787396267056,0.0074222297407686
1770453887955,0.029754638671875,-0.1245574951171875,-1.0060577392578125,0.0083117261528968,-0.0142170190811157,0.0113187013193964
1770453887965,0.0279541015625,-0.122772216796875,-1.0077056884765625,0.026558106765151,-0.0152535215020179,0.0130252540111541
1770453887975,0.0262451171875,-0.12469482421875,-1.0059661865234375,0.0403548814356327,-0.0188040472567081,0.0157408807426691
1770453887986,0.0240631103515625,-0.12384033203125,-0.9976348876953124,0.0502698272466659,-0.0223039742559194,0.0138779990375041
1770453887995,0.0224761962890625,-0.1234588623046875,-0.9901580810546876,0.0535263419151306,-0.023798806592822,0.0122763738036155
1770453888006,0.0203704833984375,-0.122802734375,-0.9845733642578124,0.0541487224400043,-0.0213937051594257,0.0080166477710008
1770453888016,0.0190582275390625,-0.121551513671875,-0.9830474853515624,0.0479547418653965,-0.0194855500012636,0.0060842577368021
1770453888026,0.0184783935546875,-0.1217041015625,-0.9781646728515624,0.0359060689806938,-0.0157661791890859,-0.0023339942563325
1770453888039,0.018524169921875,-0.1226806640625,-0.978759765625,0.0272097829729318,-0.0134676052257418,-0.0072651035152375
1770453888046,0.022735595703125,-0.124267578125,-0.9835205078125,0.0263362657278776,-0.0127165941521525,-0.0157214384526014
1770453888056,0.0234222412109375,-0.12548828125,-0.98883056640625,0.0288193970918655,-0.0136950397863984,-0.0186908636242151
1770453888066,0.025054931640625,-0.1227264404296875,-0.991302490234375,0.0338410548865795,-0.0181510411202907,-0.0220818668603897
1770453888076,0.0283966064453125,-0.123016357421875,-0.990386962890625,0.0372059568762779,-0.0179987084120512,-0.0237242374569177
1770453888086,0.0269622802734375,-0.124847412109375,-0.9867095947265624,0.0359630621969699,-0.0162436850368976,-0.0221063680946826
1770453888096,0.030303955078125,-0.1270904541015625,-0.9871826171875,0.0347965955734252,-0.0158905498683452,-0.0206152629107236
1770453888106,0.028289794921875,-0.1266021728515625,-0.9857025146484376,0.0333270654082298,-0.0102992430329322,-0.0167486201971769
1770453888116,0.0248870849609375,-0.127777099609375,-0.9857330322265624,0.0330524928867816,-0.0085985483601689,-0.0177531652152538
1770453888126,0.0251007080078125,-0.121856689453125,-0.98834228515625,0.0354424118995666,-0.0096044242382049,-0.0179539658129215
1770453888136,0.0255126953125,-0.11981201171875,-0.988677978515625,0.0347172357141971,-0.0054722633212804,-0.0196690429002046
1770453888146,0.025054931640625,-0.129486083984375,-0.990753173828125,0.0384957268834114,-0.0076326197013258,-0.0208621378988027
1770453888156,0.0328826904296875,-0.1355438232421875,-0.9919586181640624,0.0401626005768775,-0.0114515926688909,-0.0116217685863375
1770453888166,0.0392303466796875,-0.126495361328125,-0.9868621826171876,0.0415580943226814,-0.0154607156291604,-0.0071516525931656
1770453888176,0.0323028564453125,-0.1185150146484375,-0.9798736572265624,0.0299512408673763,-0.0134939709678292,-0.0128180608153343
1770453888189,0.023468017578125,-0.1237030029296875,-0.97625732421875,0.0178801976144313,0.0002130528882844,-0.0245138648897409
1770453888196,0.0292205810546875,-0.1278228759765625,-0.9738616943359376,0.0123424204066395,0.0066264774650335,-0.0217401832342147
1770453888206,0.0324554443359375,-0.129974365234375,-0.973052978515625,-0.0011752529535442,0.005755890160799,-0.0239886902272701
1770453888216,0.0309295654296875,-0.143341064453125,-0.979583740234375,-0.0096326535567641,0.0097935087978839,-0.0120878219604492
1770453888227,0.0370941162109375,-0.1535797119140625,-0.983551025390625,-0.0101671498268842,0.0080014672130346,0.0078217042610049
1770453888237,0.04229736328125,-0.14984130859375,-0.9824066162109376,-0.0107320062816143,0.0126755814999341,0.0235660467296838
1770453888247,0.0341033935546875,-0.121368408203125,-0.9825439453125,-0.0157842896878719,0.027622040361166,0.018955048173666
1770453888257,0.0182647705078125,-0.114166259765625,-0.9808349609375,-0.0203028749674558,0.0292662754654884,0.0069260830059647
1770453888267,0.0168304443359375,-0.116943359375,-0.985626220703125,-0.0210584141314029,0.0238853581249713,-0.0015318501973524
1770453888277,0.0225067138671875,-0.127593994140625,-0.990570068359375,-0.0171057507395744,0.0146987847983837,-0.0059905145317316
1770453888287,0.0235595703125,-0.1323089599609375,-0.990509033203125,-0.0126508139073848,0.0009693906176835,-0.0069761504419147
1770453888297,0.019317626953125,-0.1287078857421875,-0.9857330322265624,-0.0135421743616461,-0.0020080234389752,-0.0081367557868361
1770453888307,0.01904296875,-0.13037109375,-0.9833831787109376,-0.0186727531254291,-0.0016865798970684,-0.0022098910994827
1770453888317,0.02435302734375,-0.1387176513671875,-0.985076904296875,-0.0262334682047367,0.0006857639527879,0.0076520605944097
1770453888327,0.0331878662109375,-0.1442718505859375,-0.985626220703125,-0.0322732515633106,0.000202400246053,0.0203002113848924
1770453888337,0.037078857421875,-0.148712158203125,-0.984649658203125,-0.0407977625727653,0.0084973480552434,0.0352740995585918
1770453888347,0.0361328125,-0.1404876708984375,-0.9845428466796876,-0.044464137405157,0.0169816464185714,0.0411722026765346
1770453888357,0.0325164794921875,-0.132537841796875,-0.9895172119140624,-0.0446449667215347,0.0228041149675846,0.0375676155090332
1770453888367,0.0250091552734375,-0.1288299560546875,-0.992889404296875,-0.0384168960154056,0.0211401730775833,0.0288859773427248
1770453888377,0.0215606689453125,-0.127716064453125,-0.995513916015625,-0.0320878960192203,0.0134433703497052,0.0234616491943597
1770453888389,0.0188140869140625,-0.130157470703125,-0.9940948486328124,-0.0269828811287879,0.0052597429603338,0.0217417813837528
1770453888397,0.019500732421875,-0.1307220458984375,-0.9899749755859376,-0.0228539165109395,0.0012474246323108,0.020991301164031
1770453888408,0.016326904296875,-0.1278076171875,-0.985992431640625,-0.0191997941583395,0.0012697952333837,0.020586235448718
1770453888417,0.0115966796875,-0.1228790283203125,-0.9900360107421876,-0.0116028599441051,-0.0012980246683582,0.0151595119386911
1770453888428,0.0091094970703125,-0.1216278076171875,-0.9956817626953124,-0.0035451999865472,-0.0128268487751483,0.0112156365066766
1770453888438,0.0115814208984375,-0.1316070556640625,-0.9949188232421876,0.0067923921160399,-0.0235964059829711,0.0061921156011521
1770453888448,0.01904296875,-0.128753662109375,-0.9912109375,0.0066006449051201,-0.0263703539967536,0.0051215249113738
1770453888458,0.021148681640625,-0.12603759765625,-0.9796600341796876,0.0004194478678982,-0.0217361878603696,0.0001206411980092
1770453888468,0.021148681640625,-0.1241455078125,-0.9713134765625,-0.0151616418734192,-0.0132058169692754,-0.0027976506389677
1770453888478,0.0229339599609375,-0.1262664794921875,-0.9730377197265624,-0.0238842945545911,-0.0059750680811703,-0.0040389499627053
1770453888488,0.0228729248046875,-0.1310272216796875,-0.982421875,-0.0247484892606735,-0.0102001735940575,-0.006899984087795
1770453888498,0.0253753662109375,-0.130096435546875,-0.9928741455078124,-0.0212118122726678,-0.015825567767024,-0.0042314967140555
1770453888508,0.02325439453125,-0.129913330078125,-0.993194580078125,-0.018149709329009,-0.0210150033235549,-0.0057092849165201
1770453888518,0.021148681640625,-0.12811279296875,-0.9906158447265624,-0.0193912740796804,-0.0223846677690744,-0.0068837385624647
1770453888528,0.023956298828125,-0.1267547607421875,-0.986053466796875,-0.0236379504203796,-0.0210722610354423,-0.0041968757286667
1770453888538,0.0241851806640625,-0.1272735595703125,-0.9850921630859376,-0.0294316578656435,-0.0142023712396621,-0.0001371527905575
1770453888548,0.023651123046875,-0.1312408447265625,-0.985809326171875,-0.0326492898166179,-0.0117320232093334,0.0010657970560714
1770453888558,0.022003173828125,-0.13031005859375,-0.986419677734375,-0.0343688912689685,-0.01282818056643,0.0041803638450801
1770453888568,0.0245819091796875,-0.1271820068359375,-0.9860687255859376,-0.0385101065039634,-0.0120803648605942,0.0049928943626582
1770453888578,0.02471923828125,-0.1290740966796875,-0.98272705078125,-0.0426848791539669,-0.0075833513401448,0.002919090911746
1770453888588,0.02423095703125,-0.1266326904296875,-0.9830780029296876,-0.0462447255849838,-0.0051380367949604,-0.0026868632994592
1770453888598,0.0259246826171875,-0.1273956298828125,-0.9847564697265624,-0.0479403622448444,-0.0066778762266039,-0.0006831008358858
1770453888608,0.025115966796875,-0.1279296875,-0.9892578125,-0.0455464459955692,-0.0039007319137454,-0.000916393706575
1770453888619,0.02386474609375,-0.1261444091796875,-0.9963531494140624,-0.0368927717208862,-0.0028977855108678,-0.0028903286438435
1770453888629,0.01800537109375,-0.1253814697265625,-1.0033416748046875,-0.0218621548265218,-0.0077295587398111,-0.0116065889596939
1770453888641,0.01580810546875,-0.1219024658203125,-1.00555419921875,-0.0095152081921696,-0.0160852260887622,-0.0156215699389576
1770453888649,0.019622802734375,-0.121246337890625,-0.999114990234375,-0.004946821834892,-0.0180647540837526,-0.0168226566165685
1770453888659,0.0198211669921875,-0.126068115234375,-0.9912872314453124,-0.0064563015475869,-0.0189451947808265,-0.0193140432238578
1770453888669,0.0243988037109375,-0.1287384033203125,-0.9837188720703124,-0.0117834229022264,-0.0185446552932262,-0.0190173666924238
1770453888679,0.0265655517578125,-0.1288909912109375,-0.9762115478515624,-0.0239743087440729,-0.0105109643191099,-0.014381069689989
1770453888689,0.0242767333984375,-0.129638671875,-0.977325439453125,-0.0313984043896198,-0.0054528224281966,-0.0100430464372038
1770453888699,0.023681640625,-0.125274658203125,-0.9844207763671876,-0.0361926257610321,-0.0030927290208637,-0.0060608219355344
1770453888709,0.02239990234375,-0.1212158203125,-0.9881744384765624,-0.0374150164425373,8.57537888805382e-05,-0.003785417182371
1770453888720,0.021087646484375,-0.120819091796875,-0.9896392822265624,-0.0372283272445201,0.0011137339752167,-0.0020663465838879
1770453888729,0.0192718505859375,-0.1171875,-0.990631103515625,-0.0347723625600338,0.0018381137633696,-0.0022770026698708
1770453888739,0.020751953125,-0.118011474609375,-0.99176025390625,-0.0286428295075893,0.0017611484508961,0.0006093312404118
1770453888749,0.021240234375,-0.11981201171875,-0.9936676025390624,-0.0197920799255371,0.0043486757203936,0.0021254688035696
1770453888759,0.017608642578125,-0.1211395263671875,-0.9977569580078124,-0.0097000319510698,0.0015606123488396,0.0029694247059524
1770453888769,0.019500732421875,-0.1201171875,-0.9978485107421876,0.0030138993170112,-0.0009243832319043,0.0041974079795181
1770453888779,0.0173492431640625,-0.1201324462890625,-0.9930572509765624,0.0087415594607591,-0.0038807583041489,-0.0007595335482619
1770453888789,0.0207061767578125,-0.12115478515625,-0.98504638671875,0.0012490225490182,-0.0041534658521413,-0.0015172028215602
1770453888799,0.023651123046875,-0.127777099609375,-0.977386474609375,-0.0090614054352045,-0.0015355786308646,0.0007355650886893
1770453888809,0.0255889892578125,-0.13653564453125,-0.9749755859375,-0.0222059693187475,1.3315805517777337e-05,0.0072675002738833
1770453888819,0.0283203125,-0.1319732666015625,-0.980804443359375,-0.0278667844831943,0.0034365430474281,0.0153621779754757
1770453888830,0.02142333984375,-0.1180877685546875,-0.9873809814453124,-0.0293283276259899,0.0011760519118979,0.0150455283001065
1770453888840,0.0095977783203125,-0.1108245849609375,-0.997955322265625,-0.0217255353927612,-0.00331936404109,-3.328951424919069e-05
1770453888850,0.0063018798828125,-0.1092071533203125,-1.0032806396484375,-0.0068778796121478,-0.0067103668116033,-0.0088384989649057
1770453888860,0.0106964111328125,-0.1119842529296875,-0.998016357421875,-0.0007065366371534,-0.0186136309057474,-0.0164242461323738
1770453888870,0.0144500732421875,-0.1222381591796875,-0.986236572265625,-0.0100355902686715,-0.0159174483269453,-0.0177816599607467
1770453888880,0.019287109375,-0.1357421875,-0.9854888916015624,-0.012401808053255,-0.0113061843439936,-0.0098872520029544
1770453888890,0.02935791015625,-0.1453399658203125,-0.9852752685546876,-0.012581305578351,-0.0143448505550622,0.0085301045328378
1770453888900,0.0327911376953125,-0.131134033203125,-0.99261474609375,-0.0059899818152189,-0.0049742520786821,0.0133408391848206
1770453888910,0.0198822021484375,-0.1068267822265625,-0.9955902099609376,0.0027601001784205,-0.0030690268613398,0.0029497172217816
1770453888920,0.010986328125,-0.105865478515625,-0.997711181640625,0.0099122859537601,-0.0104704843834042,-0.0090765859931707
1770453888930,0.0133514404296875,-0.11199951171875,-0.996612548828125,0.0145219508558511,-0.0168045461177825,-0.0210823826491832
1770453888942,0.0187835693359375,-0.116790771484375,-0.9931640625,0.0148545801639556,-0.0200567990541458,-0.0270191002637147
1770453888950,0.0201263427734375,-0.1173248291015625,-0.9868316650390624,0.0089767174795269,-0.0203036740422248,-0.0307853426784276
1770453888960,0.017120361328125,-0.1169281005859375,-0.985595703125,0.0078941415995359,-0.0189473256468772,-0.02861406840384
1770453888970,0.020782470703125,-0.11822509765625,-0.9883880615234376,0.0107146957889199,-0.0228962618857622,-0.0192514583468437
1770453888980,0.01300048828125,-0.1326141357421875,-0.9923095703125,0.0088864360004663,-0.0215028952807188,-0.0160657856613397
1770453888990,0.0197906494140625,-0.1305694580078125,-0.987030029296875,-0.0015345134306699,-0.0188317447900772,-0.0034288198221474
1770453889000,0.0306549072265625,-0.1290283203125,-0.9828643798828124,-0.0157097205519676,-0.008839564397931,0.0086619313806295
1770453889010,0.0287017822265625,-0.12567138671875,-0.9775390625,-0.0303818732500076,0.0087604681029915,0.013776266016066
1770453889020,0.0245819091796875,-0.1222076416015625,-0.9811553955078124,-0.0374669469892978,0.0170285180211067,0.0114755611866712
1770453889030,0.0200653076171875,-0.115631103515625,-0.9892425537109376,-0.0379742793738842,0.0234954729676246,0.0046192528679966
1770453889041,0.0163726806640625,-0.1134490966796875,-0.9985504150390624,-0.0276968758553266,0.0196338891983032,-0.0007014766451902
1770453889050,0.0149078369140625,-0.11761474609375,-1.0046844482421875,-0.014430072158575,0.0129948947578668,-0.0066725499927997
1770453889061,0.0135650634765625,-0.1212158203125,-1.005035400390625,-0.0008258462767116,0.0085522094741463,-0.0070824106223881
1770453889071,0.014892578125,-0.123260498046875,-1.0020599365234375,0.0124577349051833,0.002861033892259,-0.0082049332559108
1770453889081,0.01611328125,-0.1178436279296875,-0.9980316162109376,0.0173377115279436,0.0015161376213654,-0.0088068069890141
1770453889091,0.011199951171875,-0.1205596923828125,-0.9952239990234376,0.02516820281744,-0.0002777676854748,-0.0136668095365166
1770453889101,0.0106658935546875,-0.1260528564453125,-0.9942474365234376,0.0353800952434539,-0.0064299362711608,-0.0163174550980329
1770453889111,0.0166015625,-0.1199493408203125,-0.9919891357421876,0.0378621593117713,-0.0130122052505612,-0.0110113723203539
1770453889121,0.019134521484375,-0.1196746826171875,-0.9857940673828124,0.0301616303622722,-0.0116004636511206,-0.0128055438399314
1770453889131,0.017791748046875,-0.1191864013671875,-0.9816436767578124,0.0219793338328599,-0.0066922572441399,-0.0128191262483596
1770453889141,0.0176239013671875,-0.1164703369140625,-0.978515625,0.0122420191764831,-0.000105993807665,-0.0126180574297904
1770453889151,0.01947021484375,-0.1192169189453125,-0.9777374267578124,0.0039539951831102,-0.0028767467010766,-0.0125352330505847
1770453889161,0.020965576171875,-0.1217498779296875,-0.980377197265625,-0.0036330842413008,-0.006058691535145,-0.012246279977262
1770453889173,0.0241241455078125,-0.124176025390625,-0.9822540283203124,-0.0129482895135879,-0.0063697486184537,-0.0101024350151419
1770453889181,0.0240020751953125,-0.1240234375,-0.9818572998046876,-0.0192072503268718,-0.006033391226083,-0.0074496604502201
1770453889191,0.02301025390625,-0.1243743896484375,-0.9820709228515624,-0.0232794899493455,-0.0036943370942026,-0.0035995284561067
1770453889201,0.0214691162109375,-0.124847412109375,-0.983795166015625,-0.0262369308620691,-0.0025126924738287,0.0006559365428984
1770453889211,0.01953125,-0.1255645751953125,-0.9895172119140624,-0.0249295849353075,-0.0066938553936779,0.0056605488061904
1770453889222,0.0191192626953125,-0.1280975341796875,-0.990081787109375,-0.0272864811122417,-0.0111493235453963,0.0097839208319783
1770453889231,0.020050048828125,-0.1262359619140625,-0.9883575439453124,-0.0326974913477897,-0.0110318781808018,0.0127448234707117
1770453889242,0.0172271728515625,-0.1252593994140625,-0.985809326171875,-0.0386488586664199,-0.0077055902220308,0.0142218125984072
1770453889251,0.016510009765625,-0.122833251953125,-0.9882354736328124,-0.0400731191039085,-0.0056115468032658,0.0149733563885092
1770453889261,0.01416015625,-0.120391845703125,-0.9916229248046876,-0.0389287583529949,-0.0070469905622303,0.0137333888560533
1770453889272,0.01165771484375,-0.117706298828125,-0.9967803955078124,-0.0340924561023712,-0.0065487129613757,0.0095130773261189
1770453889282,0.011444091796875,-0.1148529052734375,-0.9992523193359376,-0.0283951554447412,-0.0069657638669013,0.0043111252598464
1770453889292,0.01153564453125,-0.111846923828125,-0.999542236328125,-0.0222240798175334,-0.0062275356613099,-0.0011190603254362
1770453889302,0.0124359130859375,-0.11383056640625,-1.001495361328125,-0.01259755063802,-0.0052831787616014,-0.004652542527765
1770453889312,0.0099334716796875,-0.11907958984375,-1.0027618408203125,-0.0002663161139935,-0.0110758207738399,-0.0079087894409894
1770453889322,0.01177978515625,-0.1212005615234375,-1.00244140625,0.0118276309221982,-0.010413758456707,-0.0069388663396239
1770453889332,0.014129638671875,-0.1232757568359375,-0.9993133544921876,0.0203252453356981,-0.0106486491858959,-0.0075889439322054
1770453889342,0.0155792236328125,-0.122406005859375,-0.99609375,0.0248824469745159,-0.0156458057463169,-0.0043513388372957
1770453889352,0.013580322265625,-0.1225433349609375,-0.9934234619140624,0.0253748651593923,-0.0145919919013977,-0.0025337315164506
1770453889362,0.016265869140625,-0.12066650390625,-0.9880828857421876,0.0215319227427244,-0.0114244287833571,-0.0022887205705046
1770453889372,0.017333984375,-0.120635986328125,-0.9849090576171876,0.0161872263997793,-0.0079047949984669,-0.0016719325212761
1770453889382,0.01409912109375,-0.1224517822265625,-0.9824066162109376,0.0109426621347665,-0.0080962758511304,-0.0023987090680748
1770453889392,0.0162200927734375,-0.1205291748046875,-0.978302001953125,0.002568086143583,-0.0101325288414955,-0.0039228363893926
1770453889402,0.0160980224609375,-0.1181640625,-0.9759063720703124,-0.0079905483871698,-0.0025329324416816,0.0008261125767603
1770453889412,0.0137481689453125,-0.11724853515625,-0.9769744873046876,-0.0211604125797748,0.0039502666331827,-0.0017076188232749
1770453889422,0.011962890625,-0.116363525390625,-0.9795074462890624,-0.0256017670035362,0.004416053649038,-0.0046911584213376
1770453889432,0.0115966796875,-0.1167144775390625,-0.984222412109375,-0.0263956543058156,0.0007579356315545,-0.006009423173964
1770453889442,0.009979248046875,-0.1177520751953125,-0.9926910400390624,-0.019220033660531,-0.0037651772145181,-0.008339955471456
1770453889452,0.0081024169921875,-0.116180419921875,-1.0005950927734375,-0.0099301282316446,-0.0064797373488545,-0.0093602119013667
1770453889462,0.0112152099609375,-0.1251678466796875,-1.0007781982421875,-0.0027121631428599,-0.0167283806949853,-0.0101024350151419
1770453889473,0.0176239013671875,-0.129486083984375,-0.993927001953125,-0.0032525185961276,-0.0188961923122406,-0.0051084756851196
1770453889482,0.0225677490234375,-0.1245574951171875,-0.98785400390625,-0.008469651453197,-0.0171539522707462,0.0010785802733153
1770453889493,0.0166015625,-0.117919921875,-0.98529052734375,-0.0147624341771006,-0.0109895337373018,-0.0051039480604231
1770453889503,0.0088348388671875,-0.1143951416015625,-0.9894561767578124,-0.0109501192346215,-0.0041113882325589,-0.0167579408735036
1770453889513,0.008819580078125,-0.1103057861328125,-0.9935302734375,-0.0007518103811889,-0.0092584798112511,-0.0249397046864032
1770453889523,0.0101318359375,-0.1163177490234375,-0.992156982421875,0.002054096199572,-0.0188722237944602,-0.0318412855267524
1770453889533,0.015960693359375,-0.1253509521484375,-0.9898681640625,-0.0009065400226972,-0.0111509216949343,-0.0296231396496295
1770453889543,0.0211639404296875,-0.1388702392578125,-0.9844818115234376,-0.0066033080220222,-0.0100702112540602,-0.0193345490843057
1770453889553,0.027008056640625,-0.144073486328125,-0.983428955078125,-0.0071417992003262,-0.0050847735255956,-0.0009203884401358
1770453889563,0.027130126953125,-0.1193389892578125,-0.986572265625,-0.0057614827528595,0.0046661244705319,0.0045574675314128
1770453889573,0.00946044921875,-0.1055450439453125,-0.9948883056640624,0.0046197855845093,0.0087197218090295,-0.0088917622342705
1770453889583,0.001953125,-0.1031494140625,-1.003570556640625,0.0202528070658445,-0.0006527407676912,-0.0251847151666879
1770453889593,0.0050811767578125,-0.105804443359375,-1.0092926025390625,0.0325179956853389,-0.0142340632155537,-0.0377838648855686
1770453889603,0.0097198486328125,-0.1120758056640625,-1.0047607421875,0.0381708219647407,-0.0232571195811033,-0.0492732748389244
1770453889613,0.0120391845703125,-0.11431884765625,-0.995330810546875,0.0345483906567096,-0.0200751740485429,-0.0506365448236465
1770453889623,0.0156097412109375,-0.1173858642578125,-0.9853973388671876,0.0194959361106157,-0.0118260327726602,-0.0442100726068019
1770453889633,0.0189666748046875,-0.1244354248046875,-0.978851318359375,0.0039324234239757,0.0021803299896419,-0.0363028794527053
1770453889643,0.022796630859375,-0.1320953369140625,-0.9786834716796876,-0.0100331930443644,0.0026061693206429,-0.0198765024542808
1770453889654,0.0274810791015625,-0.1337738037109375,-0.9822998046875,-0.020002469420433,0.0028442561160773,-0.0047276434488594
1770453889663,0.026763916015625,-0.1329193115234375,-0.9855804443359376,-0.0274428091943264,0.010619887150824,0.0074427360668778
1770453889674,0.025054931640625,-0.12677001953125,-0.9854736328125,-0.0348085798323154,0.0187156312167644,0.0110910004004836
1770453889683,0.02105712890625,-0.1196136474609375,-0.9874420166015624,-0.0392677783966064,0.0273637138307094,0.0100268013775348
1770453889694,0.0163726806640625,-0.115142822265625,-0.9931182861328124,-0.0372592210769653,0.0324285142123699,0.0037430729717016
1770453889703,0.0114593505859375,-0.113494873046875,-1.0025177001953125,-0.0289610773324966,0.0270830169320106,-0.0036048549227416
1770453889714,0.00872802734375,-0.115631103515625,-1.0061798095703125,-0.014756042510271,0.0193816870450973,-0.0081386202946305
1770453889724,0.0068817138671875,-0.1179656982421875,-1.0043487548828125,0.0008599347202107,0.0106734167784452,-0.013121660798788
1770453889734,0.0103759765625,-0.1193389892578125,-1.002685546875,0.0144428554922342,0.0023273364640772,-0.0119389509782195
1770453889744,0.0104217529296875,-0.117340087890625,-0.99774169921875,0.0282028764486312,0.0019361181184649,-0.0111357420682907
1770453889755,0.011688232421875,-0.120330810546875,-0.9947967529296876,0.0347031205892562,0.0045686527155339,-0.008984706364572
1770453889764,0.0130462646484375,-0.121917724609375,-0.9939117431640624,0.043461725115776,0.0041622542776167,-0.0108678275719285
1770453889774,0.0133514404296875,-0.118896484375,-0.9922637939453124,0.0496040396392345,-0.0027883297298103,-0.0103064337745308
1770453889784,0.01458740234375,-0.11700439453125,-0.987884521484375,0.0480487532913684,-0.0032767534721642,-0.0079037295654416
1770453889794,0.0142364501953125,-0.1151580810546875,-0.9813690185546876,0.0366458967328071,0.005110606085509,-0.0121730426326394
1770453889804,0.0126190185546875,-0.1158447265625,-0.975921630859375,0.0238118562847375,0.0066579026170074,-0.0167041458189487
1770453889814,0.0147857666015625,-0.1192169189453125,-0.9747772216796876,0.0097500989213585,0.0031143005471676,-0.0171779207885265
1770453889824,0.016357421875,-0.122314453125,-0.975982666015625,0.0010689928894862,-0.0009339706157334,-0.0156620498746633
1770453889834,0.01885986328125,-0.123626708984375,-0.9791412353515624,-0.0095764612779021,-0.0029979203827679,-0.0076113143004477
1770453889844,0.016448974609375,-0.1215362548828125,-0.981292724609375,-0.0188386682420969,-0.000372043607058,-0.0029694247059524
1770453889855,0.0133209228515625,-0.12347412109375,-0.9830780029296876,-0.0223140940070152,-0.0017574200173839,-0.0015627428656443
1770453889864,0.0165557861328125,-0.121185302734375,-0.986968994140625,-0.0219481755048036,-0.0039196405559778,0.0005028048180975
1770453889875,0.01873779296875,-0.12255859375,-0.986968994140625,-0.0290894415229558,-0.0006348976166918,0.0072286180220544
1770453889884,0.020294189453125,-0.1230926513671875,-0.9843292236328124,-0.0374408476054668,0.0061127534136176,0.0121131222695112
1770453889894,0.0190277099609375,-0.1246185302734375,-0.984039306640625,-0.0422710254788398,0.0103559680283069,0.0139264678582549
1770453889904,0.018463134765625,-0.1226043701171875,-0.9894866943359376,-0.0420097671449184,0.0160514041781425,0.0166764482855796
1770453889915,0.0175933837890625,-0.1212310791015625,-0.9957275390625,-0.0356876887381076,0.0171153377741575,0.0192059185355901
1770453889925,0.0155029296875,-0.1218109130859375,-1.0005340576171875,-0.0251708664000034,0.0134553546085953,0.0168444942682981
1770453889935,0.014617919921875,-0.123046875,-1.0038299560546875,-0.015396000817418,0.0095287906005978,0.0143991792574524
1770453889945,0.0185394287109375,-0.1215667724609375,-0.9974822998046876,-0.0104108294472098,0.0073431339114904,0.0178146827965974
1770453889955,0.01812744140625,-0.1217193603515625,-0.992584228515625,-0.0091223921626806,0.0122777055948972,0.0184844676405191
1770453889965,0.01611328125,-0.12493896484375,-0.9970855712890624,-0.0011922972043976,0.0129245873540639,0.0177683439105749
1770453889975,0.015960693359375,-0.1279754638671875,-1.00030517578125,0.0057553574442863,0.0108121680095791,0.0199183151125907
1770453889985,0.015106201171875,-0.12701416015625,-1.002349853515625,0.0145216844975948,0.0098427766934037,0.0212743952870368
1770453889995,0.013916015625,-0.1257171630859375,-1.0031280517578125,0.0256531648337841,0.0064459149725735,0.0222054366022348
1770453890005,0.0126800537109375,-0.124755859375,-0.999603271484375,0.0352501310408115,-0.0001193096177303,0.0168522167950868
1770453890015,0.01251220703125,-0.12103271484375,-0.99609375,0.0394829623401165,-0.0043734433129429,0.0124342991039156
1770453890025,0.013519287109375,-0.116973876953125,-0.9883880615234376,0.035433892160654,0.000113716974738,0.0078193070366978
1770453890035,0.0128936767578125,-0.115692138671875,-0.9833526611328124,0.0280324332416057,0.0083093289285898,0.0050911651924252
1770453890045,0.010894775390625,-0.1192779541015625,-0.981689453125,0.0242185201495885,0.0132050178945064,0.0036312201991677
1770453890055,0.010986328125,-0.1180877685546875,-0.9848175048828124,0.023849407210946,0.0146391298621892,0.0050887679681181
1770453890065,0.0123291015625,-0.120361328125,-0.988128662109375,0.0226427279412746,0.0119735719636082,0.005347094964236
1770453890075,0.013336181640625,-0.122802734375,-0.985992431640625,0.0187518503516912,0.0062496401369571,0.0068690911866724
1770453890085,0.016998291015625,-0.12213134765625,-0.9781341552734376,0.0105679556727409,0.007390271872282,0.0086763128638267
1770453890095,0.0178680419921875,-0.1227874755859375,-0.9726104736328124,-0.0037811561487615,0.0138963740319013,0.010562895797193
1770453890105,0.018524169921875,-0.1244049072265625,-0.9746551513671876,-0.0146116996183991,0.019648004323244,0.0094635430723428
1770453890115,0.0196075439453125,-0.12921142578125,-0.9798126220703124,-0.0222602989524602,0.0232003945857286,0.0106622315943241
1770453890126,0.0172271728515625,-0.1325836181640625,-0.9918212890625,-0.0179920494556427,0.0177944432944059,0.0127445571124553
1770453890136,0.0185699462890625,-0.1270751953125,-0.9982757568359376,-0.008299209177494,0.0110278837382793,0.0142870601266622
1770453890146,0.01495361328125,-0.1166839599609375,-0.996826171875,-0.0084315678104758,0.0109724896028637,0.0107597038149833
1770453890156,0.0084991455078125,-0.117034912109375,-0.9940338134765624,-0.0067290090955793,0.0145443212240934,-0.006539658177644
1770453890166,0.009002685546875,-0.1164398193359375,-0.9939422607421876,0.0055223307572305,0.0141094271093606,-0.015286810696125
1770453890176,0.01312255859375,-0.1197509765625,-0.98870849609375,0.0073806843720376,0.005739111918956,-0.0175496991723775
1770453890186,0.015106201171875,-0.12310791015625,-0.98602294921875,0.0013044163351878,0.0138665474951267,-0.0236328914761543
1770453890196,0.0133056640625,-0.134185791015625,-0.986663818359375,-0.0002500708214938,0.0105032408609986,-0.020755611360073
1770453890207,0.022552490234375,-0.145782470703125,-0.98583984375,-0.0003976099542342,-0.0012708604335784,-0.0064794709905982
1770453890216,0.03369140625,-0.1336212158203125,-0.9832000732421876,-0.0088174603879451,0.0104281399399042,0.0059875850565731
1770453890226,0.0234527587890625,-0.1115875244140625,-0.984100341796875,-0.0161089282482862,0.0229487251490354,0.0002830940356943
1770453890236,0.0097503662109375,-0.108245849609375,-0.986328125,-0.0127624003216624,0.0230531208217144,-0.0138412471860647
1770453890246,0.00994873046875,-0.1105499267578125,-0.9930877685546876,-0.0056826532818377,0.0148468567058444,-0.0224206205457448
1770453890256,0.01483154296875,-0.116485595703125,-1.001800537109375,-0.0006191849242895,0.0110755544155836,-0.0332106836140155
1770453890266,0.0159454345703125,-0.1192779541015625,-0.9987030029296876,0.0042962115257978,0.0057929079048335,-0.0362916961312294
1770453890276,0.01678466796875,-0.121551513671875,-0.9899749755859376,0.0012618057662621,0.0099575594067573,-0.034395258873701
1770453890286,0.0150909423828125,-0.1260223388671875,-0.9904937744140624,0.0056259278208017,0.0130588104948401,-0.030229540541768
1770453890296,0.0196990966796875,-0.1310272216796875,-0.996673583984375,0.0111738247796893,0.009705358184874,-0.0187715571373701
1770453890306,0.0245819091796875,-0.139373779296875,-0.9994049072265624,0.0135384453460574,0.0037326866295188,-0.0054818508215248
1770453890316,0.027008056640625,-0.1397552490234375,-0.994354248046875,0.0121613247320055,0.0047398940660059,0.0096363816410303
1770453890326,0.0286712646484375,-0.13519287109375,-0.9853363037109376,0.002305498579517,0.0103833982720971,0.0194682404398918
1770453890337,0.0254058837890625,-0.1293487548828125,-0.9802398681640624,-0.011903797276318,0.0218043643981218,0.0180700812488794
1770453890346,0.0227813720703125,-0.1250152587890625,-0.9790496826171876,-0.0235937424004077,0.0285046119242906,0.0149475242942571
1770453890357,0.0200347900390625,-0.1237640380859375,-0.98187255859375,-0.0307097099721431,0.0340365283191204,0.0084068002179265
1770453890367,0.016265869140625,-0.1262054443359375,-0.988433837890625,-0.0287253875285387,0.0328474268317222,0.0049670618027448
1770453890377,0.014739990234375,-0.1269378662109375,-0.9957122802734376,-0.0170863084495067,0.0260326657444238,0.0055747949518263
1770453890387,0.0129547119140625,-0.1234283447265625,-1.002471923828125,-0.000291083502816,0.0180895216763019,0.0070339408703148
1770453890397,0.0105133056640625,-0.1202239990234375,-1.00653076171875,0.0221082307398319,0.010539193637669,0.0061271348968148
1770453890407,0.0121612548828125,-0.12408447265625,-1.0060882568359375,0.0404315777122974,0.006394516211003,0.0092068137601017
1770453890417,0.0149993896484375,-0.1258697509765625,-1.0036773681640625,0.0617712214589118,0.0038328215014189,0.0110411997884511
1770453890427,0.0180511474609375,-0.123779296875,-1.0012664794921875,0.0728209465742111,-0.0025939189363271,0.0107272127643227
1770453890437,0.0193023681640625,-0.1246337890625,-0.99102783203125,0.0741953998804092,-0.0052387039177119,0.0068768146447837
1770453890447,0.0207366943359375,-0.1237945556640625,-0.9729461669921876,0.0612228773534297,-0.0003869573120027,0.0009150621481239
1770453890457,0.019683837890625,-0.1255340576171875,-0.9620208740234376,0.0351619832217693,0.0091950958594679,-0.001561944023706
1770453890467,0.0222320556640625,-0.1290130615234375,-0.9574127197265624,0.0002266350056743,0.013710219413042,-0.0038456046022474
1770453890477,0.0194091796875,-0.1326141357421875,-0.9580230712890624,-0.0290343146771192,0.0114236297085881,-0.002560363151133
1770453890488,0.018951416015625,-0.128509521484375,-0.9665679931640624,-0.0483970940113067,0.0133624104782938,0.0001134506601374
1770453890497,0.01593017578125,-0.124908447265625,-0.978057861328125,-0.0561218596994876,0.0119823608547449,0.0015648734988644
1770453890508,0.0129547119140625,-0.1237945556640625,-0.9884185791015624,-0.0550629869103431,0.0085985483601689,0.0018037590198218
1770453890517,0.0167999267578125,-0.1235198974609375,-0.997955322265625,-0.0464484579861164,0.0019520970527082,0.0031662322580814
1770453890527,0.0206451416015625,-0.12652587890625,-1.0015869140625,-0.0356485396623611,-0.0028413266409188,0.0044706487096846
1770453890537,0.023712158203125,-0.1280059814453125,-0.996826171875,-0.0300740133970975,-0.0003480751474853,0.0103312004357576
1770453890547,0.0267181396484375,-0.130157470703125,-0.99139404296875,-0.0262635610997676,0.0074800206348299,0.0122518725693225
1770453890558,0.0274200439453125,-0.1292724609375,-0.9906463623046876,-0.0245109349489212,0.0140114231035113,0.0125951543450355
1770453890568,0.0262603759765625,-0.1284027099609375,-0.9928131103515624,-0.0192133747041225,0.0150521863251924,0.0147946588695049
1770453890578,0.0242462158203125,-0.126190185546875,-0.9987945556640624,-0.0113325491547584,0.0134942373260855,0.0135272601619362
1770453890588,0.0223846435546875,-0.1260223388671875,-1.0001373291015625,-0.002863164525479,0.0099152149632573,0.012345615774393
1770453890598,0.0227203369140625,-0.12628173828125,-0.9955291748046876,0.0020993698853999,0.009468070231378,0.0091823134571313
1770453890608,0.0199737548828125,-0.1249847412109375,-0.9912567138671876,0.0042416164651513,0.0118350880220532,0.0098755341023206
1770453890618,0.020965576171875,-0.125152587890625,-0.98828125,0.0027824707794934,0.0159368887543678,0.0092520881444215
1770453890628,0.016510009765625,-0.1266632080078125,-0.98797607421875,0.004381965380162,0.0156713705509901,0.0091290501877665
1770453890639,0.0157470703125,-0.1275787353515625,-0.992218017578125,0.0088182585313916,0.012033493258059,0.0083095952868461
1770453890648,0.0125885009765625,-0.128265380859375,-0.993072509765625,0.0132170021533966,0.0081207770854234,0.0039444076828658
1770453890658,0.014068603515625,-0.128509521484375,-0.989776611328125,0.0155302239581942,0.001634914544411,0.0031992553267627
1770453890668,0.01568603515625,-0.1259765625,-0.9853363037109376,0.0096851177513599,0.0006191849242895,-0.0011203918838873
1770453890678,0.0175628662109375,-0.12811279296875,-0.9814605712890624,0.0037468012887984,0.004145476501435,-0.0023268037475645
1770453890689,0.02227783203125,-0.1297149658203125,-0.980194091796875,-0.0045896917581558,0.0074544539675116,-0.0048924931325018
1770453890698,0.0232696533203125,-0.127899169921875,-0.9816741943359376,-0.0115631790831685,0.0119370864704251,-0.0012053466634824
1770453890709,0.02325439453125,-0.1284332275390625,-0.9872589111328124,-0.0139437783509492,0.0174815226346254,-0.0012170645641162
1770453890718,0.0191192626953125,-0.127838134765625,-0.9973907470703124,-0.0027332021854817,0.0159262362867593,0.0018540926976129
1770453890728,0.0163421630859375,-0.1255645751953125,-1.004974365234375,0.0120302978903055,0.0107389306649565,0.0022868562955409
1770453890739,0.0165863037109375,-0.1236419677734375,-1.0042572021484375,0.0269131064414978,0.0029814087320119,0.0012602078495547
1770453890748,0.01812744140625,-0.1236419677734375,-0.995391845703125,0.0311139766126871,-0.0017294568242505,-0.0006447513005696
1770453890759,0.021209716796875,-0.1290130615234375,-0.9854736328125,0.0264502502977848,0.0016982977977022,-0.0028016455471515
1770453890768,0.0248260498046875,-0.134368896484375,-0.9815216064453124,0.0191297531127929,0.0071303476579487,0.0027286747936159
1770453890779,0.0272064208984375,-0.1330718994140625,-0.9802093505859376,0.0115823540836572,0.005560147576034,0.0049939597956836
1770453890789,0.0234222412109375,-0.1247406005859375,-0.9799652099609376,0.0030197582673281,0.00504429358989,0.0037310887128114
1770453890799,0.015533447265625,-0.11468505859375,-0.9821624755859376,-0.0045651905238628,0.0066467174328863,-0.0037622477393597
1770453890809,0.008880615234375,-0.11932373046875,-0.9881591796875,-0.0031529164407402,0.013792511075735,-0.0123253753408789
1770453890819,0.014862060546875,-0.1201019287109375,-0.9884033203125,0.0050522829405963,0.0040341564454138,-0.0163235794752836
1770453890829,0.0181884765625,-0.122314453125,-0.9835357666015624,0.00285464245826,0.0009978864109143,-0.0210877079516649
1770453890839,0.022857666015625,-0.135650634765625,-0.9824676513671876,-0.0024069650098681,0.0058320565149188,-0.0156282279640436
1770453890849,0.0306243896484375,-0.1477508544921875,-0.9838104248046876,0.0018053569365292,0.0044866274110972,0.0017105482984334
1770453890859,0.03753662109375,-0.1473846435546875,-0.9833831787109376,0.0060634850524365,0.0056131444871425,0.0160133205354213
1770453890869,0.0297698974609375,-0.121551513671875,-0.9852447509765624,0.0075231636874377,0.0170431658625602,0.0146465869620442
1770453890879,0.014556884765625,-0.1085205078125,-0.9858245849609376,0.0062866578809916,0.0157624520361423,0.0007866977830417
1770453890889,0.0112457275390625,-0.1134033203125,-0.9833221435546876,0.0025001754984259,0.0051231230609118,-0.0152790872380137
1770453890899,0.0134429931640625,-0.119537353515625,-0.981048583984375,-0.0075679048895835,0.0002154497342417,-0.0225569736212492
1770453890909,0.0185546875,-0.1241607666015625,-0.975128173828125,-0.0224014464765787,-0.0011267834343016,-0.0268915351480245
1770453890919,0.0152587890625,-0.12420654296875,-0.9687652587890624,-0.0388589836657047,0.0014429006259888,-0.0292039588093757
1770453890929,0.012542724609375,-0.1247406005859375,-0.9735260009765624,-0.0520490854978561,0.0039635826833546,-0.0282127298414707
1770453890939,0.015411376953125,-0.1266326904296875,-0.9842681884765624,-0.0536043718457222,0.0031092404387891,-0.0235884170979261
1770453890949,0.0256195068359375,-0.1327056884765625,-0.99359130859375,-0.050731886178255,-0.0025611619930714,-0.0156311579048633
1770453890959,0.030487060546875,-0.1351776123046875,-0.998382568359375,-0.0482506193220615,-0.0016940367640927,-0.0050586746074259
1770453890969,0.032440185546875,-0.13427734375,-0.996734619140625,-0.0473238378763198,0.0047079361975193,0.0009475527331233
1770453890980,0.0318450927734375,-0.1290283203125,-0.9950103759765624,-0.0408917739987373,0.0114159062504768,0.0023675502743571
1770453890990,0.0277252197265625,-0.1257476806640625,-0.9965972900390624,-0.0332162752747535,0.0155059890821576,-0.0021885856986045
1770453891000,0.0237274169921875,-0.123443603515625,-0.998382568359375,-0.0203508120030164,0.0182362608611583,-0.0054666707292199
1770453891010,0.022003173828125,-0.125457763671875,-1.0007476806640625,-0.0079716397449374,0.0130249885842204,-0.0081428810954093
1770453891020,0.0193939208984375,-0.1271209716796875,-0.9996795654296876,0.0043808999471366,0.0068688248284161,-0.0067785438150167
1770453891030,0.017822265625,-0.1249847412109375,-0.9965667724609376,0.0114153735339641,0.0040429448708891,-0.0115384114906191
1770453891042,0.014251708984375,-0.1218414306640625,-0.9952392578125,0.0213742647320032,-0.0034125745296478,-0.0146172922104597
1770453891050,0.0127716064453125,-0.1231536865234375,-0.990478515625,0.0208482909947633,-0.0102672846987843,-0.0174096170812845
1770453891060,0.0152587890625,-0.1292572021484375,-0.986236572265625,0.0196589231491088,-0.0145421912893652,-0.0195079203695058
1770453891070,0.0201568603515625,-0.1296539306640625,-0.9832763671875,0.0105370627716183,-0.0086946878582239,-0.023426229134202
1770453891080,0.0247650146484375,-0.124969482421875,-0.9763641357421876,-0.0009432916413061,-0.0102329300716519,-0.0222389921545982
1770453891090,0.025177001953125,-0.120513916015625,-0.972412109375,-0.0149967921897768,-0.0009797769598662,-0.022965770214796
1770453891100,0.0243988037109375,-0.121917724609375,-0.9756011962890624,-0.0212227310985326,0.0048213866539299,-0.0210690665990114
1770453891110,0.0225982666015625,-0.12542724609375,-0.9854736328125,-0.0226895995438098,0.0015475628897547,-0.0188511852174997
1770453891120,0.025054931640625,-0.1251373291015625,-0.9922637939453124,-0.0189169663935899,-0.0030541131272912,-0.0126867666840553
1770453891130,0.02294921875,-0.12237548828125,-0.9965057373046876,-0.0132918367162346,-0.0040392163209617,-0.0108513161540031
1770453891140,0.0204010009765625,-0.1220703125,-1.000640869140625,-0.0063188821077346,-0.0068989186547696,-0.0078733693808317
1770453891150,0.0235595703125,-0.1200408935546875,-1.0006256103515625,0.0026959178503602,-0.0102212121710181,-0.0043364251032471
1770453891160,0.02764892578125,-0.1219635009765625,-0.99468994140625,0.0032772859558463,-0.0070533822290599,-0.001800563186407
1770453891170,0.02886962890625,-0.1274566650390625,-0.9851226806640624,0.0008644621120765,-0.0035459990613162,0.001914812834002
1770453891181,0.03021240234375,-0.1281890869140625,-0.9786376953125,-0.0076872142963111,0.0025659557431936,0.0054027549922466
1770453891191,0.02789306640625,-0.126922607421875,-0.9759979248046876,-0.0154258282855153,0.0139613552019,0.0037824877072125
1770453891200,0.02459716796875,-0.12506103515625,-0.982147216796875,-0.0215803924947977,0.0153464656323194,0.006656571291387
1770453891211,0.0225982666015625,-0.12078857421875,-0.9880523681640624,-0.0196320246905088,0.0147885335609316,0.0048754489980638
1770453891221,0.0207672119140625,-0.1203155517578125,-0.9936981201171876,-0.0145491156727075,0.0140276681631803,0.0047380300238728
1770453891231,0.023101806640625,-0.1187744140625,-0.995452880859375,-0.0100350575521588,0.013840714469552,0.0044144559651613
1770453891241,0.0231781005859375,-0.12078857421875,-0.9957275390625,-0.0038152446504682,0.015419702976942,0.0046852994710206
1770453891251,0.0244598388671875,-0.124664306640625,-0.99462890625,0.0050176619552075,0.0133629431948065,0.005953496787697
1770453891261,0.02606201171875,-0.125152587890625,-0.9933013916015624,0.0099117532372474,0.0128819765523076,0.0074802869930863
1770453891271,0.0228271484375,-0.1260986328125,-0.990234375,0.0126204537227749,0.0109146991744637,0.0081692468374967
1770453891281,0.0253448486328125,-0.125885009765625,-0.9868621826171876,0.0120028667151927,0.0058738682419061,0.0087668597698211
1770453891291,0.0222320556640625,-0.1268310546875,-0.983795166015625,0.0118100540712475,0.0074280886910855,0.0056152748875319
1770453891301,0.0216522216796875,-0.1241455078125,-0.983917236328125,0.0059257997199893,0.0065215486101806,0.0049588060937821
1770453891311,0.0204620361328125,-0.1246185302734375,-0.983123779296875,0.005003813188523,0.0070451265200972,0.0055428370833396
1770453891322,0.0213775634765625,-0.1240234375,-0.984100341796875,-0.0010266485624015,0.0054933023639023,0.0060344566591084
1770453891331,0.0214996337890625,-0.1217193603515625,-0.9834136962890624,-0.0065250108018517,0.0076504629105329,0.0044440170750021
1770453891342,0.0209197998046875,-0.1232147216796875,-0.9843597412109376,-0.0125687886029481,0.0061670821160078,0.0047691888175904
1770453891351,0.0228729248046875,-0.125762939453125,-0.9895172119140624,-0.0145480502396821,0.0053052832372486,0.0089359702542424
1770453891361,0.0242156982421875,-0.12713623046875,-0.9929046630859376,-0.0109330751001834,0.0078081218525767,0.0119370864704251
1770453891372,0.0233154296875,-0.1263580322265625,-0.99578857421875,-0.0056166066788136,0.0068073058500885,0.0114593161270022
1770453891381,0.0214996337890625,-0.1262054443359375,-0.99456787109375,-4.6072687837295234e-05,0.0037723677232861,0.0108619686216115
1770453891391,0.021636962890625,-0.1259613037109375,-0.9916534423828124,-0.0005113269435241,-0.000776844099164,0.0101213436573743
1770453891402,0.023651123046875,-0.130401611328125,-0.98468017578125,-0.0055747949518263,-0.0036674391012638,0.0077330209314823
1770453891412,0.0289764404296875,-0.1345062255859375,-0.97991943359375,-0.0164516773074865,-0.0019347865600138,0.0134809212759137
1770453891422,0.0294036865234375,-0.12786865234375,-0.975799560546875,-0.0281685218214988,0.0043516051955521,0.0140686808153986
1770453891432,0.021728515625,-0.1172027587890625,-0.9783477783203124,-0.0362610667943954,0.0080483388155698,0.0053622745908796
1770453891442,0.0098724365234375,-0.113250732421875,-0.9890899658203124,-0.0340873971581459,0.0098246671259403,-0.0088712554425001
1770453891452,0.00787353515625,-0.11810302734375,-0.99603271484375,-0.0189230907708406,0.0048940912820398,-0.0144913243129849
1770453891462,0.0128173828125,-0.11859130859375,-0.9994354248046876,-0.0054104779846966,-0.0098036285489797,-0.0197460073977708
1770453891472,0.0143890380859375,-0.130096435546875,-0.9983673095703124,-0.0034479945898056,-0.0136961042881011,-0.0209923665970563
1770453891482,0.0226287841796875,-0.1408233642578125,-0.9932708740234376,0.0019936424214392,-0.0141938496381044,-0.0104238791391253
1770453891492,0.033721923828125,-0.1416778564453125,-0.9854278564453124,-0.0014511564513668,-0.014666561037302,0.0049369679763913
1770453891502,0.0362548828125,-0.1243896484375,-0.9814453125,-0.0078850872814655,0.0020980383269488,0.0096361152827739
1770453891512,0.022430419921875,-0.1107330322265625,-0.980621337890625,-0.0122207133099436,0.0135981002822518,-0.0023595606908202
1770453891522,0.01251220703125,-0.1095733642578125,-0.98583984375,-0.0111402692273259,0.0108827417716383,-0.0159752387553453
1770453891532,0.01531982421875,-0.115325927734375,-0.992950439453125,-0.006833937484771,0.0011345066595822,-0.025758359581232
1770453891542,0.019683837890625,-0.121673583984375,-0.992523193359375,-0.0065314024686813,-0.0094262585043907,-0.0292558893561363
1770453891552,0.01837158203125,-0.122100830078125,-0.9864044189453124,-0.0115059213712811,-0.014445518143475,-0.0295291300863027
1770453891562,0.017425537109375,-0.1202392578125,-0.9796905517578124,-0.0214834548532962,-0.0125578697770833,-0.0245783142745494
1770453891573,0.0200347900390625,-0.1207733154296875,-0.978607177734375,-0.0281474813818931,-0.0020881847012788,-0.0200080629438161
1770453891582,0.02423095703125,-0.125885009765625,-0.98681640625,-0.0318862944841384,0.0049252500757575,-0.0097911115735769
1770453891592,0.0302886962890625,-0.131500244140625,-0.994140625,-0.0316697806119918,0.0035718316212296,-0.0021763353142887
1770453891602,0.03192138671875,-0.131866455078125,-0.9955596923828124,-0.0306314118206501,0.0046592000871896,0.0089295795187354
1770453891612,0.03076171875,-0.1277008056640625,-0.9977874755859376,-0.0255519654601812,0.0078193070366978,0.0113842142745852
1770453891623,0.0266571044921875,-0.1233978271484375,-0.9989166259765624,-0.0188120380043983,0.0114931380376219,0.0061835935339331
1770453891633,0.02215576171875,-0.11907958984375,-0.99700927734375,-0.010439857840538,0.0096837859600782,-6.97748182574287e-05
1770453891643,0.0213165283203125,-0.1176910400390625,-0.9941253662109376,-0.0079111866652965,0.0101125547662377,-0.0047790426760911
1770453891653,0.0206756591796875,-0.1207733154296875,-0.9915924072265624,-0.0053361756727099,0.0080499369651079,-0.0092654032632708
1770453891663,0.0186004638671875,-0.1239166259765625,-0.9904327392578124,-0.0013454289874061,0.0058419099077582,-0.0096526276320219
1770453891673,0.0174407958984375,-0.120574951171875,-0.990234375,0.002977680414915,0.0066357986070215,-0.0111397365108132
1770453891683,0.01495361328125,-0.11749267578125,-0.991546630859375,0.0059239356778562,-0.0007435545558109,-0.01640853472054
1770453891693,0.01361083984375,-0.125335693359375,-0.9953765869140624,0.0145179564133286,-0.0086789755150675,-0.0136782620102167
1770453891703,0.0215911865234375,-0.1233978271484375,-0.9970245361328124,0.0177824590355157,-0.0136710712686181,-0.0098331896588206
1770453891713,0.0219573974609375,-0.1194305419921875,-0.9923553466796876,0.0196077898144722,-0.0091242557391524,-0.0119235049933195
1770453891723,0.02239990234375,-0.1191864013671875,-0.9863739013671876,0.0145749477669596,-0.0069519155658781,-0.010094977915287
1770453891733,0.0213775634765625,-0.118408203125,-0.9837799072265624,0.0109967244789004,-0.000613592332229,-0.0125536089763045
1770453891743,0.0231781005859375,-0.121002197265625,-0.983489990234375,0.0060139503329992,0.0020682108588516,-0.0095354486256837
1770453891753,0.025482177734375,-0.120819091796875,-0.9859771728515624,0.000589890172705,0.0060222060419619,-0.0103823337703943
1770453891763,0.026092529296875,-0.120391845703125,-0.9858245849609376,-0.0045896917581558,0.0023659523576498,-0.0089575424790382
1770453891773,0.023040771484375,-0.122283935546875,-0.9867401123046876,-0.0113330818712711,0.0032152342610061,-0.0064789382740855
1770453891783,0.02386474609375,-0.122528076171875,-0.9892578125,-0.011460380628705,0.0016495619202032,-0.0012381036067381
1770453891793,0.0259552001953125,-0.12420654296875,-0.9910430908203124,-0.0135046234354376,0.0015140071045607,0.0044264402240514
1770453891803,0.027252197265625,-0.1262969970703125,-0.9904937744140624,-0.0133240614086389,0.0047055394388735,0.0123623935505747
1770453891813,0.02667236328125,-0.1251068115234375,-0.9891204833984376,-0.0117203053086996,0.0065793395042419,0.0158031973987817
1770453891823,0.0245513916015625,-0.1245269775390625,-0.99237060546875,-0.0108220214024186,0.0100196106359362,0.0179156176745891
1770453891833,0.0234527587890625,-0.1221466064453125,-0.99176025390625,-0.007171360310167,0.0126207200810313,0.0150694968178868
1770453891844,0.0260162353515625,-0.1214752197265625,-0.9923553466796876,-0.0044730454683303,0.0113975303247571,0.014697453007102
1770453891854,0.0246429443359375,-0.1223907470703125,-0.9893951416015624,-0.0041734399273991,0.0073109096847474,0.0117354858666658
1770453891864,0.0240020751953125,-0.1229248046875,-0.9839019775390624,-0.0114678377285599,0.0085860313847661,0.0093341134488582
1770453891874,0.023956298828125,-0.123138427734375,-0.981048583984375,-0.0193185713142156,0.0109506519511342,0.0071023842319846
1770453891884,0.023681640625,-0.121185302734375,-0.983642578125,-0.0222381930798292,0.0134702688083052,0.0071694958023726
1770453891894,0.022674560546875,-0.1212310791015625,-0.9877166748046876,-0.0227673631161451,0.0133927706629037,0.0043097934685647
1770453891904,0.0153656005859375,-0.12078857421875,-0.9940643310546876,-0.0136787937954068,0.0101370560005307,0.0033068470656871
1770453891914,0.0137481689453125,-0.119140625,-0.9994354248046876,-0.0006258428329601,0.0024357270449399,0.0009334379574283
1770453891924,0.0165252685546875,-0.1208038330078125,-0.999359130859375,0.008167115971446,-0.0061604240909218,0.0024277376942336
1770453891934,0.020477294921875,-0.1219024658203125,-0.9960479736328124,0.0115312207490205,-0.0051697283051908,0.0023989754263311
1770453891944,0.0207061767578125,-0.1247406005859375,-0.9914703369140624,0.0132417697459459,-0.0061694788746535,0.003098854329437
1770453891954,0.0232086181640625,-0.124542236328125,-0.9871673583984376,0.0110073769465088,-0.0016961672808974,0.0034373418893665
1770453891964,0.0240936279296875,-0.1235504150390625,-0.9840240478515624,0.0051982239820063,0.0046903593465685,0.0053769219666719
1770453891975,0.0235595703125,-0.123138427734375,-0.9807586669921876,-0.0027300063520669,0.0104222809895873,0.004946022760123
1770453891984,0.02191162109375,-0.1221160888671875,-0.9809112548828124,-0.0092206625267863,0.0081639206036925,-0.0011520835105329
1770453891994,0.0205535888671875,-0.1219329833984375,-0.9819488525390624,-0.0183201506733894,0.0076374132186174,-0.0014452975010499
1770453892004,0.0186309814453125,-0.1218719482421875,-0.9825897216796876,-0.0218001045286655,0.0068019796162843,-0.0003400856803636
1770453892014,0.01983642578125,-0.12225341796875,-0.9855194091796876,-0.0252089500427246,0.0078296931460499,0.0001933454914251
1770453892024,0.0183258056640625,-0.121978759765625,-0.988128662109375,-0.0231316853314638,0.0072874738834798,-0.0006343649583868
1770453892034,0.017791748046875,-0.121826171875,-0.9917755126953124,-0.0179726090282201,0.0058368500322103,3.462109361862531e-06
1770453892045,0.0182952880859375,-0.12689208984375,-0.9946746826171876,-0.0101607581600546,-0.0021630194969475,-0.0012948289513587
1770453892055,0.021820068359375,-0.12896728515625,-0.997650146484375,0.001202417188324,-0.008070177398622,0.0044903559610247
1770453892065,0.0247650146484375,-0.1232757568359375,-0.9969482421875,0.0063532372005283,-0.0096041578799486,0.0056309876963496
1770453892075,0.0211639404296875,-0.1144561767578125,-0.994964599609375,0.0080398172140121,-0.0070504527539014,0.0015425028977915
1770453892085,0.016632080078125,-0.115325927734375,-0.9952545166015624,0.0150391366332769,-0.002086320426315,-0.0090883038938045
1770453892095,0.015899658203125,-0.119873046875,-0.99365234375,0.0273573212325572,-0.0053383065387606,-0.0141637558117508
1770453892105,0.0200653076171875,-0.1230926513671875,-0.986053466796875,0.0230435337871313,-0.0143475141376256,-0.0174756627529859
1770453892115,0.025146484375,-0.1302642822265625,-0.97808837890625,0.008021974004805,-0.0061819958500564,-0.01413419470191
1770453892125,0.0280914306640625,-0.1429290771484375,-0.9725494384765624,-0.0060989051125943,-0.0017547567840665,0.0015366439474746
1770453892135,0.03546142578125,-0.1408843994140625,-0.9744110107421876,-0.0201564002782106,0.0035292210523039,0.0113525232300162
1770453892145,0.0299072265625,-0.1184844970703125,-0.9770050048828124,-0.0271277576684951,0.0146684246137738,0.0125347003340721
1770453892155,0.0159912109375,-0.1071319580078125,-0.98223876953125,-0.0298806671053171,0.0160047989338636,0.0001845570659497
1770453892165,0.0107421875,-0.1100311279296875,-0.9900970458984376,-0.0276033990085124,0.0068381987512111,-0.0143094304949045
1770453892175,0.012481689453125,-0.1132659912109375,-0.995941162109375,-0.0216403137892484,-0.0017353157745674,-0.0251562185585498
1770453892185,0.015838623046875,-0.118072509765625,-0.9914703369140624,-0.0189657006412744,-0.0072608422487974,-0.0279008727520704
1770453892195,0.017303466796875,-0.118255615234375,-0.9881439208984376,-0.0225346032530069,-0.0075436700135469,-0.0271107126027345
1770453892207,0.01763916015625,-0.1211700439453125,-0.9882049560546876,-0.0209971610456705,-0.0043697147630155,-0.022675484418869
1770453892215,0.0198974609375,-0.12469482421875,-0.99261474609375,-0.0181518401950597,-0.0014697986189275,-0.0152391400188207
1770453892225,0.0341339111328125,-0.1211395263671875,-0.994873046875,-0.0169819127768278,-0.0095809884369373,0.0059154131449759
1770453892235,0.030364990234375,-0.146453857421875,-0.99420166015625,-0.0227665659040212,-0.0011225224006921,-0.0007819040911272
1770453892245,0.0256500244140625,-0.1371612548828125,-0.9810943603515624,-0.0313352867960929,0.0048187235370278,0.0110513195395469
1770453892255,0.034271240234375,-0.1224212646484375,-0.986907958984375,-0.0370355173945426,0.0124779753386974,0.0109487874433398
1770453892266,0.02545166015625,-0.1209716796875,-0.9886627197265624,-0.0422609038650989,0.0199697129428386,0.0060637514106929
1770453892276,0.0214996337890625,-0.1166229248046875,-0.99346923828125,-0.0398211814463138,0.0197715740650892,-0.0003914846747647
1770453892286,0.0131072998046875,-0.1167144775390625,-0.9999542236328124,-0.0300982482731342,0.0173853822052478,-0.0120095247402787
1770453892296,0.01251220703125,-0.1154022216796875,-1.0078887939453125,-0.0113815516233444,0.010855576954782,-0.0151515221223235
1770453892306,0.0175628662109375,-0.1144561767578125,-1.0061798095703125,0.0046906257048249,0.002127066720277,-0.0167853720486164
1770453892316,0.0152130126953125,-0.1144256591796875,-1.0004119873046875,0.0151981273666024,-0.000557665945962,-0.0148378014564514
1770453892326,0.0163726806640625,-0.117431640625,-0.998291015625,0.0259072314947843,-0.0045785065740346,-0.0132833151146769
1770453892336,0.0171966552734375,-0.1208038330078125,-0.999237060546875,0.0389242283999919,-0.0041745048947632,-0.0116244321689009
1770453892346,0.022216796875,-0.11962890625,-0.9991302490234376,0.0520783811807632,-0.0078278295695781,-0.0083183832466602
1770453892356,0.02197265625,-0.1166839599609375,-0.99578857421875,0.0563295856118202,-0.0113815516233444,-0.0119807627052068
1770453892366,0.0234375,-0.1179351806640625,-0.985137939453125,0.0498897954821586,-0.0110742226243019,-0.0095634115859866
1770453892376,0.026947021484375,-0.118988037109375,-0.9720306396484376,0.0344232209026813,-0.005656820256263,-0.0110965929925441
1770453892386,0.0256805419921875,-0.1220550537109375,-0.9646148681640624,0.0107884658500552,-0.0013371731620281,-0.0133211314678192
1770453892396,0.027313232421875,-0.1237945556640625,-0.9627838134765624,-0.0156244998797774,0.000467118457891,-0.0124867632985115
1770453892406,0.0280914306640625,-0.1230010986328125,-0.9653472900390624,-0.0350578539073467,0.0030040456913411,-0.0084249097853899
1770453892416,0.024078369140625,-0.121185302734375,-0.97607421875,-0.0503438636660575,0.0048924931325018,-0.0059377839788794
1770453892426,0.0211334228515625,-0.1194305419921875,-0.9879302978515624,-0.0545617789030075,0.0036125779151916,-0.0007456850726157
1770453892436,0.0204620361328125,-0.11773681640625,-0.9943389892578124,-0.0510906130075454,0.0008540757698938,0.0045247105881571
1770453892446,0.021514892578125,-0.118499755859375,-0.99810791015625,-0.0435461439192295,0.0009302421822212,0.0106358667835593
1770453892456,0.0261688232421875,-0.1189117431640625,-0.9993133544921876,-0.0385364741086959,0.0046384274028241,0.0144950533285737
1770453892466,0.0261993408203125,-0.12164306640625,-0.9982757568359376,-0.0302210189402103,0.0078219706192612,0.0181454475969076
1770453892477,0.0253753662109375,-0.12152099609375,-0.998321533203125,-0.0216658804565668,0.012638296931982,0.0214650779962539
1770453892487,0.02667236328125,-0.1201629638671875,-0.99603271484375,-0.0155696384608745,0.0124489460140466,0.0190927349030971
1770453892497,0.0255889892578125,-0.1204071044921875,-0.9951324462890624,-0.0112790195271372,0.0155006628483533,0.0173907075077295
1770453892507,0.0256195068359375,-0.1199188232421875,-0.9969635009765624,-0.0083857616409659,0.0164138600230216,0.0150303486734628
1770453892517,0.0227813720703125,-0.11993408203125,-0.9940032958984376,-0.0050418963655829,0.0185965877026319,0.0123267071321606
1770453892527,0.0202484130859375,-0.1201629638671875,-0.9947967529296876,-0.0014889733865857,0.0156639143824577,0.0095602152869105
1770453892537,0.0204315185546875,-0.117919921875,-0.9953460693359376,0.0031678301747888,0.0115530593320727,0.0104060359299182
1770453892547,0.0186767578125,-0.1178436279296875,-0.99395751953125,0.005763613153249,0.0101940482854843,0.0068661617115139
1770453892557,0.016876220703125,-0.118927001953125,-0.9925079345703124,0.0066991816274821,0.0091383708640933,0.0049558766186237
1770453892567,0.0191802978515625,-0.1183929443359375,-0.990386962890625,0.0090313116088509,0.0057210028171539,0.0050722565501928
1770453892577,0.01824951171875,-0.118377685546875,-0.991485595703125,0.0077812238596379,0.0059210062026977,0.0052171326242387
1770453892587,0.0211944580078125,-0.1187591552734375,-0.9894256591796876,0.0087119983509182,0.0034067155793309,0.0030770162120461
1770453892597,0.022125244140625,-0.119720458984375,-0.987945556640625,0.0058166100643575,0.005192098673433,0.000336090917699
1770453892608,0.0223236083984375,-0.1201171875,-0.9860076904296876,0.0004612595075741,0.0040192427113652,0.0022668826859444
1770453892617,0.0238037109375,-0.1191253662109375,-0.9817047119140624,-0.0063021043315529,0.0078038610517978,0.0008301073103211
1770453892627,0.0242156982421875,-0.119171142578125,-0.98101806640625,-0.0134628117084503,0.0117642479017376,0.0035148400347679
1770453892637,0.0238037109375,-0.119140625,-0.9849090576171876,-0.0166322402656078,0.0168069433420896,0.0069268820807337
1770453892647,0.021331787109375,-0.1204376220703125,-0.9921722412109376,-0.0069838734343647,0.0148897338658571,0.0073769562877714
1770453892658,0.0208587646484375,-0.12115478515625,-1.000274658203125,0.0019608854781836,0.0074874772690236,0.0100318612530827
1770453892667,0.02117919921875,-0.1189422607421875,-0.9978485107421876,0.0124721154570579,0.0067220847122371,0.0111202951520681
1770453892677,0.0225067138671875,-0.1215972900390625,-0.9896392822265624,0.010831874795258,0.0029957899823784,0.0081458110362291
1770453892688,0.025238037109375,-0.1260528564453125,-0.9822235107421876,0.0040661143139004,0.002404834376648,0.010709635913372
1770453892698,0.0277862548828125,-0.126220703125,-0.976837158203125,-0.0045252433046698,0.0050144661217927,0.0157762989401817
1770453892708,0.0279693603515625,-0.12353515625,-0.9774017333984376,-0.0139017011970281,0.0073159695602953,0.0169097408652305
1770453892718,0.01947021484375,-0.113739013671875,-0.9827880859375,-0.0174032244831323,0.0045593315735459,0.0076496638357639
1770453892728,0.013763427734375,-0.107818603515625,-0.98876953125,-0.0178671479225158,0.0063351276330649,-0.0018631474813446
1770453892738,0.0142364501953125,-0.1100616455078125,-0.9913482666015624,-0.0099357217550277,0.0031547807157039,-0.0054842475801706
1770453892748,0.017364501953125,-0.11846923828125,-0.9874267578125,-0.0124446852132678,-0.0067921262234449,-0.0083013391122221
1770453892758,0.0208282470703125,-0.1255645751953125,-0.984466552734375,-0.0222001112997531,-0.0042272354476153,-0.0082581965252757
1770453892768,0.02728271484375,-0.135986328125,-0.982421875,-0.0223170239478349,-0.0033305492252111,0.0043132556602358
1770453892778,0.0337066650390625,-0.143585205078125,-0.9856414794921876,-0.024597754701972,-0.0035944685805588,0.0193420071154832
1770453892788,0.0324859619140625,-0.1231536865234375,-0.9921112060546876,-0.0223316699266433,0.010498447343707,0.0196530632674694
1770453892798,0.0201873779296875,-0.107177734375,-0.993621826171875,-0.0223423242568969,0.0134494956582784,0.0095820538699626
1770453892808,0.01220703125,-0.1060943603515625,-0.9947662353515624,-0.0191633086651563,0.0061367219313979,-0.0063425842672586
1770453892818,0.0147857666015625,-0.1110687255859375,-0.9966278076171876,-0.0150391366332769,-0.002844522241503,-0.0171984285116195
1770453892828,0.016510009765625,-0.114898681640625,-0.9939422607421876,-0.0147424610331654,-0.0073639065958559,-0.0238693803548812
1770453892838,0.0177764892578125,-0.116973876953125,-0.9889068603515624,-0.0153019912540912,-0.0031116374302655,-0.0247833766043186
1770453892848,0.0179443359375,-0.120697021484375,-0.9865570068359376,-0.0188810136169195,0.0026093651540577,-0.0208115391433239
1770453892858,0.0206451416015625,-0.123992919921875,-0.9898834228515624,-0.0150926662608981,0.0001904160162666,-0.0147730866447091
1770453892868,0.0242156982421875,-0.1293792724609375,-0.996337890625,-0.0079186428338289,-0.0028655612841248,-0.0029230855870991
1770453892878,0.03045654296875,-0.132415771484375,-0.997222900390625,-0.0068387314677238,-0.0037944719661027,0.0094153396785259
1770453892888,0.02960205078125,-0.1318359375,-0.9923858642578124,-0.0099884523078799,-2.50337143370416e-05,0.0145408594980835
1770453892898,0.027130126953125,-0.1265106201171875,-0.9876861572265624,-0.013750965707004,0.0028344022575765,0.0146782789379358
1770453892909,0.0234375,-0.1180877685546875,-0.9846343994140624,-0.0180988423526287,0.008716526441276,0.0095381112769246
1770453892919,0.0171966552734375,-0.1130523681640625,-0.9873046875,-0.0224565733224153,0.0138106206431984,0.0007099987124092
1770453892929,0.0162353515625,-0.1132049560546875,-0.9933929443359376,-0.0223148930817842,0.0174479652196168,-0.0099636847153306
1770453892939,0.011749267578125,-0.115264892578125,-0.9999847412109376,-0.0131890391930937,0.0108739528805017,-0.0176769979298114
1770453892949,0.0125732421875,-0.11505126953125,-1.0042877197265625,0.0028671592008322,0.0013496900210157,-0.022568691521883
1770453892959,0.0138702392578125,-0.114776611328125,-1.0067138671875,0.0212448351085186,-0.0055380435660481,-0.0229577794671058
1770453892969,0.015716552734375,-0.1168060302734375,-1.0049285888671875,0.0335976406931877,-0.0122516062110662,-0.0253812558948993
1770453892979,0.0172882080078125,-0.1231689453125,-1.0022735595703125,0.0476242452859878,-0.0144332675263285,-0.023241939023137
1770453892989,0.02447509765625,-0.120849609375,-0.9960174560546876,0.0529050268232822,-0.013268400914967,-0.0179963111877441
1770453892999,0.028472900390625,-0.1164093017578125,-0.9877166748046876,0.0490221381187438,-0.0101192127913236,-0.0165286436676979
1770453893009,0.02484130859375,-0.11968994140625,-0.9802703857421876,0.0423921979963779,-0.0053691989742219,-0.01732306368649
1770453893019,0.0246124267578125,-0.1193084716796875,-0.9762420654296876,0.0316231735050678,-0.0014823154779151,-0.0191262904554605
1770453893029,0.027496337890625,-0.11968994140625,-0.9741668701171876,0.019106050953269,0.0012791162589564,-0.0182764753699302
1770453893040,0.027984619140625,-0.123443603515625,-0.972869873046875,0.0026032398454844,0.0008167914929799,-0.0151318153366446
1770453893049,0.0281982421875,-0.1244354248046875,-0.97113037109375,-0.0143850641325116,0.0008884305134415,-0.0107850031927227
1770453893059,0.02508544921875,-0.12042236328125,-0.9768829345703124,-0.025425998494029,0.0057316552847623,-0.0071308799088001
1770453893069,0.024139404296875,-0.1179962158203125,-0.9836578369140624,-0.0308913365006446,0.0045052696950733,-0.0058498997241258
1770453893079,0.02142333984375,-0.117828369140625,-0.9894561767578124,-0.029854567721486,0.0010591391474008,-0.0039510657079517
1770453893089,0.020751953125,-0.11859130859375,-0.99334716796875,-0.0248494241386652,-0.0012029499048367,-0.0008961536805145
1770453893099,0.022430419921875,-0.1193389892578125,-0.9943084716796876,-0.0189057812094688,-0.0029667613562196,-0.0004647216119337
1770453893110,0.024261474609375,-0.1194610595703125,-0.9916839599609376,-0.0187579747289419,-0.0036730316933244,0.0030226877424865
1770453893119,0.02532958984375,-0.1199798583984375,-0.9846343994140624,-0.0209260545670986,-0.0007033408619463,0.004334561061114
1770453893130,0.0258941650390625,-0.12091064453125,-0.9824676513671876,-0.0273786280304193,0.0020772656425833,0.0048594698309898
1770453893140,0.026702880859375,-0.1187286376953125,-0.9868316650390624,-0.0294007658958435,0.00754553405568,0.0046666571870446
1770453893150,0.0244903564453125,-0.117340087890625,-0.9921722412109376,-0.0259564984589815,0.0080051962286233,0.0028626318089663
1770453893160,0.022491455078125,-0.11767578125,-0.9989776611328124,-0.0142146218568086,0.0060365870594978,0.0034325483720749
1770453893170,0.0206146240234375,-0.1179962158203125,-1.0032806396484375,-0.0010412959381937,-0.0008575378451496,-0.002339054364711
1770453893180,0.0225830078125,-0.118682861328125,-1.0011138916015625,0.0070155654102563,-0.0071093086153268,-0.0023582291323691
1770453893190,0.024017333984375,-0.118560791015625,-0.993743896484375,0.0105013763532042,-0.005936718545854,-4.1278995922766626e-05
1770453893200,0.0218353271484375,-0.119842529296875,-0.988250732421875,0.0107146957889199,-0.0037065874785184,-0.0004404868523124
1770453893210,0.0207672119140625,-0.1207733154296875,-0.9871978759765624,0.0080978740006685,-0.0027310717850923,0.0012436961987987
1770453893220,0.0203857421875,-0.12054443359375,-0.9884185791015624,0.0095679387450218,-0.0046386937610805,-0.000393881520722
1770453893230,0.02117919921875,-0.11871337890625,-0.990570068359375,0.0095799230039119,-0.0065452507697045,-3.781688792514615e-05
1770453893240,0.0201263427734375,-0.1165313720703125,-0.9903564453125,0.0076422072015702,-0.0084403567016124,-0.0033577135764062
1770453893250,0.0189361572265625,-0.1155242919921875,-0.9869842529296876,0.0022218753583729,-0.006034190300852,-0.0074469973333179
1770453893260,0.022705078125,-0.115386962890625,-0.984832763671875,-0.0022434468846768,-0.0021811288315802,-0.0060640177689492
1770453893270,0.0222320556640625,-0.1199493408203125,-0.982879638671875,-0.0051705273799598,-0.0006764429272152,-0.0076874806545674
1770453893280,0.0233612060546875,-0.1214447021484375,-0.9832000732421876,-0.0090552801266312,-0.0003478088474366,-0.0050232545472681
1770453893290,0.025848388671875,-0.1204833984375,-0.983245849609375,-0.012687299400568,-0.0015110776294022,-0.0030660973861813
1770453893300,0.022705078125,-0.119964599609375,-0.9841766357421876,-0.0158775001764297,-0.0034687672741711,-0.004293015692383
1770453893311,0.0216217041015625,-0.1191253662109375,-0.9843902587890624,-0.0192850138992071,-0.0038405444938689,-0.0027105652261525
1770453893320,0.0232696533203125,-0.1217803955078125,-0.98406982421875,-0.0213191378861665,-0.0047279098071157,-0.0005757753970101
1770453893330,0.025634765625,-0.128448486328125,-0.9850616455078124,-0.0259399879723787,-0.0048272456042468,0.0038296256680041
1770453893341,0.0287628173828125,-0.1247711181640625,-0.9850006103515624,-0.0284753162413835,-0.0033888723701238,0.008485896512866
1770453893351,0.02301025390625,-0.1159515380859375,-0.9868621826171876,-0.032997366040945,-0.0021827267482876,0.0085796397179365
1770453893361,0.0171661376953125,-0.110504150390625,-0.9900360107421876,-0.0311581864953041,-0.0006250438746064,-0.0041135186329483
1770453893371,0.01336669921875,-0.1131134033203125,-0.9967041015625,-0.0177694093436002,0.0035728968214243,-0.0065202172845602
1770453893381,0.0139923095703125,-0.1134185791015625,-0.997161865234375,-0.0050280480645596,-0.008501342497766,-0.0121275028213858
1770453893391,0.0147552490234375,-0.113861083984375,-0.9917449951171876,-0.0055090151727199,-0.009360478259623,-0.0188085753470659
1770453893401,0.017303466796875,-0.1201629638671875,-0.9860076904296876,-0.0112894056364893,-0.0064232782460749,-0.0150066465139389
1770453893411,0.024566650390625,-0.1376953125,-0.97979736328125,-0.0184788759797811,-0.0119882198050618,0.0007227819296531
1770453893421,0.0328521728515625,-0.132049560546875,-0.9821319580078124,-0.0236949436366558,-0.0030112362001091,0.0108007164672017
1770453893431,0.0255889892578125,-0.1078033447265625,-0.985076904296875,-0.0283006131649017,0.0073015885427594,0.0013070794520899
1770453893441,0.0113372802734375,-0.10162353515625,-0.988189697265625,-0.0291307214647531,0.0028477180749177,-0.0114313522353768
1770453893451,0.0080108642578125,-0.103118896484375,-0.9952545166015624,-0.0239599272608757,-0.0071923988871276,-0.0211947672069072
1770453893461,0.01446533203125,-0.1081390380859375,-1.0005340576171875,-0.0157512668520212,-0.014567757025361,-0.03275927901268
1770453893471,0.016143798828125,-0.112213134765625,-0.99371337890625,-0.0161086618900299,-0.0185632985085248,-0.0381135642528533
1770453893481,0.0194549560546875,-0.1119537353515625,-0.9885406494140624,-0.0191238932311534,-0.0150884054601192,-0.0392211712896823
1770453893491,0.0202484130859375,-0.114013671875,-0.9859466552734376,-0.0227628368884325,-0.0085924230515956,-0.0318777710199356
1770453893501,0.026275634765625,-0.12115478515625,-0.9901885986328124,-0.023234749212861,-0.0073005235753953,-0.0199782345443964
1770453893511,0.0342864990234375,-0.12799072265625,-0.9926300048828124,-0.0225162282586097,-0.00943558011204,-0.0027499801944941
1770453893521,0.037017822265625,-0.1299285888671875,-0.9884796142578124,-0.0271051209419965,-0.0024314660113304,0.0132396388798952
1770453893531,0.0357513427734375,-0.1262054443359375,-0.989410400390625,-0.0297845266759395,0.00464508542791,0.0251202676445245
1770453893542,0.0305023193359375,-0.1181793212890625,-0.989776611328125,-0.0302596352994442,0.0183108299970626,0.0285602714866399
1770453893551,0.0249786376953125,-0.11181640625,-0.9980926513671876,-0.0252044219523668,0.0284351035952568,0.0256518330425024
1770453893562,0.019561767578125,-0.1084136962890625,-1.0077972412109375,-0.009411078877747,0.0304007828235626,0.0171211957931518
1770453893572,0.011810302734375,-0.110107421875,-1.01910400390625,0.0154314208775758,0.0176775306463241,0.0066528427414596
1770453893582,0.010833740234375,-0.113555908203125,-1.01959228515625,0.0404616706073284,0.00220935838297,-0.0006210491410456
1770453893592,0.013885498046875,-0.1156463623046875,-1.0130157470703125,0.0576712861657142,-0.0067676249891519,-0.0040719732642173
1770453893602,0.0161590576171875,-0.1168975830078125,-1.0022125244140625,0.0645920410752296,-0.0100417155772447,-0.006940730381757
1770453893612,0.0167694091796875,-0.1217803955078125,-0.99078369140625,0.0614300705492496,-0.0111953960731625,-0.0090294480323791
1770453893622,0.0193328857421875,-0.1240234375,-0.9824371337890624,0.0545093156397342,-0.0060762683860957,-0.0081684477627277
1770453893632,0.021148681640625,-0.115753173828125,-0.9767608642578124,0.0422648973762989,-0.0053521548397839,-0.0083876261487603
1770453893642,0.0162811279296875,-0.1149444580078125,-0.97418212890625,0.0321811065077781,-0.0039401468820869,-0.0119418809190392
1770453893652,0.014984130859375,-0.1122283935546875,-0.97467041015625,0.0223199520260095,-0.0028226843569427,-0.0130702620372176
1770453893662,0.014984130859375,-0.11016845703125,-0.976318359375,0.0162820350378751,0.0003853593952953,-0.0173273254185915
1770453893673,0.0130767822265625,-0.1106109619140625,-0.9808197021484376,0.0111450627446174,0.0033973946701735,-0.01992017775774
1770453893682,0.0152130126953125,-0.116241455078125,-0.98504638671875,0.009387376718223,-0.0006042712484486,-0.0226983875036239
1770453893692,0.0204315185546875,-0.1142120361328125,-0.987548828125,0.0094486288726329,-0.0004708468914031,-0.0183662232011556
1770453893702,0.0228271484375,-0.1152191162109375,-0.9873504638671876,0.0048528122715651,0.0006008091149851,-0.01417653914541
1770453893712,0.0252227783203125,-0.1183013916015625,-0.9891815185546876,0.0026863305829465,0.0012309130979701,-0.0062485747039318
1770453893722,0.029205322265625,-0.1226043701171875,-0.9916534423828124,0.0029358686879277,0.0043073967099189,-0.0007755124825052
1770453893732,0.0325469970703125,-0.1255645751953125,-0.990081787109375,0.0025321335997432,0.0044104610569775,0.0069303442724049
1770453893742,0.0323333740234375,-0.126953125,-0.98583984375,-0.0004130562883801,0.0095082838088274,0.0146303419023752
1770453893753,0.0296173095703125,-0.125091552734375,-0.98345947265625,-0.0077830883674323,0.0104118948802351,0.0207891687750816
1770453893762,0.0244140625,-0.1229705810546875,-0.980072021484375,-0.0191292203962802,0.0130111398175358,0.0258286669850349
1770453893773,0.0225067138671875,-0.1189727783203125,-0.9790802001953124,-0.0267325453460216,0.0206578746438026,0.0247897692024707
1770453893783,0.0217437744140625,-0.11981201171875,-0.9869232177734376,-0.0321898944675922,0.0216605551540851,0.0269376076757907
1770453893793,0.020843505859375,-0.1194305419921875,-0.9958648681640624,-0.0254683420062065,0.0204988829791545,0.0290838498622179
1770453893803,0.0177001953125,-0.12158203125,-1.0018157958984375,-0.0171315819025039,0.0146146286278963,0.0267929974943399
1770453893813,0.0137939453125,-0.120391845703125,-1.005096435546875,-0.0032261533197015,0.0089657977223396,0.0236214399337768
1770453893823,0.0116119384765625,-0.1175994873046875,-1.00384521484375,0.0124452179297804,-0.0013717942638322,0.0194946061819791
1770453893833,0.0133514404296875,-0.1143798828125,-0.9993133544921876,0.0165637973695993,-0.0065561700612306,0.0147579070180654
1770453893843,0.017486572265625,-0.11761474609375,-0.992584228515625,0.0152186341583728,-0.0019425096688792,0.0139805302023887
1770453893853,0.0183868408203125,-0.12127685546875,-0.9877166748046876,0.0142407212406396,0.0036061864811927,0.0114225642755627
1770453893863,0.01715087890625,-0.123504638671875,-0.990386962890625,0.0184557065367698,0.0059337890706956,0.0115277590230107
1770453893873,0.015380859375,-0.121368408203125,-0.9942169189453124,0.0245863031595945,0.0028290760237723,0.0089303776621818
1770453893883,0.017059326171875,-0.11962890625,-0.992095947265625,0.0284851714968681,-0.0026573021896183,0.0083274384960532
1770453893893,0.0180206298828125,-0.12060546875,-0.9859161376953124,0.0243199877440929,-0.0043630567379295,0.0097487671300768
1770453893903,0.0179443359375,-0.1201019287109375,-0.9783477783203124,0.015442606061697,0.0018394453218206,0.0081194452941417
1770453893913,0.02001953125,-0.1211700439453125,-0.972015380859375,0.000711330329068,0.0176777970045804,0.0049510826356709
1770453893923,0.012237548828125,-0.1207427978515625,-0.979034423828125,-0.0014269216917455,0.0130686638876795,-2.9294771593413316e-05
1770453893933,0.0068817138671875,-0.1160736083984375,-0.9894866943359376,-0.0018540926976129,0.0034685009159147,-0.0053825150243937
1770453893945,0.0106048583984375,-0.116180419921875,-0.993011474609375,-0.0045803706161677,-0.0071503212675452,-0.0061287325806915
1770453893953,0.0152130126953125,-0.1263427734375,-0.989776611328125,-0.0118508003652095,-0.0098459729924798,-0.0075876121409237
1770453893963,0.0194854736328125,-0.1293792724609375,-0.98529052734375,-0.0171632748097181,-0.004334561061114,-0.0053697316907346
1770453893974,0.0198211669921875,-0.1218109130859375,-0.987213134765625,-0.0174764618277549,-0.0010727213229984,-0.0032770195975899
1770453893984,0.0148468017578125,-0.111297607421875,-0.99102783203125,-0.016282832249999,-0.0065521751530468,-0.0129906330257654
1770453893994,0.0103302001953125,-0.111907958984375,-0.9943389892578124,-0.0148106375709176,-0.0114380102604627,-0.0275962073355913
1770453894004,0.0136566162109375,-0.1154937744140625,-0.9898681640625,-0.0118678444996476,-0.0091666001826524,-0.0312271621078252
1770453894014,0.0180511474609375,-0.1173858642578125,-0.9782867431640624,-0.0232107806950807,-0.0134247289970517,-0.033921480178833
1770453894024,0.0200958251953125,-0.1195068359375,-0.9723358154296876,-0.0443267188966274,-0.001717206207104,-0.0388856120407581
1770453894034,0.0208587646484375,-0.1257781982421875,-0.97393798828125,-0.0546741634607315,0.0037420075386762,-0.0320783071219921
1770453894044,0.0269317626953125,-0.138702392578125,-0.980438232421875,-0.058049988001585,0.0005968143814243,-0.0098795285448431
1770453894054,0.0348968505859375,-0.13134765625,-0.9937896728515624,-0.0507590509951114,0.008600678294897,0.0025624935515224
1770453894064,0.02484130859375,-0.1056365966796875,-1.0024261474609375,-0.0384238213300704,0.0129546802490949,-0.0060443105176091
1770453894074,0.014556884765625,-0.10009765625,-1.0090789794921875,-0.0227657668292522,0.0111338775604963,-0.0178226735442876
1770453894084,0.0140838623046875,-0.1058807373046875,-1.0086212158203125,-0.0072696306742727,0.0057521616108715,-0.025483788922429
1770453894094,0.0198516845703125,-0.1128082275390625,-1.006927490234375,0.0045614624395966,0.0026165556628257,-0.0331896431744098
1770453894104,0.020721435546875,-0.115966796875,-1.00103759765625,0.0090792486444115,0.003058640519157,-0.0379833355545997
1770453894114,0.0186920166015625,-0.116790771484375,-0.994293212890625,0.0100044310092926,0.0019528960110619,-0.0354410819709301
1770453894124,0.0182037353515625,-0.1169586181640625,-0.9892120361328124,0.0061513693071901,0.0088627338409423,-0.0281767770648002
1770453894134,0.0219573974609375,-0.1229248046875,-0.9903564453125,0.0014452975010499,0.0103173526003956,-0.0183124281466007
1770453894144,0.0276641845703125,-0.129364013671875,-0.992340087890625,-0.006197974551469,0.0088776471093297,-0.0053345779888331
1770453894154,0.0328521728515625,-0.128692626953125,-0.989288330078125,-0.0134356478229165,0.0146524459123611,0.0063537694513797
1770453894164,0.03094482421875,-0.12786865234375,-0.9829254150390624,-0.0257618222385644,0.0217753369361162,0.0129666645079851
1770453894175,0.025604248046875,-0.1209259033203125,-0.9792938232421876,-0.0328564830124378,0.0288114082068204,0.0119461417198181
1770453894185,0.0212554931640625,-0.11395263671875,-0.9824066162109376,-0.0374981053173542,0.0341353341937065,0.0084800375625491
1770453894195,0.0173797607421875,-0.111083984375,-0.98809814453125,-0.0350163057446479,0.0366528183221817,0.00291243288666
1770453894205,0.0141754150390625,-0.1117706298828125,-0.993896484375,-0.0312551259994506,0.0317499414086341,-0.0009504822082817
1770453894215,0.0123291015625,-0.114166259765625,-1.0014495849609375,-0.0165978856384754,0.0248579457402229,-0.0044932854361832
1770453894225,0.01287841796875,-0.1139068603515625,-1.0085601806640625,0.0023614249657839,0.0127562750130891,-0.0047944886609911
1770453894235,0.014007568359375,-0.114349365234375,-1.0085906982421875,0.01868287473917,0.0050967577844858,-0.0039406795985996
1770453894245,0.0167388916015625,-0.12115478515625,-1.006805419921875,0.0338549017906188,-0.0018690064316615,-0.0043153860606253
1770453894255,0.0240631103515625,-0.122222900390625,-1.002044677734375,0.0421969890594482,-0.0077375480905175,0.0011885687708854
1770453894265,0.02813720703125,-0.11700439453125,-0.9914093017578124,0.0424622371792793,-0.0013206616276875,0.0030269487760961
1770453894275,0.026397705078125,-0.1156005859375,-0.9799957275390624,0.0332514308393001,0.0058994344435632,0.0021174794528633
1770453894285,0.0270843505859375,-0.115142822265625,-0.9761962890625,0.0207047462463378,0.0165097340941429,0.0043018041178584
1770453894295,0.0270843505859375,-0.116363525390625,-0.9766693115234376,0.0097897797822952,0.0199998077005147,0.0038623826112598
1770453894305,0.0259246826171875,-0.117828369140625,-0.98284912109375,0.0031747543253004,0.0166844371706247,0.0038160434924066
1770453894315,0.0242919921875,-0.1175384521484375,-0.984771728515625,-0.0052797170355916,0.0120372213423252,0.0031350732315331
1770453894325,0.025909423828125,-0.1182861328125,-0.9837188720703124,-0.0149651011452078,0.013725665397942,0.0051063448190689
1770453894335,0.02716064453125,-0.1159210205078125,-0.9841461181640624,-0.0200639888644218,0.0144788073375821,0.0129450932145118
1770453894345,0.0239715576171875,-0.11651611328125,-0.989227294921875,-0.0187305435538291,0.018010426312685,0.0163773745298385
1770453894355,0.0229949951171875,-0.1181640625,-0.9965667724609376,-0.0097093526273965,0.019058646634221,0.0205406956374645
1770453894365,0.025054931640625,-0.1211090087890625,-1.002899169921875,-0.0016407734947279,0.017217069864273,0.0244805756956338
1770453894376,0.0256500244140625,-0.1212615966796875,-1.0027618408203125,0.0072728265076875,0.0162857621908187,0.0245527476072311
1770453894385,0.026275634765625,-0.121978759765625,-0.995819091796875,0.011412976309657,0.0130074117332696,0.0234182402491569
1770453894395,0.0280609130859375,-0.12139892578125,-0.9877777099609376,0.0028650285676121,0.0156945399940013,0.0218072943389415
1770453894406,0.028228759765625,-0.1228485107421875,-0.980926513671875,-0.0070525831542909,0.0184285417199134,0.0191521234810352
1770453894416,0.023773193359375,-0.12213134765625,-0.9818878173828124,-0.0129701271653175,0.0249194651842117,0.0144859980791807
1770453894426,0.0245361328125,-0.1176910400390625,-0.9850006103515624,-0.0183582343161106,0.0252872463315725,0.0130468262359499
1770453894436,0.0223846435546875,-0.118682861328125,-0.988983154296875,-0.0189294833689928,0.0218573622405529,0.0076936059631407
1770453894446,0.02001953125,-0.1201171875,-0.9899444580078124,-0.0170764550566673,0.0181963145732879,0.0065340655855834
1770453894456,0.0198211669921875,-0.1182403564453125,-0.991943359375,-0.0153419384732842,0.0143629601225256,0.0053510894067585
1770453894466,0.0169830322265625,-0.11846923828125,-0.9914093017578124,-0.0101314634084701,0.0161326304078102,0.0036245621740818
1770453894476,0.014495849609375,-0.1149749755859375,-0.996124267578125,-0.0023481091484427,0.0143935866653919,0.0010929612908512
1770453894486,0.0174102783203125,-0.1129302978515625,-1.001739501953125,0.008919458836317,0.0103178853169083,0.0003696467611007
1770453894496,0.0185089111328125,-0.115234375,-1.004364013671875,0.0198754370212554,0.0068376660346984,-0.0007012102869339
1770453894508,0.02130126953125,-0.1178131103515625,-1.001983642578125,0.0291818529367446,0.0041100564412772,-0.0024474449455738
1770453894516,0.023681640625,-0.117401123046875,-0.996795654296875,0.0335576944053173,0.0077817565761506,-0.0028756812680512
1770453894526,0.0300140380859375,-0.117828369140625,-0.9899139404296876,0.0325914993882179,0.0147009156644344,0.000190149701666
1770453894536,0.031890869140625,-0.1227874755859375,-0.98541259765625,0.0293488334864377,0.0235868189483881,0.0034091125708073
1770453894546,0.030029296875,-0.126068115234375,-0.9890899658203124,0.0327579453587532,0.0262214839458465,0.007964183576405
1770453894556,0.0261688232421875,-0.12420654296875,-0.997711181640625,0.0420254804193973,0.0270401388406753,0.0091847097501158
1770453894566,0.02423095703125,-0.12298583984375,-1.002838134765625,0.0534925200045108,0.0207470897585153,0.0106917927041649
1770453894576,0.0250396728515625,-0.1279754638671875,-1.0035400390625,0.0634341016411781,0.013914749957621,0.0129914321005344
1770453894586,0.02850341796875,-0.130340576171875,-0.9970703125,0.0657601058483123,0.009042496792972,0.016660202294588
1770453894596,0.0319671630859375,-0.123870849609375,-0.9880218505859376,0.0601653344929218,0.00981215108186,0.0128604052588343
1770453894607,0.025360107421875,-0.1125335693359375,-0.9811553955078124,0.0512818284332752,0.0148167628794908,0.0006743124104104
1770453894617,0.0142822265625,-0.1152496337890625,-0.9802093505859376,0.0476894900202751,0.0181776713579893,-0.0118020642548799
1770453894627,0.016143798828125,-0.1242218017578125,-0.984405517578125,0.0511249676346778,0.0155094508081674,-0.0175185389816761
1770453894637,0.02044677734375,-0.1228179931640625,-0.9813232421875,0.0472953431308269,0.0076603163033723,-0.0229636393487453
1770453894647,0.021636962890625,-0.131683349609375,-0.977294921875,0.0357558652758598,0.0057937069796025,-0.0219162181019783
1770453894657,0.0287322998046875,-0.1419525146484375,-0.973297119140625,0.0235900152474641,0.0043731769546866,-0.0050818440504372
1770453894667,0.03692626953125,-0.1460723876953125,-0.9725341796875,0.0153549881651997,0.0075607141479849,0.010643589310348
1770453894677,0.0366058349609375,-0.1232452392578125,-0.976043701171875,0.0082888221368193,0.0205984860658645,0.0108875352889299
1770453894687,0.0217437744140625,-0.107147216796875,-0.979705810546875,0.0051881042309105,0.0182674210518598,-0.0017462347168475
1770453894697,0.013702392578125,-0.1093902587890625,-0.9839630126953124,0.0020892499014735,0.0120990071445703,-0.0139011684805154
1770453894707,0.018402099609375,-0.1178131103515625,-0.988739013671875,0.0011323761427775,0.0072922678664326,-0.0234275609254837
1770453894717,0.024688720703125,-0.1256256103515625,-0.987701416015625,-0.0032197616528719,0.0035593148786574,-0.0266230888664722
1770453894727,0.0252685546875,-0.1224212646484375,-0.9835357666015624,-0.0083095952868461,0.0052653355523943,-0.0260529052466154
1770453894737,0.02294921875,-0.1224517822265625,-0.9824981689453124,-0.012124041095376,0.0112097775563597,-0.0249154698103666
1770453894747,0.0256805419921875,-0.1284027099609375,-0.9886474609375,-0.0099050952121615,0.0120177809149026,-0.0185712873935699
1770453894758,0.0336151123046875,-0.1360626220703125,-0.9974822998046876,-0.0070160976611077,0.0100789992138743,-0.0066073024645447
1770453894767,0.0384674072265625,-0.14141845703125,-0.99932861328125,-0.0019017633749172,0.0093554183840751,0.0039244340732693
1770453894777,0.0410919189453125,-0.1387481689453125,-0.9929351806640624,-0.0017148094484582,0.0092989597469568,0.0135357826948165
1770453894787,0.036773681640625,-0.1333160400390625,-0.985260009765625,-0.005583050660789,0.0182136241346597,0.014551511965692
1770453894797,0.0317840576171875,-0.1299896240234375,-0.982208251953125,-0.0077087860554456,0.0264630317687988,0.0100947124883532
1770453894807,0.0296783447265625,-0.1286773681640625,-0.981781005859375,-0.0105146924033761,0.0283355005085468,0.0058858525007963
1770453894817,0.0259857177734375,-0.1285858154296875,-0.982391357421875,-0.0072254221886396,0.0253058895468711,0.0010439591715112
1770453894827,0.0211639404296875,-0.1299896240234375,-0.985107421875,-0.0040549291297793,0.0194104500114917,-0.0022359900176525
