timestamp_ms,acc_x,acc_y,acc_z,gyro_x,gyro_y,gyro_z
1768735315417,0.055145263671875,-0.43902587890625,-0.8886260986328125,0.1070169955492019,0.0729245394468307,-0.0017294568242505
1768735315425,0.0556640625,-0.438690185546875,-0.88836669921875,0.1047770157456398,0.0534339286386966,-0.0043585295788943
1768735315435,0.0536956787109375,-0.4405059814453125,-0.8824310302734375,0.0982280299067497,0.0448087491095066,-0.0049167280085384
1768735315447,0.048919677734375,-0.4382171630859375,-0.8805694580078125,0.0964533016085624,0.0388933382928371,-0.0081647187471389
1768735315455,0.045166015625,-0.4388580322265625,-0.8881378173828125,0.0960335880517959,0.0366006232798099,-0.015018630772829
1768735315465,0.04693603515625,-0.443145751953125,-0.8845672607421875,0.0898795574903488,0.0313299596309661,-0.0146758817136287
1768735315475,0.0503082275390625,-0.446563720703125,-0.87908935546875,0.0767999738454818,0.0250832494348287,-0.0119924806058406
1768735315485,0.0527496337890625,-0.4501495361328125,-0.87811279296875,0.0639715269207954,0.0097253313288092,-0.0139640187844634
1768735315495,0.05548095703125,-0.453857421875,-0.88018798828125,0.0510666444897651,-0.0043108589015901,-0.0102545013651251
1768735315505,0.0599365234375,-0.458770751953125,-0.87713623046875,0.0336799323558807,-0.0277298986911773,-0.009786850772798
1768735315515,0.06268310546875,-0.4591217041015625,-0.8757476806640625,0.0167105365544557,-0.0464942641556263,-0.0128667959943413
1768735315525,0.0603485107421875,-0.4552154541015625,-0.878509521484375,0.0083263730630278,-0.0511729046702384,-0.0140087595209479
1768735315535,0.0549774169921875,-0.4500885009765625,-0.8880615234375,0.0097602186724543,-0.0391383469104766,-0.0091173322871327
1768735315545,0.0550994873046875,-0.44732666015625,-0.893798828125,0.0188301466405391,-0.0227905325591564,-0.0036906085442751
1768735315555,0.056640625,-0.444549560546875,-0.903289794921875,0.0388475321233272,-0.0183659568428993,-0.0023779366165399
1768735315565,0.05377197265625,-0.4453125,-0.9038238525390624,0.0497992485761642,-0.0238371565937995,-0.0086233159527182
1768735315575,0.05560302734375,-0.4458465576171875,-0.9032745361328124,0.0602196641266346,-0.0321885608136653,-0.0192549210041761
1768735315585,0.056182861328125,-0.4462890625,-0.90240478515625,0.0660229623317718,-0.0366661362349987,-0.0250600799918174
1768735315596,0.059967041015625,-0.4509429931640625,-0.899200439453125,0.0716488882899284,-0.0308620426803827,-0.0253511629998683
1768735315606,0.0641326904296875,-0.453369140625,-0.8983306884765625,0.0809113606810569,-0.0186722204089164,-0.020485833287239
1768735315616,0.0652008056640625,-0.456634521484375,-0.8946685791015625,0.0884121507406234,0.0018391790799796,-0.0117583889514207
1768735315626,0.0649871826171875,-0.4572906494140625,-0.8926239013671875,0.0939826890826225,0.0174761954694986,-0.0110422642901539
1768735315636,0.0615692138671875,-0.4593048095703125,-0.8896484375,0.0952391698956489,0.0266300123184919,-0.0150425992906093
1768735315646,0.05987548828125,-0.4594573974609375,-0.885040283203125,0.0949209183454513,0.0356378890573978,-0.0137400468811392
1768735315656,0.0631256103515625,-0.4601593017578125,-0.8813629150390625,0.090807132422924,0.0450084879994392,-0.0119796972721815
1768735315666,0.0644378662109375,-0.4589080810546875,-0.8799896240234375,0.0872060060501098,0.039902675896883,-0.0120055302977561
1768735315676,0.0657806396484375,-0.4627838134765625,-0.8744964599609375,0.0770902559161186,0.0317571312189102,-0.0141427172347903
1768735315686,0.0633392333984375,-0.463348388671875,-0.8690643310546875,0.067168116569519,0.0283157937228679,-0.0204192548990249
1768735315696,0.06146240234375,-0.4615631103515625,-0.8722991943359375,0.0593219138681888,0.013547234237194,-0.0262976493686437
1768735315706,0.05889892578125,-0.4611663818359375,-0.8740386962890625,0.0521476231515407,0.001931590726599,-0.0281525421887636
1768735315716,0.05865478515625,-0.4628143310546875,-0.873321533203125,0.0454881228506565,-0.0007472829893231,-0.0318623259663581
1768735315726,0.0566253662109375,-0.46392822265625,-0.8705291748046875,0.0431125834584236,-0.0042831618338823,-0.0252968352288007
1768735315736,0.0587921142578125,-0.46246337890625,-0.872772216796875,0.0369151420891284,-0.0097285276278853,-0.0212821196764707
1768735315746,0.0561981201171875,-0.4647064208984375,-0.8697662353515625,0.0278462786227464,-0.0137621508911252,-0.0162239763885736
1768735315757,0.054229736328125,-0.4635467529296875,-0.8671875,0.0160354245454072,-0.011903797276318,-0.0129293808713555
1768735315766,0.0516815185546875,-0.46441650390625,-0.8658447265625,0.0043348274193704,-0.0110696954652667,-0.0104076331481337
1768735315776,0.0522308349609375,-0.462432861328125,-0.870513916015625,0.0001163801352959,-0.0098225371912121,-0.0074589815922081
1768735315786,0.0537567138671875,-0.46197509765625,-0.87457275390625,-0.0032352081034332,-0.0089258505031466,-0.0038554582279175
1768735315797,0.0550994873046875,-0.4611663818359375,-0.8798675537109375,-0.0028746160678565,-0.006672017276287,-0.001013865461573
1768735315807,0.0571746826171875,-0.4614715576171875,-0.8829803466796875,-0.0011835087789222,-0.0027292075101286,0.0018943065078929
1768735315817,0.0579376220703125,-0.4625701904296875,-0.885986328125,0.0027691549621522,0.0031265511643141,0.0012543488992378
1768735315827,0.061431884765625,-0.4643707275390625,-0.8881072998046875,0.0058869174681603,0.0071093086153268,0.0008948221220634
1768735315837,0.064483642578125,-0.4672088623046875,-0.888824462890625,0.0094997622072696,0.0123738450929522,0.0020524982828646
1768735315847,0.06866455078125,-0.4676666259765625,-0.8916015625,0.0171033535152673,0.0251327827572822,0.0021310613956302
1768735315858,0.0729217529296875,-0.468902587890625,-0.8929595947265625,0.0265663638710975,0.0301128942519426,0.002281796419993
1768735315867,0.0750274658203125,-0.4686126708984375,-0.891448974609375,0.0400331690907478,0.0326719246804714,0.0074118436314165
1768735315877,0.0759429931640625,-0.4669342041015625,-0.8934783935546875,0.0525167360901832,0.0328705981373786,0.0154111804440617
1768735315887,0.0742950439453125,-0.4678192138671875,-0.8896942138671875,0.066699668765068,0.0336317308247089,0.0201782379299402
1768735315897,0.0714569091796875,-0.467041015625,-0.8867950439453125,0.0776796117424964,0.028267590329051,0.0267687626183033
1768735315907,0.0673370361328125,-0.4660186767578125,-0.880859375,0.081206701695919,0.0301507115364074,0.0269405376166105
1768735315917,0.0622100830078125,-0.467315673828125,-0.87396240234375,0.0802298560738563,0.0312588512897491,0.0296180788427591
1768735315927,0.0555572509765625,-0.467071533203125,-0.8706817626953125,0.080850638449192,0.0396395549178123,0.0295978393405675
1768735315937,0.0496826171875,-0.466217041015625,-0.867645263671875,0.060791976749897,0.0083926860243082,0.0293038263916969
1768735315947,0.0479583740234375,-0.4709625244140625,-0.8600311279296875,0.0475803017616272,0.0031177627388387,0.0261485129594802
1768735315957,0.04376220703125,-0.468475341796875,-0.8618011474609375,0.0367992930114269,-0.0013339773286134,0.0240850951522588
1768735315967,0.0445098876953125,-0.472900390625,-0.85870361328125,0.0212656073272228,-0.0153011921793222,0.0247479565441608
1768735315977,0.04632568359375,-0.478546142578125,-0.855010986328125,0.0058709387667477,-0.0159073267132043,0.0252672731876373
1768735315987,0.0501861572265625,-0.4766998291015625,-0.8586273193359375,-0.0026788737159222,-0.024468058720231,0.0196565259248018
1768735315997,0.04913330078125,-0.4732208251953125,-0.8661956787109375,-0.0079375514760613,-0.0427330806851387,0.0113328155130147
1768735316009,0.0464324951171875,-0.46893310546875,-0.872100830078125,-0.002738528419286,-0.0350293554365634,0.0108614359050989
1768735316017,0.04443359375,-0.465972900390625,-0.8822479248046875,0.0057827881537377,-0.0187313426285982,0.0141320638358592
1768735316028,0.0471649169921875,-0.4687042236328125,-0.882904052734375,0.0130361737683415,-0.0078608524054288,0.0162032041698694
1768735316039,0.05194091796875,-0.4691314697265625,-0.8844451904296875,0.0165669918060302,-0.0042378883808851,0.0187526494264602
1768735316048,0.0575408935546875,-0.4735565185546875,-0.8838043212890625,0.0235724374651908,0.0048610679805278,0.0192794222384691
1768735316058,0.0616912841796875,-0.4776153564453125,-0.880218505859375,0.0224062390625476,0.0044357609003782,0.0112044513225555
1768735316068,0.062652587890625,-0.4793243408203125,-0.8723297119140625,0.0174301229417324,-0.0119549296796321,0.0020828582346439
1768735316078,0.0636138916015625,-0.4794769287109375,-0.8663482666015625,0.0101825967431068,-0.0213135443627834,-0.0019534286111593
1768735316088,0.0612640380859375,-0.4766845703125,-0.869384765625,0.0101660843938589,-0.016978982836008,-0.0004767058417201
1768735316098,0.0594940185546875,-0.4717864990234375,-0.879608154296875,0.0120422821491956,-0.0035872780717909,0.0075191687792539
1768735316108,0.0577392578125,-0.4730072021484375,-0.880828857421875,0.0151672344654798,0.0123437512665987,0.0117330886423587
1768735316118,0.058837890625,-0.4755401611328125,-0.8795928955078125,0.0126510802656412,0.017993913963437,0.0114486627280712
1768735316128,0.05853271484375,-0.4786834716796875,-0.874603271484375,0.0102118914946913,0.0114257596433162,0.0090140011161565
1768735316140,0.0611114501953125,-0.480865478515625,-0.8755950927734375,0.0109607717022299,-0.0007976167253218,0.0104281399399042
1768735316148,0.0600433349609375,-0.47979736328125,-0.8737335205078125,0.0085969502106308,-0.0062592276372015,0.0106936572119593
1768735316158,0.05523681640625,-0.477447509765625,-0.8709259033203125,0.0086030755192041,0.0011768508702516,0.010187922976911
1768735316168,0.05078125,-0.4756317138671875,-0.8730926513671875,0.0113503923639655,0.0083727119490504,0.0048450888134539
1768735316178,0.045806884765625,-0.4720611572265625,-0.8757476806640625,0.0147592388093471,0.0089713903144001,0.0040251016616821
1768735316188,0.04302978515625,-0.468963623046875,-0.87677001953125,0.018410699442029,0.0082736425101757,-0.0032546492293477
1768735316198,0.0406494140625,-0.467132568359375,-0.8762664794921875,0.016471916809678,0.0100307958200573,-0.0099711418151855
1768735316208,0.0380096435546875,-0.467315673828125,-0.8735504150390625,0.0103895235806703,0.0122313657775521,-0.0149299474433064
1768735316218,0.03460693359375,-0.467926025390625,-0.8683319091796875,-0.0003041329910047,0.0188160315155982,-0.028834044933319
1768735316229,0.035919189453125,-0.4714813232421875,-0.8637542724609375,-0.0073204971849918,0.0331329181790351,-0.0353380180895328
1768735316239,0.045074462890625,-0.4732818603515625,-0.8649139404296875,-0.0150053147226572,0.0192786231637001,-0.0374893173575401
1768735316249,0.0568084716796875,-0.4785003662109375,-0.8683013916015625,-0.0186397302895784,0.0004484763194341,-0.0360837019979953
1768735316259,0.0617218017578125,-0.4777374267578125,-0.87176513671875,-0.0131376395002007,0.0055700014345347,-0.0332407765090465
1768735316269,0.063232421875,-0.4801788330078125,-0.8733062744140625,-0.0148953264579176,-0.0006175870657898,-0.0323978886008262
1768735316279,0.06353759765625,-0.482635498046875,-0.8685150146484375,-0.0156735014170408,0.0090187946334481,-0.0292665418237447
1768735316289,0.06341552734375,-0.4799041748046875,-0.8721771240234375,-0.0135794579982757,0.0125719849020242,-0.0278843622654676
1768735316299,0.06390380859375,-0.478851318359375,-0.87255859375,-0.0138260666280984,0.010054231621325,-0.0264667607843875
1768735316309,0.0641021728515625,-0.4787445068359375,-0.8718109130859375,-0.0155310230329632,0.0093514239415526,-0.0239253062754869
1768735316319,0.060516357421875,-0.4769439697265625,-0.873199462890625,-0.0191233605146408,0.0066855996847152,-0.0260662212967872
1768735316329,0.0592498779296875,-0.4705657958984375,-0.8746490478515625,-0.0150812147185206,0.0021867216564714,-0.0212072841823101
1768735316339,0.05859375,-0.46539306640625,-0.882904052734375,-0.0031188279390335,-0.0019619506783783,-0.0160940140485763
1768735316349,0.0541534423828125,-0.4646148681640625,-0.88714599609375,0.00471779005602,0.0011363708181306,-0.0092499572783708
1768735316359,0.051177978515625,-0.4665679931640625,-0.884552001953125,0.0055636097677052,0.0051659997552633,-0.0128263160586357
1768735316369,0.0476837158203125,-0.4676513671875,-0.8784027099609375,0.0024554345291107,0.0029337382875382,-0.0175334531813859
1768735316379,0.0467376708984375,-0.4692535400390625,-0.87091064453125,-0.0041409493423998,-0.0051124701276421,-0.0215377826243639
1768735316390,0.0477294921875,-0.4728240966796875,-0.8681793212890625,-0.0126593364402651,-0.0120068620890378,-0.0170903038233518
1768735316399,0.048248291015625,-0.4709930419921875,-0.8683624267578125,-0.0204738490283489,-0.0173907075077295,-0.0167323742061853
1768735316409,0.0458526611328125,-0.4739532470703125,-0.865570068359375,-0.0341893956065177,-0.0174202695488929,-0.0141235422343015
1768735316419,0.0465545654296875,-0.474639892578125,-0.8673858642578125,-0.0467888116836547,-0.0142692169174551,-0.0104819359257817
1768735316430,0.049652099609375,-0.4759979248046875,-0.8701629638671875,-0.0568022951483726,-0.0132699990645051,-0.0051143346354365
1768735316440,0.0562591552734375,-0.4772491455078125,-0.877471923828125,-0.0520842410624027,-0.0169819127768278,0.0029379993211477
1768735316450,0.06207275390625,-0.472869873046875,-0.8895416259765625,-0.0359731800854206,-0.0224467199295759,0.0163430199027061
1768735316460,0.0616607666015625,-0.4723358154296875,-0.8997039794921875,-0.0159312952309846,-0.0221646912395954,0.0214778613299131
1768735316469,0.0571136474609375,-0.471282958984375,-0.9010772705078124,0.0025694177020341,-0.0140473758801817,0.0178823284804821
1768735316480,0.0559539794921875,-0.4725341796875,-0.8961334228515625,0.01149473618716,-0.005689044483006,0.018255703151226
1768735316490,0.0540313720703125,-0.4729766845703125,-0.892181396484375,0.0219393875449895,-0.0124103305861353,0.0148524492979049
1768735316500,0.056365966796875,-0.4734649658203125,-0.887054443359375,0.0249990932643413,-0.0148338070139288,0.0076632457785308
1768735316510,0.059234619140625,-0.4749755859375,-0.882598876953125,0.0281219147145748,-0.0115914084017276,0.0050743869505822
1768735316520,0.06085205078125,-0.4766693115234375,-0.8788299560546875,0.0308601781725883,-0.0100768692791461,0.0078512653708457
1768735316530,0.0619354248046875,-0.47479248046875,-0.8804779052734375,0.0381649620831012,-0.0081277014687657,0.0070256851613521
1768735316540,0.061920166015625,-0.473541259765625,-0.8845367431640625,0.0500418618321418,-0.0059556271880865,0.0034333472140133
1768735316550,0.0581817626953125,-0.4703369140625,-0.890838623046875,0.0702579170465469,-0.0031830100342631,-0.0098305260762572
1768735316560,0.055419921875,-0.4696807861328125,-0.8952789306640625,0.0723580867052078,-0.0329305194318294,-0.0236030630767345
1768735316570,0.05731201171875,-0.4736785888671875,-0.8931427001953125,0.0859252959489822,-0.0090129356831312,-0.0364826433360576
1768735316580,0.05401611328125,-0.4696807861328125,-0.8914642333984375,0.093251384794712,0.0199958123266696,-0.0374088920652866
1768735316591,0.0609893798828125,-0.4779052734375,-0.8807830810546875,0.0942460745573043,0.0276846252381801,-0.0320961512625217
1768735316600,0.0673065185546875,-0.4816741943359375,-0.875274658203125,0.0927557721734047,0.0340088345110416,-0.0289472285658121
1768735316610,0.0680084228515625,-0.48468017578125,-0.8719482421875,0.0906063318252563,0.0319677852094173,-0.0293400455266237
1768735316620,0.0641937255859375,-0.4835357666015625,-0.86834716796875,0.0768228769302368,0.0155161088332533,-0.0318530052900314
1768735316630,0.06341552734375,-0.4822998046875,-0.864837646484375,0.065409630537033,-0.0001488707057433,-0.0386344790458679
1768735316640,0.05987548828125,-0.4802398681640625,-0.86407470703125,0.0644418373703956,0.0103735448792576,-0.0419549085199832
1768735316650,0.058807373046875,-0.4781646728515625,-0.8638153076171875,0.0582047179341316,0.0149350073188543,-0.0400933586061
1768735316661,0.0612640380859375,-0.4827880859375,-0.8556671142578125,0.0449823886156082,0.0131301833316683,-0.0341449193656444
1768735316670,0.0607147216796875,-0.4834442138671875,-0.850067138671875,0.0237894859164953,0.0045031388290226,-0.0301254112273454
1768735316681,0.05804443359375,-0.4837646484375,-0.84576416015625,0.001096157124266,0.0125514781102538,-0.0269450638443231
1768735316691,0.0533599853515625,-0.4829864501953125,-0.842376708984375,-0.020824322476983,0.0193420071154832,-0.028074512258172
1768735316701,0.054046630859375,-0.48260498046875,-0.8430633544921875,-0.0395953468978405,0.0194610487669706,-0.0260893907397985
1768735316711,0.0561370849609375,-0.482452392578125,-0.849090576171875,-0.053178533911705,0.0173797886818647,-0.022856580093503
1768735316721,0.06011962890625,-0.4785308837890625,-0.858306884765625,-0.0548928081989288,0.0096243973821401,-0.0181214790791273
1768735316731,0.0587921142578125,-0.4770965576171875,-0.8642730712890625,-0.0549138486385345,0.0007611314067617,-0.0153712332248687
1768735316741,0.058013916015625,-0.4774169921875,-0.8644866943359375,-0.0557229183614254,-0.0033302828669548,-0.0120212426409125
1768735316751,0.0587921142578125,-0.4757843017578125,-0.870025634765625,-0.052126582711935,-0.0091096088290214,-0.0101370560005307
1768735316761,0.0562591552734375,-0.4751739501953125,-0.870086669921875,-0.049022402614355,-0.0154532585293054,-0.0107977865263819
1768735316771,0.0556640625,-0.472808837890625,-0.872589111328125,-0.0446007587015628,-0.0203854329884052,-0.0144676221534609
1768735316781,0.0551605224609375,-0.473785400390625,-0.87689208984375,-0.0357366912066936,-0.0207697264850139,-0.0114039219915866
1768735316791,0.056854248046875,-0.4739532470703125,-0.8801116943359375,-0.0268779527395963,-0.0244515463709831,-0.0075844163075089
1768735316801,0.0554351806640625,-0.4736328125,-0.8800201416015625,-0.0183920562267303,-0.0296977087855339,-0.0070379357784986
1768735316811,0.05145263671875,-0.473846435546875,-0.8803863525390625,-0.0167616698890924,-0.0300612300634384,-0.0097532952204346
1768735316821,0.0514373779296875,-0.4778289794921875,-0.8756256103515625,-0.0163664557039737,-0.0314005315303802,-0.0153776248916983
1768735316831,0.05462646484375,-0.479339599609375,-0.8743438720703125,-0.0191553179174661,-0.0321736484766006,-0.0124958176165819
1768735316842,0.059051513671875,-0.4823760986328125,-0.87384033203125,-0.0173848494887352,-0.0388363450765609,-0.0092576807364821
1768735316851,0.0634918212890625,-0.4835205078125,-0.8742523193359375,-0.0198559965938329,-0.0525921061635017,-0.0087506147101521
1768735316862,0.061309814453125,-0.482330322265625,-0.8688507080078125,-0.0279863607138395,-0.0698592439293861,-0.0136945070698857
1768735316874,0.0550537109375,-0.47857666015625,-0.8694305419921875,-0.0289195328950881,-0.0701884105801582,-0.0171377081423997
1768735316882,0.0456390380859375,-0.4732513427734375,-0.8766021728515625,-0.0237245038151741,-0.046617567539215,-0.0194096509367227
1768735316892,0.0456085205078125,-0.4713134765625,-0.87908935546875,-0.0182759426534175,-0.0320580676198005,-0.0200762394815683
1768735316902,0.046600341796875,-0.4723052978515625,-0.8792877197265625,-0.0139104891568422,-0.0235495343804359,-0.0207705255597829
1768735316912,0.054962158203125,-0.4778289794921875,-0.87957763671875,-0.0078699076548218,-0.0130268521606922,-0.0107916612178087
1768735316924,0.0642242431640625,-0.4823150634765625,-0.883880615234375,-0.0036802222020924,-0.0153925381600856,-0.0049803773872554
1768735316932,0.06707763671875,-0.4836578369140625,-0.8751983642578125,-0.0084861628711223,-0.0346202962100505,-0.0117709059268236
1768735316942,0.062225341796875,-0.4831695556640625,-0.8705291748046875,-0.0118009997531771,-0.0393356867134571,-0.0220826659351587
1768735316952,0.0559234619140625,-0.47698974609375,-0.876678466796875,-0.0100046973675489,-0.0292332526296377,-0.023127157241106
1768735316962,0.053619384765625,-0.474334716796875,-0.883087158203125,-0.0017129451734945,-0.0162870939821004,-0.0176378488540649
1768735316973,0.0542449951171875,-0.47357177734375,-0.8861236572265625,0.0021750037558376,-0.0048139300197362,-0.0135933067649602
1768735316982,0.0567169189453125,-0.4766998291015625,-0.8830718994140625,-0.0013259878614917,-0.0021891184151172,-0.0095698032528162
1768735316992,0.0643310546875,-0.4807586669921875,-0.8783111572265625,-0.0074757593683898,-0.0033997914288192,-0.0079276980832219
1768735317002,0.0704193115234375,-0.4838714599609375,-0.8751983642578125,-0.0092662023380398,0.0003241066879127,-0.0004495415778364
1768735317012,0.0741729736328125,-0.4837188720703125,-0.878326416015625,-0.0037001960445195,0.0007901599165052,0.007032343186438
1768735317023,0.0751190185546875,-0.4793548583984375,-0.885955810546875,0.0096435723826289,0.006687996443361,0.0134162064641714
1768735317032,0.070404052734375,-0.4761199951171875,-0.8873138427734375,0.0206557437777519,0.0138604221865534,0.0145312724635005
1768735317042,0.065826416015625,-0.474151611328125,-0.8859405517578125,0.0302543081343173,0.0246803127229213,0.01310461666435
1768735317052,0.0638275146484375,-0.472625732421875,-0.882904052734375,0.0391063913702964,0.0308247581124305,0.0153302205726504
1768735317062,0.0654144287109375,-0.46978759765625,-0.879638671875,0.0454258061945438,0.033379528671503,0.018229603767395
1768735317075,0.0601043701171875,-0.46875,-0.876708984375,0.0484708622097969,0.0308394059538841,0.0132947666570544
1768735317082,0.0552978515625,-0.4687652587890625,-0.868927001953125,0.0452391169965267,0.0276446770876646,0.0088531468063592
1768735317093,0.05279541015625,-0.470794677734375,-0.8608551025390625,0.0351864844560623,0.0202360302209854,0.0037406759802252
1768735317102,0.051971435546875,-0.473236083984375,-0.8537750244140625,0.0193156413733959,0.0097498325631022,-0.0015771239995956
1768735317113,0.0546112060546875,-0.4760589599609375,-0.8467864990234375,0.000909203197807,0.0040288302116096,-0.0019246664596721
1768735317124,0.056732177734375,-0.479217529296875,-0.84375,-0.0180921852588653,0.0011946940794587,0.0025534387677907
1768735317133,0.0592803955078125,-0.4793548583984375,-0.848388671875,-0.0324298441410064,-0.0071931979618966,0.0073729613795876
1768735317143,0.0584259033203125,-0.48138427734375,-0.8527069091796875,-0.0435919538140296,-0.0177606213837862,0.0070264842361211
1768735317153,0.0557708740234375,-0.482421875,-0.8515625,-0.0599466897547245,-0.0171369090676307,0.0061015682294964
1768735317163,0.055145263671875,-0.481475830078125,-0.863555908203125,-0.0579679608345031,-0.0245317090302705,0.0083090625703334
1768735317173,0.0563812255859375,-0.4794769287109375,-0.883636474609375,-0.0433919504284858,-0.0316399522125721,0.0094805872067809
1768735317183,0.05517578125,-0.4779052734375,-0.8898773193359375,-0.0309651065617799,-0.0371950380504131,0.0108358701691031
1768735317193,0.051422119140625,-0.4759368896484375,-0.885528564453125,-0.0234086532145738,-0.0422782152891159,0.0041398839093744
1768735317203,0.043182373046875,-0.479248046875,-0.8778533935546875,-0.0309603121131658,-0.0301368627697229,-0.0075183701701462
1768735317213,0.0411529541015625,-0.4795074462890625,-0.8695220947265625,-0.0399151928722858,-0.0061399177648127,0.0026357304304838
1768735317224,0.0514373779296875,-0.47735595703125,-0.882598876953125,-0.0173592828214168,-0.0106425238773226,0.0138114197179675
1768735317233,0.052154541015625,-0.47308349609375,-0.8991546630859375,0.0032184300944209,-0.0250962991267442,0.0140793332830071
1768735317243,0.0495147705078125,-0.4755859375,-0.89117431640625,0.0103586316108703,-0.0283477511256933,0.0076552564278244
1768735317253,0.0432586669921875,-0.475189208984375,-0.87847900390625,0.0070592411793768,-0.0234901458024978,0.0019318570848554
1768735317263,0.04150390625,-0.4775543212890625,-0.8664093017578125,-0.0088973548263311,-0.0178903173655271,-0.0020250675734132
1768735317274,0.0439910888671875,-0.481414794921875,-0.8557891845703125,-0.0354701094329357,-0.0093759251758456,-0.004512726329267
1768735317283,0.050079345703125,-0.484527587890625,-0.8524627685546875,-0.0598313771188259,-0.0038330876268446,0.0007416903390549
1768735317294,0.0542449951171875,-0.4839019775390625,-0.8585662841796875,-0.073409765958786,-0.0033377397339791,0.0083894897252321
1768735317303,0.056488037109375,-0.480194091796875,-0.868408203125,-0.0772788077592849,-0.00497158896178,0.0161129236221313
1768735317314,0.0572662353515625,-0.4764251708984375,-0.8773193359375,-0.0695955902338028,-0.0044685178436338,0.019565712660551
1768735317324,0.05645751953125,-0.473419189453125,-0.8870697021484375,-0.0513832941651344,-0.0074464646168053,0.0265123005956411
1768735317334,0.0514678955078125,-0.4677581787109375,-0.8997955322265625,-0.0216610860079526,0.0025457157753407,0.0270390734076499
1768735317344,0.051025390625,-0.4676971435546875,-0.9063873291015624,0.0084787057712674,0.0093018887564539,0.0183017756789922
1768735317354,0.0513153076171875,-0.4679718017578125,-0.9068603515625,0.0441173948347568,0.0071516525931656,0.0182583667337894
1768735317364,0.0535888671875,-0.469970703125,-0.9050140380859376,0.0655007138848304,-0.0036956686526536,0.0182919222861528
1768735317374,0.052947998046875,-0.475341796875,-0.8950653076171875,0.0703410059213638,0.0047974181361496,0.0157312918454408
1768735317384,0.0517730712890625,-0.47833251953125,-0.881134033203125,0.0680088773369789,0.0161115918308496,0.0172543544322252
1768735317394,0.0501556396484375,-0.4804840087890625,-0.8685455322265625,0.053924486041069,0.0196261648088693,0.0137248672544956
1768735317404,0.0459442138671875,-0.4823455810546875,-0.859588623046875,0.0358687862753868,0.0186421275138854,0.0116060562431812
1768735317414,0.0488739013671875,-0.4810333251953125,-0.8544464111328125,0.0173211991786956,0.014379471540451,0.0125621305778622
1768735317424,0.0489501953125,-0.480499267578125,-0.8524322509765625,-0.0013006879016757,0.0081308968365192,0.0068832063116133
1768735317434,0.0509033203125,-0.4796600341796875,-0.850616455078125,-0.017184579744935,0.0044615939259529,0.0022319953422993
1768735317444,0.0501251220703125,-0.47735595703125,-0.8568267822265625,-0.0254449062049388,-0.0008796420879662,0.0005701828049495
1768735317454,0.0485992431640625,-0.474700927734375,-0.862518310546875,-0.027544543147087,-0.0075852153822779,-0.0022996396292001
1768735317464,0.0452728271484375,-0.4733428955078125,-0.8669586181640625,-0.0323736518621444,-0.0142031703144311,-0.0088318409398198
1768735317475,0.04034423828125,-0.471038818359375,-0.8667755126953125,-0.0383921302855014,-0.0141531033441424,-0.0187337398529052
1768735317484,0.0379486083984375,-0.4721527099609375,-0.870147705078125,-0.0399375632405281,-0.0119804963469505,-0.028463864699006
1768735317494,0.0402374267578125,-0.4749755859375,-0.8712158203125,-0.0406603440642356,-0.0016668725293129,-0.0270183011889457
1768735317504,0.0459442138671875,-0.4734344482421875,-0.879119873046875,-0.0321651250123977,-0.000169643361005,-0.0220610927790403
1768735317515,0.0462646484375,-0.472442626953125,-0.886871337890625,-0.0240600630640983,-0.0001371527905575,-0.0256369207054376
1768735317525,0.0454864501953125,-0.4751129150390625,-0.8849639892578125,-0.0174431726336479,0.0113716982305049,-0.0257272012531757
1768735317535,0.049591064453125,-0.47528076171875,-0.88775634765625,-0.0061628208495676,0.0150865409523248,-0.0213625468313694
1768735317545,0.051605224609375,-0.4776458740234375,-0.890228271484375,0.0068901302292943,0.0100118881091475,-0.0217782668769359
1768735317555,0.0520782470703125,-0.47735595703125,-0.884674072265625,0.0107463877648115,0.0021366542205214,-0.0232834853231906
1768735317565,0.0497589111328125,-0.4814300537109375,-0.8730926513671875,0.0039228363893926,0.0134098147973418,-0.0241202507168054
1768735317575,0.0537872314453125,-0.4814453125,-0.8701171875,0.001472994335927,0.015801066532731,-0.0131546845659613
1768735317587,0.055633544921875,-0.4795684814453125,-0.8795166015625,0.0072728265076875,0.0096419742330908,-0.0079588564112782
1768735317595,0.0529632568359375,-0.47760009765625,-0.8768768310546875,0.010080331005156,0.004317782819271,-0.0077423420734703
1768735317605,0.04681396484375,-0.475555419921875,-0.868621826171875,0.0050986218266189,-0.0104811368510127,-0.0133280558511614
1768735317615,0.04339599609375,-0.4750213623046875,-0.85693359375,-0.0098744686692953,-0.0338719449937343,-0.0271123107522726
1768735317625,0.03912353515625,-0.472442626953125,-0.8471221923828125,-0.0324114710092544,-0.041901908814907,-0.0400954894721508
1768735317635,0.041290283203125,-0.475341796875,-0.84326171875,-0.0607757307589054,-0.0378725454211235,-0.0420294739305973
1768735317645,0.044891357421875,-0.474700927734375,-0.852325439453125,-0.0785499364137649,-0.0338058993220329,-0.0329907052218914
1768735317655,0.0458221435546875,-0.4748382568359375,-0.8627471923828125,-0.0875018835067749,-0.0277687795460224,-0.0277173817157745
1768735317665,0.045013427734375,-0.471160888671875,-0.8748016357421875,-0.0875391662120819,-0.0064046359620988,-0.022594790905714
1768735317675,0.045623779296875,-0.469329833984375,-0.891357421875,-0.0720137432217598,0.0234557911753654,-0.0197233706712722
1768735317685,0.0517425537109375,-0.4671783447265625,-0.9128875732421876,-0.0392922796308994,0.0370821207761764,-0.0125839682295918
1768735317695,0.059814453125,-0.4666900634765625,-0.9316253662109376,0.0079982718452811,0.0414576940238475,-0.0059018312022089
1768735317705,0.064208984375,-0.4696502685546875,-0.9360809326171876,0.0536323338747024,0.0499864667654037,-0.0031739552505314
1768735317716,0.0641632080078125,-0.47454833984375,-0.926300048828125,0.0855617746710777,0.052357479929924,-0.0064483117312192
1768735317726,0.060089111328125,-0.4741363525390625,-0.90966796875,0.102953016757965,0.0390861481428146,-0.0149861397221684
1768735317736,0.0550537109375,-0.4738311767578125,-0.8955841064453125,0.1178643181920051,0.0296838600188493,-0.020659739151597
1768735317746,0.048583984375,-0.471527099609375,-0.88128662109375,0.119218535721302,0.0389761626720428,-0.0215939749032259
1768735317757,0.0473785400390625,-0.47552490234375,-0.8624725341796875,0.1019008010625839,0.0440625324845314,-0.0266758184880018
1768735317766,0.0445098876953125,-0.4770965576171875,-0.843505859375,0.0711647272109985,0.0331028252840042,-0.03212571144104
1768735317776,0.045867919921875,-0.4806060791015625,-0.831634521484375,0.0338445156812667,0.0300676207989454,-0.0313672423362731
1768735317786,0.0532684326171875,-0.484100341796875,-0.8268280029296875,-0.0030181603506207,0.024066187441349,-0.0301909260451793
1768735317796,0.0552520751953125,-0.48162841796875,-0.830078125,-0.0320628620684146,-0.0003917510039173,-0.0320972166955471
1768735317807,0.0498809814453125,-0.476165771484375,-0.8394927978515625,-0.0487172044813632,-0.0143424542620778,-0.037555631250143
1768735317816,0.04461669921875,-0.4695281982421875,-0.8525848388671875,-0.0545761585235595,-0.0052272523753345,-0.0393910817801952
1768735317826,0.04083251953125,-0.4647369384765625,-0.8706512451171875,-0.048333179205656,0.009172192774713,-0.0388073176145553
1768735317836,0.0460662841796875,-0.4661865234375,-0.8814697265625,-0.0376309975981712,0.0200634561479091,-0.0357127226889133
1768735317846,0.054901123046875,-0.4684295654296875,-0.8869476318359375,-0.0312809571623802,0.0225982535630464,-0.0278872903436422
1768735317856,0.065887451171875,-0.475433349609375,-0.8894805908203125,-0.0228704288601875,0.0140002379193902,-0.0235332883894443
1768735317866,0.0732421875,-0.4817962646484375,-0.885833740234375,-0.0189238898456096,0.0004324973560869,-0.0187358707189559
1768735317876,0.0759429931640625,-0.4847564697265625,-0.8848876953125,-0.0146274119615554,-0.0007078681956045,-0.0102568985894322
1768735317886,0.0769500732421875,-0.4859161376953125,-0.8853759765625,-0.0032509206794202,0.0016927052056416,-0.0031784826423972
1768735317896,0.0732269287109375,-0.4844818115234375,-0.8874053955078125,0.0121280355378985,0.0063263392075896,0.003639209549874
1768735317907,0.070159912109375,-0.4813385009765625,-0.8894195556640625,0.02248240634799,0.0116824889555573,0.0033353429753333
1768735317916,0.063018798828125,-0.477020263671875,-0.8856048583984375,0.0283866338431835,0.0149653675034642,0.0011659319279715
1768735317927,0.0577850341796875,-0.474273681640625,-0.882568359375,0.0293624158948659,0.0165904276072978,-0.0013582120882347
1768735317936,0.052398681640625,-0.470489501953125,-0.88006591796875,0.0276910159736871,0.0193393435329198,-0.0071694958023726
1768735317947,0.050750732421875,-0.4689788818359375,-0.873809814453125,0.0231878776103258,0.0246656648814678,-0.0125754466280341
1768735317957,0.0501708984375,-0.467193603515625,-0.8725128173828125,0.0233601834625005,0.0303392633795738,-0.0108691593632102
1768735317967,0.0502471923828125,-0.4684600830078125,-0.872894287109375,0.0197960752993822,0.034061562269926,-0.0171789862215518
1768735317977,0.0505218505859375,-0.47247314453125,-0.86859130859375,0.0140103576704859,0.0289594791829586,-0.0206448249518871
1768735317987,0.055023193359375,-0.474853515625,-0.86358642578125,0.0057724015787243,0.0245375670492649,-0.0247381031513214
1768735317997,0.060638427734375,-0.4777374267578125,-0.86480712890625,-0.0020200076978653,0.0171749927103519,-0.018581673502922
1768735318007,0.065185546875,-0.4801483154296875,-0.8642425537109375,-0.0102110924199223,0.0091149350628256,-0.020447751507163
1768735318017,0.0666046142578125,-0.4828948974609375,-0.8660430908203125,-0.019120430573821,0.0068419273011386,-0.0163683202117681
1768735318027,0.0657806396484375,-0.481903076171875,-0.8673858642578125,-0.0238259714096784,0.0046970173716545,-0.0113693010061979
1768735318037,0.0682525634765625,-0.481475830078125,-0.874420166015625,-0.0197673123329877,-0.000524909060914,-0.0040807616896927
1768735318047,0.06683349609375,-0.4781646728515625,-0.8812713623046875,-0.0116697056218981,-0.0039449403993785,0.001929193851538
1768735318058,0.06195068359375,-0.47430419921875,-0.88812255859375,-0.0003707120195031,-0.001489505986683,0.0028591696172952
1768735318067,0.0577850341796875,-0.4686431884765625,-0.895721435546875,0.0217606890946626,0.0112164355814456,0.0050786482170224
1768735318077,0.055877685546875,-0.4682769775390625,-0.8978118896484375,0.0376805327832698,0.0220770724117755,0.0047401604242622
1768735318087,0.05548095703125,-0.4700775146484375,-0.8913116455078125,0.0505910068750381,0.0264601036906242,0.0062688146717846
1768735318097,0.0570831298828125,-0.471771240234375,-0.8874053955078125,0.0581922009587287,0.0248616747558116,0.0026280074380338
1768735318108,0.0584716796875,-0.4720611572265625,-0.8826904296875,0.0624199695885181,0.0245871022343635,-0.0008705873624421
1768735318117,0.060882568359375,-0.47540283203125,-0.875457763671875,0.0613304674625396,0.0193550549447536,-0.0024045680183917
1768735318127,0.0652618408203125,-0.4774932861328125,-0.8696136474609375,0.0558243840932846,0.0163294374942779,0.000695351336617
1768735318137,0.0697174072265625,-0.4808502197265625,-0.863677978515625,0.0455685518682003,0.0058746668510138,0.0033143039327114
1768735318148,0.070556640625,-0.4837188720703125,-0.8572235107421875,0.0262758117169141,0.0006245112745091,0.0073109096847474
1768735318158,0.0713348388671875,-0.48297119140625,-0.85015869140625,0.0056645437143743,-0.001390702673234,0.0137850539758801
1768735318168,0.0716552734375,-0.48358154296875,-0.8511810302734375,-0.009359679184854,-0.0079894829541444,0.0128383003175258
1768735318178,0.06903076171875,-0.4810943603515625,-0.8550567626953125,-0.0173451676964759,-0.0154279582202434,0.0152761582285165
1768735318188,0.0683135986328125,-0.4791412353515625,-0.8607330322265625,-0.0191760919988155,-0.0110406670719385,0.0165286436676979
1768735318198,0.0686798095703125,-0.4806671142578125,-0.8661041259765625,-0.016283631324768,-0.0060272659175097,0.0219548344612121
1768735318209,0.0700225830078125,-0.478973388671875,-0.87322998046875,-0.0101088266819715,0.0018152105621993,0.0218861233443021
1768735318218,0.06768798828125,-0.4781646728515625,-0.877349853515625,-0.0009291769238188,0.0110952612012624,0.0261810030788183
1768735318228,0.065887451171875,-0.4762420654296875,-0.883514404296875,0.0121232420206069,0.0156948063522577,0.0282513443380594
1768735318238,0.0634613037109375,-0.4758148193359375,-0.8859710693359375,0.0240587312728166,0.0182493105530738,0.0260872598737478
1768735318248,0.059234619140625,-0.476409912109375,-0.882598876953125,0.0284188576042652,0.0176016297191381,0.0229995921254158
1768735318258,0.05712890625,-0.479156494140625,-0.878326416015625,0.027679031714797,0.0136281941086053,0.0213020928204059
1768735318268,0.05877685546875,-0.48223876953125,-0.8691253662109375,0.0224120989441871,0.0094496943056583,0.0198685135692358
1768735318278,0.05877685546875,-0.4835968017578125,-0.86602783203125,0.0136537607759237,0.004628840368241,0.0209082104265689
1768735318288,0.0575714111328125,-0.4872283935546875,-0.8626708984375,0.0055604139342904,0.0062757390551269,0.0201276391744613
1768735318298,0.057037353515625,-0.487518310546875,-0.8643951416015625,-0.0013773868558928,0.008741027675569,0.0182128250598907
1768735318309,0.0569915771484375,-0.4868621826171875,-0.86492919921875,-0.0053939665667712,0.0049510826356709,0.0176828559488058
1768735318318,0.0559844970703125,-0.484954833984375,-0.867828369140625,-0.009092298336327,0.0015680692158639,0.0162641908973455
1768735318328,0.0590972900390625,-0.486328125,-0.8668670654296875,-0.0079591227695345,0.0017531589837744,0.0179387871176004
1768735318338,0.059539794921875,-0.4846038818359375,-0.8708038330078125,-0.0025001754984259,-0.0072786854580044,0.0220333971083164
1768735318349,0.0599822998046875,-0.485626220703125,-0.873443603515625,0.0010977550409734,-0.0117077883332967,0.0238771028816699
1768735318359,0.05670166015625,-0.483795166015625,-0.8725128173828125,0.0028770128265023,-0.0127906296402215,0.0197478719055652
1768735318368,0.053070068359375,-0.481170654296875,-0.871002197265625,0.0051976912654936,-0.0073708309791982,0.015952069312334
1768735318379,0.052734375,-0.4810791015625,-0.8762359619140625,0.0125211179256439,-0.0046429550275206,0.0143586993217468
1768735318389,0.0548248291015625,-0.481536865234375,-0.8779144287109375,0.0186818093061447,-0.0013869742397218,0.0141672175377607
1768735318399,0.0579071044921875,-0.483245849609375,-0.880828857421875,0.0261090993881225,0.0006103964988142,0.0178977735340595
1768735318410,0.0578460693359375,-0.485198974609375,-0.8784332275390625,0.0290095470845699,-0.0005411543534137,0.0165645964443683
1768735318419,0.05780029296875,-0.4864959716796875,-0.872955322265625,0.031913723796606,-0.00408022897318,0.0181065648794174
1768735318429,0.0546722412109375,-0.486236572265625,-0.8729095458984375,0.0323395654559135,-0.0019113506423309,0.0149563122540712
1768735318440,0.053253173828125,-0.4842529296875,-0.8720550537109375,0.034487135708332,-0.0018178737955167,0.0142290033400058
1768735318449,0.05224609375,-0.4828643798828125,-0.8707275390625,0.0363779813051223,0.0032684975303709,0.009009207598865
1768735318459,0.0530242919921875,-0.48358154296875,-0.8658447265625,0.0357151217758655,0.0060182115994393,0.006361492909491
1768735318469,0.0539398193359375,-0.4848785400390625,-0.861785888671875,0.0304809436202049,0.0079207736998796,0.0023446469567716
1768735318479,0.0564422607421875,-0.4842071533203125,-0.86248779296875,0.0254864506423473,0.0051787830889225,-0.0021925806067883
1768735318489,0.0569305419921875,-0.4857330322265625,-0.8596343994140625,0.0198187120258808,0.0085423551499843,0.0010687265312299
1768735318499,0.0590972900390625,-0.487548828125,-0.8590545654296875,0.0138665474951267,0.0097349192947149,0.006727943662554
1768735318509,0.0594482421875,-0.4904022216796875,-0.8607177734375,0.0088984202593564,0.0096616819500923,0.0064855962991714
1768735318519,0.0580291748046875,-0.4896392822265625,-0.8603057861328125,0.0004961469094268,0.0085692536085844,0.0064302026294171
1768735318529,0.056396484375,-0.4893646240234375,-0.8616485595703125,-0.0036266928073018,0.0054578823037445,0.0031670311000198
1768735318539,0.0549774169921875,-0.4896392822265625,-0.8634796142578125,-0.0080400835722684,0.0076717683114111,0.0046237800270318
1768735318549,0.05712890625,-0.489715576171875,-0.8680572509765625,-0.0013776532141491,0.0091588776558637,0.006255499087274
1768735318559,0.0613555908203125,-0.4923095703125,-0.8755950927734375,0.0082251727581024,0.012073440477252,0.0106246806681156
1768735318569,0.0632476806640625,-0.49462890625,-0.8710479736328125,0.0116321546956896,0.0158055946230888,0.0140540339052677
1768735318580,0.0637969970703125,-0.4925994873046875,-0.86590576171875,0.0087135965004563,0.0035902075469493,0.0088432924821972
1768735318590,0.0550537109375,-0.4892120361328125,-0.8647003173828125,0.0092526208609342,-0.0026620957069098,0.0046797064132988
1768735318600,0.0496978759765625,-0.4869232177734375,-0.8625640869140625,0.0039390814490616,0.0182983130216598,0.001563541823998
1768735318610,0.04736328125,-0.4869232177734375,-0.8592376708984375,0.0014242585748434,0.0315683111548423,0.0035481294617056
1768735318620,0.0522003173828125,-0.4880828857421875,-0.861175537109375,-0.0027843348216265,0.024098677560687,0.0022916500456631
1768735318630,0.0535125732421875,-0.490814208984375,-0.8585052490234375,-0.0130351083353161,0.022734073922038,0.0058775963261723
1768735318640,0.05853271484375,-0.492706298828125,-0.8548126220703125,-0.0235141143202781,0.0185862015932798,0.0066501796245574
1768735318650,0.059356689453125,-0.4902496337890625,-0.85845947265625,-0.0278196465224027,-0.005061337724328,-0.0060339239425957
1768735318660,0.0513458251953125,-0.487274169921875,-0.85784912109375,-0.0300140921026468,-0.0196695756167173,-0.0172618106007576
1768735318670,0.042327880859375,-0.48236083984375,-0.864105224609375,-0.0274342875927686,-0.0127243176102638,-0.0207633357495069
1768735318680,0.0373992919921875,-0.4769134521484375,-0.87286376953125,-0.0213609486818313,0.000467118457891,-0.0234933421015739
1768735318690,0.0370330810546875,-0.4793701171875,-0.874542236328125,-0.0210959631949663,0.0159174483269453,-0.0236424785107374
1768735318700,0.0440673828125,-0.487762451171875,-0.8709259033203125,-0.0314940102398395,0.024892833083868,-0.0181089621037244
1768735318710,0.05877685546875,-0.4940032958984375,-0.8703460693359375,-0.0369574837386608,0.0155616486445069,-0.0148362042382359
1768735318720,0.0706329345703125,-0.5018768310546875,-0.8734588623046875,-0.0362629331648349,-0.0043870252557098,-0.0106664923951029
1768735318730,0.07379150390625,-0.50177001953125,-0.875,-0.0323925614356994,-0.0151912029832601,-0.0079545956104993
1768735318740,0.0729217529296875,-0.5015411376953125,-0.878204345703125,-0.023095466196537,-0.0095298560336232,-0.0087570063769817
1768735318750,0.0703887939453125,-0.50006103515625,-0.881988525390625,-0.0081639206036925,-0.0034115093294531,0.001643170369789
1768735318761,0.067413330078125,-0.492279052734375,-0.893524169921875,0.0189973935484886,0.0047473507001996,0.0049106026999652
1768735318770,0.0589447021484375,-0.4859771728515625,-0.8962249755859375,0.0401950888335704,0.0147656304761767,0.002976881340146
1768735318780,0.0534210205078125,-0.4810791015625,-0.890960693359375,0.0570813938975334,0.0278406850993633,-0.0008847020799294
1768735318790,0.050872802734375,-0.476654052734375,-0.88836669921875,0.0692832022905349,0.0329717993736267,-0.0033044503070414
1768735318801,0.0508880615234375,-0.4754791259765625,-0.88189697265625,0.0787880197167396,0.0351867489516735,-0.0041915490292012
1768735318811,0.0489501953125,-0.4751739501953125,-0.873779296875,0.0781818851828575,0.0358083322644233,-0.0067167584784328
1768735318821,0.0461883544921875,-0.47918701171875,-0.8627166748046875,0.069241389632225,0.0406222604215145,-0.010374610312283
1768735318831,0.0516204833984375,-0.4832916259765625,-0.85308837890625,0.0555655248463153,0.0412643477320671,-0.0130518861114978
1768735318841,0.055145263671875,-0.4877471923828125,-0.8443603515625,0.0366810485720634,0.0292050223797559,-0.0116601176559925
1768735318851,0.0587158203125,-0.488433837890625,-0.8412017822265625,0.0189345423132181,0.0118798287585377,-0.0104257427155971
1768735318861,0.0572662353515625,-0.4893798828125,-0.8380889892578125,-0.0043441485613584,-0.0014578143600374,-0.0150133045390248
1768735318871,0.0562286376953125,-0.48858642578125,-0.836273193359375,-0.027779433876276,-0.0077306241728365,-0.0211793202906847
1768735318881,0.0591583251953125,-0.487762451171875,-0.84228515625,-0.0438169874250888,-0.0148617699742317,-0.0186184253543615
1768735318891,0.0626983642578125,-0.4876556396484375,-0.8522491455078125,-0.0499044433236122,-0.0265527814626693,-0.0175307895988225
1768735318901,0.0638885498046875,-0.485595703125,-0.861053466796875,-0.0535913221538066,-0.0305661652237176,-0.0163062680512666
1768735318911,0.0633392333984375,-0.4855499267578125,-0.8677825927734375,-0.0522339083254337,-0.0223385952413082,-0.0135738654062151
1768735318921,0.066497802734375,-0.4852142333984375,-0.87530517578125,-0.0418766103684902,-0.0122404210269451,-0.0156671106815338
1768735318931,0.065643310546875,-0.4815521240234375,-0.88165283203125,-0.0279272384941577,-0.006712497677654,-0.0124979484826326
1768735318941,0.0656890869140625,-0.480682373046875,-0.88763427734375,-0.0040368195623159,0.001333178486675,-0.0058347196318209
1768735318951,0.0630950927734375,-0.475921630859375,-0.8970947265625,0.020289558917284,0.01507562212646,-0.0030083067249506
1768735318961,0.058929443359375,-0.4753265380859375,-0.894775390625,0.0378765426576137,0.0254342537373304,-0.008249407634139
1768735318971,0.0567169189453125,-0.478912353515625,-0.8840484619140625,0.0460002496838569,0.0412659458816051,-0.0114886108785867
1768735318981,0.0605621337890625,-0.4813385009765625,-0.8763427734375,0.0475496761500835,0.0416089631617069,-0.0123903565108776
1768735318991,0.06561279296875,-0.48345947265625,-0.8676605224609375,0.0424739569425582,0.0341079011559486,-0.0116063226014375
1768735319001,0.0680389404296875,-0.4860992431640625,-0.857421875,0.032284703105688,0.0269783549010753,-0.0082765715196728
1768735319012,0.0698089599609375,-0.4877777099609375,-0.8486328125,0.0149741554632782,0.0199838280677795,-0.0048349690623581
1768735319022,0.069671630859375,-0.48919677734375,-0.8412628173828125,-0.0062821307219564,0.0118031296879053,0.0007273092633113
1768735319032,0.0686187744140625,-0.4892120361328125,-0.8421630859375,-0.023264842107892,-0.0004900216590613,0.0003307645965833
1768735319042,0.0668182373046875,-0.4892730712890625,-0.84259033203125,-0.0386880077421665,-0.0063071642071008,0.0015851134667173
1768735319052,0.0680999755859375,-0.4857940673828125,-0.8450469970703125,-0.0501667633652687,-0.0174538251012563,0.0059921122156083
1768735319062,0.065338134765625,-0.483917236328125,-0.85137939453125,-0.0562566146254539,-0.0200618579983711,0.0072768214158713
1768735319072,0.0637054443359375,-0.484527587890625,-0.8550872802734375,-0.0642383769154548,-0.0203247126191854,0.0064839981496334
1768735319082,0.05877685546875,-0.4845123291015625,-0.8609161376953125,-0.0636695250868797,-0.0134534910321235,0.005322593729943
1768735319092,0.0600738525390625,-0.48388671875,-0.874267578125,-0.0548435412347316,-0.010765828192234,0.0017864484107121
1768735319102,0.0626983642578125,-0.4833831787109375,-0.8809814453125,-0.0402768477797508,-0.004824049770832,0.0031667647417634
1768735319112,0.0660247802734375,-0.485626220703125,-0.8868560791015625,-0.021958028897643,0.0016080166678875,0.0053569483570754
1768735319122,0.068634033203125,-0.4872589111328125,-0.889190673828125,-0.0076211681589484,0.0014743260107934,0.0078637823462486
1768735319132,0.0666656494140625,-0.4908599853515625,-0.885772705078125,-0.0006095975404605,0.0043785031884908,0.009076053276658
1768735319142,0.064697265625,-0.4913787841796875,-0.881561279296875,0.0009635316673666,0.0063652214594185,0.0060898503288626
1768735319152,0.0651702880859375,-0.4917449951171875,-0.8772430419921875,0.0020357202738523,0.0063590961508452,0.0073881414718925
1768735319162,0.06683349609375,-0.49261474609375,-0.8773345947265625,0.0036618465092033,0.0033515882678329,0.0159219745546579
1768735319172,0.0672760009765625,-0.4932098388671875,-0.87725830078125,0.0032746228389441,0.0026762105990201,0.0181257408112287
1768735319182,0.0643157958984375,-0.490997314453125,-0.872589111328125,0.0010652644559741,0.0028114991728216,0.0214179400354623
1768735319193,0.0596466064453125,-0.4896697998046875,-0.8716583251953125,-0.0025076323654502,0.0018740664236247,0.0139379194006323
1768735319202,0.0564727783203125,-0.49066162109375,-0.8689727783203125,-0.0058429753407835,-0.0040259007364511,0.0072784190997481
1768735319213,0.0557708740234375,-0.4907989501953125,-0.8668975830078125,-0.008264853619039,-0.0051662661135196,0.0022431805264204
1768735319223,0.059112548828125,-0.4905853271484375,-0.8674774169921875,-0.0073383403941988,-0.0028655612841248,0.0035867453552782
1768735319233,0.061737060546875,-0.488922119140625,-0.873291015625,-0.0030442595016211,-0.0050757187418639,0.0031198931392282
1768735319243,0.05889892578125,-0.4887237548828125,-0.8711700439453125,0.0005384911783039,-0.0046099317260086,0.0038000645581632
1768735319253,0.058380126953125,-0.487396240234375,-0.8746795654296875,0.0069625684991478,0.0010719223646447,-0.0037926076911389
1768735319263,0.0582275390625,-0.48638916015625,-0.8787994384765625,0.0151904048398137,0.0025534387677907,-0.0038759645540267
1768735319273,0.0596466064453125,-0.486083984375,-0.8752899169921875,0.0242709852755069,0.0054067494347691,-0.0055425707250833
1768735319283,0.061614990234375,-0.4858551025390625,-0.8768310546875,0.0313240997493267,0.0074342139996588,-0.0061343251727521
1768735319293,0.0621795654296875,-0.48492431640625,-0.8778076171875,0.0393817611038684,0.0090534156188368,-0.0070917317643761
1768735319303,0.061431884765625,-0.48419189453125,-0.87384033203125,0.0441229864954948,0.0132060833275318,-0.0065801385790109
1768735319313,0.0627288818359375,-0.483917236328125,-0.8689422607421875,0.0461195595562458,0.0166815090924501,-0.0035113778430968
1768735319323,0.062744140625,-0.48291015625,-0.8701934814453125,0.0516959503293037,0.0103623596951365,-0.0016998957144096
1768735319333,0.058746337890625,-0.4826507568359375,-0.86273193359375,0.0403879024088382,0.0099306609481573,-0.004121774341911
1768735319343,0.059814453125,-0.48565673828125,-0.8500823974609375,0.0214706715196371,0.0129743879660964,-0.0007808388327248
1768735319353,0.060394287109375,-0.4857025146484375,-0.84613037109375,0.0082637891173362,0.0059164785780012,0.0011414308100938
1768735319363,0.0598602294921875,-0.485321044921875,-0.848297119140625,-0.0042424155399203,-0.0083647230640053,0.0019164107507094
1768735319373,0.0579681396484375,-0.4835662841796875,-0.844390869140625,-0.0200565326958894,-0.0271583832800388,-0.0054190000519156
1768735319383,0.051513671875,-0.485870361328125,-0.83984375,-0.0437959507107734,-0.0275679789483547,-0.0106041748076677
1768735319393,0.0555267333984375,-0.4844512939453125,-0.8450775146484375,-0.0538174249231815,-0.0239825639873743,-0.0029422603547573
1768735319403,0.0659637451171875,-0.483306884765625,-0.865020751953125,-0.0460071712732315,-0.0284486860036849,0.0071087758988142
1768735319414,0.0714569091796875,-0.487396240234375,-0.8749542236328125,-0.0361034087836742,-0.0262846015393733,0.0174130778759717
1768735319424,0.0698699951171875,-0.4892730712890625,-0.8752288818359375,-0.0319430194795131,-0.0263338685035705,0.0173198673874139
1768735319433,0.0618438720703125,-0.485260009765625,-0.87646484375,-0.0276699773967266,-0.0312838852405548,0.0082957465201616
1768735319444,0.0536041259765625,-0.480621337890625,-0.8848724365234375,-0.0112529210746288,-0.0125288413837552,0.008035821840167
1768735319454,0.051605224609375,-0.4785308837890625,-0.8953094482421875,0.0170911028981208,0.0144441863521933,0.0105754127725958
1768735319464,0.055694580078125,-0.4793701171875,-0.9007415771484376,0.04073491320014,0.0135277928784489,0.0083615267649292
1768735319474,0.0556793212890625,-0.481353759765625,-0.89532470703125,0.058162372559309,0.0166628658771514,0.0039880839176476
1768735319484,0.0547637939453125,-0.48785400390625,-0.8841552734375,0.0574148222804069,0.0265652984380722,-0.0024437166284769
1768735319494,0.0599365234375,-0.492706298828125,-0.86578369140625,0.0444319136440753,0.0200125910341739,-0.0094853807240724
1768735319504,0.060546875,-0.497314453125,-0.8517913818359375,0.0256038960069417,0.003459446132183,-0.014884939417243
1768735319514,0.0597991943359375,-0.49615478515625,-0.845977783203125,0.0049015479162335,0.0037894118577241,-0.0151371415704488
1768735319524,0.054046630859375,-0.490631103515625,-0.8469696044921875,-0.0129810459911823,0.0164796411991119,-0.0155480671674013
1768735319534,0.0521087646484375,-0.4888763427734375,-0.8525543212890625,-0.0173241291195154,0.0301997140049934,-0.0120984744280576
1768735319544,0.0585479736328125,-0.4868316650390625,-0.8663787841796875,-0.0164937563240528,0.0309270229190588,-0.0013480921043083
1768735319554,0.068084716796875,-0.4891510009765625,-0.875640869140625,-0.008274707943201,0.0254156105220317,0.0045326999388635
1768735319564,0.074951171875,-0.4955902099609375,-0.8797760009765625,0.0018221348291262,0.0144487144425511,0.0128862373530864
1768735319574,0.079345703125,-0.4995574951171875,-0.8798828125,0.0109863383695483,0.0074552530422806,0.0219353921711444
1768735319584,0.07952880859375,-0.499298095703125,-0.881622314453125,0.0255540963262319,0.0047726510092616,0.0264105685055255
1768735319594,0.071136474609375,-0.496978759765625,-0.8831939697265625,0.0383471213281154,0.0098060257732868,0.0325132012367248
1768735319604,0.0629730224609375,-0.49346923828125,-0.87823486328125,0.0491947084665298,0.0218285992741584,0.0316189117729663
1768735319614,0.0560302734375,-0.4907073974609375,-0.87274169921875,0.0546965338289737,0.0318652540445327,0.0317720435559749
1768735319624,0.05352783203125,-0.487884521484375,-0.870025634765625,0.0596121959388256,0.0331757962703704,0.0287344418466091
1768735319635,0.050384521484375,-0.4855194091796875,-0.8663482666015625,0.0640167966485023,0.034812044352293,0.0241937525570392
1768735319645,0.05078125,-0.4870452880859375,-0.86102294921875,0.059235893189907,0.0287541504949331,0.0173616800457239
1768735319655,0.0509185791015625,-0.48919677734375,-0.8552398681640625,0.052239503711462,0.0195409450680017,0.0099714072421193
1768735319665,0.052093505859375,-0.4937591552734375,-0.84881591796875,0.0370837189257144,0.0123932864516973,0.0053132725879549
1768735319675,0.0571136474609375,-0.49969482421875,-0.842376708984375,0.0214139446616172,0.0094973649829626,0.0067860009148716
1768735319685,0.064178466796875,-0.50201416015625,-0.8442535400390625,0.0154165066778659,0.0063324645161628,0.014168282970786
1768735319695,0.0673828125,-0.5020904541015625,-0.8511199951171875,0.0117517309263348,0.0023001721128821,0.0214706715196371
1768735319705,0.0693206787109375,-0.501434326171875,-0.8571014404296875,0.0144319357350468,0.0009765811264514,0.0248728599399328
1768735319715,0.06695556640625,-0.5044097900390625,-0.8627777099609375,0.018230402842164,0.0019318570848554,0.025038506835699
1768735319725,0.067779541015625,-0.507843017578125,-0.8620758056640625,0.0158300958573818,0.0024740765802562,0.0328535549342632
1768735319735,0.0713043212890625,-0.5090789794921875,-0.860504150390625,0.0101027013733983,-0.0047545414417982,0.0349459983408451
1768735319745,0.0687255859375,-0.501922607421875,-0.86700439453125,0.0131381722167134,-0.0139395175501704,0.0244028121232986
1768735319755,0.060394287109375,-0.492767333984375,-0.88128662109375,0.0227308794856071,-0.0120851583778858,0.0180767383426427
1768735319765,0.0579986572265625,-0.4892425537109375,-0.892181396484375,0.0410052239894866,-0.006237655878067,0.0161587297916412
1768735319775,0.0554351806640625,-0.48846435546875,-0.89312744140625,0.0482444949448108,-0.0008199872681871,0.0157352872192859
1768735319785,0.0533294677734375,-0.4922637939453125,-0.8831329345703125,0.0437863618135452,0.005200354848057,0.0230619087815284
1768735319795,0.0543060302734375,-0.4952392578125,-0.8712921142578125,0.0325976237654686,0.0090076094493269,0.0319619290530681
1768735319805,0.052001953125,-0.4985198974609375,-0.8634796142578125,0.0158018656075,0.0078318240121006,0.035255990922451
1768735319815,0.0496368408203125,-0.498443603515625,-0.86273193359375,0.0018674085149541,0.0049912966787815,0.03352040797472
1768735319825,0.0492706298828125,-0.4991302490234375,-0.8582305908203125,-0.0084302360191941,0.0074179689399898,0.0271408073604106
1768735319835,0.0489501953125,-0.4993133544921875,-0.857818603515625,-0.0105317365378141,0.0122595960274338,0.026929885149002
1768735319845,0.0547943115234375,-0.499664306640625,-0.8622589111328125,-0.0034277546219527,0.0175731349736452,0.0282340347766876
1768735319855,0.0582275390625,-0.498260498046875,-0.8677825927734375,0.0149682965129613,0.0221407227218151,0.0290518905967474
1768735319865,0.063140869140625,-0.49639892578125,-0.8750457763671875,0.016553409397602,-0.0257248040288686,0.0288907699286937
1768735319876,0.0615081787109375,-0.4943389892578125,-0.878173828125,0.0545665733516216,0.0007555388147011,0.0242129284888505
1768735319886,0.048828125,-0.484161376953125,-0.8874664306640625,0.086099199950695,0.0184535756707191,0.0251176040619611
1768735319896,0.0479278564453125,-0.4878082275390625,-0.8737640380859375,0.1054931357502937,0.0142266061156988,0.0205899626016616
1768735319906,0.052337646484375,-0.4876556396484375,-0.865478515625,0.1209021881222724,0.0092763230204582,0.0117863519117236
1768735319916,0.046783447265625,-0.4847564697265625,-0.8544769287109375,0.1159495040774345,-0.0192975308746099,-0.0070597738958895
1768735319926,0.0411224365234375,-0.4860382080078125,-0.836456298828125,0.0928247421979904,-0.0537332706153392,-0.0213708020746707
1768735319936,0.033935546875,-0.4807281494140625,-0.83184814453125,0.090781569480896,-0.0391114503145217,-0.0330604799091815
1768735319946,0.025146484375,-0.47467041015625,-0.83319091796875,0.0831319019198417,-0.0205766484141349,-0.0406925678253173
1768735319956,0.023651123046875,-0.47430419921875,-0.823333740234375,0.0704853534698486,-0.0178711414337158,-0.0529332570731639
1768735319966,0.027618408203125,-0.4772491455078125,-0.8180084228515625,0.0381588377058506,-0.0446707978844642,-0.0697817429900169
1768735319976,0.035888671875,-0.483917236328125,-0.813690185546875,0.0122175179421901,-0.0400874987244606,-0.0843574926257133
1768735319986,0.0409088134765625,-0.48602294921875,-0.8134613037109375,-0.0187593065202236,-0.0251860469579696,-0.078515313565731
1768735319996,0.0537872314453125,-0.493988037109375,-0.813201904296875,-0.0468335524201393,-0.0234738998115062,-0.0689620226621627
1768735320006,0.0673980712890625,-0.4970703125,-0.8189849853515625,-0.070380687713623,-0.0290662720799446,-0.0589352212846279
1768735320016,0.0731353759765625,-0.5009307861328125,-0.8281707763671875,-0.0859900116920471,-0.0374477729201316,-0.0509531944990158
1768735320026,0.0762176513671875,-0.501556396484375,-0.841278076171875,-0.0937360823154449,-0.0458521768450737,-0.043847881257534
1768735320036,0.0792388916015625,-0.5037994384765625,-0.8521575927734375,-0.0963646173477172,-0.0484650023281574,-0.0370552241802215
1768735320047,0.07635498046875,-0.50555419921875,-0.858856201171875,-0.0989638641476631,-0.0431458726525306,-0.0355630554258823
1768735320057,0.072235107421875,-0.5036773681640625,-0.8672943115234375,-0.0933405980467796,-0.0325446277856826,-0.0381753481924533
1768735320067,0.0671539306640625,-0.5041961669921875,-0.872467041015625,-0.0765001028776168,0.0075841499492526,-0.0360272414982318
1768735320077,0.0641632080078125,-0.5037689208984375,-0.880767822265625,-0.0747602581977844,0.0083178505301475,-0.0261628944426774
1768735320087,0.0679168701171875,-0.507171630859375,-0.880523681640625,-0.0672530755400657,0.0004082625964656,-0.0312711037695407
1768735320097,0.066375732421875,-0.5069122314453125,-0.8841552734375,-0.0573620907962322,0.0047611994668841,-0.0278385560959577
1768735320107,0.067352294921875,-0.507965087890625,-0.8855743408203125,-0.0464135706424713,0.0112992599606513,-0.0239378232508897
1768735320117,0.0652618408203125,-0.5074462890625,-0.888763427734375,-0.0302194207906723,0.0171028207987546,-0.0203374959528446
1768735320127,0.0615692138671875,-0.505706787109375,-0.8913421630859375,-0.0111642377451062,0.0247801803052425,-0.0190304163843393
1768735320137,0.0600433349609375,-0.5077362060546875,-0.88818359375,0.0051811798475682,0.0278569310903549,-0.0213308557868003
1768735320147,0.0609588623046875,-0.50958251953125,-0.884552001953125,0.0194535925984382,0.0358397550880909,-0.0176753997802734
1768735320157,0.0634918212890625,-0.510986328125,-0.8829193115234375,0.0287059471011161,0.0413343906402587,-0.0152151715010404
1768735320167,0.0655670166015625,-0.5113525390625,-0.8746185302734375,0.0359105952084064,0.0407405048608779,-0.0140292663127183
1768735320177,0.0650634765625,-0.5113067626953125,-0.8685302734375,0.0365215241909027,0.039235021919012,-0.0128697259351611
1768735320187,0.0665740966796875,-0.511993408203125,-0.86083984375,0.0322551429271698,0.0385039821267128,-0.0087226517498493
1768735320197,0.066741943359375,-0.5115966796875,-0.8559417724609375,0.0270108450204134,0.0358006097376346,-0.0067026438191533
1768735320207,0.063446044921875,-0.50787353515625,-0.8564300537109375,0.024500548839569,0.0361233837902545,-0.004856273997575
1768735320217,0.0649871826171875,-0.506683349609375,-0.8589019775390625,0.0211204644292593,0.0325608737766742,-0.0001576591312186
1768735320227,0.0667724609375,-0.5044097900390625,-0.859222412109375,0.0204248484224081,0.0284175258129835,0.0045287054963409
1768735320237,0.06878662109375,-0.5048675537109375,-0.8616180419921875,0.0180173497647047,0.0250800531357526,0.0101224090903997
1768735320247,0.0666046142578125,-0.50592041015625,-0.8561859130859375,0.0072200959548354,0.0183105636388063,0.0127022126689553
1768735320257,0.0642547607421875,-0.5078125,-0.8506011962890625,-0.0044924863614141,0.0126100676134228,0.0117730358615517
1768735320267,0.0630035400390625,-0.5068359375,-0.8526458740234375,-0.0086829699575901,0.0139541653916239,0.0116694392636418
1768735320278,0.0640106201171875,-0.5067901611328125,-0.8582611083984375,-0.0044280379079282,0.0181073639541864,0.0164431557059288
1768735320287,0.063873291015625,-0.505706787109375,-0.86431884765625,-0.0020825918763875,0.0116302911192178,0.0143349971622228
1768735320298,0.057373046875,-0.50323486328125,-0.8668365478515625,0.0006383596919476,0.0068818745203316,0.0083173187449574
1768735320308,0.0533599853515625,-0.5014801025390625,-0.8664398193359375,0.0065106297843158,0.011757057160139,0.0036093820817768
1768735320318,0.048797607421875,-0.4996185302734375,-0.8684234619140625,0.0122377574443817,0.0116430735215544,-0.0048962216824293
1768735320328,0.0458526611328125,-0.5015411376953125,-0.8662261962890625,0.0137538956478238,0.0117314904928207,-0.0100174807012081
1768735320338,0.049224853515625,-0.5020751953125,-0.8662567138671875,0.0190956629812717,0.0176527630537748,-0.0117780957370996
1768735320348,0.0500946044921875,-0.502349853515625,-0.866455078125,0.0268872734159231,0.0245090704411268,-0.0187409315258264
1768735320358,0.0503387451171875,-0.5020294189453125,-0.863525390625,0.0282364320009946,0.0168109387159347,-0.024712536484003
1768735320368,0.0458221435546875,-0.4998626708984375,-0.8576507568359375,0.0219582952558994,0.0143895922228693,-0.0377103611826896
1768735320378,0.044769287109375,-0.4978790283203125,-0.8579254150390625,0.0196147132664918,0.0066989152692258,-0.04331711307168
1768735320388,0.0452880859375,-0.496002197265625,-0.85772705078125,0.0152750927954912,0.0051470915786921,-0.0470077209174633
1768735320398,0.0489044189453125,-0.501708984375,-0.8542022705078125,0.0067646955139935,0.0105786081403493,-0.0494072288274765
1768735320408,0.058380126953125,-0.5064239501953125,-0.852874755859375,-0.0027265443932265,0.0037454697303473,-0.0461714901030063
1768735320418,0.0661163330078125,-0.513214111328125,-0.852996826171875,-0.012303271330893,-0.0103791374713182,-0.0437610633671283
1768735320428,0.0718536376953125,-0.51715087890625,-0.8508758544921875,-0.0211130082607269,-0.0190160349011421,-0.0409498289227485
1768735320438,0.072357177734375,-0.5174713134765625,-0.8563232421875,-0.0241319686174392,-0.0189657006412744,-0.0379172898828983
1768735320448,0.0717620849609375,-0.5144195556640625,-0.8648223876953125,-0.0095045557245612,-0.0182767417281866,-0.0324109382927417
1768735320458,0.071319580078125,-0.511505126953125,-0.873260498046875,0.0086499471217393,-0.0099519668146967,-0.0323438234627246
1768735320468,0.0666046142578125,-0.5081024169921875,-0.8774566650390625,0.0275850221514701,-0.0002548645134083,-0.0313914790749549
1768735320478,0.0643310546875,-0.502593994140625,-0.878204345703125,0.0435085967183113,0.0048871668986976,-0.0320151895284652
1768735320488,0.0613555908203125,-0.5006561279296875,-0.87750244140625,0.0602947659790515,0.0133533561602234,-0.0318793691694736
1768735320498,0.0609130859375,-0.4987030029296875,-0.873291015625,0.0698515176773071,0.0179899185895919,-0.0292132794857025
1768735320509,0.0631866455078125,-0.4992218017578125,-0.8658599853515625,0.0715900287032127,0.0173936374485492,-0.0263146944344043
1768735320519,0.061676025390625,-0.5006561279296875,-0.8560943603515625,0.0633568689227104,0.0177198741585016,-0.0257634203881025
1768735320529,0.0613250732421875,-0.5017242431640625,-0.84771728515625,0.0515382923185825,0.0201984792947769,-0.0264827404171228
1768735320539,0.0660552978515625,-0.5029449462890625,-0.84625244140625,0.0418419875204563,0.0190455969423055,-0.0243237148970365
1768735320549,0.0704498291015625,-0.504180908203125,-0.845550537109375,0.0353100523352623,0.011418835259974,-0.0217058286070823
1768735320559,0.0741119384765625,-0.505706787109375,-0.8460235595703125,0.0269557181745767,0.0059798620641231,-0.0163121279329061
1768735320569,0.0780029296875,-0.50860595703125,-0.8444366455078125,0.0166844371706247,-0.0011225224006921,-0.0106992498040199
1768735320579,0.076812744140625,-0.5104217529296875,-0.8447265625,0.0115629127249121,0.0091788507997989,-0.0056642773561179
1768735320589,0.0763397216796875,-0.5104217529296875,-0.8470306396484375,-0.0137400468811392,-0.024466460570693,0.0033238914329558
1768735320599,0.078125,-0.5125274658203125,-0.8501129150390625,-0.0034876756835728,0.0004508731653913,0.0114958006888628
1768735320609,0.0704803466796875,-0.5037689208984375,-0.863677978515625,0.0083444826304912,0.012207131832838,0.0155741656199097
1768735320619,0.06884765625,-0.5096282958984375,-0.8579254150390625,0.0101591609418392,0.0065284729935228,0.0127528132870793
1768735320629,0.0689849853515625,-0.5103607177734375,-0.8549957275390625,0.0089532807469367,-0.0022157500497996,0.008730374276638
1768735320639,0.0657501220703125,-0.5076751708984375,-0.8547515869140625,0.0107607683166861,-0.0047031426802277,0.0078584561124444
1768735320649,0.0617828369140625,-0.5032501220703125,-0.8589019775390625,0.0135680064558982,0.0027095000259578,0.0067412597127258
1768735320659,0.059600830078125,-0.504180908203125,-0.854736328125,0.0064818677492439,0.0161605942994356,0.0042639872990548
1768735320669,0.0627288818359375,-0.506744384765625,-0.8518218994140625,-4.207794336252846e-05,0.0208048801869153,0.0061772023327648
1768735320679,0.068603515625,-0.507415771484375,-0.855712890625,-4.0746363083599135e-05,0.0123054021969437,0.006539658177644
1768735320689,0.0734405517578125,-0.50927734375,-0.85699462890625,-0.0008383630774915,0.009640909731388,0.0104164220392704
1768735320700,0.0742645263671875,-0.5101470947265625,-0.8560638427734375,-0.003067961661145,0.0081604579463601,0.0127378990873694
1768735320709,0.071197509765625,-0.5119171142578125,-0.852813720703125,-0.0070248860865831,0.0155057227239012,0.0146926594898104
1768735320720,0.0729522705078125,-0.5124969482421875,-0.8509979248046875,-0.0077671092003583,0.0214469693601131,0.0174450371414423
1768735320730,0.076690673828125,-0.5140228271484375,-0.8531646728515625,-0.0077964039519429,0.0218645520508289,0.0222989134490489
1768735320740,0.0780487060546875,-0.5150604248046875,-0.8566131591796875,-0.0055897086858749,0.0217399168759584,0.0295456424355506
1768735320750,0.0763702392578125,-0.5139007568359375,-0.8614044189453125,8.788431841821875e-06,0.0221926532685756,0.03371562063694
1768735320760,0.0733184814453125,-0.510955810546875,-0.865325927734375,0.0100076263770461,0.0273978020995855,0.0338522382080554
1768735320770,0.0685577392578125,-0.5100555419921875,-0.8669281005859375,0.021736454218626,0.0291762612760067,0.03377341106534
1768735320780,0.0638275146484375,-0.507080078125,-0.868988037109375,0.0329923033714294,0.0310900080949068,0.0331265293061733
1768735320790,0.0599212646484375,-0.5076141357421875,-0.86865234375,0.0402528792619705,0.0352173745632171,0.022946061566472
1768735320800,0.058319091796875,-0.507965087890625,-0.8617706298828125,0.0496903248131275,0.0406339801847934,0.0182152222841978
1768735320810,0.0605316162109375,-0.5093231201171875,-0.861663818359375,0.0585101805627346,0.0367023535072803,0.0210115425288677
1768735320820,0.0599365234375,-0.50970458984375,-0.860198974609375,0.0640857741236686,0.0354634523391723,0.0222954526543617
1768735320830,0.0592498779296875,-0.51141357421875,-0.8567962646484375,0.0632620602846145,0.0328165367245674,0.0183808710426092
1768735320840,0.0567474365234375,-0.5101318359375,-0.8528900146484375,0.0638516843318939,0.036222718656063,0.0072965286672115
1768735320850,0.0565032958984375,-0.512420654296875,-0.8487701416015625,0.0587746314704418,0.0349353477358818,0.0061186123639345
1768735320860,0.061126708984375,-0.51458740234375,-0.839630126953125,0.0435695797204971,0.0306335426867008,0.0081452783197164
1768735320870,0.0662689208984375,-0.5169219970703125,-0.8325958251953125,0.0279085971415042,0.0248494241386652,0.0116651784628629
1768735320880,0.0684661865234375,-0.5136260986328125,-0.832794189453125,0.0180125553160905,0.015050321817398,0.0154761616140604
1768735320890,0.0656280517578125,-0.513336181640625,-0.838134765625,0.0094904405996203,0.0084374267607927,0.0137035613879561
1768735320900,0.0622100830078125,-0.512969970703125,-0.8372955322265625,0.0005986785981804,0.0001217064636875,0.0064736120402812
1768735320911,0.059783935546875,-0.51007080078125,-0.8381500244140625,-0.0055961003527045,-0.0053092776797711,0.0011941614793613
1768735320921,0.0588836669921875,-0.50830078125,-0.843505859375,-0.0068275458179414,-0.0122417528182268,-0.0014743260107934
1768735320931,0.0577392578125,-0.50921630859375,-0.8447418212890625,-0.010789530351758,-0.0145246144384145,-0.0053652040660381
1768735320941,0.055450439453125,-0.5088958740234375,-0.8440704345703125,-0.0129437614232301,-0.0092701977118849,-0.0090595409274101
1768735320951,0.052886962890625,-0.50738525390625,-0.845703125,-0.0263157598674297,-0.0223822705447673,-0.0110606402158737
1768735320961,0.0560455322265625,-0.5071868896484375,-0.8495330810546875,-0.0184498466551303,-0.0098904473707079,-0.0106875319033861
1768735320971,0.054962158203125,-0.5027618408203125,-0.8619232177734375,-0.0058477688580751,-0.0098068239167332,-0.007913582958281
1768735320981,0.0569305419921875,-0.5030670166015625,-0.8659515380859375,0.0064264740794897,-0.0128377676010131,-0.01030776463449
1768735320991,0.056060791015625,-0.5057220458984375,-0.863037109375,0.0111008547246456,-0.0129506858065724,-0.0135541586205363
1768735321001,0.0557708740234375,-0.50775146484375,-0.8568115234375,0.0099732717499136,-0.0143792051821947,-0.0216163452714681
1768735321011,0.0574188232421875,-0.51092529296875,-0.8464508056640625,0.0003701793903019,-0.0143046369776129,-0.025327194482088
1768735321021,0.061553955078125,-0.5148773193359375,-0.8408355712890625,-0.0112859439104795,-0.0142457811161875,-0.0220776051282882
1768735321031,0.0678558349609375,-0.51751708984375,-0.8397369384765625,-0.0193888787180185,-0.0162093304097652,-0.0179971102625131
1768735321041,0.0725860595703125,-0.51763916015625,-0.84515380859375,-0.0222469829022884,-0.0215471033006906,-0.0148175619542598
1768735321051,0.0762481689453125,-0.5165863037109375,-0.851104736328125,-0.0182149559259414,-0.0329611450433731,-0.0099461078643798
1768735321061,0.0734405517578125,-0.514556884765625,-0.8548126220703125,-0.0184059049934148,-0.0346003212034702,-0.0095708686858415
1768735321071,0.0704193115234375,-0.5168609619140625,-0.85528564453125,-0.0159225072711706,-0.0279693156480789,-0.0071652350015938
1768735321081,0.071258544921875,-0.51611328125,-0.8587188720703125,-0.0150804156437516,-0.0222001112997531,-0.0019784623291343
1768735321091,0.0732574462890625,-0.5172271728515625,-0.8621826171875,-0.0115871476009488,-0.0199931487441062,0.0067700217477977
1768735321101,0.0748748779296875,-0.519287109375,-0.864227294921875,-0.0049345712177455,-0.0130220586434006,0.0146196894347667
1768735321111,0.0725555419921875,-0.5156402587890625,-0.8679351806640625,0.0029435919132083,-0.0045651905238628,0.0194583870470523
1768735321121,0.0675048828125,-0.5160980224609375,-0.865936279296875,0.0041694450192153,0.0094896415248513,0.0143347308039665
1768735321132,0.0660247802734375,-0.513702392578125,-0.8638763427734375,0.0075050541199743,0.0039641153998672,0.0071604410186409
1768735321142,0.06207275390625,-0.5066986083984375,-0.867431640625,0.0243777781724929,0.0115416077896952,-0.0039353528991341
1768735321152,0.0559844970703125,-0.50457763671875,-0.8718109130859375,0.0476383604109287,0.0354011319577693,-0.0031281490810215
1768735321162,0.0546417236328125,-0.504119873046875,-0.868072509765625,0.0584260262548923,0.0510338880121707,-0.0044109937734901
1768735321172,0.05584716796875,-0.5098419189453125,-0.85687255859375,0.0570784658193588,0.0504610426723957,-0.01411874871701
1768735321182,0.06024169921875,-0.5160980224609375,-0.84783935546875,0.0530895814299583,0.0451328568160533,-0.0304705575108528
1768735321192,0.069793701171875,-0.523223876953125,-0.8387451171875,0.0238518025726079,-0.014470019377768,-0.0465331487357616
1768735321202,0.073883056640625,-0.5207977294921875,-0.833770751953125,0.0273450706154108,0.0100350575521588,-0.0595634616911411
1768735321212,0.066497802734375,-0.508636474609375,-0.849639892578125,0.0325827114284038,0.0206855703145265,-0.0584646426141262
1768735321222,0.06768798828125,-0.5108489990234375,-0.8510894775390625,0.0408654063940048,0.0423538498580455,-0.0554131902754306
1768735321232,0.071746826171875,-0.51312255859375,-0.85272216796875,0.0422694273293018,0.067685566842556,-0.0481451600790023
1768735321242,0.077728271484375,-0.5174407958984375,-0.850067138671875,0.0367470942437648,0.0619421973824501,-0.0475946813821792
1768735321252,0.0819244384765625,-0.518768310546875,-0.846923828125,0.0265130996704101,0.0568196065723896,-0.0543005242943763
1768735321262,0.088165283203125,-0.52264404296875,-0.8474578857421875,0.0198064614087343,0.0559647306799888,-0.0549878850579261
1768735321272,0.091094970703125,-0.5199737548828125,-0.85028076171875,0.0222091656178236,0.0503672994673252,-0.0477669909596443
1768735321282,0.0907440185546875,-0.5142974853515625,-0.857177734375,0.0350211001932621,0.0549679100513458,-0.0397016070783138
1768735321292,0.0851593017578125,-0.5108642578125,-0.8630218505859375,0.0505292192101478,0.05922257527709,-0.0347033850848674
1768735321302,0.076202392578125,-0.506378173828125,-0.8644561767578125,0.0675300434231758,0.0589117854833602,-0.0356565304100513
1768735321312,0.072906494140625,-0.5024871826171875,-0.86224365234375,0.0794082731008529,0.0521319098770618,-0.0347534529864788
1768735321322,0.0657806396484375,-0.503509521484375,-0.8527679443359375,0.0766681432723999,0.0512722432613372,-0.0375910513103008
1768735321332,0.0634613037109375,-0.5036163330078125,-0.8489837646484375,0.0782420709729194,0.0718712583184242,-0.0388469994068145
1768735321343,0.06219482421875,-0.5030670166015625,-0.8599090576171875,0.0808037668466568,0.0833577439188957,-0.0410606190562248
1768735321353,0.0625457763671875,-0.51171875,-0.8524932861328125,0.0795302465558052,0.0837889090180397,-0.0417786054313182
1768735321363,0.06732177734375,-0.517974853515625,-0.8458099365234375,0.0709636583924293,0.0705660432577133,-0.0391913428902626
1768735321373,0.076171875,-0.5252532958984375,-0.839385986328125,0.0541961267590522,0.0520000830292701,-0.0279498752206563
1768735321383,0.0844268798828125,-0.5295562744140625,-0.8282318115234375,0.0261945854872465,0.0420800745487213,-0.0145408594980835
1768735321393,0.0848846435546875,-0.5316009521484375,-0.8226470947265625,0.0114489290863275,0.0493478402495384,0.0012988236267119
1768735321403,0.0867767333984375,-0.529693603515625,-0.8300323486328125,0.0074043865315616,0.0420441217720508,0.0109112374484539
1768735321413,0.0861358642578125,-0.5287017822265625,-0.8355865478515625,0.003811782458797,0.036734577268362,0.025490179657936
1768735321423,0.083831787109375,-0.5257415771484375,-0.8421478271484375,0.0030386666767299,0.0241119936108589,0.0320756435394287
1768735321433,0.081634521484375,-0.5262298583984375,-0.8446197509765625,0.0031965922098606,0.0108640994876623,0.0346554480493068
1768735321443,0.0794830322265625,-0.5229644775390625,-0.8482208251953125,0.0129466913640499,0.0105972504243254,0.0310015920549631
1768735321453,0.074676513671875,-0.5261383056640625,-0.85302734375,0.0214123483747243,0.0149800144135952,0.0285440273582935
1768735321463,0.07403564453125,-0.5252227783203125,-0.848846435546875,0.0224246159195899,0.0039830235764384,0.0169086754322052
1768735321473,0.0724639892578125,-0.5265960693359375,-0.8416900634765625,0.017881529405713,-0.0102052334696054,0.0063702813349664
1768735321483,0.0755615234375,-0.5282440185546875,-0.8377532958984375,0.0102997757494449,-0.0134851820766925,0.0120308296754956
1768735321493,0.0826873779296875,-0.527801513671875,-0.839874267578125,0.0059732040390372,-0.0105959186330437,0.0197987388819456
1768735321503,0.0860595703125,-0.5270843505859375,-0.8441314697265625,0.0060789315029978,-0.0093266563490033,0.020667728036642
1768735321513,0.08087158203125,-0.5231170654296875,-0.84759521484375,0.0071420655585825,-0.0137032950296998,0.0129871712997555
1768735321523,0.076385498046875,-0.5206756591796875,-0.8506622314453125,0.0165938902646303,-0.0058413776569068,0.0077932081185281
1768735321533,0.0803070068359375,-0.522216796875,-0.8573455810546875,0.0268374737352132,0.007987885735929,0.0092859100550413
1768735321544,0.0856781005859375,-0.522430419921875,-0.85516357421875,0.0358573347330093,0.0142710814252495,0.0094353137537837
1768735321554,0.090057373046875,-0.526458740234375,-0.8578033447265625,0.0462529808282852,0.0316247716546058,0.0106601007282733
1768735321564,0.0920562744140625,-0.528472900390625,-0.853668212890625,0.0510938093066215,0.0420398600399494,0.0144883953034877
1768735321574,0.09375,-0.5294189453125,-0.84600830078125,0.0523942336440086,0.0528973042964935,0.0183105636388063
1768735321584,0.093994140625,-0.5296783447265625,-0.8432159423828125,0.0559373013675212,0.0593328326940536,0.023241139948368
1768735321594,0.0938568115234375,-0.5298309326171875,-0.84783935546875,0.0624117106199264,0.0598859712481498,0.0234928093850612
1768735321604,0.096099853515625,-0.5298004150390625,-0.84991455078125,0.0730995088815689,0.0554028041660785,0.0279570650309324
1768735321614,0.098297119140625,-0.5277557373046875,-0.849822998046875,0.084584392607212,0.0459192879498004,0.0366197973489761
1768735321624,0.0924530029296875,-0.52392578125,-0.8503570556640625,0.0884198769927024,0.0337100252509117,0.0357042029500007
1768735321634,0.0828857421875,-0.522857666015625,-0.8339691162109375,0.0772127658128738,0.0399032086133956,0.0290004927664995
1768735321644,0.0751495361328125,-0.5229644775390625,-0.822174072265625,0.0591104589402675,0.0428553223609924,0.028098214417696
1768735321654,0.07623291015625,-0.5213775634765625,-0.8178558349609375,0.0457073003053665,0.0337643548846244,0.0271546561270952
1768735321664,0.07763671875,-0.520294189453125,-0.8225250244140625,0.034944400191307,0.025907764211297,0.0271828845143318
1768735321674,0.0759735107421875,-0.5190582275390625,-0.8242645263671875,0.0264960564672946,0.0276888851076364,0.0239852275699377
1768735321684,0.0718231201171875,-0.5182952880859375,-0.8267364501953125,0.0245969556272029,0.0279514733701944,0.0253410432487726
1768735321694,0.0710296630859375,-0.5171966552734375,-0.8343353271484375,0.0286263190209865,0.0224850680679082,0.0229271538555622
1768735321704,0.070953369140625,-0.5169525146484375,-0.8370361328125,0.0331014953553676,0.018989136442542,0.0169222578406333
1768735321714,0.07110595703125,-0.5191192626953125,-0.8326263427734375,0.0284377671778202,0.0148306116461753,0.0132617428898811
1768735321725,0.0724945068359375,-0.5233612060546875,-0.8304443359375,0.0265064425766468,0.0132657382637262,0.0110481232404708
1768735321734,0.0743408203125,-0.5254974365234375,-0.8330841064453125,0.026602316647768,0.0131906364113092,0.0111418673768639
1768735321744,0.0782928466796875,-0.527862548828125,-0.8326263427734375,0.0252861808985471,0.0140186138451099,0.0139027656987309
1768735321754,0.078399658203125,-0.53057861328125,-0.8306427001953125,0.0212810542434453,0.0138066262006759,0.0157137159258127
1768735321765,0.07598876953125,-0.531219482421875,-0.824493408203125,0.0121823642402887,0.0108478544279932,0.0177451744675636
1768735321775,0.0774078369140625,-0.533538818359375,-0.820068359375,-0.0043313652276992,0.0042964778840541,0.0107682254165411
1768735321784,0.079833984375,-0.53399658203125,-0.82183837890625,-0.0128015493974089,0.0010966897243633,0.0132500249892473
1768735321795,0.0831451416015625,-0.534637451171875,-0.8281402587890625,-0.0142915872856974,-0.0001853560097515,0.0151877412572503
1768735321805,0.0845184326171875,-0.5373077392578125,-0.83294677734375,-0.0193473324179649,-0.0025696840602904,0.0201430842280387
1768735321815,0.0831298828125,-0.535186767578125,-0.8326263427734375,-0.0206980872899293,0.0004918858758173,0.0177771318703889
1768735321825,0.0811004638671875,-0.534088134765625,-0.836029052734375,-0.0193763617426157,0.0054522897116839,0.0135656101629138
1768735321835,0.08087158203125,-0.5329132080078125,-0.836669921875,-0.0159651171416044,0.0072821476496756,0.008944759145379
1768735321845,0.082061767578125,-0.5343475341796875,-0.8366241455078125,-0.0157976057380437,0.0089591396972537,0.0057534934021532
1768735321855,0.08477783203125,-0.53460693359375,-0.8358306884765625,-0.0157073233276605,0.0089950924739241,0.002788595855236
1768735321865,0.0853424072265625,-0.5355377197265625,-0.8359527587890625,-0.0130340429022908,0.0140351252630352,0.0051036817021667
1768735321875,0.087860107421875,-0.5346527099609375,-0.8379058837890625,-0.0048962216824293,0.0231130421161651,0.0072786854580044
1768735321885,0.0864410400390625,-0.5328216552734375,-0.8494110107421875,0.0071569788269698,0.0272713024169206,0.0094001600518822
1768735321895,0.0817108154296875,-0.531707763671875,-0.8509979248046875,0.0128220552578568,0.0245114676654338,0.0046442868188023
1768735321905,0.0752716064453125,-0.5309906005859375,-0.8480072021484375,0.0165523458272218,0.0230829492211341,0.0019129485590383
1768735321915,0.07318115234375,-0.5341644287109375,-0.848846435546875,0.0184889957308769,0.0203002113848924,-0.003786748740822
1768735321925,0.07659912109375,-0.53814697265625,-0.8489532470703125,0.0237271673977375,0.015206916257739,-0.0119826272130012
1768735321935,0.0822296142578125,-0.539154052734375,-0.85040283203125,0.0500802099704742,0.0090459594503045,-0.0164516773074865
1768735321945,0.08514404296875,-0.5399932861328125,-0.8669891357421875,0.091257207095623,-0.0069572417996823,-0.0180397201329469
1768735321955,0.08856201171875,-0.536895751953125,-0.871337890625,0.1186803132295608,-0.0158455427736043,-0.0262672901153564
1768735321965,0.0778961181640625,-0.5321197509765625,-0.8631591796875,0.1372531950473785,0.0111565142869949,-0.0292071532458066
1768735321975,0.069305419921875,-0.533966064453125,-0.86016845703125,0.1498131901025772,0.0456678867340087,-0.0183374620974063
1768735321985,0.0727081298828125,-0.5363616943359375,-0.84979248046875,0.1489364802837371,0.0638839080929756,-0.0087247816845774
1768735321996,0.06988525390625,-0.5377960205078125,-0.8341827392578125,0.137163445353508,0.0647606179118156,-0.010677145794034
1768735322006,0.06951904296875,-0.5464019775390625,-0.8170166015625,0.1171260923147201,0.0693476498126983,-0.0166114680469036
1768735322016,0.07904052734375,-0.545379638671875,-0.8101959228515625,0.0980637148022651,0.0492314621806144,-0.0318122580647468
1768735322026,0.08135986328125,-0.549285888671875,-0.7992095947265625,0.0740169659256935,0.0339350625872612,-0.0341995172202587
1768735322036,0.07525634765625,-0.5417327880859375,-0.7996368408203125,0.0525303184986114,0.0284247174859046,-0.0356370881199836
1768735322046,0.0735321044921875,-0.5413665771484375,-0.807037353515625,0.0327105410397052,0.0155006628483533,-0.0290745291858911
1768735322056,0.0821685791015625,-0.5451507568359375,-0.8009796142578125,0.0049436260014772,0.0041390848346054,-0.0185036435723304
1768735322066,0.087249755859375,-0.5480194091796875,-0.8023681640625,-0.01897475682199,-0.0135126132518053,-0.0160207785665988
1768735322076,0.0895538330078125,-0.55096435546875,-0.8054046630859375,-0.0402225218713283,-0.029585588723421,-0.0187678281217813
1768735322088,0.0889739990234375,-0.5511474609375,-0.81182861328125,-0.0509798265993595,-0.0283695887774229,-0.0213399101048707
1768735322096,0.09149169921875,-0.5509490966796875,-0.8199005126953125,-0.0487550236284732,-0.0265599712729454,-0.0132582811638712
1768735322106,0.0911407470703125,-0.546905517578125,-0.830474853515625,-0.0374525673687458,-0.0192266907542943,-0.0099807288497686
1768735322116,0.09185791015625,-0.5447998046875,-0.8429412841796875,-0.0201151221990585,-0.0114361466839909,-0.0048216530121862
1768735322126,0.0916748046875,-0.539947509765625,-0.8525848388671875,0.0038780951872467,-0.0055159390904009,-0.0012700614752247
1768735322136,0.086700439453125,-0.5380859375,-0.85504150390625,0.0206011496484279,-0.0007707187905907,-0.0029121665284037
1768735322146,0.080047607421875,-0.5370635986328125,-0.846710205078125,0.0281839668750762,0.0056355153210461,-0.0088539449498057
1768735322156,0.076934814453125,-0.5367889404296875,-0.839691162109375,0.0330967009067535,0.0133256586268544,-0.0162583328783512
1768735322166,0.0754241943359375,-0.53851318359375,-0.8340301513671875,0.0352906137704849,0.0177331902086734,-0.0184407923370599
1768735322176,0.0807342529296875,-0.5405120849609375,-0.8322601318359375,0.0366344451904296,0.015123825520277,-0.0219697467982769
1768735322186,0.0894622802734375,-0.5417327880859375,-0.8297271728515625,0.0369170047342777,0.011380486190319,-0.0214011631906032
1768735322197,0.092987060546875,-0.5460205078125,-0.82415771484375,0.0294867865741252,-0.002641323255375,-0.0231631100177764
1768735322207,0.092132568359375,-0.5497894287109375,-0.8195343017578125,0.0171587467193603,-0.0008740494376979,-0.0257562305778265
1768735322217,0.093597412109375,-0.55047607421875,-0.8162994384765625,0.0045279064215719,-0.0070869377814233,-0.0224051736295223
1768735322227,0.0959625244140625,-0.5530853271484375,-0.8141326904296875,-0.0075820195488631,-0.0099178785458207,-0.0165230501443147
1768735322237,0.0995635986328125,-0.550445556640625,-0.81634521484375,-0.0190533194690942,-0.0050964914262294,-0.0073489928618073
1768735322247,0.0983123779296875,-0.5497283935546875,-0.8183441162109375,-0.0276673138141632,0.0034615767654031,0.0030839405953884
1768735322257,0.09613037109375,-0.547271728515625,-0.823699951171875,-0.02978958748281,0.0042674494907259,0.0097583550959825
1768735322267,0.0954742431640625,-0.544708251953125,-0.8313140869140625,-0.0286867711693048,-0.0051148673519492,0.0149544486775994
1768735322277,0.093536376953125,-0.5431365966796875,-0.8342132568359375,-0.0231756269931793,-0.0130649358034133,0.0140622891485691
1768735322287,0.0902862548828125,-0.5428924560546875,-0.837677001953125,-0.0168575439602136,-0.0153962671756744,0.0141294011846184
1768735322297,0.092254638671875,-0.5451202392578125,-0.8368988037109375,-0.011356784030795,-0.0126119321212172,0.0160186477005481
1768735322307,0.0890960693359375,-0.5447998046875,-0.8317108154296875,-0.0143717490136623,-0.0091269193217158,0.0124979484826326
1768735322317,0.0844879150390625,-0.546630859375,-0.8253173828125,-0.0177864544093608,-0.0075796227902174,0.010078732855618
1768735322327,0.084442138671875,-0.54473876953125,-0.8265228271484375,-0.017643442377448,-0.010252371430397,0.0096739325672388
1768735322337,0.0813140869140625,-0.5402984619140625,-0.8311614990234375,-0.015326757915318,-0.0071601746603846,0.0039382823742926
1768735322347,0.0773468017578125,-0.5354156494140625,-0.835296630859375,-0.0103178853169083,0.0006783071439713,0.0034964641090482
1768735322357,0.075286865234375,-0.535369873046875,-0.837310791015625,-0.0028535770252346,0.006172408349812,0.0050589409656822
1768735322367,0.078277587890625,-0.5399932861328125,-0.8342437744140625,-0.0042719766497612,0.0043313652276992,0.0003645867400337
1768735322377,0.0786895751953125,-0.5409088134765625,-0.8260955810546875,-0.0118177775293588,0.0057899784296751,-0.0036852823104709
1768735322387,0.0797119140625,-0.542633056640625,-0.822052001953125,-0.0149571113288402,0.0044826325029134,-0.007220628671348
1768735322397,0.0836334228515625,-0.54388427734375,-0.825042724609375,-0.0147722885012626,0.0053553506731987,-0.0072355424053967
1768735322408,0.0843505859375,-0.545867919921875,-0.824432373046875,-0.0198815632611513,0.0059319250285625,-0.0078363511711359
1768735322418,0.0860748291015625,-0.5481109619140625,-0.8196563720703125,-0.0279927514493465,0.0111120399087667,-0.0087090693414211
1768735322428,0.0937347412109375,-0.5489959716796875,-0.82391357421875,-0.0279346946626901,0.0062786685302853,-0.0032096416689455
1768735322438,0.0970001220703125,-0.548675537109375,-0.8304595947265625,-0.0267354734241962,-0.0008530105114914,-0.0006657902849838
1768735322448,0.094635009765625,-0.5481109619140625,-0.8307037353515625,-0.0267264191061258,-0.0012474246323108,0.0005483448621816
1768735322458,0.0924530029296875,-0.5465240478515625,-0.83172607421875,-0.0281485468149185,-0.0026889936998486,-0.0005078648100607
1768735322468,0.090606689453125,-0.544342041015625,-0.8294525146484375,-0.0318719111382961,0.0012136024888604,0.0005182511522434
1768735322478,0.0893707275390625,-0.5443878173828125,-0.8311614990234375,-0.0283099357038736,0.0026527747977524,0.0025190841406583
1768735322488,0.0900726318359375,-0.541748046875,-0.83538818359375,-0.0223937220871448,0.0039481362327933,0.0045974147506058
1768735322498,0.091552734375,-0.5416259765625,-0.83734130859375,-0.0185300093144178,0.0063748084940016,0.0103525063022971
1768735322508,0.092987060546875,-0.5418701171875,-0.83258056640625,-0.0198783669620752,0.0021502361632883,0.0151485931128263
1768735322518,0.09051513671875,-0.54302978515625,-0.82769775390625,-0.0247032158076763,-0.0049526807852089,0.0107969874516129
1768735322528,0.0842132568359375,-0.54388427734375,-0.8227996826171875,-0.0340956524014472,-0.0017936390358954,0.0068658953532576
1768735322538,0.0838775634765625,-0.5423126220703125,-0.81982421875,-0.0436891578137874,-0.0010551444720476,0.0112776877358555
1768735322548,0.0873260498046875,-0.5423431396484375,-0.822998046875,-0.0493598245084285,-0.0048376321792602,0.0188463926315307
1768735322558,0.089996337890625,-0.543121337890625,-0.825469970703125,-0.0525178015232086,-0.0089799128472805,0.0269746258854866
1768735322568,0.0879058837890625,-0.539794921875,-0.8309783935546875,-0.0472862906754016,-0.0142194163054227,0.0300979819148778
1768735322578,0.081878662109375,-0.5339508056640625,-0.83453369140625,-0.0456372611224651,-0.0238688476383686,0.0202101971954107
1768735322588,0.071197509765625,-0.533477783203125,-0.833984375,-0.0455280691385269,-0.0160005372017622,0.006254700012505
1768735322598,0.0686492919921875,-0.5364532470703125,-0.8335418701171875,-0.0449552237987518,-0.0068373996764421,-0.0017731325933709
1768735322608,0.0772552490234375,-0.537933349609375,-0.8381805419921875,-0.0374347232282161,-0.003451723139733,0.0026929883752018
1768735322618,0.0857086181640625,-0.537261962890625,-0.8417510986328125,-0.0306069105863571,-0.003810450900346,0.0056632119230926
1768735322629,0.0888214111328125,-0.539794921875,-0.8428802490234375,-0.0276318937540054,-0.0048789111897349,0.0098728705197572
1768735322639,0.0894317626953125,-0.5417327880859375,-0.8373260498046875,-0.0325443595647811,-0.0022506373934447,0.0127192568033933
1768735322649,0.0899505615234375,-0.5409088134765625,-0.8372650146484375,-0.027247067540884,0.0005435511702671,0.0200179163366556
1768735322659,0.0897064208984375,-0.538482666015625,-0.84588623046875,-0.0083873597905039,-0.0049329730682075,0.0170381050556898
1768735322669,0.0873565673828125,-0.5361328125,-0.850341796875,0.005764412228018,-0.0127048762515187,0.0083282375708222
1768735322679,0.0814666748046875,-0.535186767578125,-0.8457183837890625,0.0124404244124889,-0.0061100902967154,0.0005257080192677
1768735322689,0.0815277099609375,-0.537750244140625,-0.8404388427734375,0.0175734013319015,-0.0010958907660096,-0.0032951291650533
1768735322699,0.0875244140625,-0.5420074462890625,-0.8388214111328125,0.0235881507396698,-0.0061114220879971,-0.0015813850332051
1768735322709,0.0914154052734375,-0.5441436767578125,-0.8336639404296875,0.0166354347020387,-0.0132263228297233,0.0001416801678715
1768735322719,0.08929443359375,-0.5458526611328125,-0.8231048583984375,0.001604021876119,-0.0116691729053854,0.0036743632517755
1768735322729,0.0869903564453125,-0.5455780029296875,-0.82391357421875,-0.0085173221305012,-0.0137669444084167,0.0078241005539894
1768735322739,0.0861358642578125,-0.5443878173828125,-0.82940673828125,-0.0188165642321109,-0.0088925613090395,0.0081772357225418
1768735322749,0.08697509765625,-0.5472412109375,-0.8313140869140625,-0.0242571365088224,-0.0012082761386409,0.0160711109638214
1768735322759,0.0931854248046875,-0.548919677734375,-0.8384552001953125,-0.0204626638442277,0.0032890038564801,0.0274430755525827
1768735322769,0.0958251953125,-0.5482025146484375,-0.8441619873046875,-0.0115613145753741,0.003637877991423,0.029259618371725
1768735322779,0.0943756103515625,-0.5441741943359375,-0.846099853515625,-0.0073655047453939,-0.0029710223898291,0.0212901085615158
1768735322789,0.0832672119140625,-0.537811279296875,-0.8471832275390625,0.0051225903443992,-0.0095908418297767,0.0158194433897733
1768735322799,0.074951171875,-0.5301361083984375,-0.8535003662109375,0.0228954628109931,-0.0051849083974957,0.0110678309574723
1768735322809,0.064453125,-0.5270843505859375,-0.8534393310546875,0.0388374105095863,0.005453088786453,0.0055692023597657
1768735322819,0.0591278076171875,-0.526214599609375,-0.8438720703125,0.0414470434188842,0.0185606349259614,-0.008282165043056
1768735322830,0.0595245361328125,-0.53204345703125,-0.83099365234375,0.0349979326128959,0.0308910701423883,-0.0078595206141471
1768735322840,0.07110595703125,-0.5392303466796875,-0.82843017578125,0.0269642397761344,0.0318633913993835,-0.004972388036549
1768735322850,0.080810546875,-0.53912353515625,-0.8243408203125,0.0141067644581198,0.016062056645751,-0.0104180201888084
1768735322860,0.078704833984375,-0.5402984619140625,-0.8164520263671875,0.0017092167399823,-0.0006905576447024,-0.0205343030393123
1768735322870,0.0748138427734375,-0.537139892578125,-0.819091796875,-0.0020450414158403,-0.0029305424541234,-0.0245836395770311
1768735322880,0.072265625,-0.5353240966796875,-0.8282012939453125,0.0044402885250747,0.0040272320620715,-0.024851020425558
1768735322890,0.07806396484375,-0.539764404296875,-0.832061767578125,0.0077471355907619,0.0160799007862806,-0.0181358605623245
1768735322900,0.0904998779296875,-0.5448760986328125,-0.8322296142578125,0.0044232443906366,0.0261580999940633,-0.0030815436039119
1768735322910,0.1016693115234375,-0.55169677734375,-0.83050537109375,-0.0033308155834674,0.0173425041139125,0.0078861527144908
1768735322920,0.10589599609375,-0.5550689697265625,-0.82391357421875,-0.0141384555026888,0.0087333042174577,0.0209726598113775
1768735322930,0.108428955078125,-0.558258056640625,-0.827392578125,-0.0126939574256539,0.0043358923867344,0.0354607887566089
1768735322940,0.1085357666015625,-0.5551910400390625,-0.8400726318359375,0.0030807447619736,-0.0032679650466889,0.0470958724617958
1768735322950,0.1021270751953125,-0.5496673583984375,-0.8453369140625,0.0155408764258027,-0.0056046224199235,0.04961708933115
1768735322960,0.0915985107421875,-0.5478668212890625,-0.8414459228515625,0.0152039863169193,0.0049345712177455,0.0504807494580745
1768735322970,0.083984375,-0.5456085205078125,-0.8384246826171875,0.0153153063729405,0.0097128143534064,0.0519295111298561
1768735322980,0.0793609619140625,-0.539520263671875,-0.84173583984375,0.020689832046628,0.0069292788393795,0.0508149787783622
1768735322990,0.0752716064453125,-0.5372161865234375,-0.840606689453125,0.0190051160752773,-0.0014751249691471,0.0500514507293701
1768735323000,0.0712890625,-0.5342864990234375,-0.8328094482421875,0.0187513176351785,-0.0039539951831102,0.0437077991664409
1768735323010,0.0693206787109375,-0.5335693359375,-0.8345794677734375,0.0197987388819456,-0.0039332224987447,0.0377846620976924
1768735323020,0.0668792724609375,-0.53411865234375,-0.837677001953125,0.0186932608485221,-0.0077247652225196,0.0329494290053844
1768735323030,0.0658111572265625,-0.5361328125,-0.8309478759765625,0.0110348081216216,-0.0090638026595115,0.0249282531440258
1768735323040,0.065643310546875,-0.5412139892578125,-0.8240814208984375,-0.0055620120838284,-0.003581419121474,0.018849853426218
1768735323051,0.0718231201171875,-0.541595458984375,-0.8238983154296875,-0.0124052707105875,-0.0127426935359835,0.0227489881217479
1768735323061,0.076904296875,-0.540771484375,-0.8327484130859375,-0.0118502676486969,-0.0104521084576845,0.0222882609814405
1768735323071,0.0763397216796875,-0.5427703857421875,-0.8398590087890625,-0.0046512107364833,-0.0048064729198813,0.0150532517582178
1768735323081,0.0764617919921875,-0.5444488525390625,-0.83990478515625,0.0018687400734052,0.000429301551776,0.0098915128037333
1768735323091,0.078277587890625,-0.5478057861328125,-0.835540771484375,0.0010444917716085,0.0128039456903934,0.0117575898766517
1768735323101,0.083526611328125,-0.54974365234375,-0.832122802734375,0.0043811663053929,0.0135930404067039,0.0179483741521835
1768735323111,0.085418701171875,-0.548492431640625,-0.8373260498046875,0.0093530220910906,0.0105351991951465,0.0181041695177555
1768735323121,0.083343505859375,-0.545654296875,-0.842010498046875,0.0186975207179784,0.0083053344860672,0.0151930674910545
1768735323131,0.0811614990234375,-0.5428924560546875,-0.8454132080078125,0.0331558212637901,0.0044607948511838,0.0128470892086625
1768735323141,0.0822296142578125,-0.5404052734375,-0.8491363525390625,0.0507566556334495,0.0058400458656251,0.0110105732455849
1768735323151,0.0777435302734375,-0.535980224609375,-0.8458709716796875,0.0624186359345912,0.0146780125796794,0.0058347196318209
1768735323161,0.07000732421875,-0.53515625,-0.8353118896484375,0.0654581040143966,0.0253660771995782,0.0048006139695644
1768735323171,0.0684661865234375,-0.53521728515625,-0.82159423828125,0.0519393645226955,0.025489380583167,0.0024977787397801
1768735323181,0.067474365234375,-0.5378265380859375,-0.8095855712890625,0.0272651761770248,0.0254073552787303,-0.0026495789643377
1768735323191,0.0679779052734375,-0.5401153564453125,-0.80242919921875,-0.0019283948931843,0.0254944413900375,-0.0056996974162757
1768735323201,0.0718841552734375,-0.541046142578125,-0.7999420166015625,-0.0283754486590623,0.023291740566492,-0.0055934372358024
1768735323211,0.0801544189453125,-0.54290771484375,-0.8061676025390625,-0.0448167398571968,0.0184133611619472,-0.0031454595737159
1768735323221,0.0869293212890625,-0.54339599609375,-0.8217620849609375,-0.0481675304472446,0.0093964310362935,0.0038474688772112
1768735323231,0.08740234375,-0.54339599609375,-0.832733154296875,-0.0401122644543647,0.0147608369588851,0.0068192901089787
1768735323241,0.0892486572265625,-0.5465240478515625,-0.8406829833984375,-0.0271147079765796,0.0152750927954912,0.0100060291588306
1768735323251,0.0893096923828125,-0.54754638671875,-0.8419647216796875,-0.0167052112519741,0.019189141690731,0.0130143351852893
1768735323262,0.0920562744140625,-0.5498199462890625,-0.841888427734375,-0.0076435385271906,0.0181377250701189,0.014430072158575
1768735323271,0.092010498046875,-0.5516204833984375,-0.8388214111328125,-0.0024306671693921,0.0152537878602743,0.0161291696131229
1768735323282,0.0888671875,-0.5521087646484375,-0.8311920166015625,-0.0048432247713208,0.0149856070056557,0.0156527291983366
1768735323292,0.0842132568359375,-0.5535736083984375,-0.8275146484375,-0.0129070105031132,0.0207779835909605,0.0239213109016418
1768735323302,0.08349609375,-0.5500640869140625,-0.8298492431640625,-0.012198076583445,0.0224906615912914,0.0292598847299814
1768735323312,0.078216552734375,-0.548858642578125,-0.83642578125,-0.0063931844197213,0.0220637563616037,0.0260606296360492
1768735323322,0.070587158203125,-0.5453338623046875,-0.83770751953125,-0.0082382224500179,0.0206829085946083,0.020659739151597
1768735323332,0.0680694580078125,-0.545379638671875,-0.83807373046875,-0.0041593248024582,0.0218637529760599,0.0159968100488185
1768735323342,0.0666961669921875,-0.5438690185546875,-0.837432861328125,-0.0032511870376765,0.0190077796578407,0.0111623732373118
1768735323352,0.0659027099609375,-0.5448760986328125,-0.8356475830078125,0.0001661812566453,0.0214677415788173,0.0046016760170459
1768735323362,0.0651397705078125,-0.5446014404296875,-0.835479736328125,0.0059063588269054,0.0200344286859035,0.0024096281267702
1768735323372,0.066741943359375,-0.545562744140625,-0.838836669921875,0.0135243311524391,0.0204916931688785,7.004113285802305e-05
1768735323382,0.069854736328125,-0.5455322265625,-0.8375091552734375,0.0202498771250247,0.0148804122582077,-0.0029744845815002
1768735323392,0.0707550048828125,-0.5482940673828125,-0.830963134765625,0.017698835581541,0.0141597613692283,-0.005388640332967
1768735323402,0.068878173828125,-0.547943115234375,-0.8231964111328125,0.0090486221015453,0.0122787700966,-0.0084928208962082
1768735323412,0.068450927734375,-0.5473785400390625,-0.8207855224609375,0.0023307986557483,0.0019169433508068,-0.0150916008278727
1768735323422,0.0660858154296875,-0.545135498046875,-0.8186492919921875,-0.0101170828565955,0.0030437267851084,-0.0211705323308706
1768735323432,0.0700225830078125,-0.5472412109375,-0.82122802734375,-0.0153757603839039,0.0040067257359623,-0.0207004845142364
1768735323442,0.074981689453125,-0.5463714599609375,-0.8282623291015625,-0.0113916713744401,-0.00063942495035,-0.016491625458002
1768735323452,0.074493408203125,-0.5456085205078125,-0.832275390625,-0.0077748326584696,-0.0016825852217152,-0.0223681554198265
1768735323462,0.0716400146484375,-0.544586181640625,-0.83087158203125,-0.0063649551011621,0.0025843314360827,-0.0269155036658048
1768735323473,0.0733489990234375,-0.5438232421875,-0.833160400390625,-0.0023736753500998,0.0060650832019746,-0.0284023471176624
1768735323483,0.0778350830078125,-0.5444183349609375,-0.8361968994140625,0.0064195496961474,0.0061950450763106,-0.0239010713994503
1768735323493,0.083282470703125,-0.5460662841796875,-0.8387298583984375,0.0135251302272081,0.0024280040524899,-0.0193795561790466
1768735323503,0.08367919921875,-0.5458221435546875,-0.8400726318359375,0.0198695790022611,0.0002338255435461,-0.0187638346105813
1768735323513,0.081756591796875,-0.5452423095703125,-0.83502197265625,0.0216040946543216,0.0019494339358061,-0.0231511257588863
1768735323523,0.0758209228515625,-0.54296875,-0.82891845703125,0.0177377182990312,-0.0014916365034878,-0.0284292437136173
1768735323533,0.0734405517578125,-0.5432586669921875,-0.8221435546875,0.0094105461612343,-0.0115914084017276,-0.0323329046368598
1768735323543,0.073211669921875,-0.54290771484375,-0.8142852783203125,-0.0081929489970207,-0.0122201805934309,-0.0422364026308059
1768735323553,0.072967529296875,-0.544586181640625,-0.8104400634765625,-0.0260561015456914,-0.0081151844933629,-0.0462481901049613
1768735323563,0.079437255859375,-0.54473876953125,-0.8143310546875,-0.0351369492709636,-0.0099439769983291,-0.0361297763884067
1768735323573,0.084808349609375,-0.5428314208984375,-0.8334197998046875,-0.0323736518621444,-0.0130412336438894,-0.0323608703911304
1768735323583,0.08544921875,-0.5443267822265625,-0.835906982421875,-0.0302977189421653,-0.00529809249565,-0.0296886526048183
1768735323593,0.0845794677734375,-0.5459136962890625,-0.839996337890625,-0.0222858637571334,0.0110182967036962,-0.0294862538576126
1768735323603,0.08624267578125,-0.54559326171875,-0.8488311767578125,-0.0059915799647569,0.0255437102168798,-0.0242017433047294
1768735323613,0.09283447265625,-0.5471954345703125,-0.8551177978515625,0.0140814641490578,0.0296108890324831,-0.0191089790314435
1768735323623,0.095611572265625,-0.545684814453125,-0.8563690185546875,0.030948594212532,0.0200259052217006,-0.0198535993695259
1768735323633,0.090911865234375,-0.544158935546875,-0.85015869140625,0.0464564487338066,0.0136771965771913,-0.02254419028759
1768735323643,0.080963134765625,-0.540374755859375,-0.8394622802734375,0.0543463304638862,0.0244526118040084,-0.0267748888581991
1768735323653,0.076690673828125,-0.5424957275390625,-0.8265380859375,0.0457685552537441,0.0271203014999628,-0.0317531339824199
1768735323663,0.076873779296875,-0.544525146484375,-0.8153076171875,0.0296910498291254,0.0203518774360418,-0.0352725014090538
1768735323673,0.0784912109375,-0.548065185546875,-0.807037353515625,0.0089671295136213,0.0293139461427927,-0.0339185521006584
1768735323684,0.086151123046875,-0.5504302978515625,-0.8060302734375,-0.0066587016917765,0.0243362318724393,-0.0291331186890602
1768735323694,0.0928802490234375,-0.5485687255859375,-0.80859375,-0.0277053974568843,0.0020951088517904,-0.0292910430580377
1768735323704,0.08563232421875,-0.5484161376953125,-0.808074951171875,-0.0424931310117244,-0.0088696582242846,-0.0375649519264698
1768735323714,0.0782928466796875,-0.5438995361328125,-0.816131591796875,-0.0453925170004367,-0.0064778728410601,-0.0408305190503597
1768735323724,0.0748138427734375,-0.5377197265625,-0.8336639404296875,-0.0352565236389637,0.0045353635214269,-0.0423565097153186
1768735323734,0.0814666748046875,-0.53900146484375,-0.84417724609375,-0.019888486713171,0.0181907210499048,-0.0380544401705265
1768735323744,0.089996337890625,-0.5438690185546875,-0.8461761474609375,-0.011290737427771,0.0242302380502223,-0.0340349338948726
1768735323754,0.0998077392578125,-0.550323486328125,-0.8451995849609375,-0.0064523066394031,0.0205694567412138,-0.0279344283044338
1768735323764,0.10687255859375,-0.555633544921875,-0.8435821533203125,0.002838663291186,0.0147840064018964,-0.0192583836615085
1768735323774,0.1087493896484375,-0.5547637939453125,-0.84527587890625,0.0113208312541246,0.0134332505986094,-0.0123778404667973
1768735323784,0.105255126953125,-0.554595947265625,-0.844573974609375,0.0216453745961189,0.0217827931046485,-0.0085242455825209
1768735323794,0.100860595703125,-0.55255126953125,-0.8426513671875,0.0305709578096866,0.0289043523371219,-0.0036687706597149
1768735323804,0.0968017578125,-0.5499114990234375,-0.8407440185546875,0.0357068665325641,0.0290737301111221,-0.0010849718237295
1768735323814,0.0904998779296875,-0.5458526611328125,-0.833526611328125,0.0350163057446479,0.0269349440932273,-0.0024487765040248
1768735323824,0.083526611328125,-0.54290771484375,-0.8263397216796875,0.0273432079702615,0.0255415793508291,-0.0139626869931817
1768735323834,0.0804290771484375,-0.5382843017578125,-0.8242034912109375,0.0249104090034961,0.023661121726036,-0.018663965165615
1768735323844,0.0798492431640625,-0.537261962890625,-0.8263092041015625,0.0199822299182415,0.0193819534033536,-0.0209303162992
1768735323854,0.0821533203125,-0.5364227294921875,-0.8240509033203125,0.0161195807158947,0.0199609249830245,-0.0197563935071229
1768735323864,0.086334228515625,-0.5387420654296875,-0.824554443359375,0.0163321010768413,0.0184091012924909,-0.0185577049851417
1768735323874,0.089385986328125,-0.541900634765625,-0.8246917724609375,0.0153025239706039,0.0165954884141683,-0.0188368037343025
1768735323884,0.091522216796875,-0.54559326171875,-0.82293701171875,0.0099048288539052,0.0166349038481712,-0.0187736880034208
1768735323895,0.095489501953125,-0.547576904296875,-0.8213653564453125,0.0058477688580751,0.0093234609812498,-0.016519321128726
1768735323904,0.097015380859375,-0.5496673583984375,-0.819915771484375,0.0006370281334966,0.0003880225704051,-0.0138835916295647
1768735323915,0.097076416015625,-0.551055908203125,-0.8171539306640625,-0.0083522060886025,-0.0031585090328007,-0.0116047244518995
1768735323925,0.0958251953125,-0.5513153076171875,-0.816436767578125,-0.016923589631915,-0.0088150631636381,-0.0085261100903153
1768735323935,0.0966033935546875,-0.5507049560546875,-0.818115234375,-0.0224789436906576,-0.0174378454685211,-0.0063183498568832
1768735323945,0.09381103515625,-0.548492431640625,-0.820526123046875,-0.0313882827758789,-0.0188834089785814,-0.0076435385271906
1768735323955,0.08966064453125,-0.5453033447265625,-0.8251800537109375,-0.0321704521775245,-0.0135325863957405,-0.0067742830142378
1768735323965,0.0880126953125,-0.542388916015625,-0.832550048828125,-0.025463281199336,-0.0118012661114335,-0.005003813188523
1768735323975,0.0889739990234375,-0.54205322265625,-0.8381500244140625,-0.0143547048792243,-0.0063313990831375,0.0040994039736688
1768735323985,0.0900726318359375,-0.5419464111328125,-0.8411102294921875,-0.0069673620164394,-0.0045755770988762,0.0034477282315492
1768735323995,0.089569091796875,-0.5431365966796875,-0.8364105224609375,-0.0044171190820634,-0.0064046359620988,-0.0011427623685449
1768735324005,0.0887298583984375,-0.5434417724609375,-0.8318328857421875,-0.0045971488580107,-0.0033001892734318,-0.0052679991349577
1768735324015,0.0922088623046875,-0.54541015625,-0.8307952880859375,-0.0003675162151921,0.0008167914929799,-0.0041662491858005
1768735324025,0.095367431640625,-0.5436859130859375,-0.8340911865234375,0.0042187133803963,0.002078330842778,0.0023108248133212
1768735324035,0.09649658203125,-0.5454559326171875,-0.8350372314453125,0.0083846962079405,0.0012852415675297,0.0072989254258573
1768735324045,0.09832763671875,-0.546661376953125,-0.8318023681640625,0.0048733185976743,-0.0016061523929238,0.0077173081226646
1768735324055,0.0986328125,-0.5460205078125,-0.8257598876953125,-0.001832521171309,-0.0087761813774704,0.0054996940307319
1768735324065,0.0981903076171875,-0.5476226806640625,-0.82257080078125,-0.0102430498227477,-0.0092749912291765,0.0043795681558549
1768735324076,0.09930419921875,-0.5468292236328125,-0.8248748779296875,-0.0114404074847698,-0.0079077240079641,0.0101367896422743
1768735324085,0.098907470703125,-0.5458221435546875,-0.82861328125,-0.0079644499346613,-0.0067764134146273,0.0117916781455278
1768735324096,0.099853515625,-0.54547119140625,-0.8310089111328125,-0.0050323093309998,-0.0004159857635386,0.0086411591619253
1768735324105,0.098846435546875,-0.545501708984375,-0.8289794921875,-0.004081827122718,0.0026008430868387,0.0102374572306871
1768735324116,0.095947265625,-0.5442657470703125,-0.828521728515625,-0.0061830612830817,0.0007198524544946,0.0079692434519529
1768735324126,0.092681884765625,-0.5448150634765625,-0.8253631591796875,-0.0103716803714632,-0.0007350324303843,0.0062429821118712
1768735324136,0.0937347412109375,-0.5439605712890625,-0.8243408203125,-0.0136830555275082,-0.0005222458858042,0.006736465729773
1768735324146,0.0935516357421875,-0.5445404052734375,-0.8253936767578125,-0.0201287046074867,-0.0040051280520856,0.0078360848128795
1768735324156,0.0919952392578125,-0.545806884765625,-0.8209686279296875,-0.0297147519886493,-0.0008266451768577,0.0064970478415489
1768735324166,0.091827392578125,-0.5472564697265625,-0.82122802734375,-0.0359018072485923,0.001996039180085,0.0079612536355853
1768735324176,0.0941925048828125,-0.545654296875,-0.828155517578125,-0.0356077961623668,-0.0015664712991565,0.0127019463106989
1768735324186,0.0953216552734375,-0.5472259521484375,-0.8321990966796875,-0.0353223048150539,-0.005828860681504,0.017634654417634
1768735324196,0.0922088623046875,-0.546112060546875,-0.83135986328125,-0.0385356731712818,0.0017369136912748,0.0158090572804212
1768735324206,0.088592529296875,-0.5453338623046875,-0.830841064453125,-0.0360070019960403,0.0056078182533383,0.0148654989898204
1768735324216,0.0892486572265625,-0.5430908203125,-0.8327484130859375,-0.0307019855827093,0.0035862126387655,0.0179715435951948
1768735324226,0.0895233154296875,-0.5436248779296875,-0.8358917236328125,-0.022801985964179,0.0038410772103816,0.0194924753159284
1768735324236,0.0883331298828125,-0.5459136962890625,-0.8356475830078125,-0.016384033486247,0.0052304482087492,0.0184453204274177
1768735324246,0.0869293212890625,-0.5427703857421875,-0.83831787109375,-0.0115519938990473,0.0083362264558672,0.0190610419958829
1768735324256,0.0831298828125,-0.5430145263671875,-0.8371429443359375,-0.0041904840618371,0.0092081455513834,0.0179233402013778
1768735324266,0.0829315185546875,-0.5421600341796875,-0.8373870849609375,0.0017334514996036,0.0015089471125975,0.0159150511026382
1768735324276,0.07916259765625,-0.541595458984375,-0.8339691162109375,-0.0011803129455074,0.007095992565155,0.0131163345649838
1768735324286,0.07958984375,-0.5435791015625,-0.832550048828125,0.0014775217277929,0.0091732582077384,0.0144111635163426
1768735324296,0.081298828125,-0.5434722900390625,-0.83441162109375,0.0063726780936121,0.0064349961467087,0.0133610786870121
1768735324306,0.080596923828125,-0.5457305908203125,-0.83270263671875,0.0048450888134539,0.0047952877357602,0.0128361703827977
1768735324316,0.080352783203125,-0.5445556640625,-0.831634521484375,0.0068054418079555,0.0099644837900996,0.0124734472483396
1768735324327,0.08111572265625,-0.5456390380859375,-0.8378143310546875,0.0139714758843183,0.012662798166275,0.012213522568345
1768735324336,0.0831451416015625,-0.545684814453125,-0.8392333984375,0.0230075810104608,0.0130598759278655,0.0118071250617504
1768735324347,0.0843963623046875,-0.5456695556640625,-0.8376922607421875,0.0271224305033683,0.0112257562577724,0.0095644770190119
1768735324357,0.0825347900390625,-0.5475616455078125,-0.8290252685546875,0.0230105109512805,0.0069101038388907,0.0089516835287213
1768735324367,0.083587646484375,-0.548004150390625,-0.8222808837890625,0.0173430368304252,-0.0027518442366272,0.0052741239778697
1768735324377,0.0822601318359375,-0.5467681884765625,-0.8167724609375,0.0051822452805936,-0.0139251369982957,0.0004756405542138
1768735324387,0.0800018310546875,-0.5460357666015625,-0.8133087158203125,-0.0082536684349179,-0.016704412177205,-0.0041571944020688
1768735324397,0.0807952880859375,-0.5464019775390625,-0.814697265625,-0.0175710041075944,-0.0212901085615158,-0.0036503949668258
1768735324407,0.0808563232421875,-0.5466766357421875,-0.8114166259765625,-0.0357255078852176,-0.0217010341584682,-0.0086725838482379
1768735324417,0.080291748046875,-0.5495452880859375,-0.8096466064453125,-0.0554251745343208,-0.0108398646116256,-0.0062520368956029
1768735324427,0.08636474609375,-0.548858642578125,-0.81866455078125,-0.0599584095180034,-0.0065013086423277,0.0010708570480346
1768735324437,0.0901031494140625,-0.546478271484375,-0.8336944580078125,-0.0510410815477371,-0.0009827064350247,0.0035864789970219
1768735324447,0.0905303955078125,-0.5454864501953125,-0.84429931640625,-0.0311504621058702,-0.0026415893808007,0.0043217777274549
1768735324457,0.0895538330078125,-0.5452728271484375,-0.8585662841796875,-0.0035071168094873,-0.002020540414378,0.0052935653366148
1768735324467,0.0870361328125,-0.5436553955078125,-0.86468505859375,0.0282883625477552,0.007635282818228,0.0022759374696761
1768735324477,0.0873260498046875,-0.5468292236328125,-0.8643951416015625,0.0513763725757598,0.0204554740339517,0.0032535837963223
1768735324487,0.088134765625,-0.5489044189453125,-0.8563232421875,0.0670820996165275,0.0116505306214094,-0.0034764904994517
1768735324497,0.0827178955078125,-0.5473480224609375,-0.8446502685546875,0.0731602311134338,0.0063404538668692,-0.0079910811036825
1768735324507,0.076629638671875,-0.5456390380859375,-0.834991455078125,0.0752255097031593,0.0176844540983438,-0.0126143284142017
1768735324517,0.0724029541015625,-0.545562744140625,-0.82342529296875,0.0624793581664562,0.0152820171788334,-0.0139485727995634
1768735324528,0.071746826171875,-0.5467529296875,-0.809783935546875,0.0409319885075092,0.0048402952961623,-0.0221154224127531
1768735324537,0.0731658935546875,-0.551025390625,-0.798065185546875,0.011912053450942,0.0026306705549359,-0.0194258950650692
1768735324548,0.0797882080078125,-0.5504608154296875,-0.7948760986328125,-0.0150628387928009,-0.0011973571963608,-0.0216674786061048
1768735324558,0.0812835693359375,-0.5485382080078125,-0.7994842529296875,-0.03972078114748,-0.0129253854975104,-0.0323182567954063
1768735324568,0.0772247314453125,-0.5435791015625,-0.8056488037109375,-0.0489049591124057,-0.0147571079432964,-0.0384243540465831
1768735324578,0.0764923095703125,-0.5384368896484375,-0.8246612548828125,-0.0404030829668045,-0.0107775460928678,-0.042607381939888
1768735324588,0.0758056640625,-0.5343475341796875,-0.84442138671875,-0.0160034671425819,3.728425508597866e-05,-0.0477342344820499
1768735324598,0.079498291015625,-0.5347747802734375,-0.8546600341796875,0.0059114187024533,0.0093184001743793,-0.0472862906754016
1768735324608,0.0868377685546875,-0.5431365966796875,-0.8528289794921875,0.0154319535940885,0.022589199244976,-0.0437528081238269
1768735324618,0.0988311767578125,-0.550506591796875,-0.8435211181640625,0.0200501400977373,0.024850221350789,-0.0348099134862422
1768735324628,0.1082763671875,-0.5566558837890625,-0.838653564453125,0.0203209836035966,0.0194405429065227,-0.0228507202118635
1768735324638,0.1108551025390625,-0.5601959228515625,-0.8316802978515625,0.0210759900510311,0.0127501497045159,-0.0159938801079988
1768735324648,0.110382080078125,-0.559844970703125,-0.8301239013671875,0.0209462940692901,0.0110803479328751,-0.0101948464289307
1768735324658,0.1041412353515625,-0.55572509765625,-0.82794189453125,0.0226227547973394,0.0145480502396821,-0.0091516869142651
1768735324668,0.1005096435546875,-0.552947998046875,-0.82769775390625,0.0251415725797414,0.0208770520985126,-0.0083854952827095
1768735324678,0.0990447998046875,-0.5500640869140625,-0.8273773193359375,0.025243304669857,0.025564482435584,9.58738019107841e-05
1768735324688,0.097625732421875,-0.54547119140625,-0.8257598876953125,0.0227468572556972,0.0235540624707937,0.0053737265989184
1768735324698,0.0919647216796875,-0.541961669921875,-0.8260345458984375,0.0206565428525209,0.0227476563304662,0.0045907571911811
1768735324708,0.0882415771484375,-0.5368194580078125,-0.8238067626953125,0.0197294969111681,0.0229905378073453,0.0045366948470473
1768735324718,0.08538818359375,-0.5365142822265625,-0.8233642578125,0.0208493545651435,0.0212512258440256,-0.0018485001055523
1768735324728,0.084228515625,-0.5386505126953125,-0.8199462890625,0.0139325931668281,0.0179813969880342,-0.005248824134469
1768735324738,0.0841064453125,-0.5409088134765625,-0.8140716552734375,0.0018197379540652,0.0170607417821884,-0.0079205073416233
1768735324749,0.0878448486328125,-0.5454864501953125,-0.8101959228515625,-0.0129054123535752,0.0097093526273965,-0.0097583550959825
1768735324759,0.0902099609375,-0.5488128662109375,-0.80755615234375,-0.0303134303539991,0.003098854329437,-0.0098835229873657
1768735324769,0.093902587890625,-0.5525054931640625,-0.8069000244140625,-0.0422393307089805,4.0746363083599135e-05,-0.0056011602282524
1768735324779,0.0977020263671875,-0.5514678955078125,-0.8149871826171875,-0.0457946509122848,-0.0071884044446051,0.0021108214277774
1768735324789,0.0996246337890625,-0.55181884765625,-0.82293701171875,-0.0455525703728199,-0.0047564054839313,0.0085077341645956
1768735324799,0.0995635986328125,-0.550201416015625,-0.8287353515625,-0.043423905968666,-0.0016229304019361,0.0134654752910137
1768735324809,0.0968170166015625,-0.5501861572265625,-0.83184814453125,-0.0373505689203739,-0.0046639940701425,0.0144580351188778
