timestamp_ms,acc_x,acc_y,acc_z,gyro_x,gyro_y,gyro_z
1769169107020,-0.0871124267578125,-0.0234375,-0.9549713134765624,-0.1247288808226585,-0.1022925525903701,0.0365601405501365
1769169107026,-0.077850341796875,-0.023284912109375,-0.96685791015625,-0.1376372277736663,-0.0887077674269676,0.0348221622407436
1769169107036,-0.081756591796875,-0.018310546875,-0.986053466796875,-0.1290495991706848,-0.0733674243092536,0.0124319018796086
1769169107046,-0.09466552734375,-0.009765625,-1.009185791015625,-0.0975686311721801,-0.0522496215999126,-0.0086544742807745
1769169107056,-0.0935211181640625,-0.0049896240234375,-1.0265350341796875,-0.0608718730509281,-0.0286910329014062,-0.0211692005395889
1769169107066,-0.082244873046875,-0.01068115234375,-1.0348663330078125,-0.0236992035061121,-0.0169712603092193,-0.0265804771333932
1769169107076,-0.0721893310546875,-0.0203857421875,-1.037261962890625,-0.000630902883131,0.0010580739472061,-0.0187638346105813
1769169107087,-0.054534912109375,-0.041900634765625,-1.0291748046875,0.0053939665667712,0.0116252303123474,0.0085064023733139
1769169107097,-0.029083251953125,-0.0628814697265625,-1.0121612548828125,0.0069119683466851,0.0095050884410738,0.0294564254581928
1769169107107,-0.047882080078125,-0.038543701171875,-1.0200347900390625,0.0529031604528427,0.0295432452112436,0.0086049400269985
1769169107117,-0.101104736328125,0.0114898681640625,-1.03900146484375,0.1040361225605011,0.0686496347188949,-0.0166665948927402
1769169107127,-0.1004638671875,-0.0118560791015625,-1.0158538818359375,0.0554075986146926,0.0253793932497501,0.0159134529531002
1769169107137,-0.050994873046875,-0.0292205810546875,-0.9546966552734376,0.0605565533041954,0.0302854683250188,-0.0317573957145214
1769169107147,-0.1350250244140625,0.0133819580078125,-0.9806671142578124,0.0579703599214553,0.0293853189796209,-0.0615650936961174
1769169107157,-0.119354248046875,0.0042266845703125,-0.9588470458984376,0.0054887747392058,-0.0002114549861289,-0.0577921941876411
1769169107167,-0.08416748046875,-0.026123046875,-0.9259185791015624,-0.0700075775384903,-0.0364735871553421,-0.0536999814212322
1769169107177,-0.0717620849609375,-0.035614013671875,-0.923583984375,-0.1235440447926521,-0.0465347431600093,-0.0484466291964054
1769169107187,-0.0679168701171875,-0.0400848388671875,-0.94976806640625,-0.1492078602313995,-0.0501148328185081,-0.0385857410728931
1769169107197,-0.05712890625,-0.0497894287109375,-0.9779205322265624,-0.1550617516040802,-0.0392920114099979,-0.0242693871259689
1769169107207,-0.0552520751953125,-0.048492431640625,-1.0011749267578125,-0.1334853619337082,-0.0120641198009252,-0.0101290671154856
1769169107217,-0.062744140625,-0.03399658203125,-1.032867431640625,-0.0827659890055656,0.0114276241511106,-0.0079484703019261
1769169107227,-0.075439453125,-0.0189361572265625,-1.0602874755859375,-0.0220400542020797,0.0224373992532491,-0.010652644559741
1769169107237,-0.080596923828125,-0.012542724609375,-1.0676116943359375,0.0313733704388141,0.0203462839126586,-0.0148838749155402
1769169107248,-0.0789337158203125,-0.0120391845703125,-1.061676025390625,0.0694911926984787,-0.0008349010022357,-0.0205172598361969
1769169107257,-0.0795440673828125,-0.01751708984375,-1.04266357421875,0.0846320614218711,-0.0139954444020986,-0.0238986741751432
1769169107267,-0.0764923095703125,-0.025390625,-1.0164642333984375,0.077181339263916,-0.0078770974650979,-0.0139046302065253
1769169107277,-0.064422607421875,-0.03314208984375,-0.9894256591796876,0.0593288354575634,0.0087900292128324,0.0006239786162041
1769169107287,-0.0626068115234375,-0.038238525390625,-0.974609375,0.0345886051654815,0.0262385290116071,0.0170255880802869
1769169107298,-0.06298828125,-0.037841796875,-0.9682464599609376,0.0128383003175258,0.0408265255391597,0.0265732873231172
1769169107308,-0.07147216796875,-0.0316925048828125,-0.967529296875,-0.0032684975303709,0.0366142019629478,0.0270989947021007
1769169107318,-0.0781097412109375,-0.024322509765625,-0.974853515625,-0.0166330393403768,0.0281485468149185,0.0260848645120859
1769169107328,-0.074249267578125,-0.024566650390625,-0.9813385009765624,-0.0189052484929561,0.0105320028960704,0.0254931095987558
1769169107338,-0.0695648193359375,-0.0285491943359375,-0.994842529296875,-0.0161257069557905,-0.0098664788529276,0.0284588057547807
1769169107348,-0.0640716552734375,-0.02581787109375,-1.0089569091796875,0.0057654771953821,-0.0235529970377683,0.0286127366125583
1769169107358,-0.0793609619140625,-0.009429931640625,-1.0257110595703125,0.0360584035515785,-0.0114840827882289,0.0139570944011211
1769169107368,-0.0949554443359375,-0.0020904541015625,-1.0248260498046875,0.0478772446513175,0.0049265818670392,0.013226056471467
1769169107378,-0.089569091796875,-0.0120391845703125,-1.0012054443359375,0.0351518616080284,0.0211596135050058,0.0087602017447352
1769169107388,-0.08489990234375,-0.022705078125,-0.9785003662109376,0.0177877862006425,0.0257421154528856,0.0047409594990313
1769169107398,-0.081634521484375,-0.023773193359375,-0.9699249267578124,0.0021736719645559,0.0220219455659389,0.0012831110507249
1769169107408,-0.076446533203125,-0.028900146484375,-0.968719482421875,-0.0173635445535182,0.0148247526958584,-0.001146224560216
1769169107418,-0.0714569091796875,-0.03375244140625,-0.9654693603515624,-0.0361249819397926,0.0131757231429219,-4.740426811622456e-05
1769169107428,-0.066375732421875,-0.0367279052734375,-0.96881103515625,-0.0512402839958667,0.0111700966954231,0.0013036173768341
1769169107438,-0.0705718994140625,-0.033203125,-0.975799560546875,-0.0587948746979236,0.0144082335755229,-9.00148443179205e-05
1769169107448,-0.0755767822265625,-0.024871826171875,-0.983123779296875,-0.0581754222512245,0.0290486961603164,0.0009257147903554
1769169107458,-0.0799713134765625,-0.016998291015625,-0.9953155517578124,-0.050481017678976,0.0211814511567354,-0.0082382224500179
1769169107468,-0.0873870849609375,-0.0135650634765625,-1.0015869140625,-0.0471970736980438,0.0257927142083644,-0.0155717693269252
1769169107478,-0.0866546630859375,-0.01654052734375,-0.9987030029296876,-0.0478689894080162,0.0363588072359561,-0.0164258442819118
1769169107488,-0.082244873046875,-0.0196380615234375,-0.9955596923828124,-0.0462412647902965,0.0419051051139831,-0.0151848122477531
1769169107498,-0.0809478759765625,-0.0187835693359375,-0.993682861328125,-0.0496439859271049,0.0442966260015964,-0.0137035613879561
1769169107508,-0.079193115234375,-0.02142333984375,-0.98809814453125,-0.0548667088150978,0.0336863249540329,-0.0137893157079815
1769169107519,-0.076812744140625,-0.021484375,-0.9873199462890624,-0.0584055185317993,0.0164349004626274,-0.0170349106192588
1769169107529,-0.0774383544921875,-0.0166015625,-0.993804931640625,-0.0554539375007152,0.0020841897930949,-0.0237412825226783
1769169107539,-0.08056640625,-0.0140533447265625,-1.0051116943359375,-0.0474838949739933,-0.0032296155113726,-0.0297528356313705
1769169107549,-0.0759124755859375,-0.0168914794921875,-1.01422119140625,-0.0314383506774902,0.0056781256571412,-0.0270004589110612
1769169107559,-0.070892333984375,-0.018463134765625,-1.0212554931640625,-0.0077300914563238,0.0241050701588392,-0.0240803025662899
1769169107569,-0.0770263671875,-0.0176239013671875,-1.02410888671875,0.0120404176414012,0.0567146763205528,-0.019678896293044
1769169107579,-0.0757598876953125,-0.0220184326171875,-1.0189971923828125,0.0265045780688524,0.077607974410057,-0.0119160478934645
1769169107589,-0.0724029541015625,-0.0272979736328125,-1.00750732421875,0.0257924478501081,0.0846001058816909,-0.0046791741624474
1769169107599,-0.071136474609375,-0.0300140380859375,-0.9974822998046876,0.0214395113289356,0.0738284140825271,-0.0016048208344727
1769169107609,-0.063079833984375,-0.04595947265625,-0.9823760986328124,-0.0113687682896852,0.0397450141608715,0.0099935121834278
1769169107619,-0.0553436279296875,-0.0420379638671875,-0.9714508056640624,-0.015581090003252,0.0113354790955781,-0.0021811288315802
1769169107629,-0.08306884765625,-0.003662109375,-0.9950103759765624,0.0311017259955406,0.0065598981454968,-0.0479419603943824
1769169107639,-0.122650146484375,0.0269622802734375,-1.0193634033203125,0.0172002911567688,-0.0115882130339741,-0.0281243119388818
1769169107649,-0.06085205078125,-0.0124664306640625,-0.9814605712890624,-0.0090171974152326,-0.0205931589007377,-0.0232856143265962
1769169107660,-0.06976318359375,-0.0192108154296875,-0.9761962890625,-0.0104869958013296,0.0085908249020576,-0.044407945126295
1769169107669,-0.1004180908203125,-0.005279541015625,-0.9824676513671876,-0.0170756559818983,0.0257634203881025,-0.0520416311919689
1769169107679,-0.0906524658203125,-0.00262451171875,-0.975494384765625,-0.0452785305678844,0.0382837392389774,-0.0457435213029384
1769169107690,-0.0723876953125,-0.0202178955078125,-0.96527099609375,-0.083136960864067,0.0389660410583019,-0.0329129435122013
1769169107699,-0.0514373779296875,-0.0334625244140625,-0.964263916015625,-0.108254037797451,0.0295096896588802,-0.0341028422117233
1769169107709,-0.0435638427734375,-0.0391845703125,-0.986236572265625,-0.1137201711535453,0.0043097934685647,-0.031764056533575
1769169107719,-0.0382232666015625,-0.0395355224609375,-1.0086822509765625,-0.10397619754076,-0.0139240715652704,-0.0343260169029235
1769169107730,-0.0436859130859375,-0.0352630615234375,-1.0299530029296875,-0.0775957256555557,-0.0193934049457311,-0.0344788804650306
1769169107740,-0.052001953125,-0.02618408203125,-1.0496063232421875,-0.0299096964299678,0.0038850193377584,-0.0404307805001735
1769169107750,-0.071807861328125,-0.0090789794921875,-1.0659637451171875,0.0302820056676864,0.0401519462466239,-0.0541804134845733
1769169107760,-0.08453369140625,0.0060577392578125,-1.0748443603515625,0.0950642004609108,0.0809949859976768,-0.0634474158287048
1769169107770,-0.086273193359375,0.014801025390625,-1.0673828125,0.1498992145061493,0.097667172551155,-0.0762385800480842
1769169107780,-0.08807373046875,0.0190277099609375,-1.050445556640625,0.1795543134212494,0.115807294845581,-0.0858206301927566
1769169107792,-0.0817413330078125,0.01708984375,-1.0169525146484375,0.1871930658817291,0.1262570023536682,-0.0807100236415863
1769169107800,-0.0690460205078125,0.0062408447265625,-0.9820098876953124,0.1744434386491775,0.1269771158695221,-0.0721077471971511
1769169107810,-0.058380126953125,-0.0090179443359375,-0.9520416259765624,0.1300365626811981,0.1248242259025573,-0.0647957772016525
1769169107820,-0.048919677734375,-0.028656005859375,-0.9223175048828124,0.0602979622781276,0.1045546382665634,-0.0487955026328563
1769169107830,-0.0400390625,-0.0444488525390625,-0.9036865234375,-0.0140838613733649,0.0837217941880226,-0.0354778319597244
1769169107840,-0.0414276123046875,-0.052154541015625,-0.90496826171875,-0.0809590294957161,0.0622236914932727,-0.0236952099949121
1769169107850,-0.0442047119140625,-0.0572509765625,-0.91375732421875,-0.1409446001052856,0.0341209508478641,-0.0175739340484142
1769169107860,-0.051483154296875,-0.0477752685546875,-0.9379119873046876,-0.1601084470748901,0.013986655510962,-0.0165552739053964
1769169107870,-0.0693511962890625,-0.0236358642578125,-0.979095458984375,-0.1343721896409988,0.0121051324531435,-0.0210477616637945
1769169107880,-0.0865631103515625,-0.00372314453125,-1.01519775390625,-0.0994155332446098,0.0063460464589297,-0.0331004299223423
1769169107891,-0.090606689453125,-0.0030975341796875,-1.0368499755859375,-0.0600992888212204,0.0070962589234113,-0.0385503210127353
1769169107900,-0.08209228515625,-0.0109710693359375,-1.0456085205078125,-0.0287376381456851,0.0047896951436996,-0.0367135405540466
1769169107910,-0.07073974609375,-0.0189361572265625,-1.0453338623046875,0.0024269386194646,0.0278840959072113,-0.0380650945007801
1769169107920,-0.0647125244140625,-0.0260009765625,-1.04254150390625,0.019865583628416,0.02997787296772,-0.025029718875885
1769169107930,-0.05316162109375,-0.0340728759765625,-1.0294189453125,0.0290550868958234,0.0466684363782405,-0.0107871340587735
1769169107941,-0.042816162109375,-0.0428924560546875,-1.01513671875,0.031857531517744,0.0576704852283,0.0007653924985788
1769169107950,-0.041015625,-0.0424041748046875,-1.0075531005859375,0.0387103781104087,0.0588500015437603,0.0064810686744749
1769169107961,-0.0474700927734375,-0.035980224609375,-1.01153564453125,0.0484447628259658,0.0424156337976455,0.0047931573353707
1769169107971,-0.054656982421875,-0.027801513671875,-1.0167388916015625,0.063531570136547,0.0226760171353817,0.0029901971574872
1769169107981,-0.05633544921875,-0.025299072265625,-1.019500732421875,0.0706400796771049,0.0046171224676072,0.0039465385489165
1769169107991,-0.0612030029296875,-0.0241546630859375,-1.015411376953125,0.0757426992058754,0.0033782199025154,-0.0020319919567555
1769169108001,-0.0686187744140625,-0.02593994140625,-1.009918212890625,0.0772268772125244,0.0233844183385372,-0.0005014732014387
1769169108011,-0.0693511962890625,-0.025543212890625,-1.0018310546875,0.0685393810272216,0.0487821847200393,0.0022791333030909
1769169108021,-0.0691680908203125,-0.02801513671875,-0.9896697998046876,0.0476724468171596,0.0630628541111946,-0.0005491438205353
1769169108031,-0.0718994140625,-0.02923583984375,-0.976470947265625,0.0218331273645162,0.0659135058522224,-0.0052434979006648
1769169108041,-0.0685577392578125,-0.027191162109375,-0.9708251953125,-0.0007270429632626,0.0618516504764556,-0.013570137321949
1769169108051,-0.064208984375,-0.023040771484375,-0.973052978515625,-0.0139022329822182,0.0492349229753017,-0.023847009986639
1769169108061,-0.0573883056640625,-0.021759033203125,-0.980255126953125,-0.014152836985886,0.0242115966975688,-0.0300298035144805
1769169108071,-0.055389404296875,-0.019927978515625,-0.993011474609375,-0.0036293559242039,0.0085500786080956,-0.0332351848483085
1769169108081,-0.0517120361328125,-0.014617919921875,-1.005401611328125,0.0122665194794535,0.000582699663937,-0.0359920896589756
1769169108092,-0.0548248291015625,-0.0168914794921875,-1.0016326904296875,0.0161371584981679,0.0003398193512111,-0.0401660613715648
1769169108101,-0.0561370849609375,-0.0198211669921875,-0.9964447021484376,0.0148950600996613,0.019954266026616,-0.0353364199399948
1769169108111,-0.055206298828125,-0.0263519287109375,-0.99200439453125,0.0116835543885827,0.0326503552496433,-0.0255029629915952
1769169108124,-0.04638671875,-0.0433502197265625,-0.9860687255859376,-0.0144199514761567,0.0338961817324161,-0.0022274679504334
1769169108131,-0.0249786376953125,-0.0601654052734375,-0.9717254638671876,-0.0298689492046833,0.0257037654519081,0.01514832675457
1769169108141,-0.0424652099609375,-0.0410614013671875,-0.9864654541015624,-0.0111117735505104,0.0247764531522989,-0.0061878548003733
1769169108151,-0.08966064453125,0.0191192626953125,-1.015960693359375,0.0566875152289867,0.0656884685158729,-0.0567050911486148
1769169108161,-0.1053314208984375,0.0077972412109375,-1.0315399169921875,0.0261972490698099,0.0033097765408456,-0.0296098235994577
1769169108173,-0.0213470458984375,-0.0296630859375,-0.9788818359375,0.0335475727915763,-0.0026325348298996,-0.0529060922563076
1769169108182,-0.085357666015625,-0.00189208984375,-1.0008697509765625,0.0347952656447887,0.0113509250804781,-0.0720238611102104
1769169108193,-0.081634521484375,-0.0118255615234375,-0.9804229736328124,-0.0155999986454844,0.0095628788694739,-0.0561359748244285
1769169108202,-0.0448455810546875,-0.042388916015625,-0.9512939453125,-0.0667167156934738,-0.0083817671984434,-0.0403873696923255
1769169108212,-0.042938232421875,-0.0426788330078125,-0.957611083984375,-0.1040246710181236,0.0009321063989773,-0.0397364944219589
1769169108222,-0.0443572998046875,-0.0463714599609375,-0.9730072021484376,-0.1148301810026168,0.0057095508091151,-0.0341052412986755
1769169108232,-0.0390167236328125,-0.0423736572265625,-1.0003814697265625,-0.0850736126303672,0.0205963551998138,-0.0276366882026195
1769169108242,-0.053924560546875,-0.021820068359375,-1.0350799560546875,-0.026288328692317,0.0318026691675186,-0.046467900276184
1769169108252,-0.0686187744140625,-0.002899169921875,-1.0591583251953125,0.0441107340157032,0.0359856970608234,-0.0594683848321437
1769169108262,-0.0616607666015625,-0.00115966796875,-1.0670318603515625,0.0975603759288787,0.0308897383511066,-0.0595908910036087
1769169108272,-0.0538330078125,-0.0117950439453125,-1.04620361328125,0.1184089332818985,0.0325755216181278,-0.0597221851348876
1769169108282,-0.0546112060546875,-0.0250091552734375,-1.011688232421875,0.1154570877552032,0.0475645884871482,-0.0514613278210163
1769169108292,-0.0488739013671875,-0.038726806640625,-0.9781494140625,0.0820440053939819,0.0543370097875595,-0.040235836058855
1769169108302,-0.0431671142578125,-0.046173095703125,-0.9512481689453124,0.0357790365815162,0.0628269016742706,-0.0266715586185455
1769169108312,-0.044647216796875,-0.0449371337890625,-0.9369964599609376,-0.016660202294588,0.0528629496693611,-0.0221069008111953
1769169108323,-0.045257568359375,-0.0399932861328125,-0.9349822998046876,-0.0612258054316043,0.0394531339406967,-0.0206184592097997
1769169108332,-0.044769287109375,-0.0364227294921875,-0.9451446533203124,-0.089443065226078,0.0179702118039131,-0.017561150714755
1769169108342,-0.0380706787109375,-0.0312347412109375,-0.9676513671875,-0.0905765071511268,-0.0016338493442162,-0.0149347409605979
1769169108352,-0.040191650390625,-0.024627685546875,-0.9969024658203124,-0.0747844949364662,-0.0198520012199878,-0.0147757502272725
1769169108362,-0.03668212890625,-0.0316314697265625,-1.0180511474609375,-0.0583533197641372,-0.0298788025975227,-0.0091042825952172
1769169108374,-0.0267181396484375,-0.0457305908203125,-1.024932861328125,-0.0331781916320323,-0.0184988491237163,0.0070485882461071
1769169108382,-0.02093505859375,-0.0445709228515625,-1.034820556640625,0.0123216472566127,0.0055486960336565,0.0234275609254837
1769169108393,-0.0364532470703125,-0.0294036865234375,-1.04681396484375,0.0586542598903179,0.0219369903206825,0.0235503334552049
1769169108403,-0.060882568359375,-0.0205535888671875,-1.03863525390625,0.0759863778948783,0.0366677343845367,0.0210754573345184
1769169108413,-0.0575103759765625,-0.022308349609375,-1.0093231201171875,0.0709346234798431,0.0328572839498519,0.0305195599794387
1769169108424,-0.0501251220703125,-0.029510498046875,-0.9900360107421876,0.0524837151169776,0.0235434100031852,0.0356757044792175
1769169108433,-0.0528411865234375,-0.0363616943359375,-0.9727020263671876,0.0275171119719743,0.008969260379672,0.0359244458377361
1769169108443,-0.049652099609375,-0.043670654296875,-0.9613800048828124,0.0042085936293005,-0.0171153377741575,0.0352964699268341
1769169108453,-0.043701171875,-0.0430145263671875,-0.966552734375,-0.0118521321564912,-0.0411306582391262,0.0392720401287078
1769169108463,-0.047760009765625,-0.0351715087890625,-0.9694061279296876,-0.0237346235662698,-0.0386685654520988,0.0306497886776924
1769169108473,-0.0595245361328125,-0.027679443359375,-0.9753265380859376,-0.0286742560565471,-0.0306319445371627,0.0257256031036376
1769169108483,-0.060089111328125,-0.02764892578125,-0.982330322265625,-0.033803503960371,-0.0191971305757761,0.0246028155088424
1769169108494,-0.04852294921875,-0.0399017333984375,-0.987762451171875,-0.0454609580338001,-0.0124785071238875,0.0397511422634124
1769169108503,-0.03375244140625,-0.0580596923828125,-0.9882354736328124,-0.0557942911982536,-0.0120007367804646,0.0630455464124679
1769169108513,-0.0296173095703125,-0.0604248046875,-0.997833251953125,-0.0559428930282592,-0.0360027402639389,0.0726829916238784
1769169108525,-0.053253173828125,-0.052764892578125,-1.013092041015625,-0.0510240346193313,-0.0622575171291828,0.0643949657678604
1769169108533,-0.07208251953125,-0.0473480224609375,-1.021209716796875,-0.0362839698791503,-0.0928266122937202,0.0564377084374427
1769169108543,-0.0831298828125,-0.0404052734375,-1.024993896484375,-0.0181928519159555,-0.0993934348225593,0.0444899685680866
1769169108553,-0.098297119140625,-0.03076171875,-1.017730712890625,0.0019161443924531,-0.0965957790613174,0.0264068394899368
1769169108563,-0.10284423828125,-0.0211181640625,-1.0123291015625,0.0181470457464456,-0.0942668467760086,0.0125320367515087
1769169108573,-0.0974884033203125,-0.014801025390625,-1.000152587890625,0.0214400440454483,-0.0851322039961814,-0.0011408982099965
1769169108583,-0.0915679931640625,-0.014007568359375,-0.9808349609375,0.0106209525838494,-0.0607624165713787,-0.0096108159050345
1769169108594,-0.086517333984375,-0.012054443359375,-0.963958740234375,-0.0039534624665975,-0.0469477996230125,-0.0200506728142499
1769169108603,-0.0821990966796875,-0.011932373046875,-0.9585723876953124,-0.0264020469039678,-0.0406203977763652,-0.0314713716506958
1769169108613,-0.0695037841796875,-0.018280029296875,-0.9565887451171876,-0.0493148192763328,-0.0329297184944152,-0.0317475423216819
1769169108624,-0.05218505859375,-0.02655029296875,-0.961151123046875,-0.0620740242302417,-0.0345470570027828,-0.0198517348617315
1769169108634,-0.0366973876953125,-0.043609619140625,-0.9755706787109376,-0.0795342400670051,-0.0571860559284687,0.0054405718110501
1769169108644,-0.0110626220703125,-0.05877685546875,-0.9818267822265624,-0.0665699690580368,-0.0600715912878513,0.0227380692958831
1769169108654,-0.0324554443359375,-0.03338623046875,-1.0104522705078125,-0.0198333598673343,-0.0465565845370292,0.0055154063738882
1769169108664,-0.0711669921875,0.011810302734375,-1.0370330810546875,0.0366831794381141,-0.0016466324450448,-0.011149856261909
1769169108674,-0.063323974609375,-0.01861572265625,-1.0224151611328125,-0.0054240599274635,-0.0349238961935043,0.0332881808280944
1769169108684,-0.016448974609375,-0.041717529296875,-0.963897705078125,-0.0004980111261829,-0.0109123028814792,0.0092454301193356
1769169108694,-0.0855560302734375,-0.0143890380859375,-0.9807586669921876,-0.0247777849435806,-0.0013393036788329,0.0114902080968022
1769169108704,-0.0687103271484375,-0.0200347900390625,-0.9506378173828124,-0.0837271213531494,-0.02168745175004,0.0223407261073589
1769169108714,-0.06201171875,-0.03179931640625,-0.937530517578125,-0.1341061443090438,-0.0498634316027164,0.0219585616141557
1769169108725,-0.062042236328125,-0.0286102294921875,-0.9585418701171876,-0.1528033912181854,-0.0640681982040405,0.0211742613464593
1769169108734,-0.051483154296875,-0.033905029296875,-0.989410400390625,-0.1542199254035949,-0.084239512681961,0.0325683280825614
1769169108744,-0.0410614013671875,-0.036956787109375,-1.0152435302734375,-0.1250902712345123,-0.0867982804775238,0.0347358770668506
1769169108754,-0.05291748046875,-0.022857666015625,-1.044769287109375,-0.0685684084892273,-0.0601853094995021,0.0266486555337905
1769169108764,-0.0727081298828125,-0.0037994384765625,-1.064361572265625,0.0020860540680587,-0.0235335547477006,0.0110976584255695
1769169108775,-0.084625244140625,0.004058837890625,-1.0694580078125,0.0583384074270725,0.0142966471612453,-0.0041753039695322
1769169108784,-0.0820159912109375,-0.0017242431640625,-1.050079345703125,0.085589200258255,0.0306007862091064,-0.0097253313288092
1769169108794,-0.070892333984375,-0.0157318115234375,-1.0183868408203125,0.0788351595401763,0.0382150299847126,-0.0114081827923655
1769169108804,-0.0651397705078125,-0.027862548828125,-0.98931884765625,0.0611504390835762,0.0344224236905574,-0.0066435215994715
1769169108814,-0.0523529052734375,-0.03717041015625,-0.9702301025390624,0.0301081016659736,0.0207055453211069,0.0022879217285662
1769169108825,-0.043670654296875,-0.0419464111328125,-0.9605865478515624,-0.006721019744873,-0.0001997370854951,0.0143555030226707
1769169108835,-0.0440673828125,-0.035675048828125,-0.9571075439453124,-0.033972080796957,-0.0298340618610382,0.0061782673001289
1769169108845,-0.0565032958984375,-0.0256195068359375,-0.9693450927734376,-0.0458812043070793,-0.0433461405336856,0.0026450515724718
1769169108855,-0.05279541015625,-0.01885986328125,-0.9846038818359376,-0.0460561737418174,-0.0371460355818271,0.0100813964381814
1769169108865,-0.0514373779296875,-0.0188446044921875,-0.99725341796875,-0.0375508368015289,-0.0230379402637481,0.0187510512769222
1769169108875,-0.05120849609375,-0.0251312255859375,-1.0020751953125,-0.0349385440349578,-0.0097738010808825,0.0290702674537897
1769169108885,-0.0438232421875,-0.0350189208984375,-1.0037994384765625,-0.0288753230124712,-0.0021140172611922,0.049002431333065
1769169108895,-0.03875732421875,-0.0311737060546875,-1.01177978515625,-0.0029057750944048,-0.0001302285818383,0.0605991631746292
1769169108905,-0.0604095458984375,-0.0119781494140625,-1.025146484375,0.0350333526730537,-0.0010293117957189,0.0463930629193782
1769169108915,-0.08935546875,0.0052337646484375,-1.0273895263671875,0.053347110748291,0.0035521241370588,0.031838621944189
1769169108926,-0.0881805419921875,0.0027923583984375,-1.008819580078125,0.053548976778984,-0.0071607073768973,0.0342834033071994
1769169108935,-0.0745697021484375,-0.0062255859375,-0.9895782470703124,0.0389428734779357,-0.0226355381309986,0.0279549360275268
1769169108945,-0.071685791015625,-0.0116119384765625,-0.976898193359375,0.0117243006825447,-0.0360834375023841,0.0309805534780025
1769169108955,-0.0596923828125,-0.0193939208984375,-0.9626922607421876,-0.0232619121670722,-0.044236171990633,0.0392965376377105
1769169108965,-0.048583984375,-0.028228759765625,-0.9515838623046876,-0.0622918717563152,-0.0366299152374267,0.0487614125013351
1769169108976,-0.0496978759765625,-0.031890869140625,-0.9496002197265624,-0.0902494713664054,-0.0299003738909959,0.0552025362849235
1769169108985,-0.0527191162109375,-0.02783203125,-0.9609222412109376,-0.1086207553744316,-0.0242848340421915,0.0563812516629695
1769169108995,-0.0601959228515625,-0.019287109375,-0.9776763916015624,-0.1051511839032173,-0.0231359452009201,0.0483630038797855
1769169109005,-0.0683441162109375,-0.0113983154296875,-1.000396728515625,-0.085840605199337,-0.0398723147809505,0.0401159934699535
1769169109015,-0.06927490234375,-0.0064239501953125,-1.0179595947265625,-0.063592292368412,-0.0616247467696666,0.0335715413093566
1769169109026,-0.0692291259765625,-0.007049560546875,-1.0242919921875,-0.0445680022239685,-0.0633384957909584,0.027148263528943
1769169109035,-0.075836181640625,-0.0084991455078125,-1.0207061767578125,-0.0340634286403656,-0.0476676523685455,0.0238440800458192
1769169109045,-0.0747833251953125,-0.01434326171875,-1.0174713134765625,-0.0227402001619339,-0.0259557012468576,0.0294215381145477
1769169109057,-0.0715789794921875,-0.0143890380859375,-1.0142364501953125,-0.01836808770895,-0.0010271812789142,0.030973894521594
1769169109066,-0.077484130859375,-0.0146331787109375,-1.00830078125,-0.0143986465409398,0.0213180724531412,0.0311491303145885
1769169109076,-0.077301025390625,-0.0123748779296875,-1.0059356689453125,-0.010563694871962,0.0360293723642826,0.0297182146459817
1769169109086,-0.0771026611328125,-0.01043701171875,-1.0005645751953125,-0.0096923084929585,0.0346450619399547,0.023449134081602
1769169109096,-0.0760040283203125,-0.013275146484375,-0.9983062744140624,-0.007407050114125,0.0198946129530668,0.0136545598506927
1769169109106,-0.07666015625,-0.010345458984375,-1.0009918212890625,0.0020900487434118,0.0034061830956488,0.0008532768115401
1769169109116,-0.0802154541015625,-0.00457763671875,-1.0081787109375,0.0117248324677348,-0.0014772554859519,-0.0107192229479551
1769169109126,-0.0816192626953125,-0.003082275390625,-1.007720947265625,0.0124739799648523,-0.0120028667151927,-0.0186288114637136
1769169109136,-0.0806427001953125,-0.009185791015625,-1.0012359619140625,0.0076991985552012,-0.0106507800519466,-0.0230760239064693
1769169109146,-0.0769500732421875,-0.01995849609375,-0.9946136474609376,-0.0024458470288664,0.0052136704325675,-0.0143653573468327
1769169109158,-0.05902099609375,-0.0425262451171875,-0.98101806640625,-0.038965243846178,0.014778945595026,0.0068653631024062
1769169109166,-0.0506134033203125,-0.0464019775390625,-0.9639129638671876,-0.0556643269956111,0.0240075979381799,0.0059194080531597
1769169109176,-0.0784912109375,-0.0129547119140625,-0.98406982421875,-0.0115565210580825,0.0216666795313358,-0.0393346212804317
1769169109186,-0.123382568359375,0.0355682373046875,-1.02197265625,-0.005560946650803,0.0142921200022101,-0.0364999547600746
1769169109196,-0.071075439453125,-0.003509521484375,-0.9920196533203124,-0.0269578471779823,-0.0255160126835107,-0.0243479497730731
1769169109206,-0.0640716552734375,-0.014434814453125,-0.982452392578125,-0.0167382340878248,-0.0359747782349586,-0.0540307462215423
1769169109216,-0.106109619140625,0.005401611328125,-0.9994354248046876,-0.0071511198766529,-0.0231564510613679,-0.0667396187782287
1769169109228,-0.0955047607421875,0.0026397705078125,-0.99456787109375,-0.0183981824666261,-0.0078512653708457,-0.0562105402350425
1769169109236,-0.0702362060546875,-0.013153076171875,-0.9835052490234376,-0.0430033951997756,0.0035105790011584,-0.0277703776955604
1769169109246,-0.048614501953125,-0.0272979736328125,-0.979461669921875,-0.0578840710222721,0.0195936746895313,-0.0118121849372982
1769169109258,-0.0517425537109375,-0.02996826171875,-0.9913330078125,-0.0595477484166622,0.0183065682649612,-0.0016218650853261
1769169109267,-0.0511322021484375,-0.02783203125,-0.9972076416015624,-0.0546416752040386,-0.0017227989155799,0.0013278521364554
1769169109277,-0.058746337890625,-0.016326904296875,-1.00628662109375,-0.0408462323248386,-0.0189033839851617,-0.0024642229545861
1769169109287,-0.068023681640625,-0.0075225830078125,-1.015960693359375,-0.0173140093684196,-0.0257133524864912,-0.0071939970366656
1769169109297,-0.0745697021484375,-0.000335693359375,-1.020416259765625,0.0047236490063369,-0.0283658616244792,-0.0152497924864292
1769169109307,-0.078216552734375,0.0025787353515625,-1.0173187255859375,0.019057048484683,-0.0158820282667875,-0.0199337601661682
1769169109317,-0.0787200927734375,-0.0019989013671875,-1.0056610107421875,0.0224187560379505,0.0118899485096335,-0.020591028034687
1769169109327,-0.0776214599609375,-0.0074005126953125,-0.9942169189453124,0.0250595472753047,0.0338474437594413,-0.017568340525031
1769169109337,-0.0756683349609375,-0.009765625,-0.9907379150390624,0.0194378793239593,0.0501806139945983,-0.0152141069993376
1769169109347,-0.071075439453125,-0.01409912109375,-0.98602294921875,0.0084006749093532,0.053429402410984,-0.010644388385117
1769169109358,-0.06475830078125,-0.0171661376953125,-0.984130859375,0.000216514992644,0.0365614742040634,-0.0104180201888084
1769169109367,-0.06524658203125,-0.0142822265625,-0.9911956787109376,-0.002241582609713,0.0054922369308769,-0.0146380644291639
1769169109377,-0.064483642578125,-0.0100860595703125,-0.99676513671875,0.0011632688110694,-0.0273892804980278,-0.0224698893725872
1769169109387,-0.06634521484375,-0.0083465576171875,-1.0001983642578125,0.0011920308461412,-0.0433029979467392,-0.024956215173006
1769169109397,-0.06201171875,-0.015533447265625,-0.9925079345703124,-0.0100590260699391,-0.038357775658369,-0.0226925294846296
1769169109408,-0.0583038330078125,-0.021942138671875,-0.9836273193359376,-0.0303483176976442,-0.0275450758635997,-0.0159653834998607
1769169109417,-0.0609588623046875,-0.0173797607421875,-0.9807281494140624,-0.0389260947704315,0.0113493269309401,-0.0096989665180444
1769169109427,-0.076171875,-0.0039520263671875,-0.9919281005859376,-0.0321699194610118,0.0476407557725906,-0.0051225903443992
1769169109437,-0.0882415771484375,0.0086212158203125,-1.00018310546875,-0.0274337548762559,0.0604111440479755,-0.0197164472192525
1769169109447,-0.095184326171875,0.0069427490234375,-1.00115966796875,-0.0264494512230157,0.0526698678731918,-0.034779816865921
1769169109458,-0.0854644775390625,-0.0008087158203125,-1.0008697509765625,-0.0257205441594123,0.0415953807532787,-0.0391860194504261
1769169109467,-0.06890869140625,-0.0079193115234375,-1.0057220458984375,-0.0162079986184835,0.0072067803703248,-0.0476969480514526
1769169109477,-0.06036376953125,-0.0147857666015625,-1.01953125,0.0032951291650533,-0.0107879331335425,-0.0481291785836219
1769169109487,-0.050933837890625,-0.022613525390625,-1.0258026123046875,0.0225812084972858,-0.0175507646054029,-0.0458830706775188
1769169109497,-0.0488433837890625,-0.0246734619140625,-1.0237274169921875,0.0291911754757165,0.0028509139083325,-0.0417474471032619
1769169109508,-0.0502471923828125,-0.019378662109375,-1.01904296875,0.0428228303790092,0.0356882214546203,-0.0357910208404064
1769169109518,-0.057220458984375,-0.0123291015625,-1.0235748291015625,0.0697884038090705,0.0760518908500671,-0.0336208119988441
1769169109528,-0.0617523193359375,-0.0015869140625,-1.0303802490234375,0.1042110919952392,0.1068904995918273,-0.026853185147047
1769169109537,-0.0596160888671875,0.0055389404296875,-1.034332275390625,0.1363224238157272,0.1247054487466812,-0.024543160572648
1769169109548,-0.0641326904296875,0.0067901611328125,-1.028045654296875,0.1620834469795227,0.1257728487253189,-0.0270420033484697
1769169109559,-0.0679168701171875,0.0068359375,-1.017333984375,0.1732159852981567,0.1133356094360351,-0.0343217551708221
1769169109568,-0.0655364990234375,0.00115966796875,-1.002044677734375,0.1666856557130813,0.0853175595402717,-0.0353555940091609
1769169109578,-0.0620880126953125,-0.006988525390625,-0.9799652099609376,0.1445590406656265,0.0581184290349483,-0.0337140224874019
1769169109588,-0.059844970703125,-0.0154266357421875,-0.9629974365234376,0.1081389859318733,0.0405950956046581,-0.0261445194482803
1769169109598,-0.0612030029296875,-0.02044677734375,-0.94384765625,0.0600177980959415,0.0327395722270011,-0.0226680282503366
1769169109608,-0.0677337646484375,-0.024017333984375,-0.924957275390625,-0.0019931097049266,0.0370253957808017,-0.0107064405456185
1769169109618,-0.0639495849609375,-0.030975341796875,-0.9134979248046876,-0.0626615136861801,0.0291152745485305,0.0042245723307132
1769169109628,-0.06207275390625,-0.035003662109375,-0.918212890625,-0.1097603216767311,0.0133453663438558,0.0072821476496756
1769169109638,-0.073272705078125,-0.0271759033203125,-0.938751220703125,-0.1268069446086883,-0.0060472399927675,0.0017725999932736
1769169109648,-0.0799407958984375,-0.0203094482421875,-0.975341796875,-0.1123848631978035,-0.0290090143680572,-0.0045404233969748
1769169109659,-0.0825958251953125,-0.01641845703125,-1.0142822265625,-0.0760502964258194,-0.044693436473608,-0.0166985522955656
1769169109668,-0.0865936279296875,-0.015472412109375,-1.0377044677734375,-0.0288228597491979,-0.0371686741709709,-0.0244004148989915
1769169109678,-0.08099365234375,-0.0256500244140625,-1.046844482421875,0.0035491946619004,-0.0315800309181213,-0.0177899152040481
1769169109688,-0.057830810546875,-0.047576904296875,-1.0365447998046875,0.0183550380170345,-0.0317422151565551,0.0017563547007739
1769169109698,-0.0503082275390625,-0.0511016845703125,-1.0270538330078125,0.045903842896223,-0.0062230085022747,0.0052765212021768
1769169109709,-0.06884765625,-0.0118408203125,-1.033355712890625,0.1150951609015464,0.0438015423715114,-0.030866302549839
1769169109718,-0.1119232177734375,0.0136871337890625,-1.0439300537109375,0.10147175937891,0.0388046540319919,-0.007367368787527
1769169109729,-0.048614501953125,-0.0198822021484375,-0.987091064453125,0.0925387218594551,0.0222789403051137,-0.0204775780439376
1769169109739,-0.08685302734375,0.0006866455078125,-0.985107421875,0.0899703726172447,0.0304132997989654,-0.0605435036122798
1769169109749,-0.10101318359375,0.004638671875,-0.975830078125,0.0517374947667121,0.0176098868250846,-0.0632008090615272
1769169109759,-0.064697265625,-0.0235443115234375,-0.9512786865234376,-0.0079316925257444,-0.0080539314076304,-0.0488660745322704
1769169109769,-0.0426788330078125,-0.0382843017578125,-0.946502685546875,-0.0644261240959167,-0.0120537336915731,-0.0414872542023658
1769169109779,-0.0377044677734375,-0.0539703369140625,-0.9569549560546876,-0.0987529382109642,-0.0057854512706398,-0.03228709846735
1769169109789,-0.0313873291015625,-0.0614776611328125,-0.97900390625,-0.1004168838262558,0.0165885630995035,-0.0172745939344167
1769169109799,-0.0312957763671875,-0.0511322021484375,-1.01641845703125,-0.0567450374364852,0.0462348721921443,-0.0148359378799796
1769169109809,-0.048187255859375,-0.0313720703125,-1.06256103515625,0.0134782586246728,0.0735663622617721,-0.0228440631181001
1769169109819,-0.0617828369140625,-0.0184478759765625,-1.087982177734375,0.0963584929704666,0.0865577980875969,-0.0282308384776115
1769169109829,-0.0590667724609375,-0.011444091796875,-1.0953521728515625,0.1635583043098449,0.0794809758663177,-0.031238880008459
1769169109839,-0.06561279296875,-0.0135498046875,-1.0786895751953125,0.2013520151376724,0.0725839212536811,-0.0398187860846519
1769169109849,-0.0689239501953125,-0.0236053466796875,-1.038787841796875,0.1985631585121154,0.0626865476369857,-0.0430593192577362
1769169109860,-0.0644378662109375,-0.0390167236328125,-0.9922637939453124,0.1697048842906952,0.0534416548907756,-0.0395266376435756
1769169109869,-0.05682373046875,-0.0491180419921875,-0.9539642333984376,0.1176166459918022,0.0500530488789081,-0.0314902812242507
1769169109879,-0.058990478515625,-0.051483154296875,-0.926788330078125,0.0611416511237621,0.0506258942186832,-0.0303259473294019
1769169109889,-0.0621185302734375,-0.045440673828125,-0.916839599609375,0.0038626487366855,0.0553828328847885,-0.0264505166560411
1769169109899,-0.0610198974609375,-0.0377349853515625,-0.9195404052734376,-0.0402206555008888,0.0472093224525451,-0.0306846760213375
1769169109909,-0.06207275390625,-0.0309295654296875,-0.938232421875,-0.0650703459978103,0.041946917772293,-0.0324258506298065
1769169109919,-0.062255859375,-0.02783203125,-0.9678497314453124,-0.0662557184696197,0.026903785765171,-0.0329419709742069
1769169109929,-0.053436279296875,-0.0367431640625,-0.9922943115234376,-0.0616455227136611,0.0149224903434515,-0.0369817204773426
1769169109939,-0.0464019775390625,-0.04095458984375,-1.0121002197265625,-0.0365319103002548,0.0106116319075226,-0.0313832238316535
1769169109949,-0.0493316650390625,-0.02984619140625,-1.0345306396484375,0.0146170258522033,0.0227681621909141,-0.0310711003839969
1769169109961,-0.0683135986328125,-0.0146026611328125,-1.049468994140625,0.0488546229898929,0.0328437015414238,-0.0370432399213314
1769169109970,-0.069915771484375,-0.018646240234375,-1.0327301025390625,0.0520972907543182,0.0166322402656078,-0.0310913398861885
1769169109980,-0.056304931640625,-0.027191162109375,-1.00469970703125,0.0356440134346485,0.0086960196495056,-0.0273304246366024
1769169109991,-0.056304931640625,-0.032470703125,-0.9866943359375,0.0172756593674421,0.0017883126856759,-0.0288036856800317
1769169110000,-0.0545501708984375,-0.03790283203125,-0.9764251708984376,-0.0043361587449908,0.0017286578658968,-0.0212512258440256
1769169110010,-0.0474395751953125,-0.0419464111328125,-0.9744720458984376,-0.016357135027647,0.0084803039208054,-0.0182402562350034
1769169110020,-0.046783447265625,-0.040252685546875,-0.98175048828125,-0.0126082031056284,0.0083295684307813,-0.0126332370564341
1769169110030,-0.0443572998046875,-0.03228759765625,-0.9974212646484376,0.0029103024862706,0.0089279813691973,-0.0148615036159753
1769169110041,-0.05194091796875,-0.023895263671875,-1.012298583984375,0.023480026051402,0.0125429555773735,-0.019459718838334
1769169110050,-0.0548553466796875,-0.024322509765625,-1.0159912109375,0.0392936095595359,0.0252784583717584,-0.016834108158946
1769169110061,-0.0507659912109375,-0.02935791015625,-1.007598876953125,0.0428071171045303,0.0347427986562252,-0.0116438725963234
1769169110070,-0.0510406494140625,-0.03289794921875,-0.99493408203125,0.0315747037529945,0.0361039415001869,-0.010808172635734
1769169110080,-0.0562591552734375,-0.034820556640625,-0.984527587890625,0.0192679706960916,0.0327233262360096,-0.0076019931584596
1769169110092,-0.05419921875,-0.03662109375,-0.979339599609375,-0.0007089334540069,0.0284263156354427,-0.0040623857639729
1769169110100,-0.056793212890625,-0.03594970703125,-0.9718475341796876,-0.0232006609439849,0.022114623337984,-0.0064829331822693
1769169110110,-0.0597076416015625,-0.03564453125,-0.964630126953125,-0.0484740585088729,0.0130090089514851,-0.0076395436190068
1769169110120,-0.0572509765625,-0.03131103515625,-0.9687652587890624,-0.0578073747456073,-0.0015315839555114,-0.0104720816016197
1769169110130,-0.0499114990234375,-0.02899169921875,-0.9840545654296876,-0.0535822696983814,-0.0241841655224561,-0.0110313454642891
1769169110141,-0.04522705078125,-0.024688720703125,-0.9995574951171876,-0.0413106866180896,-0.0314660482108593,-0.0126337697729468
1769169110150,-0.0476837158203125,-0.01959228515625,-1.0081024169921875,-0.023479226976633,-0.0188386682420969,-0.0159318279474973
1769169110161,-0.050506591796875,-0.0216522216796875,-1.008148193359375,-0.0171904377639293,0.0016085492679849,-0.0047004790976643
1769169110171,-0.042144775390625,-0.028656005859375,-1.00079345703125,-0.0119235049933195,0.0150950634852051,0.00426079146564
1769169110181,-0.04254150390625,-0.0362548828125,-0.99871826171875,-0.0106601007282733,0.0325408987700939,0.0127624003216624
1769169110194,-0.0443572998046875,-0.0422515869140625,-0.9950103759765624,-0.0100758038461208,0.0417703501880168,0.0183369293808937
1769169110201,-0.0393829345703125,-0.0576934814453125,-0.9940338134765624,-0.0229188986122608,0.0190724935382604,0.0415546335279941
1769169110211,-0.00848388671875,-0.07867431640625,-0.986358642578125,-0.0364485532045364,-0.0115956692025065,0.0700565800070762
1769169110221,-0.0218048095703125,-0.0556488037109375,-0.9971771240234376,-0.0170761886984109,-0.0232243631035089,0.0647177398204803
1769169110231,-0.0669097900390625,-0.0127410888671875,-1.0191802978515625,0.0293224677443504,-0.01836409419775,0.0222456511110067
1769169110243,-0.09918212890625,-0.0154266357421875,-1.02490234375,-0.0195137802511453,-0.0760138109326362,0.0439370982348918
1769169110251,-0.0298309326171875,-0.056732177734375,-0.9720611572265624,-0.0301328692585229,-0.0961259976029396,0.0313462056219577
1769169110262,-0.08154296875,-0.0281524658203125,-0.99578857421875,-0.0213929060846567,-0.0826203078031539,0.0084653897210955
1769169110271,-0.1048431396484375,-0.0187225341796875,-0.994171142578125,-0.0428888760507106,-0.0813257470726966,0.0111543834209442
1769169110281,-0.0789031982421875,-0.038360595703125,-0.977264404296875,-0.0604982301592826,-0.0793733820319175,0.0161083955317735
1769169110291,-0.07586669921875,-0.0373992919921875,-0.9860687255859376,-0.0631214454770088,-0.0622559189796447,0.0119458753615617
1769169110301,-0.0696563720703125,-0.0448455810546875,-0.9955902099609376,-0.0638303756713867,-0.0655164271593093,0.0199364237487316
1769169110311,-0.055572509765625,-0.04559326171875,-1.0009765625,-0.0347049832344055,-0.0615397915244102,0.0216413792222738
1769169110321,-0.0605010986328125,-0.0276641845703125,-1.0216827392578125,0.0148031804710626,-0.050613909959793,0.0105240140110254
1769169110331,-0.0672454833984375,-0.0129241943359375,-1.031646728515625,0.0598470866680145,-0.0445597432553768,0.0070845410227775
1769169110341,-0.061614990234375,-0.0111083984375,-1.020782470703125,0.0814173594117164,-0.0484415665268898,0.0054522897116839
1769169110352,-0.0603485107421875,-0.0166168212890625,-0.9939727783203124,0.0717444941401481,-0.056055013090372,0.0031654331833124
1769169110361,-0.0603179931640625,-0.0259246826171875,-0.9659576416015624,0.040566336363554,-0.0545282214879989,0.007759119849652
1769169110371,-0.0554351806640625,-0.034515380859375,-0.9416656494140624,-0.0029806098900735,-0.0584529228508472,0.0179558303207159
1769169110381,-0.052978515625,-0.0375823974609375,-0.9293365478515624,-0.0550118535757064,-0.0628596544265747,0.0253969691693782
1769169110392,-0.0611724853515625,-0.0355987548828125,-0.92413330078125,-0.1039309278130531,-0.0663710311055183,0.0220917202532291
1769169110402,-0.0691375732421875,-0.0329742431640625,-0.9284820556640624,-0.1483178287744522,-0.0749147236347198,0.0165659263730049
1769169110412,-0.06298828125,-0.02911376953125,-0.9477081298828124,-0.1659618020057678,-0.0893956571817398,0.0145432567223906
1769169110422,-0.059600830078125,-0.0252685546875,-0.977630615234375,-0.1585598140954971,-0.0966498404741287,0.0145509792491793
1769169110432,-0.053741455078125,-0.021575927734375,-1.009613037109375,-0.1402404606342315,-0.101135142147541,0.0211692005395889
1769169110443,-0.0483551025390625,-0.0254669189453125,-1.02850341796875,-0.11662008613348,-0.0803941711783409,0.0275946091860532
1769169110452,-0.040557861328125,-0.0352325439453125,-1.035186767578125,-0.0861460715532302,-0.0562084093689918,0.0407263897359371
1769169110462,-0.035980224609375,-0.0321197509765625,-1.0480499267578125,-0.0341904610395431,-0.0227524507790803,0.0555117279291152
1769169110472,-0.0463409423828125,-0.018829345703125,-1.06597900390625,0.0252121463418006,0.0082496739923954,0.055483765900135
1769169110482,-0.0670928955078125,-0.011474609375,-1.0663299560546875,0.0749797001481056,0.0369324497878551,0.0474551320075988
1769169110492,-0.078216552734375,-0.012542724609375,-1.04608154296875,0.0994664058089256,0.0522381700575351,0.0408219993114471
1769169110502,-0.0731201171875,-0.018310546875,-1.028717041015625,0.1148525476455688,0.0407729968428611,0.0385069139301776
1769169110512,-0.074981689453125,-0.0206146240234375,-1.01422119140625,0.1189013496041297,0.0166657958179712,0.0302929244935512
1769169110522,-0.0785369873046875,-0.0267486572265625,-0.995208740234375,0.0998677387833595,-0.002379268174991,0.0208120718598365
1769169110532,-0.077667236328125,-0.0389251708984375,-0.96881103515625,0.0657526478171348,-0.0145179564133286,0.0208496209233999
1769169110542,-0.0727996826171875,-0.0450897216796875,-0.94744873046875,0.0227085072547197,-0.0063713467679917,0.023820910602808
1769169110552,-0.07421875,-0.041351318359375,-0.937103271484375,-0.0180216114968061,0.0056421728804707,0.0286976918578147
1769169110562,-0.0749359130859375,-0.032684326171875,-0.9430389404296876,-0.050134539604187,0.010831075720489,0.0319997444748878
1769169110572,-0.0794219970703125,-0.025115966796875,-0.95721435546875,-0.0667081922292709,0.0109921973198652,0.0286319106817245
1769169110582,-0.0788726806640625,-0.021697998046875,-0.97613525390625,-0.0679332464933395,0.0071742897853255,0.0300228800624609
1769169110593,-0.0760955810546875,-0.0179901123046875,-0.9966888427734376,-0.0453142188489437,-0.0040442761965096,0.0253128129988908
1769169110603,-0.0793914794921875,-0.017425537109375,-1.0219879150390625,-0.0132617428898811,-0.0155712366104125,0.0159523356705904
1769169110613,-0.0768585205078125,-0.01898193359375,-1.033966064453125,0.0181305333971977,-0.0097559578716754,0.0171377081423997
1769169110622,-0.0703582763671875,-0.0257720947265625,-1.02716064453125,0.0343017801642417,0.0004527373821474,0.0223441869020462
1769169110633,-0.06573486328125,-0.029144287109375,-1.0137176513671875,0.0377441830933094,0.007106112781912,0.0263626314699649
1769169110643,-0.067657470703125,-0.0279693603515625,-1.0027618408203125,0.034986212849617,0.0074099795892834,0.0249343775212764
1769169110653,-0.0709381103515625,-0.0231781005859375,-0.9941864013671876,0.028637770563364,0.0090994890779256,0.0202653240412473
1769169110663,-0.07696533203125,-0.017364501953125,-0.9885406494140624,0.0229002553969621,0.0027648939285427,0.0105887288227677
1769169110673,-0.07806396484375,-0.011993408203125,-0.986663818359375,0.0185308065265417,0.0002575276885181,0.0008793757879175
1769169110683,-0.080108642578125,-0.0077667236328125,-0.9896697998046876,0.0185177586972713,-0.0054656052961945,-0.0138465734198689
1769169110694,-0.0823974609375,-0.0073699951171875,-0.9925079345703124,0.0115059213712811,-0.0158093236386775,-0.022106634452939
1769169110703,-0.07684326171875,-0.013641357421875,-0.992095947265625,0.0046253781765699,-0.0143166212365031,-0.0220397878438234
1769169110713,-0.0655364990234375,-0.02197265625,-0.9900665283203124,-0.0100750047713518,-0.0069809439592063,-0.0128401648253202
1769169110723,-0.0515594482421875,-0.0474853515625,-0.981964111328125,-0.0428145751357078,0.005814479663968,0.0097983023151755
1769169110733,-0.029052734375,-0.0604400634765625,-0.9713287353515624,-0.0546978674829006,0.018501779064536,0.0163379609584808
1769169110744,-0.0496063232421875,-0.0384674072265625,-0.99835205078125,-0.0161400884389877,0.0250033531337976,-0.0105618303641676
1769169110753,-0.08880615234375,0.0114593505859375,-1.0331268310546875,0.0229351427406072,0.0424055121839046,-0.0096931075677275
1769169110763,-0.0569610595703125,-0.0206146240234375,-1.020050048828125,0.0090203927829861,-0.001513474388048,0.0082289017736911
1769169110773,-0.037933349609375,-0.034912109375,-0.99090576171875,0.026232935488224,-0.0049337721429765,-0.028054803609848
1769169110783,-0.0997314453125,-0.0067138671875,-1.0043182373046875,0.0370855815708637,0.0021680793724954,-0.0448737330734729
1769169110794,-0.0890045166015625,-0.014617919921875,-0.9831085205078124,0.0046916906721889,0.0094869788736104,-0.038337267935276
1769169110803,-0.0676727294921875,-0.036834716796875,-0.9526214599609376,-0.0545228980481624,0.0153645751997828,-0.0180306658148765
1769169110813,-0.0528411865234375,-0.040771484375,-0.9514617919921876,-0.0821143090724945,0.0211343131959438,-0.0108531806617975
1769169110825,-0.0514373779296875,-0.0373077392578125,-0.9817352294921876,-0.0805744677782058,0.0183518435806036,0.0027435885276645
1769169110834,-0.044647216796875,-0.0370025634765625,-1.0036773681640625,-0.071201741695404,0.0159075930714607,0.0134449684992432
1769169110844,-0.0461883544921875,-0.0337982177734375,-1.0126190185546875,-0.0473597906529903,0.0182660892605781,0.0206301771104335
1769169110854,-0.057403564453125,-0.025360107421875,-1.024810791015625,-0.0150556480512022,0.0170394368469715,0.0183542389422655
1769169110864,-0.0637969970703125,-0.020294189453125,-1.035125732421875,0.0254182741045951,0.0053758569993078,0.0197196416556835
1769169110874,-0.0635833740234375,-0.0176544189453125,-1.03826904296875,0.0617437921464443,0.0110449278727173,0.018739866092801
1769169110884,-0.0719451904296875,-0.0177154541015625,-1.0227508544921875,0.0720259919762611,0.024549551308155,0.0232454016804695
1769169110895,-0.07135009765625,-0.0244293212890625,-0.9933929443359376,0.0621648356318473,0.0266286805272102,0.0223396606743335
1769169110904,-0.074371337890625,-0.0279998779296875,-0.970245361328125,0.0345782153308391,0.0222073011100292,0.0271360129117965
1769169110914,-0.073394775390625,-0.0311737060546875,-0.9539337158203124,-0.0021880532149225,0.0076203690841794,0.0298873241990804
1769169110924,-0.0719757080078125,-0.03070068359375,-0.9498443603515624,-0.0365050137042999,-0.0105652930215001,0.0295704081654548
1769169110934,-0.0746612548828125,-0.02410888671875,-0.9541015625,-0.0629858896136283,-0.0251210648566484,0.0243870988488197
1769169110944,-0.0753936767578125,-0.016937255859375,-0.970916748046875,-0.0685801282525062,-0.0456500425934791,0.0191121753305196
1769169110954,-0.0755767822265625,-0.0114898681640625,-0.9910430908203124,-0.0621222257614135,-0.0551798976957798,0.0156447403132915
1769169110964,-0.0729217529296875,-0.0157318115234375,-1.00390625,-0.0604412406682968,-0.0640516877174377,0.0101487739011645
1769169110974,-0.0639495849609375,-0.0287017822265625,-0.9979095458984376,-0.0670975446701049,-0.0573378577828407,0.0122476117685437
1769169110984,-0.057037353515625,-0.032989501953125,-0.9956512451171876,-0.0661555826663971,-0.0483989566564559,0.016187759116292
1769169110996,-0.0624847412109375,-0.0236358642578125,-1.0040283203125,-0.047899879515171,-0.0318775065243244,0.0143560357391834
1769169111004,-0.0767974853515625,-0.012603759765625,-1.0131378173828125,-0.0331933721899986,-0.0090408995747566,0.0080632530152797
1769169111014,-0.085052490234375,-0.0114593505859375,-1.007171630859375,-0.0282273776829242,0.0102811334654688,0.0047382963821291
1769169111025,-0.0797882080078125,-0.01470947265625,-1.002227783203125,-0.0293080881237983,0.0177009664475917,0.0027305390685796
1769169111034,-0.0753936767578125,-0.02001953125,-1.003997802734375,-0.0230776220560073,0.0148529820144176,0.0004436826275195
1769169111045,-0.0718231201171875,-0.02239990234375,-1.0138702392578125,-0.0108955241739749,0.0166633985936641,-0.0019872507546097
1769169111055,-0.072998046875,-0.024749755859375,-1.01873779296875,0.00402243854478,0.0209702625870704,-0.0084779066964983
1769169111065,-0.07080078125,-0.028350830078125,-1.0150604248046875,0.0079221054911613,0.0233101155608892,-0.0144077017903327
1769169111076,-0.0709228515625,-0.0306854248046875,-1.0062103271484375,0.0132026206701993,0.0281450860202312,-0.0192820858210325
1769169111085,-0.069854736328125,-0.0279541015625,-1.0027923583984375,0.0157560594379901,0.0303895976394414,-0.022359101101756
1769169111095,-0.0715179443359375,-0.02239990234375,-0.996551513671875,0.0121674500405788,0.0381833389401435,-0.0274169761687517
1769169111105,-0.07464599609375,-0.0199127197265625,-0.98712158203125,0.0047382963821291,0.0463493876159191,-0.028531776741147
1769169111115,-0.0742645263671875,-0.018585205078125,-0.986846923828125,-0.0002644518972374,0.0375092923641204,-0.0332634150981903
1769169111125,-0.0739593505859375,-0.017822265625,-0.9903106689453124,-0.0005613943794742,0.0334170795977115,-0.0395846925675869
1769169111135,-0.0706787109375,-0.0229644775390625,-0.9941253662109376,0.0065287393517792,0.0482218563556671,-0.0353641174733638
1769169111145,-0.06695556640625,-0.0247039794921875,-0.99676513671875,0.0151067813858389,0.0562406368553638,-0.0356155186891555
1769169111155,-0.0690155029296875,-0.0225830078125,-0.9990386962890624,0.0221396572887897,0.0572624914348125,-0.0385138355195522
1769169111165,-0.06695556640625,-0.02276611328125,-1.0003204345703125,0.0228464603424072,0.0499499812722206,-0.0346759557723999
1769169111176,-0.06402587890625,-0.0218353271484375,-0.9979705810546876,0.0197526663541793,0.0422771498560905,-0.0390928089618682
1769169111185,-0.0675048828125,-0.01934814453125,-0.989959716796875,0.0042762379162013,0.0242161229252815,-0.0438995473086833
1769169111195,-0.060699462890625,-0.0211181640625,-0.9783782958984376,-0.0277727749198675,0.0083170523867011,-0.0413397178053855
1769169111205,-0.0560150146484375,-0.0236663818359375,-0.9685516357421876,-0.0594598650932312,-0.0072011873126029,-0.0419370643794536
1769169111215,-0.0526580810546875,-0.02520751953125,-0.972198486328125,-0.082515113055706,-0.0112209627404809,-0.040479514747858
1769169111227,-0.046875,-0.024627685546875,-0.9854583740234376,-0.0872102677822113,-0.0071708275936543,-0.0379521772265434
1769169111235,-0.0496978759765625,-0.02099609375,-1.00390625,-0.0720209330320358,0.014926484785974,-0.0411628820002079
1769169111246,-0.051727294921875,-0.0197601318359375,-1.023162841796875,-0.0376808010041713,0.0343209542334079,-0.0419274754822254
1769169111255,-0.0409698486328125,-0.0317230224609375,-1.0408172607421875,-0.0043947482481598,0.0462585762143135,-0.0307304821908473
1769169111266,-0.0302886962890625,-0.035552978515625,-1.0431060791015625,0.0508163087069988,0.0875972285866737,-0.0322897620499134
1769169111276,-0.0443267822265625,-0.0110321044921875,-1.0653533935546875,0.1535770446062088,0.1221291050314903,-0.0517276413738727
1769169111286,-0.0751800537109375,0.0267181396484375,-1.0907135009765625,0.2015903741121292,0.1311830580234527,-0.032052207738161
1769169111296,-0.0391387939453125,0.002532958984375,-1.0454864501953125,0.2035291492938995,0.1128059104084968,-0.0172434356063604
1769169111306,-0.048675537109375,-0.001922607421875,-1.002166748046875,0.2054556906223297,0.1234934404492378,-0.0322918929159641
1769169111316,-0.0880126953125,0.0074005126953125,-0.9769439697265624,0.1644043922424316,0.1250005215406417,-0.0254129488021135
1769169111326,-0.0730438232421875,-0.0167388916015625,-0.929351806640625,0.0666855499148368,0.0982528030872345,-0.0072254221886396
1769169111336,-0.0577239990234375,-0.045501708984375,-0.8835906982421875,-0.0594428218901157,0.0456018410623073,0.0084257088601589
1769169111346,-0.0514373779296875,-0.063201904296875,-0.8758087158203125,-0.1616480201482772,-0.0199532024562358,0.0042999400757253
1769169111356,-0.0552978515625,-0.0665740966796875,-0.9022064208984376,-0.214396983385086,-0.0404797829687595,0.0033438650425523
1769169111366,-0.0648956298828125,-0.05670166015625,-0.9488067626953124,-0.2053741961717605,-0.0537175573408603,-0.0090877711772918
1769169111376,-0.0782012939453125,-0.0366973876953125,-1.010345458984375,-0.1486121118068695,-0.0558760501444339,-0.026771692559123
1769169111386,-0.0834503173828125,-0.02178955078125,-1.0635528564453125,-0.0569911152124404,-0.0357577316462993,-0.0380174219608306
1769169111396,-0.0846710205078125,-0.0146942138671875,-1.0922698974609375,0.0378022380173206,0.0061636199243366,-0.0449094176292419
1769169111406,-0.0803985595703125,-0.01214599609375,-1.0933685302734375,0.1223568022251129,0.044721134006977,-0.0421594381332397
1769169111416,-0.076416015625,-0.0124359130859375,-1.077972412109375,0.1765856891870498,0.0735921934247016,-0.0373958423733711
1769169111427,-0.075408935546875,-0.0191650390625,-1.04644775390625,0.1943843960762024,0.0887969806790351,-0.0335861891508102
1769169111436,-0.0688018798828125,-0.0287017822265625,-1.0028076171875,0.1660512834787368,0.0814898014068603,-0.0231852140277624
1769169111446,-0.05853271484375,-0.03466796875,-0.9608917236328124,0.1125025749206543,0.0483768545091152,-0.0290614794939756
1769169111456,-0.0596923828125,-0.03875732421875,-0.9333038330078124,0.0448164716362953,0.0174484979361295,-0.0331571549177169
1769169111466,-0.052581787109375,-0.0388946533203125,-0.926025390625,-0.0132311172783374,-0.0189513210207223,-0.0369998291134834
1769169111476,-0.0452728271484375,-0.03424072265625,-0.9367523193359376,-0.0580675639212131,-0.0410326533019542,-0.0407359786331653
1769169111486,-0.03741455078125,-0.039306640625,-0.9564971923828124,-0.0828887596726417,-0.0476990789175033,-0.0290809199213981
1769169111497,-0.0205841064453125,-0.0496826171875,-0.97650146484375,-0.0953062772750854,-0.025131719186902,-0.0163336992263793
1769169111507,-0.0112152099609375,-0.0553741455078125,-1.0023193359375,-0.0664197728037834,0.0123637253418564,-0.002422145102173
1769169111517,-0.0191192626953125,-0.0408782958984375,-1.040618896484375,-0.0046192528679966,0.0600947625935077,0.0097253313288092
1769169111527,-0.0339813232421875,-0.0305938720703125,-1.0648193359375,0.0556211844086647,0.0899906083941459,0.0123402895405888
1769169111537,-0.0464324951171875,-0.03118896484375,-1.063629150390625,0.0922257974743843,0.09816225618124,0.0098819257691502
1769169111547,-0.048309326171875,-0.036163330078125,-1.04632568359375,0.1095781624317169,0.0863071903586387,0.0082278363406658
1769169111557,-0.049957275390625,-0.0376434326171875,-1.030487060546875,0.1154339164495468,0.0623230300843715,0.0025401229504495
1769169111567,-0.0574798583984375,-0.0396270751953125,-1.017730712890625,0.1106796413660049,0.0413453094661235,-0.0060554957017302
1769169111577,-0.057769775390625,-0.044586181640625,-1.008148193359375,0.1044129580259323,0.0390850827097892,-0.0042128544300794
1769169111587,-0.0545196533203125,-0.050689697265625,-0.9945526123046876,0.0900510624051094,0.0423205606639385,-0.0005640574963763
1769169111597,-0.0551910400390625,-0.050628662109375,-0.982696533203125,0.0720731243491172,0.04822638630867,0.0031683626584708
1769169111607,-0.0568695068359375,-0.043731689453125,-0.975677490234375,0.0577349364757537,0.0495473109185695,0.0042557315900921
1769169111617,-0.064483642578125,-0.0347747802734375,-0.9755706787109376,0.0495806038379669,0.0507124438881874,-0.0040163132362067
1769169111627,-0.0672454833984375,-0.028594970703125,-0.9730224609375,0.0329867117106914,0.0373026318848133,-0.0125714521855115
1769169111637,-0.0634307861328125,-0.030975341796875,-0.9675445556640624,0.020824322476983,0.0244419593364,-0.0188674312084913
1769169111647,-0.05712890625,-0.0356292724609375,-0.9722442626953124,0.0096286591142416,0.0162748433649539,-0.021411282941699
1769169111659,-0.05035400390625,-0.0399017333984375,-0.975250244140625,0.0064144898205995,0.0110435960814356,-0.0211859792470932
1769169111667,-0.0454254150390625,-0.0427093505859375,-0.9857940673828124,0.0133118107914924,0.0088885659351944,-0.017404556274414
1769169111677,-0.046783447265625,-0.045166015625,-0.9934539794921876,0.0176088213920593,0.0116116488352417,-0.0141067644581198
1769169111687,-0.0493621826171875,-0.0439453125,-0.9918670654296876,0.0167632680386304,0.0239013377577066,-0.0113493269309401
1769169111698,-0.0573883056640625,-0.04205322265625,-0.985260009765625,0.0071348748169839,0.0230238270014524,-0.0125237815082073
1769169111707,-0.0612945556640625,-0.0405120849609375,-0.9783477783203124,-0.0184282753616571,0.0151435332372784,-0.0153469983488321
1769169111718,-0.0630950927734375,-0.0373077392578125,-0.9685821533203124,-0.0482657998800277,0.0054645403288304,-0.018981147557497
1769169111728,-0.0652618408203125,-0.0307464599609375,-0.964630126953125,-0.07172691822052,-0.0238845609128475,-0.0313941426575183
1769169111738,-0.065582275390625,-0.0236053466796875,-0.9787445068359376,-0.0744886174798011,-0.0549191758036613,-0.0419240146875381
1769169111748,-0.055877685546875,-0.023468017578125,-0.9984893798828124,-0.0601738579571247,-0.0625893473625183,-0.0415993742644786
1769169111758,-0.0402069091796875,-0.030059814453125,-1.0121917724609375,-0.0396549999713897,-0.0570052303373813,-0.0294236689805984
1769169111768,-0.026641845703125,-0.046051025390625,-1.01922607421875,-0.0352224372327327,-0.0383849404752254,-0.0004687163454946
1769169111778,-0.002716064453125,-0.068389892578125,-1.008514404296875,-0.0195308234542608,-0.026069950312376,0.0232483316212892
1769169111788,-0.018585205078125,-0.0487823486328125,-1.0216827392578125,0.0279357600957155,0.0074912058189511,0.0159957446157932
1769169111798,-0.0691070556640625,-0.0044403076171875,-1.0407257080078125,0.1005484461784362,0.063265785574913,-0.0380837358534336
1769169111808,-0.1086578369140625,-0.002899169921875,-1.036590576171875,0.0660389363765716,0.0476354286074638,-0.0181465130299329
1769169111818,-0.02471923828125,-0.0589141845703125,-0.9632110595703124,0.0425874069333076,0.028267590329051,-0.0158705748617649
1769169111828,-0.0587158203125,-0.036376953125,-0.9730682373046876,0.0464018546044826,0.0251255929470062,-0.0509729012846946
1769169111838,-0.0986785888671875,-0.01629638671875,-0.98040771484375,0.0058032944798469,-0.0089548788964748,-0.0578044429421424
1769169111848,-0.0646209716796875,-0.04022216796875,-0.95751953125,-0.0493158847093582,-0.0423421300947666,-0.0499667599797248
1769169111858,-0.04998779296875,-0.04498291015625,-0.96533203125,-0.0744268298149108,-0.0394624546170234,-0.0545881427824497
1769169111868,-0.04718017578125,-0.05023193359375,-0.9906768798828124,-0.0736776813864708,-0.0244459547102451,-0.0450516305863857
1769169111879,-0.0297698974609375,-0.052825927734375,-1.01727294921875,-0.0334274657070636,0.0026682210154831,-0.0289648063480854
1769169111888,-0.028472900390625,-0.0408172607421875,-1.0446014404296875,-0.0334274657070636,0.0026682210154831,-0.0289648063480854
1769169111898,-0.041778564453125,-0.02801513671875,-1.0545196533203125,0.0292540248483419,0.0383242182433605,-0.024769527837634
1769169111908,-0.0446014404296875,-0.0284271240234375,-1.042205810546875,0.1203114986419677,0.0405455604195594,-0.0336442478001117
1769169111919,-0.04473876953125,-0.034332275390625,-1.0190582275390625,0.1246135681867599,0.0145445875823497,-0.0394102558493614
1769169111929,-0.0461578369140625,-0.043182373046875,-0.9853668212890624,0.1021695137023925,0.0028636970091611,-0.0398845672607421
1769169111939,-0.04534912109375,-0.053436279296875,-0.9577178955078124,0.0659814104437828,-0.0037566549144685,-0.0323028117418289
1769169111949,-0.04254150390625,-0.0571746826171875,-0.946502685546875,0.0363992862403392,-0.0194615814834833,-0.0285245850682258
1769169111959,-0.045196533203125,-0.05828857421875,-0.949462890625,-0.0012245214311406,-0.0056650764308869,-0.0139951780438423
1769169111969,-0.0403900146484375,-0.05377197265625,-0.9486541748046876,-0.0327614098787307,-0.0069069080054759,-0.0004692489746958
1769169111979,-0.0408477783203125,-0.04949951171875,-0.95562744140625,-0.0573495775461196,-0.0190557166934013,0.0076957363635301
1769169111989,-0.0421295166015625,-0.044189453125,-0.965362548828125,-0.0714014768600463,-0.0255916453897953,0.0135616147890686
1769169111999,-0.0412750244140625,-0.0413970947265625,-0.9794921875,-0.0768071636557579,-0.0415450446307659,0.0216592233628034
1769169112011,-0.0282440185546875,-0.0552520751953125,-0.9926605224609376,-0.0811755433678627,-0.0691215470433235,0.0285195261240005
1769169112019,-0.015960693359375,-0.0708770751953125,-1.0034332275390625,-0.0666932761669159,-0.0828054025769233,0.046128612011671
1769169112029,-0.007720947265625,-0.070526123046875,-1.0235443115234375,-0.0308207627385854,-0.0913157984614372,0.0691825300455093
1769169112039,-0.018524169921875,-0.0601806640625,-1.03948974609375,-0.0092451637610793,-0.096201367676258,0.0772745460271835
1769169112049,-0.0510711669921875,-0.0482025146484375,-1.0313568115234375,0.004283694550395,-0.0757746547460556,0.0713000148534774
1769169112059,-0.0750732421875,-0.0422210693359375,-1.020416259765625,0.0081330277025699,-0.0526062212884426,0.0687361881136894
1769169112069,-0.086212158203125,-0.039794921875,-1.006500244140625,0.0028948560357093,-0.0382174253463745,0.0550483390688896
1769169112079,-0.0966796875,-0.04290771484375,-0.99188232421875,-0.0141371246427297,-0.0371359176933765,0.0427442677319049
1769169112089,-0.0912017822265625,-0.0478973388671875,-0.983734130859375,-0.0290684029459953,-0.0607312582433223,0.0349206998944282
1769169112099,-0.08197021484375,-0.0476531982421875,-0.98284912109375,-0.0336037650704383,-0.071831576526165,0.0318641886115074
1769169112109,-0.0729217529296875,-0.041412353515625,-0.9879302978515624,-0.0211209971457719,-0.0788697823882103,0.0242574028670787
1769169112119,-0.0709228515625,-0.0330047607421875,-1.0035400390625,0.003549727378413,-0.0713679194450378,0.0208882372826337
1769169112129,-0.069091796875,-0.0270538330078125,-1.0097198486328125,0.0312508642673492,-0.0557801760733127,0.020026970654726
1769169112139,-0.0624847412109375,-0.0285186767578125,-1.006317138671875,0.049440786242485,-0.0370389781892299,0.0249024201184511
1769169112149,-0.057373046875,-0.0362091064453125,-0.993865966796875,0.0517513453960418,-0.0127954240888357,0.0353356190025806
1769169112160,-0.0528564453125,-0.0429534912109375,-0.9757080078125,0.041019070893526,-0.0122952824458479,0.0464159697294235
1769169112170,-0.050567626953125,-0.0460662841796875,-0.960784912109375,0.0128835747018456,-0.0263865999877452,0.0550475381314754
1769169112180,-0.0494384765625,-0.0484619140625,-0.945953369140625,-0.0292945057153701,-0.0475376918911933,0.0586047247052192
1769169112190,-0.0497283935546875,-0.0453338623046875,-0.9358978271484376,-0.0748545303940773,-0.0731794014573097,0.0641550198197364
1769169112200,-0.0535125732421875,-0.0386199951171875,-0.9386749267578124,-0.1122596934437751,-0.1033671349287033,0.0611898526549339
1769169112210,-0.0624847412109375,-0.032196044921875,-0.948577880859375,-0.141155794262886,-0.1185183897614479,0.0588063262403011
1769169112220,-0.0654296875,-0.0311279296875,-0.964202880859375,-0.1521266847848892,-0.1231751963496208,0.0603136755526065
1769169112230,-0.06414794921875,-0.0299835205078125,-0.986572265625,-0.142573133111,-0.1208635717630386,0.0584739632904529
1769169112240,-0.0692596435546875,-0.0322723388671875,-1.0092926025390625,-0.1193594187498092,-0.1101794987916946,0.0581431984901428
1769169112250,-0.0717620849609375,-0.0328521728515625,-1.0237579345703125,-0.0915397703647613,-0.0876869782805442,0.0617334060370922
1769169112260,-0.0710296630859375,-0.0380096435546875,-1.028900146484375,-0.0654288083314895,-0.06539898365736,0.0700621753931045
1769169112270,-0.0693511962890625,-0.0420074462890625,-1.0287322998046875,-0.0456963814795017,-0.042551189661026,0.0798716619610786
1769169112280,-0.0638885498046875,-0.0562286376953125,-1.0231781005859375,-0.0449720025062561,-0.0404891036450862,0.0964671522378921
1769169112290,-0.0504913330078125,-0.0735626220703125,-1.0084686279296875,-0.0261373277753591,-0.0534496419131755,0.0996208637952804
1769169112300,-0.0723419189453125,-0.03289794921875,-1.0275726318359375,0.0389282256364822,-0.060206614434719,0.0692445859313011
1769169112310,-0.1160888671875,0.0205230712890625,-1.0556640625,0.1068601384758949,-0.0363750532269477,0.0349976643919944
1769169112320,-0.11541748046875,0.0018157958984375,-1.02911376953125,0.0640996247529983,-0.0583786219358444,0.0589613206684589
1769169112330,-0.06488037109375,-0.0257720947265625,-0.9544677734375,0.0603304505348205,-0.0380254127085208,0.0056933057494461
1769169112340,-0.1377105712890625,0.0098419189453125,-0.9748382568359376,0.0542589761316776,-0.0226219557225704,-0.0204432234168052
1769169112350,-0.117340087890625,0.0072479248046875,-0.9599609375,-0.0037436054553836,-0.0226978547871112,-0.0201689172536134
1769169112361,-0.084197998046875,-0.023162841796875,-0.928924560546875,-0.0900270938873291,-0.0248701963573694,-0.0164274424314498
1769169112371,-0.066131591796875,-0.0381622314453125,-0.9295501708984376,-0.141714796423912,-0.016858609393239,-0.0132257901132106
1769169112381,-0.049896240234375,-0.0513916015625,-0.960845947265625,-0.1653820425271988,-0.0273256301879882,0.0022149509750306
1769169112391,-0.027496337890625,-0.06549072265625,-0.9902801513671876,-0.1611148566007614,-0.0426286868751049,0.0127110015600919
1769169112401,-0.0298919677734375,-0.060394287109375,-1.0224151611328125,-0.1206095069646835,-0.0385473929345607,0.0097303912043571
1769169112411,-0.050262451171875,-0.0446319580078125,-1.05352783203125,-0.0496687516570091,-0.0118822259828448,-0.0018213358707726
1769169112421,-0.063720703125,-0.031494140625,-1.0796966552734375,0.0402406305074691,0.0135251302272081,-0.0130138024687767
1769169112431,-0.0742340087890625,-0.0213775634765625,-1.0895233154296875,0.1180510073900222,0.043707001954317,-0.0178189445286989
1769169112441,-0.0803985595703125,-0.0208892822265625,-1.072601318359375,0.1552476435899734,0.0609986372292041,-0.0127006154507398
1769169112451,-0.078887939453125,-0.025360107421875,-1.0352630615234375,0.161867469549179,0.0834307074546814,-0.0031209585722535
1769169112461,-0.0781402587890625,-0.0308685302734375,-1.00146484375,0.1416218429803848,0.0962972417473793,0.0103029711171984
1769169112471,-0.07464599609375,-0.037628173828125,-0.97021484375,0.1057037934660911,0.096722811460495,0.0222901254892349
1769169112481,-0.070404052734375,-0.0435791015625,-0.9488067626953124,0.0623464658856391,0.0780865475535392,0.0261551719158887
1769169112494,-0.0691986083984375,-0.044342041015625,-0.94085693359375,0.0235684420913457,0.0362884998321533,0.0267144348472356
1769169112501,-0.0687103271484375,-0.0385284423828125,-0.9432830810546876,-0.0105975167825818,0.0021920478902757,0.026391128078103
1769169112511,-0.071441650390625,-0.0341949462890625,-0.9497833251953124,-0.0408542230725288,-0.0279075317084789,0.024895230308175
1769169112521,-0.0673675537109375,-0.0341644287109375,-0.9556427001953124,-0.0643294528126716,-0.0551418140530586,0.0205849036574363
1769169112531,-0.0688018798828125,-0.035430908203125,-0.965606689453125,-0.0899008587002754,-0.0630516707897186,0.027109382674098
1769169112541,-0.061309814453125,-0.032501220703125,-0.9700469970703124,-0.0983662530779838,-0.0539873354136943,0.0348642393946647
1769169112551,-0.0715179443359375,-0.0186614990234375,-0.9849395751953124,-0.087857149541378,-0.024334367364645,0.030411435291171
1769169112562,-0.088531494140625,-0.0064697265625,-0.999298095703125,-0.082294076681137,-0.0001326254277955,0.0253626145422458
1769169112571,-0.084014892578125,-0.01123046875,-0.9967803955078124,-0.0892720893025398,0.0152346128597855,0.0311169065535068
1769169112582,-0.0721435546875,-0.0208282470703125,-0.991485595703125,-0.0912657305598259,0.0200733095407485,0.0328705981373786
1769169112592,-0.065887451171875,-0.02520751953125,-1.0023651123046875,-0.0779877454042434,0.0108782136812806,0.0309115760028362
1769169112602,-0.06201171875,-0.0310211181640625,-1.013671875,-0.0579924620687961,-0.0037547908723354,0.0213684048503637
1769169112612,-0.0631256103515625,-0.0371856689453125,-1.019287109375,-0.0358022041618824,-0.0054429685696959,0.0183345321565866
1769169112622,-0.0599517822265625,-0.04248046875,-1.0211639404296875,-0.0215332545340061,0.0072302161715924,0.0242126621305942
1769169112632,-0.06439208984375,-0.0450439453125,-1.0128173828125,-0.0146979857236146,0.0228227581828832,0.0298697482794523
1769169112642,-0.071929931640625,-0.0364532470703125,-1.0112457275390625,-0.0121030015870928,0.0413671471178531,0.0336213447153568
1769169112652,-0.0809326171875,-0.02764892578125,-1.0077972412109375,-0.0070973243564367,0.0489792600274086,0.0349214971065521
1769169112662,-0.0839691162109375,-0.022247314453125,-1.0075836181640625,-0.0086515452712774,0.0361449532210826,0.0301073025912046
1769169112672,-0.091796875,-0.01953125,-0.99627685546875,-0.02519510127604,0.0414038971066474,0.0213148761540651
1769169112682,-0.09210205078125,-0.0184173583984375,-0.97882080078125,-0.0424337424337863,0.0336144194006919,0.0125482827425003
1769169112692,-0.0901336669921875,-0.0207672119140625,-0.9815826416015624,-0.0486916378140449,0.0155217014253139,-0.0048104678280651
1769169112702,-0.088409423828125,-0.019378662109375,-0.993499755859375,-0.0449078194797039,0.0035361452028155,-0.0131006222218275
1769169112712,-0.0798492431640625,-0.020782470703125,-0.998260498046875,-0.0323688574135303,0.0049654636532068,-0.0190362744033336
1769169112722,-0.0752410888671875,-0.02227783203125,-1.0051116943359375,-0.020053070038557,0.0201303027570247,-0.0234544593840837
1769169112732,-0.0765228271484375,-0.0254364013671875,-1.0050201416015625,-0.0083673857152462,0.0393239706754684,-0.0210283193737268
1769169112744,-0.0735015869140625,-0.027099609375,-1.00177001953125,-0.0112894056364893,0.0539135634899139,-0.0209508221596479
1769169112752,-0.0779876708984375,-0.026580810546875,-0.993011474609375,-0.0220533702522516,0.0619874708354473,-0.0247594080865383
1769169112762,-0.082275390625,-0.0258331298828125,-0.9859161376953124,-0.0334282629191875,0.0613349974155426,-0.0327808484435081
1769169112772,-0.0828704833984375,-0.0199432373046875,-0.9883880615234376,-0.0380509793758392,0.0519044771790504,-0.0387575142085552
1769169112782,-0.08056640625,-0.0183868408203125,-0.9937896728515624,-0.0346828810870647,0.0449365824460983,-0.0429530590772628
1769169112793,-0.0714111328125,-0.0204315185546875,-1.00775146484375,-0.0116465361788868,0.0318761728703975,-0.0406366437673568
1769169112802,-0.06134033203125,-0.032470703125,-1.01678466796875,-0.0022905848454684,0.0207140669226646,-0.0305762849748134
1769169112813,-0.042083740234375,-0.0501556396484375,-1.0094757080078125,0.0032200280111283,0.0190541185438632,-0.0180367901921272
1769169112823,-0.0504608154296875,-0.039886474609375,-1.0131988525390625,0.0409373119473457,0.030624222010374,-0.0357958152890205
1769169112833,-0.0882568359375,0.0041351318359375,-1.0362396240234375,0.0929461866617202,0.0506543889641761,-0.0628596544265747
1769169112843,-0.09466552734375,0.001251220703125,-1.0311737060546875,0.0702608451247215,0.0352093875408172,-0.0370674729347229
1769169112853,-0.0499267578125,-0.033538818359375,-0.97589111328125,0.0367758572101593,0.0674520134925842,-0.0355718433856964
1769169112863,-0.0771026611328125,-0.021881103515625,-0.9633026123046876,0.0239476766437292,0.0831619948148727,-0.0597602687776088
1769169112873,-0.09564208984375,-0.01214599609375,-0.96466064453125,-0.0111794173717498,0.0857489928603172,-0.0584438703954219
1769169112883,-0.07122802734375,-0.0127716064453125,-0.9545440673828124,-0.0490362532436847,0.0777890682220459,-0.044876392930746
1769169112893,-0.0575103759765625,-0.0267181396484375,-0.954986572265625,-0.0743298903107643,0.0373481698334217,-0.0441853031516075
1769169112903,-0.054229736328125,-0.0316009521484375,-0.9646759033203124,-0.0900915414094924,-0.0012386362068355,-0.0475267730653286
1769169112913,-0.0446929931640625,-0.033203125,-0.9803009033203124,-0.0950511470437049,-0.041544247418642,-0.0547516606748104
1769169112923,-0.048797607421875,-0.03338623046875,-0.99078369140625,-0.1016145050525665,-0.0370171405375003,-0.0574542395770549
1769169112933,-0.05133056640625,-0.0328369140625,-0.9950103759765624,-0.1012520492076873,0.003754524514079,-0.0483582131564617
1769169112943,-0.0533447265625,-0.0310516357421875,-1.0059967041015625,-0.0919211357831955,0.0394203774631023,-0.0489089526236057
1769169112953,-0.066162109375,-0.0254974365234375,-1.0188140869140625,-0.0776955932378768,0.0625208988785743,-0.0493252053856849
1769169112963,-0.0643310546875,-0.0109405517578125,-1.0340576171875,-0.0477238446474075,0.0881562232971191,-0.0457445867359638
1769169112973,-0.062896728515625,-0.01324462890625,-1.044281005859375,-0.0105197522789239,0.0901453420519828,-0.053881075233221
1769169112983,-0.064117431640625,-0.0138702392578125,-1.053619384765625,0.030249249190092,0.0547561906278133,-0.0647976398468017
1769169112993,-0.055023193359375,-0.0166015625,-1.05535888671875,0.0713167935609817,0.0399466156959533,-0.0818434655666351
1769169113003,-0.05419921875,-0.0210723876953125,-1.049530029296875,0.0968868657946586,0.0633960142731666,-0.0829886272549629
1769169113013,-0.043212890625,-0.0233001708984375,-1.028411865234375,0.1155915781855583,0.0667891502380371,-0.0652495771646499
1769169113024,-0.038726806640625,-0.021820068359375,-1.0136871337890625,0.1099715083837509,0.0770415216684341,-0.0551074594259262
1769169113034,-0.0438232421875,-0.0189666748046875,-0.9917449951171876,0.0982173830270767,0.0872110649943351,-0.0401748493313789
1769169113044,-0.0396575927734375,-0.025421142578125,-0.9816741943359376,0.0630844235420227,0.0993598774075508,-0.0093077477067708
1769169113054,-0.02130126953125,-0.036712646484375,-0.954071044921875,0.0084938863292336,0.1081895902752876,0.0264265481382608
1769169113064,-0.017303466796875,-0.0437469482421875,-0.943939208984375,-0.0152732282876968,0.0657103061676025,0.037955105304718
1769169113074,-0.03790283203125,-0.019500732421875,-0.9813079833984376,0.0026602316647768,0.0162090640515089,0.0243825707584619
1769169113084,-0.071533203125,-0.0042724609375,-1.0045166015625,0.0276803635060787,-0.0230736266821622,0.0008695221040397
1769169113094,-0.0841827392578125,-0.0084991455078125,-1.0000762939453125,0.0371324531733989,-0.0512267015874385,-0.0184386614710092
1769169113104,-0.0832061767578125,-0.0211029052734375,-0.9819488525390624,0.0110340090468525,-0.037399835884571,-0.0198725070804357
1769169113116,-0.07501220703125,-0.0374298095703125,-0.9564666748046876,-0.0220208801329135,-0.0225045103579759,-0.0173829849809408
1769169113124,-0.0719757080078125,-0.04119873046875,-0.953887939453125,-0.0563506223261356,-0.0086219841614365,-0.003866909770295
1769169113134,-0.0669403076171875,-0.0366973876953125,-0.9582672119140624,-0.0785768330097198,0.0110241556540131,-0.0027545075863599
1769169113144,-0.0781402587890625,-0.036865234375,-0.9669647216796876,-0.0833143293857574,0.0276566613465547,-0.0071066454984247
1769169113154,-0.0729217529296875,-0.023712158203125,-0.9842681884765624,-0.079002670943737,0.0137850539758801,-0.0075636436231434
1769169113164,-0.06719970703125,-0.0128326416015625,-1.001495361328125,-0.0578691586852073,-0.0144236804917454,-0.0207580085843801
1769169113174,-0.0730438232421875,-0.0096893310546875,-1.0158538818359375,-0.0376339294016361,-0.0499172247946262,-0.0427799560129642
1769169113184,-0.0731658935546875,-0.0117645263671875,-1.0178985595703125,-0.0253322552889585,-0.0589003339409828,-0.0533079616725444
1769169113194,-0.061187744140625,-0.018218994140625,-1.0113525390625,-0.02848756685853,-0.0319419540464878,-0.0507657080888748
1769169113205,-0.0562744140625,-0.031494140625,-1.0018463134765625,-0.023072563111782,-0.0119975404813885,-0.0539809428155422
1769169113214,-0.0626373291015625,-0.036865234375,-1.002288818359375,-0.0356725081801414,0.0518070049583911,-0.033227726817131
1769169113224,-0.0485382080078125,-0.033843994140625,-0.991180419921875,-0.041461955755949,0.0860248953104019,-0.0174695383757352
1769169113234,-0.056793212890625,-0.0389404296875,-0.9932403564453124,-0.0391881503164768,0.0780284851789474,-0.0208280496299266
1769169113245,-0.0564117431640625,-0.0261077880859375,-1.0060882568359375,-0.0301949195563793,0.0474362261593341,-0.0274603869765996
1769169113254,-0.05535888671875,-0.026611328125,-1.01910400390625,-0.0088265147060155,0.0071764201857149,-0.0386800169944763
1769169113265,-0.053802490234375,-0.019256591796875,-1.03448486328125,0.0269903391599655,-0.0192312188446521,-0.0508120469748973
1769169113275,-0.0500946044921875,-0.0247802734375,-1.0415496826171875,0.0579200237989425,-0.01697738468647,-0.0473102591931819
1769169113285,-0.0456085205078125,-0.0256500244140625,-1.03778076171875,0.0856422036886215,0.0025129588320851,-0.0419980511069297
1769169113295,-0.047119140625,-0.0248565673828125,-1.0307464599609375,0.1077762618660926,0.0182844642549753,-0.0381172932684421
1769169113305,-0.0538787841796875,-0.0254669189453125,-1.0136260986328125,0.1032395660877227,0.0482367724180221,-0.0351758301258087
1769169113315,-0.058380126953125,-0.027801513671875,-0.98724365234375,0.0778095796704292,0.0662940666079521,-0.0317755080759525
1769169113325,-0.058837890625,-0.0331268310546875,-0.964508056640625,0.0421810075640678,0.0642242580652237,-0.032081238925457
1769169113335,-0.0489044189453125,-0.048797607421875,-0.95037841796875,-0.0206323079764843,0.053842194378376,-0.010831075720489
1769169113345,-0.021575927734375,-0.0620269775390625,-0.936187744140625,-0.0552850924432277,0.0279815662652254,0.0015180017799139
1769169113355,-0.039306640625,-0.04815673828125,-0.9669342041015624,-0.0229433998465538,-0.0069180936552584,-0.0360008776187896
1769169113365,-0.0856781005859375,0.0166778564453125,-1.018890380859375,0.0532661490142345,0.0388938710093498,-0.0868169218301773
1769169113375,-0.1072845458984375,0.0120697021484375,-1.03558349609375,0.0315704420208931,0.0208341758698225,-0.0567975006997585
1769169113385,-0.032684326171875,-0.0304107666015625,-0.9770965576171876,0.0360155254602432,0.0281059369444847,-0.0694528445601463
1769169113395,-0.0862274169921875,-0.00714111328125,-0.98687744140625,0.0288156699389219,0.0638383701443672,-0.0866715088486671
1769169113405,-0.0892486572265625,-0.007354736328125,-0.9678497314453124,-0.0247559454292058,0.0635712519288063,-0.0760612115263938
1769169113415,-0.0539703369140625,-0.0370330810546875,-0.9422607421875,-0.089334137737751,0.0584185682237148,-0.0568433105945587
1769169113425,-0.04022216796875,-0.04571533203125,-0.9503631591796876,-0.1301856935024261,0.0711633935570716,-0.0410939082503318
1769169113435,-0.035675048828125,-0.050018310546875,-0.9751739501953124,-0.1421094685792923,0.0538709536194801,-0.033291645348072
1769169113445,-0.0320281982421875,-0.050445556640625,-1.006134033203125,-0.1125414595007896,0.0376030355691909,-0.0267109721899032
1769169113455,-0.0309600830078125,-0.0325775146484375,-1.043243408203125,-0.0598087385296821,0.0483464933931827,-0.0166676603257656
1769169113465,-0.02960205078125,-0.0173797607421875,-1.057952880859375,0.0010644654976204,0.0800833851099014,-0.0068041100166738
1769169113475,-0.039154052734375,-0.014617919921875,-1.0631561279296875,0.0676008835434913,0.0369998291134834,-0.0400041416287422
1769169113486,-0.071014404296875,-0.0137481689453125,-1.051849365234375,0.1021886840462684,0.0236563272774219,-0.0629275664687156
1769169113496,-0.056060791015625,-0.0189361572265625,-1.026153564453125,0.1174278259277343,0.0234272945672273,-0.062809057533741
1769169113506,-0.0432281494140625,-0.032958984375,-1.0014495849609375,0.1069291159510612,0.0372981019318103,-0.0525734610855579
1769169113516,-0.0363006591796875,-0.042236328125,-0.9788970947265624,0.074969582259655,0.0617006495594978,-0.0364126041531562
1769169113526,-0.03411865234375,-0.0455780029296875,-0.96392822265625,0.0405234582722187,0.0847212821245193,-0.0152697665616869
1769169113536,-0.0319061279296875,-0.04345703125,-0.961212158203125,0.0111551824957132,0.0721937716007232,0.0007494135061278
1769169113546,-0.03021240234375,-0.03521728515625,-0.9706878662109376,-0.0097911115735769,0.048307079821825,0.0106656933203339
1769169113556,-0.03350830078125,-0.0299224853515625,-0.974700927734375,-0.025324797257781,0.0149776181206107,0.0186754167079925
1769169113566,-0.0300445556640625,-0.0233001708984375,-0.97698974609375,-0.0389338172972202,-0.0138300620019435,0.0166383646428585
1769169113576,-0.03662109375,-0.024688720703125,-0.9825286865234376,-0.0436579994857311,-0.0361888967454433,0.0097628822550177
1769169113586,-0.032318115234375,-0.034210205078125,-0.9868927001953124,-0.0531444437801837,-0.0362876988947391,0.0144194196909666
1769169113596,-0.015594482421875,-0.0375823974609375,-0.9907379150390624,-0.0430119149386882,-0.0049689258448779,0.0351268276572227
1769169113606,-0.0211944580078125,-0.0287628173828125,-1.0113067626953125,0.0118089886382222,0.01855637319386,0.0315323583781719
1769169113616,-0.0467071533203125,-0.0131072998046875,-1.039794921875,0.0575309358537197,0.0527540259063243,0.0158583261072635
1769169113626,-0.0541534423828125,-0.01348876953125,-1.0344696044921875,0.0675412267446518,0.0805097594857215,0.0324096046388149
1769169113636,-0.032989501953125,-0.025146484375,-1.0108489990234375,0.0699812173843383,0.0941834896802902,0.0422385334968566
1769169113646,-0.0379791259765625,-0.0300140380859375,-1.0069122314453125,0.0712621957063674,0.0812000483274459,0.0417791381478309
1769169113656,-0.044189453125,-0.036224365234375,-1.00408935546875,0.0527747981250286,0.0470551252365112,0.0435370914638042
1769169113666,-0.0349273681640625,-0.049224853515625,-0.9834442138671876,0.0247652679681777,0.0102920522913336,0.0562142692506313
1769169113676,-0.0243072509765625,-0.0558319091796875,-0.973968505859375,-0.0066477828659117,-0.0186136309057474,0.0694416612386703
1769169113686,-0.0309600830078125,-0.050567626953125,-0.971405029296875,-0.023779897019267,-0.0437525399029254,0.0696656331419944
1769169113699,-0.0466766357421875,-0.0364227294921875,-0.9845123291015624,-0.0225135646760463,-0.0678091421723365,0.0586609169840812
1769169113707,-0.0563201904296875,-0.0203857421875,-0.9990081787109376,-0.0132984947413206,-0.0773448571562767,0.0479526109993457
1769169113717,-0.0611724853515625,-0.0208587646484375,-1.0062255859375,0.0001288969942834,-0.0614878609776496,0.0365550816059112
1769169113727,-0.061981201171875,-0.0234832763671875,-1.00177001953125,0.0110976584255695,-0.0230137072503566,0.0418976470828056
1769169113737,-0.04815673828125,-0.0320892333984375,-0.995269775390625,0.0216656140983104,-0.0079250345006585,0.0519510805606842
1769169113747,-0.036529541015625,-0.037017822265625,-0.9983062744140624,0.0249745920300483,-0.0061620222404599,0.0624705664813518
1769169113757,-0.027374267578125,-0.03759765625,-0.9991912841796876,0.0306987911462783,-0.0129224564880132,0.0782452672719955
1769169113767,-0.030059814453125,-0.0409698486328125,-1.0008087158203125,0.0305129010230302,-0.0153310196474194,0.0847905203700065
1769169113777,-0.03302001953125,-0.0390167236328125,-0.994415283203125,0.0326492898166179,-0.0266923308372497,0.104088582098484
1769169113787,-0.0297698974609375,-0.0374908447265625,-0.9976806640625,0.0368672050535678,-0.0447930358350276,0.1166730895638465
1769169113797,-0.0380401611328125,-0.0303955078125,-0.9991455078125,0.043343212455511,-0.0580851398408412,0.1253134459257125
1769169113807,-0.041900634765625,-0.0316619873046875,-0.994720458984375,0.0432127192616462,-0.0659132376313209,0.1313889175653457
1769169113817,-0.047760009765625,-0.03155517578125,-0.9839324951171876,0.0379836000502109,-0.0710318312048912,0.1197833940386772
1769169113827,-0.058349609375,-0.0289764404296875,-0.972625732421875,0.0251458324491977,-0.0823816955089569,0.1136077865958213
1769169113837,-0.056396484375,-0.03125,-0.9643707275390624,0.0010333064710721,-0.0991886332631111,0.1144368276000022
1769169113847,-0.054290771484375,-0.0331573486328125,-0.9571990966796876,-0.0264811422675848,-0.1103203818202018,0.1155407130718231
1769169113857,-0.0568084716796875,-0.0334625244140625,-0.951446533203125,-0.0621017217636108,-0.1114133447408676,0.1174139752984047
1769169113867,-0.0477142333984375,-0.0490264892578125,-0.948486328125,-0.107627123594284,-0.1218132525682449,0.1339189112186432
1769169113877,-0.0345458984375,-0.04296875,-0.950531005859375,-0.1002488359808921,-0.1140983402729034,0.1256309002637863
1769169113887,-0.0728912353515625,-0.0016021728515625,-0.99981689453125,-0.0289307180792093,-0.0747243016958236,0.0815017819404602
1769169113898,-0.109344482421875,0.039215087890625,-1.04046630859375,-0.0016311861108988,-0.0258278679102659,0.0822850167751312
1769169113908,-0.0527496337890625,-0.011322021484375,-1.0075225830078125,-0.0059076901525259,-0.0445280522108078,0.0791760459542274
1769169113918,-0.0555419921875,-0.007843017578125,-1.001220703125,0.0260363947600126,-0.023477628827095,0.036604881286621
1769169113928,-0.099365234375,0.00811767578125,-1.014862060546875,0.0221220795065164,-0.0059404470957815,0.0204855669289827
1769169113938,-0.0755767822265625,-0.02001953125,-0.98272705078125,-0.0302886627614498,-0.0155512625351548,0.0235295612365007
1769169113948,-0.0499114990234375,-0.0429534912109375,-0.95745849609375,-0.0893485248088836,-0.0294231362640857,0.0178785994648933
1769169113958,-0.0533599853515625,-0.0475616455078125,-0.971588134765625,-0.1203144267201423,-0.0395450107753276,0.0071577779017388
1769169113968,-0.0446624755859375,-0.057891845703125,-0.9993133544921876,-0.125298261642456,-0.040769800543785,0.0146279446780681
1769169113978,-0.0364532470703125,-0.0606536865234375,-1.02392578125,-0.098383292555809,-0.0187856722623109,0.0161510072648525
1769169113988,-0.0526275634765625,-0.0475616455078125,-1.0494232177734375,-0.0368925034999847,0.0183017756789922,0.0041587925516068
1769169113998,-0.067230224609375,-0.03314208984375,-1.0742645263671875,0.0440907627344131,0.0470095872879028,-0.0016623451374471
1769169114008,-0.06915283203125,-0.0229339599609375,-1.0855560302734375,0.1209048479795456,0.0654117614030838,-0.0105226822197437
1769169114018,-0.069244384765625,-0.02142333984375,-1.071502685546875,0.1761039197444915,0.0761613473296165,-0.0188519842922687
1769169114028,-0.070709228515625,-0.028839111328125,-1.0408782958984375,0.1980582177639007,0.0790229141712188,-0.0222573690116405
1769169114038,-0.06146240234375,-0.038177490234375,-1.00927734375,0.1906082928180694,0.0716062784194946,-0.0173086822032928
1769169114048,-0.0538482666015625,-0.046783447265625,-0.978302001953125,0.1633809357881546,0.04095409065485,-0.0123322997242212
1769169114058,-0.055267333984375,-0.04931640625,-0.951080322265625,0.1034092158079147,0.0182908568531274,-0.0137541620060801
1769169114068,-0.0606689453125,-0.0502471923828125,-0.92413330078125,0.0332514308393001,-0.004350806120783,-0.0166618004441261
1769169114079,-0.0584564208984375,-0.0498199462890625,-0.9116363525390624,-0.0354024656116962,-0.0191462635993957,-0.0128209898248314
1769169114088,-0.0546722412109375,-0.0419158935546875,-0.91693115234375,-0.0873607397079467,-0.0360101982951164,-0.010562096722424
1769169114098,-0.0555877685546875,-0.032012939453125,-0.935943603515625,-0.1193378418684005,-0.056542370468378,-0.0113192331045866
1769169114108,-0.0546875,-0.0308074951171875,-0.9584197998046876,-0.1359700858592987,-0.0610393844544887,-0.0130305811762809
1769169114119,-0.04827880859375,-0.0382232666015625,-0.9744110107421876,-0.1412772387266159,-0.0511342920362949,-0.0043808999471366
1769169114129,-0.037109375,-0.03948974609375,-0.9880523681640624,-0.1224414929747581,-0.0401556752622127,0.0054435012862086
1769169114139,-0.0434112548828125,-0.0270843505859375,-1.01239013671875,-0.0763128772377967,-0.0264385323971509,-0.0017523600254207
1769169114149,-0.06573486328125,-0.01251220703125,-1.0336456298828125,-0.0377071648836135,-0.0002167813072446,-0.0107889985665678
1769169114159,-0.06329345703125,-0.0174713134765625,-1.025543212890625,-0.0255913808941841,0.0001704423048067,-0.0060791978612542
1769169114169,-0.0521087646484375,-0.0254058837890625,-1.0127410888671875,-0.0291299223899841,-0.0052416333928704,-0.0071431305259466
1769169114179,-0.053009033203125,-0.029449462890625,-1.006500244140625,-0.0344099067151546,-0.0128007503226399,-0.000336090917699
1769169114189,-0.0523223876953125,-0.0318603515625,-1.0008544921875,-0.046571496874094,-0.0214514955878257,0.0050576091744005
1769169114199,-0.0497894287109375,-0.039154052734375,-0.9914703369140624,-0.068131648004055,-0.0287261866033077,0.0091969603672623
1769169114209,-0.0419464111328125,-0.044769287109375,-0.981109619140625,-0.085840605199337,-0.0406816489994525,0.0189667660742998
1769169114219,-0.0435791015625,-0.0438232421875,-0.98883056640625,-0.085289865732193,-0.0472852252423763,0.016065252944827
1769169114229,-0.05145263671875,-0.0333404541015625,-1.0063934326171875,-0.0611507073044776,-0.0461600385606288,0.0134428385645151
1769169114239,-0.058990478515625,-0.0256805419921875,-1.027740478515625,-0.0269309505820274,-0.0366461612284183,0.0117365503683686
1769169114249,-0.062774658203125,-0.020294189453125,-1.03863525390625,0.0075969332829117,-0.026369821280241,0.0145528437569737
1769169114259,-0.0630950927734375,-0.0188446044921875,-1.0417022705078125,0.0364706590771675,-0.018580874428153,0.0116950059309601
1769169114269,-0.0676727294921875,-0.0205078125,-1.033782958984375,0.0517750456929206,-0.0019747340120375,0.0110947294160723
1769169114279,-0.0687713623046875,-0.025115966796875,-1.016326904296875,0.054287739098072,0.0124734472483396,0.008904811926186
1769169114289,-0.06719970703125,-0.0300445556640625,-0.996185302734375,0.0449094176292419,0.0193100478500127,0.0071639032103121
1769169114299,-0.0664520263671875,-0.0312652587890625,-0.983154296875,0.0324149318039417,0.0245894994586706,0.0050040795467793
1769169114314,-0.0665435791015625,-0.0301666259765625,-0.97747802734375,0.0133416382595896,0.0166737847030162,-0.0020397149492055
1769169114319,-0.0684661865234375,-0.0267486572265625,-0.9739837646484376,-0.0061606904491782,0.0039822249673306,-0.0119687784463167
1769169114329,-0.066436767578125,-0.0271453857421875,-0.97705078125,-0.0220112930983304,-0.0136779956519603,-0.015337411314249
1769169114339,-0.056854248046875,-0.031158447265625,-0.9815673828125,-0.0302258133888244,-0.0249974951148033,-0.0143451169133186
1769169114349,-0.0550689697265625,-0.031890869140625,-0.9867095947265624,-0.0289650727063417,-0.03019305691123,-0.0124513432383537
1769169114360,-0.0596923828125,-0.0283355712890625,-0.994873046875,-0.0229394044727087,-0.0304607041180133,-0.0170146692544221
1769169114370,-0.063873291015625,-0.028564453125,-0.9938507080078124,-0.0261250771582126,-0.0219681486487388,-0.0130510870367288
1769169114380,-0.05841064453125,-0.0343475341796875,-0.98486328125,-0.0317110568284988,-0.0094345146790146,0.0003526025393512
1769169114390,-0.052947998046875,-0.03765869140625,-0.9837493896484376,-0.0320724472403526,-0.0104624945670366,0.0088443579152226
1769169114400,-0.050933837890625,-0.046630859375,-0.9835662841796876,-0.0532618910074234,-0.0195033941417932,0.0283267125487327
1769169114410,-0.0392913818359375,-0.0458526611328125,-0.9784698486328124,-0.0549199730157852,-0.0373356528580188,0.0252305213361978
1769169114420,-0.0585479736328125,-0.0229949951171875,-1.004974365234375,-0.0135182058438658,-0.0317877568304538,-0.0046141929924488
1769169114430,-0.0990753173828125,0.02215576171875,-1.0402374267578125,0.0298953149467706,0.0002335592289455,-0.0131184654310345
1769169114440,-0.077362060546875,-0.001739501953125,-1.0309600830078125,0.0147645650431513,-0.0250973626971244,0.0106246806681156
1769169114450,-0.046630859375,-0.025177001953125,-0.9966583251953124,0.0127962222322821,-0.0312018617987632,-0.0128785138949751
1769169114460,-0.0916900634765625,-0.01702880859375,-1.0018768310546875,0.0179015025496482,-0.023184148594737,-0.035171303898096
1769169114470,-0.095245361328125,-0.01251220703125,-0.9969635009765624,0.0208786502480506,-0.0057241981849074,-0.0425762236118316
1769169114480,-0.0815582275390625,-0.0249481201171875,-0.9844512939453124,-0.00077870831592,-0.0053265886381268,-0.0363225862383842
1769169114490,-0.06109619140625,-0.0401763916015625,-0.9678802490234376,-0.0278609264642,-0.0114928716793656,-0.0356605239212513
1769169114500,-0.0598907470703125,-0.0411834716796875,-0.967071533203125,-0.0492900498211383,-0.0146146286278963,-0.0387692339718341
1769169114511,-0.06219482421875,-0.038116455078125,-0.9748077392578124,-0.059981845319271,-0.019269036129117,-0.0402483530342578
1769169114520,-0.0615692138671875,-0.0310516357421875,-0.9937744140625,-0.0483755208551883,-0.0198533330112695,-0.043616984039545
1769169114530,-0.0633697509765625,-0.022705078125,-1.0168609619140625,-0.018342787399888,-0.0188799481838941,-0.0424489229917526
1769169114540,-0.06158447265625,-0.0163726806640625,-1.0350341796875,0.0177712738513946,-0.012344017624855,-0.0437421537935733
1769169114550,-0.064361572265625,-0.0126800537109375,-1.0416259765625,0.0478026755154132,-0.0026282735634595,-0.0471704415977001
1769169114562,-0.0673065185546875,-0.012176513671875,-1.0326385498046875,0.0717482194304466,0.013521933928132,-0.0589525327086448
1769169114571,-0.070159912109375,-0.0146636962890625,-1.02001953125,0.0725548937916755,0.0113605121150612,-0.0580161660909652
1769169114581,-0.0554656982421875,-0.026763916015625,-1.0019378662109375,0.0547870807349681,0.0010005496442317,-0.0474000051617622
1769169114591,-0.0436248779296875,-0.03765869140625,-0.9815673828125,0.0252004284411668,-0.02387310937047,-0.0401396974921226
1769169114601,-0.04144287109375,-0.0428009033203125,-0.976043701171875,0.0252004284411668,-0.02387310937047,-0.0401396974921226
1769169114612,-0.0411834716796875,-0.0427398681640625,-0.979095458984375,-0.0032208270858973,-0.0343124344944953,-0.0296585597097873
1769169114621,-0.043487548828125,-0.0383758544921875,-0.9925537109375,-0.018016017973423,-0.0417871288955211,-0.0168535485863685
1769169114631,-0.05169677734375,-0.030487060546875,-1.0072021484375,0.0055750613100826,-0.0338730104267597,-0.0200892891734838
1769169114641,-0.058563232421875,-0.0216217041015625,-1.03021240234375,0.0447725318372249,-0.0124050043523311,-0.0173795223236084
1769169114651,-0.0582733154296875,-0.0210418701171875,-1.0442657470703125,0.0803992375731468,0.0201987456530332,-0.0171062815934419
1769169114661,-0.053863525390625,-0.0214691162109375,-1.0443115234375,0.1224817037582397,0.0463440641760826,-0.0095053547993302
1769169114671,-0.058746337890625,-0.0050811767578125,-1.0458221435546875,0.1723094433546066,0.0819470658898353,-0.0082837622612714
1769169114681,-0.07244873046875,0.009521484375,-1.0383758544921875,0.1956930756568908,0.1024153232574462,-0.0128494855016469
1769169114691,-0.075347900390625,0.00421142578125,-1.0001678466796875,0.1763984709978103,0.098994493484497,-0.0186210889369249
1769169114701,-0.0688018798828125,-0.0130157470703125,-0.958282470703125,0.1234476342797279,0.0742960721254348,-0.0165661927312612
1769169114711,-0.060455322265625,-0.0269622802734375,-0.9235076904296876,0.0499928593635559,0.0323773808777332,-0.0226682946085929
1769169114721,-0.0607757568359375,-0.03790283203125,-0.9069671630859376,-0.0282265786081552,-0.0082805668935179,-0.0336652845144271
1769169114731,-0.0547943115234375,-0.047027587890625,-0.9029693603515624,-0.0962405130267143,-0.0225519146770238,-0.0281557384878397
1769169114741,-0.0489654541015625,-0.05706787109375,-0.915679931640625,-0.1366278827190399,-0.0131837129592895,-0.0177185423672199
1769169114751,-0.0498809814453125,-0.0572052001953125,-0.94293212890625,-0.1523368060588836,-0.0019757992122322,-0.0072493907064199
1769169114761,-0.056976318359375,-0.0533447265625,-0.9752655029296876,-0.1500012129545211,0.0014098774408921,-0.0026474483311176
1769169114771,-0.06744384765625,-0.0428619384765625,-1.0079498291015625,-0.1212566494941711,-5.965480886516161e-05,-0.0064685516990721
1769169114781,-0.0742950439453125,-0.033477783203125,-1.04315185546875,-0.0697974562644958,-0.0146686909720301,-0.0130433635786175
1769169114792,-0.0738372802734375,-0.0285186767578125,-1.06768798828125,-0.0186671614646911,-0.0254049580544233,-0.0191254913806915
1769169114802,-0.07281494140625,-0.0333251953125,-1.0753936767578125,0.0308862775564193,-0.020157465711236,-0.0216174107044935
1769169114813,-0.067840576171875,-0.040374755859375,-1.0665283203125,0.06910290569067,-0.0022793996613472,-0.012419119477272
1769169114822,-0.0636444091796875,-0.047149658203125,-1.0510406494140625,0.0919325873255729,0.0164527427405118,-0.0054594799876213
1769169114832,-0.0610198974609375,-0.04852294921875,-1.034271240234375,0.1020547300577163,0.012702745385468,8.149272616719827e-05
1769169114842,-0.06671142578125,-0.0455169677734375,-1.0158538818359375,0.0962117537856102,0.0066115637309849,-0.0080957431346178
1769169114852,-0.07403564453125,-0.04150390625,-0.9968719482421876,0.0760883763432502,0.0013185309944674,-0.0181206800043582
1769169114862,-0.07122802734375,-0.03802490234375,-0.9869537353515624,0.0596886314451694,-0.0015089471125975,-0.0183097645640373
1769169114872,-0.067962646484375,-0.03717041015625,-0.98760986328125,0.0502754226326942,0.005281048361212,-0.0242954865097999
1769169114882,-0.0688323974609375,-0.0382080078125,-0.9915313720703124,0.0540573745965957,0.0103349294513463,-0.0279938168823719
1769169114892,-0.0658111572265625,-0.0398406982421875,-1.003692626953125,0.0738763511180877,0.0174279920756816,-0.032365396618843
1769169114902,-0.063140869140625,-0.0377349853515625,-1.0174713134765625,0.1023343577980995,0.0342943258583545,-0.0333054922521114
1769169114912,-0.0634613037109375,-0.0399932861328125,-1.019500732421875,0.1244228854775428,0.0400808416306972,-0.0368123427033424
1769169114922,-0.0645294189453125,-0.04571533203125,-1.0132293701171875,0.1356976479291916,0.0390323549509048,-0.0376315303146839
1769169114932,-0.060089111328125,-0.0519561767578125,-1.00360107421875,0.1244841367006301,0.0294127501547336,-0.0298788025975227
1769169114942,-0.0498199462890625,-0.0655517578125,-0.9801788330078124,0.0749325677752494,0.0108031127601861,-0.0135909095406532
1769169114952,-0.036102294921875,-0.073272705078125,-0.9524993896484376,0.0308412685990333,0.0044059338979423,-0.0032144354190677
1769169114962,-0.0537261962890625,-0.0529632568359375,-0.952545166015625,0.0268654357641935,0.0073639065958559,-0.0324684605002403
1769169114972,-0.1034088134765625,0.0026092529296875,-0.977264404296875,0.0421389304101467,0.0382347367703914,-0.0697516500949859
1769169114982,-0.0950775146484375,-0.022125244140625,-0.9783935546875,-0.0041984734125435,-0.0044546695426106,-0.0385854765772819
1769169114992,-0.036773681640625,-0.044403076171875,-0.955657958984375,0.017724135890603,0.0043380232527852,-0.0694403275847435
1769169115002,-0.103607177734375,-0.016265869140625,-1.000640869140625,0.0408094823360443,0.0237532667815685,-0.0979542583227157
1769169115014,-0.10064697265625,-0.0235595703125,-0.996063232421875,0.0300995782017707,0.0320998802781105,-0.0921472385525703
1769169115023,-0.0704193115234375,-0.05120849609375,-0.9830322265625,0.0017291904659941,0.0412494353950023,-0.0784026607871055
1769169115033,-0.0591888427734375,-0.0654449462890625,-0.9809722900390624,-0.0203484147787094,0.0413588918745517,-0.0745133832097053
1769169115043,-0.055999755859375,-0.077239990234375,-0.9882659912109376,-0.0309195667505264,0.0218347255140543,-0.0666725039482116
1769169115053,-0.0482940673828125,-0.0750732421875,-1.003021240234375,-0.0179755389690399,0.0145043740049004,-0.0655707567930221
1769169115063,-0.0576934814453125,-0.0572967529296875,-1.017120361328125,0.0103232115507125,0.0159020014107227,-0.0692813396453857
1769169115073,-0.066436767578125,-0.0432281494140625,-1.024993896484375,0.0445626750588417,0.0012913667596876,-0.0728236064314842
1769169115083,-0.065155029296875,-0.0352630615234375,-1.024566650390625,0.0719487592577934,-0.0002063949796138,-0.072955697774887
1769169115093,-0.0640716552734375,-0.03363037109375,-1.013702392578125,0.0831548050045967,0.0034637073986232,-0.0690563023090362
1769169115103,-0.0585174560546875,-0.0397186279296875,-1.000244140625,0.0838914364576339,0.0079071912914514,-0.0616828054189682
1769169115115,-0.0529937744140625,-0.0511627197265625,-0.98712158203125,0.0671617239713668,0.0176623500883579,-0.0500969886779785
1769169115123,-0.048004150390625,-0.0587615966796875,-0.9725494384765624,0.0489691421389579,0.0360759794712066,-0.0376714803278446
1769169115133,-0.048858642578125,-0.060028076171875,-0.9658203125,0.0282284412533044,0.0480937585234642,-0.0246403645724058
1769169115143,-0.050933837890625,-0.0568084716796875,-0.963104248046875,0.0073050507344305,0.0600124709308147,-0.0181630253791809
1769169115153,-0.052581787109375,-0.05706787109375,-0.961883544921875,-0.0176010970026254,0.0429898127913475,-0.0164127945899963
1769169115163,-0.0538177490234375,-0.0505523681640625,-0.9678802490234376,-0.0344466567039489,0.0166625995188951,-0.021124193444848
1769169115173,-0.05291748046875,-0.0471954345703125,-0.9803619384765624,-0.0345561131834983,-0.0092148035764694,-0.0230358112603425
1769169115183,-0.051055908203125,-0.047576904296875,-1.001556396484375,-0.0210959631949663,-0.0321163907647132,-0.025456890463829
1769169115193,-0.044830322265625,-0.0572357177734375,-1.01422119140625,-0.0070674968883395,-0.0404281169176101,-0.0244076047092676
1769169115203,-0.033233642578125,-0.0687408447265625,-1.0146484375,0.014633004553616,-0.0235151797533035,-0.0039308257400989
1769169115213,-0.03045654296875,-0.0628204345703125,-1.021392822265625,0.0551679134368896,-0.0034514567814767,0.0057548247277736
1769169115224,-0.0544586181640625,-0.0436248779296875,-1.0260162353515625,0.0769698843359947,0.021901836618781,0.0015835155500099
1769169115233,-0.0671539306640625,-0.0429534912109375,-1.0058746337890625,0.0621613748371601,0.0203462839126586,0.0092648714780807
1769169115243,-0.0551605224609375,-0.050567626953125,-0.97967529296875,0.0388677716255188,0.0165203865617513,0.0150953298434615
1769169115253,-0.058868408203125,-0.05279541015625,-0.96734619140625,0.0083348955959081,0.0112465294077992,0.0098339887335896
1769169115264,-0.063934326171875,-0.05712890625,-0.9615020751953124,-0.0141240749508142,-0.0028250813484191,0.0132577484473586
1769169115274,-0.0595703125,-0.062835693359375,-0.9670867919921876,-0.0232512596994638,-0.0184365306049585,0.0096483658999204
1769169115284,-0.062286376953125,-0.0594482421875,-0.9797210693359376,-0.0253277271986007,-0.0213953033089637,0.0065777413547039
1769169115294,-0.065216064453125,-0.05279541015625,-0.9897613525390624,-0.0150575125589966,-0.0165238492190837,0.0028418591246008
1769169115304,-0.064910888671875,-0.047149658203125,-1.0015716552734375,-0.0050421627238392,-0.0045233792625367,0.0093972301110625
1769169115314,-0.0590057373046875,-0.0451812744140625,-1.0034942626953125,0.0010934938909485,0.0060064936988055,0.0153786903247237
1769169115324,-0.0531463623046875,-0.0499114990234375,-0.9990234375,0.0055827847681939,0.0039582564495503,0.0216554943472147
1769169115334,-0.0516204833984375,-0.0559234619140625,-0.99365234375,-0.0017859158106148,0.0216661468148231,0.0364490859210491
1769169115344,-0.04998779296875,-0.0567169189453125,-0.9803009033203124,-0.0144926561042666,0.0280055347830057,0.037437118589878
1769169115354,-0.0602569580078125,-0.055419921875,-0.97381591796875,-0.028557077050209,0.0126801086589694,0.0291357804089784
1769169115364,-0.0621185302734375,-0.0541839599609375,-0.9709625244140624,-0.0418060347437858,-0.0010815097484737,0.0251692682504653
1769169115374,-0.0567779541015625,-0.0539093017578125,-0.974365234375,-0.045521680265665,-0.0208823792636394,0.0243143942207098
1769169115384,-0.0593719482421875,-0.051513671875,-0.9859161376953124,-0.0376597605645656,-0.0248872395604848,0.0195819567888975
1769169115395,-0.0626068115234375,-0.05108642578125,-0.9979705810546876,-0.0246193259954452,-0.0259857941418886,0.0161874927580356
1769169115404,-0.0624542236328125,-0.0505218505859375,-1.0039215087890625,-0.0127546768635511,-0.0226254183799028,0.0188463926315307
1769169115414,-0.0604095458984375,-0.056304931640625,-1.0068511962890625,-0.0088161285966634,-0.0105479815974831,0.0305608380585908
1769169115424,-0.04718017578125,-0.0722808837890625,-1.0017242431640625,-0.0241335649043321,-0.0081239724531769,0.0604779906570911
1769169115434,-0.035186767578125,-0.085845947265625,-0.9912567138671876,-0.0439719855785369,-0.0266483891755342,0.0861977338790893
1769169115445,-0.0482940673828125,-0.078948974609375,-0.9949798583984376,-0.0570766031742095,-0.0614844001829624,0.0867844298481941
1769169115454,-0.0709991455078125,-0.0688323974609375,-1.00384521484375,-0.0615019761025905,-0.0871543437242508,0.0830765143036842
1769169115465,-0.074859619140625,-0.0703582763671875,-1.009674072265625,-0.0602606758475303,-0.0981151163578033,0.0910215154290199
1769169115475,-0.063934326171875,-0.0802001953125,-1.0135955810546875,-0.0272686388343572,-0.1176773607730865,0.0940234363079071
1769169115485,-0.0799407958984375,-0.0489654541015625,-1.037078857421875,0.0416403859853744,-0.1021814942359924,0.0697045102715492
1769169115495,-0.106231689453125,-0.0124053955078125,-1.0536041259765625,0.1244622990489006,-0.054163634777069,0.0338767394423484
1769169115505,-0.11968994140625,-0.0175018310546875,-1.0368804931640625,0.1021580621600151,-0.0613102279603481,0.0533058308064937
1769169115515,-0.0531158447265625,-0.05816650390625,-0.9614410400390624,0.0792175903916359,-0.069605179131031,0.0395178496837616
1769169115525,-0.0900421142578125,-0.0370635986328125,-0.9542388916015624,0.0574110932648181,-0.045285191386938,0.0147736193612217
1769169115535,-0.1090087890625,-0.0260009765625,-0.9366912841796876,-8.229167724493891e-05,-0.0412078909575939,0.0152050517499446
1769169115545,-0.0865631103515625,-0.0430908203125,-0.9100494384765624,-0.0753743797540664,-0.0583554506301879,0.0222496446222066
1769169115555,-0.073944091796875,-0.050628662109375,-0.907440185546875,-0.1366345435380935,-0.0605578869581222,0.0239423513412475
1769169115565,-0.068634033203125,-0.060302734375,-0.9251556396484376,-0.1770203113555908,-0.0817297473549842,0.027818314731121
1769169115575,-0.0547637939453125,-0.068359375,-0.94830322265625,-0.1900040209293365,-0.1076207384467125,0.0306822787970304
1769169115585,-0.058380126953125,-0.052978515625,-0.9841156005859376,-0.164018765091896,-0.1106769815087318,0.0159922819584608
1769169115597,-0.079742431640625,-0.031982421875,-1.0183258056640625,-0.1183591336011886,-0.0894204229116439,-0.0067359334789216
1769169115605,-0.0850677490234375,-0.0222015380859375,-1.038970947265625,-0.0684016942977905,-0.0578872673213481,-0.0171670019626617
1769169115615,-0.0720367431640625,-0.025482177734375,-1.04229736328125,-0.0342828705906868,-0.0369721315801143,-0.0210602786391973
1769169115625,-0.06475830078125,-0.03485107421875,-1.03643798828125,-0.0177598223090171,-0.0119288312271237,-0.0161315649747848
1769169115635,-0.0537261962890625,-0.0466766357421875,-1.026123046875,-0.0093223955482244,0.0125144599005579,-0.0001286306796828
1769169115646,-0.0423126220703125,-0.0577545166015625,-1.0203094482421875,-0.0054307179525494,0.0267282836139202,0.0189984589815139
1769169115655,-0.0385589599609375,-0.0637359619140625,-1.0137939453125,-0.0091697964817285,0.0253391787409782,0.0366325788199901
1769169115666,-0.040740966796875,-0.0668182373046875,-1.0019073486328125,-0.015927568078041,0.0187795460224151,0.045557364821434
1769169115675,-0.0433502197265625,-0.066619873046875,-1.00225830078125,-0.011829761788249,0.0009126652730628,0.0553127899765968
1769169115686,-0.0507049560546875,-0.0601654052734375,-1.0144805908203125,0.0115637117996811,-0.0143041042611002,0.0599813126027584
1769169115696,-0.0623321533203125,-0.0521240234375,-1.025634765625,0.037224069237709,-0.0232267584651708,0.0631371587514877
1769169115706,-0.0732574462890625,-0.045745849609375,-1.02630615234375,0.0556739158928394,-0.021387580782175,0.0656362697482109
1769169115716,-0.0768585205078125,-0.0511474609375,-1.01953125,0.0668437480926513,-0.0206402968615293,0.065166488289833
1769169115726,-0.0799102783203125,-0.0556640625,-1.0113067626953125,0.0715359672904014,-0.0119306957349181,0.0740412026643753
1769169115736,-0.0828094482421875,-0.050933837890625,-0.9995880126953124,0.0763248652219772,-0.0041382857598364,0.0707431435585022
1769169115746,-0.099761962890625,-0.0394134521484375,-0.99517822265625,0.0754870325326919,0.0149469915777444,0.0543231591582298
1769169115756,-0.1106109619140625,-0.034271240234375,-0.9812164306640624,0.0550475381314754,0.0249836463481187,0.0467406064271926
1769169115766,-0.09674072265625,-0.0393218994140625,-0.9646453857421876,0.0223838686943054,0.019227223470807,0.041757833212614
1769169115776,-0.085296630859375,-0.0434417724609375,-0.9593505859375,-0.0066163572482764,0.0037342845462262,0.0364735871553421
1769169115786,-0.07861328125,-0.050750732421875,-0.963287353515625,-0.0276758354157209,-0.0041318945586681,0.0337057672441005
1769169115796,-0.066436767578125,-0.0581512451171875,-0.964752197265625,-0.0446332469582557,-0.0126300416886806,0.0370674729347229
1769169115806,-0.0643768310546875,-0.06085205078125,-0.9670562744140624,-0.0591866225004196,-0.0170378386974334,0.0344306789338588
1769169115816,-0.068939208984375,-0.0556793212890625,-0.975372314453125,-0.0626205056905746,-0.0180141534656286,0.0281536076217889
1769169115826,-0.0744781494140625,-0.0474395751953125,-0.9862823486328124,-0.0544153042137622,-0.014404771849513,0.0242739133536815
1769169115836,-0.0786590576171875,-0.0413665771484375,-0.9989471435546876,-0.0428505279123783,-0.0037278928793966,0.0214783940464258
1769169115846,-0.081634521484375,-0.0324859619140625,-1.0039825439453125,-0.0251298546791076,-0.0006162554491311,0.0122406873852014
1769169115856,-0.088623046875,-0.0313720703125,-1.012847900390625,-0.0082936165854334,0.0061335260979831,0.0029297433793544
1769169115866,-0.08636474609375,-0.034149169921875,-1.01519775390625,0.0072917351499199,0.0138625521212816,0.0017246630741283
1769169115876,-0.0813446044921875,-0.0414886474609375,-1.011444091796875,0.011763715185225,0.0235631167888641,-0.0006258428329601
1769169115886,-0.0756683349609375,-0.0470123291015625,-1.00384521484375,0.0094848480075597,0.033797912299633,0.0032176312524825
1769169115897,-0.07080078125,-0.047454833984375,-0.9955902099609376,0.0012183962389826,0.041019070893526,0.0079735042527318
1769169115907,-0.0691986083984375,-0.0471954345703125,-0.9934234619140624,-0.006222475785762,0.0402994863688945,0.0116609167307615
1769169115917,-0.068084716796875,-0.0482330322265625,-0.989166259765625,-0.0175409112125635,0.0353510677814483,0.0150449955835938
1769169115927,-0.0621185302734375,-0.0493011474609375,-0.9882354736328124,-0.021958028897643,0.0159864239394664,0.0137293944135308
1769169115937,-0.06329345703125,-0.047821044921875,-0.996002197265625,-0.0196687765419483,-0.0034762241411954,0.0098084220662713
1769169115947,-0.0637969970703125,-0.0484161376953125,-0.9992218017578124,-0.0149664329364895,-0.0007731156656518,0.0117405457422137
1769169115957,-0.0658721923828125,-0.0479888916015625,-0.9960479736328124,-0.0022623552940785,0.0085641937330365,0.0118380170315504
1769169115967,-0.0766448974609375,-0.0439605712890625,-0.9986114501953124,0.0119035309180617,0.0239945482462644,0.0024825986474752
1769169115977,-0.0863189697265625,-0.039276123046875,-0.998687744140625,0.0150923999026417,0.0440268479287624,0.0032820797059684
1769169115987,-0.0810089111328125,-0.042755126953125,-0.989410400390625,0.0139515018090605,0.055059790611267,0.0091250548139214
1769169115997,-0.07562255859375,-0.048828125,-0.9830474853515624,-0.0019832560792565,0.0504839457571506,0.0157539285719394
1769169116007,-0.0654144287109375,-0.060546875,-0.9656219482421876,-0.0429322868585586,0.0215534958988428,0.0195806249976158
1769169116017,-0.0621490478515625,-0.055633544921875,-0.960174560546875,-0.0538208857178688,-0.0070834755897521,0.005576126743108
1769169116027,-0.0825347900390625,-0.0177459716796875,-0.98907470703125,-0.0098712723702192,-0.0025558357592672,-0.0355702452361583
1769169116037,-0.1140594482421875,0.0019989013671875,-1.0199737548828125,-0.0151973282918334,-0.0008000136003829,-0.0148468567058444
1769169116047,-0.052154541015625,-0.0407562255859375,-0.983428955078125,-0.028834044933319,-0.0089263832196593,-0.0055036884732544
1769169116057,-0.065643310546875,-0.0409393310546875,-0.9795074462890624,-0.0227694939821958,0.0136375147849321,-0.0273397453129291
1769169116067,-0.098114013671875,-0.02508544921875,-0.986175537109375,-0.0214070212095975,0.0379854664206504,-0.0375223420560359
1769169116077,-0.0933837890625,-0.0301513671875,-0.97503662109375,-0.0549788288772106,0.0404640696942806,-0.0327134728431701
1769169116087,-0.0734405517578125,-0.0487060546875,-0.954681396484375,-0.1012752205133438,0.0329187996685504,-0.0213793236762285
1769169116097,-0.05926513671875,-0.0585784912109375,-0.9546051025390624,-0.1269433051347732,0.0164045393466949,-0.0225591044872999
1769169116107,-0.05938720703125,-0.05657958984375,-0.97576904296875,-0.1338065266609192,-0.0107482513412833,-0.0187784805893898
1769169116118,-0.057159423828125,-0.05029296875,-0.990966796875,-0.1290357410907745,-0.0227559115737676,-0.0134162064641714
1769169116128,-0.059173583984375,-0.0426483154296875,-1.008026123046875,-0.1089448556303978,-0.018951054662466,-0.0068872007541358
1769169116138,-0.06414794921875,-0.036468505859375,-1.0257568359375,-0.0822874158620834,-0.0140047650784254,-0.0030535804107785
1769169116148,-0.067718505859375,-0.03192138671875,-1.037078857421875,-0.0500445254147052,-0.0044264402240514,-0.0020538298413157
1769169116158,-0.072235107421875,-0.0307464599609375,-1.0423736572265625,-0.0177166797220706,0.0187135003507137,0.0015976303257048
1769169116168,-0.072418212890625,-0.0345001220703125,-1.037261962890625,0.0118766333907842,0.0332303903996944,0.0052964948117733
1769169116178,-0.072906494140625,-0.038482666015625,-1.0278472900390625,0.0305259507149457,0.0441235192120075,-0.0004503405361901
1769169116188,-0.0734405517578125,-0.0431671142578125,-1.0152740478515625,0.0350021906197071,0.042770367115736,0.0007888282998465
1769169116198,-0.070953369140625,-0.0468597412109375,-0.9982452392578124,0.025568475946784,0.0291152745485305,-0.0004684500454459
1769169116208,-0.0719757080078125,-0.0474395751953125,-0.983245849609375,0.0104920556768774,0.0053923684172332,-0.0063143549486994
1769169116218,-0.07623291015625,-0.0446014404296875,-0.97802734375,-0.0029409287963062,-0.0160218439996242,-0.0102758072316646
1769169116228,-0.073028564453125,-0.04071044921875,-0.97674560546875,-0.0185129642486572,-0.0315981395542621,-0.0105554386973381
1769169116238,-0.0719146728515625,-0.0375823974609375,-0.978546142578125,-0.0284854378551244,-0.0360038056969642,-0.0058775963261723
1769169116248,-0.067901611328125,-0.0374298095703125,-0.983856201171875,-0.036560408771038,-0.0254587549716234,0.0004202468262519
1769169116258,-0.061676025390625,-0.0436553955078125,-0.9918212890625,-0.0458575040102005,-0.0116001972928643,0.0110611729323863
1769169116268,-0.0536346435546875,-0.043304443359375,-1.0008392333984375,-0.0298843961209058,0.0043409527279436,0.0206533465534448
1769169116278,-0.0622100830078125,-0.0317535400390625,-1.024017333984375,0.0058054248802363,0.0226179603487253,0.0225284788757562
1769169116288,-0.069854736328125,-0.0228118896484375,-1.0322113037109375,0.0373468399047851,0.0280524063855409,0.0183172225952148
1769169116298,-0.0745086669921875,-0.02349853515625,-1.02825927734375,0.0585812889039516,0.0279898233711719,0.0063910540193319
1769169116308,-0.0753173828125,-0.028411865234375,-1.0181884765625,0.069743126630783,0.014502509497106,-0.0027531760279089
1769169116318,-0.0700531005859375,-0.0333251953125,-1.0063323974609375,0.0689622908830642,0.007389472797513,-0.0065953182056546
1769169116328,-0.067169189453125,-0.03900146484375,-0.9941864013671876,0.0567524954676628,-0.0124420225620269,-0.0137981036677956
