timestamp_ms,acc_x,acc_y,acc_z,gyro_x,gyro_y,gyro_z
1770450064135,0.061798095703125,-0.156951904296875,-0.9794464111328124,-0.0083178505301475,0.0260971151292324,0.0389782935380935
1770450064147,0.0506591796875,-0.1486663818359375,-0.991485595703125,0.0018258632626384,0.0209769215434789,0.0308990608900785
1770450064153,0.0355377197265625,-0.1368408203125,-0.996856689453125,0.0132596129551529,0.0170474257320165,0.0197215061634778
1770450064164,0.030670166015625,-0.1311187744140625,-0.99859619140625,0.0211564172059297,0.0055918390862643,0.0100555634126067
1770450064173,0.0312042236328125,-0.1328125,-0.99542236328125,0.0319704487919807,0.0045257760211825,0.0026511768810451
1770450064184,0.03155517578125,-0.1371612548828125,-0.99322509765625,0.0384493879973888,-0.0002324939559912,-0.0017204020405188
1770450064194,0.0392913818359375,-0.144256591796875,-0.9889373779296876,0.0373042300343513,-0.0054986285977065,0.0005057342932559
1770450064204,0.04339599609375,-0.147857666015625,-0.98040771484375,0.0268579795956611,-0.0071846758946776,0.0055883773602545
1770450064214,0.047943115234375,-0.15399169921875,-0.9722442626953124,0.0147336721420288,-0.003533215727657,0.0133903734385967
1770450064224,0.0537261962890625,-0.1579132080078125,-0.971466064453125,0.0030748858116567,-0.0003949467791244,0.0186706241220235
1770450064234,0.0483856201171875,-0.14404296875,-0.9699554443359376,-0.0038962047547101,0.0045960834249854,0.015984559431672
1770450064244,0.043853759765625,-0.1400299072265625,-0.971588134765625,-0.015721172094345,0.0047710528597235,0.0109985889866948
1770450064254,0.0419158935546875,-0.138641357421875,-0.973236083984375,-0.0214136783033609,0.0055731972679495,0.0072810822166502
1770450064264,0.0412139892578125,-0.138763427734375,-0.9769744873046876,-0.0232560541480779,0.0119205750524997,0.0066752131097018
1770450064274,0.0462493896484375,-0.14190673828125,-0.9843597412109376,-0.01951271481812,0.0118494685739278,0.007367368787527
1770450064284,0.0507354736328125,-0.1445770263671875,-0.9904632568359376,-0.0067713535390794,0.0100286658853292,0.0097287939861416
1770450064294,0.052734375,-0.1479949951171875,-0.9957275390625,0.0031656995415687,0.0036296222824603,0.0154295563697814
1770450064304,0.053924560546875,-0.149688720703125,-0.99432373046875,0.0096467686817049,0.0019640813115984,0.0204197876155376
1770450064314,0.0519561767578125,-0.149810791015625,-0.9881134033203124,0.0075897425413131,0.0004308994684834,0.0246851071715354
1770450064324,0.0496826171875,-0.1529998779296875,-0.9809112548828124,0.0018511632224544,0.000695883994922,0.0252733994275331
1770450064334,0.0493011474609375,-0.1541748046875,-0.973480224609375,-0.013760020956397,0.0052799829281866,0.0330138765275478
1770450064344,0.049468994140625,-0.1522216796875,-0.9695892333984376,-0.0249306503683328,0.0124303046613931,0.035426165908575
1770450064355,0.046661376953125,-0.15313720703125,-0.973175048828125,-0.0357353612780571,0.0138878524303436,0.0327829793095588
1770450064364,0.0447998046875,-0.151702880859375,-0.97674560546875,-0.0389348827302455,0.0200208462774753,0.0303728189319372
1770450064375,0.044891357421875,-0.1465301513671875,-0.982208251953125,-0.0352669097483158,0.0224097017198801,0.0283453557640314
1770450064385,0.04132080078125,-0.1443328857421875,-0.9904632568359376,-0.0231742952018976,0.019727099686861,0.0214917100965976
1770450064395,0.040435791015625,-0.142333984375,-0.998382568359375,-0.0059721386060118,0.0104766096919775,0.0193635784089565
1770450064405,0.0421142578125,-0.1428070068359375,-1.0015411376953125,0.0076496638357639,-0.0015518239233642,0.0152772236615419
1770450064415,0.041534423828125,-0.1436004638671875,-1.001190185546875,0.0166167933493852,-0.0089141326025128,0.013825268484652
1770450064425,0.0423126220703125,-0.1409759521484375,-0.99212646484375,0.0149195613339543,-0.0117341540753841,0.0127453561872243
1770450064435,0.0450439453125,-0.142364501953125,-0.9809722900390624,0.003474626224488,-0.0037579864729195,0.0110864732414484
1770450064445,0.0468597412109375,-0.1430206298828125,-0.9718475341796876,-0.0048863678239285,0.0095721995458006,0.0099018989130854
1770450064455,0.046966552734375,-0.1448516845703125,-0.9731292724609376,-0.008568987250328,0.0117882164195179,0.0105655584484338
1770450064465,0.04827880859375,-0.1478118896484375,-0.9767608642578124,-0.0140811977908015,0.009680057875812,0.0081530008465051
1770450064475,0.048431396484375,-0.14697265625,-0.9781646728515624,-0.0193470660597085,0.0122350947931408,0.0102039016783237
1770450064485,0.047637939453125,-0.1443023681640625,-0.9761962890625,-0.0243138615041971,0.0187140330672264,0.0092741921544075
1770450064495,0.046630859375,-0.149078369140625,-0.976287841796875,-0.0273101832717657,0.0204253792762756,0.0170889720320701
1770450064505,0.05169677734375,-0.1574859619140625,-0.98406982421875,-0.0213279258459806,0.0183366630226373,0.0246938951313495
1770450064516,0.04803466796875,-0.13958740234375,-0.989837646484375,-0.0122055336833,0.018097510561347,0.0137685425579547
1770450064525,0.0356292724609375,-0.1245574951171875,-0.9892425537109376,-0.0109088402241468,0.0052525526843965,0.0030535804107785
1770450064535,0.0319061279296875,-0.133209228515625,-0.987823486328125,-0.0143927875906229,-0.0006237123161554,-0.003451723139733
1770450064545,0.0411529541015625,-0.1564178466796875,-0.99127197265625,0.0012540825409814,0.002869555959478,-0.0054677361622452
1770450064555,0.0342559814453125,-0.11663818359375,-0.98956298828125,-0.0030746194534003,0.0096678072586655,-0.0232967995107173
1770450064565,0.030517578125,-0.1426849365234375,-0.9806365966796876,-0.0141826644539833,-0.000884169479832,-0.0135126132518053
1770450064576,0.0580596923828125,-0.1675567626953125,-0.983123779296875,-0.0191127080470323,-0.0090281162410974,0.0129030151292681
1770450064586,0.0696258544921875,-0.176116943359375,-0.9804229736328124,-0.0258249398320913,-0.0053652040660381,0.0357814319431781
1770450064596,0.0699920654296875,-0.1519622802734375,-0.9757843017578124,-0.0188783500343561,0.0214003641158342,0.0242531411349773
1770450064606,0.0440216064453125,-0.1241455078125,-0.975311279296875,-0.0172655396163463,0.0414805971086025,-0.0004468784318305
1770450064616,0.0328826904296875,-0.1207427978515625,-0.9779510498046876,-0.0203398931771516,0.0345553122460842,-0.0189217589795589
1770450064626,0.032623291015625,-0.12579345703125,-0.9895172119140624,-0.0110771525651216,0.0161230433732271,-0.025881664827466
1770450064636,0.034088134765625,-0.13671875,-1.004974365234375,0.0027166905347257,-0.0109674297273159,-0.0180495735257864
1770450064646,0.04754638671875,-0.1451568603515625,-1.0074920654296875,0.013278255239129,-0.0280587989836931,-0.0073732277378439
1770450064656,0.0562591552734375,-0.1498565673828125,-0.9954681396484376,0.0084720477461814,-0.025562884286046,0.0069164955057203
1770450064666,0.06854248046875,-0.156463623046875,-0.9796295166015624,-0.00229750899598,-0.0042706448584795,0.025757560506463
1770450064676,0.0751495361328125,-0.1605072021484375,-0.9738311767578124,0.0142929190769791,0.0265469215810298,0.0344325415790081
1770450064686,0.0645904541015625,-0.16619873046875,-0.9964447021484376,0.0039057920221239,-0.0046514770947396,0.0440481528639793
1770450064696,0.0579681396484375,-0.1437835693359375,-0.9792327880859376,-0.0014234596164897,0.0041310954838991,0.0434777028858661
1770450064706,0.0497283935546875,-0.1394500732421875,-0.9802398681640624,-0.0060459082014858,0.0108917960897088,0.0387228950858116
1770450064716,0.03839111328125,-0.1346435546875,-0.9851226806640624,-0.0032485239207744,0.0189875401556491,0.0223031751811504
1770450064726,0.0329132080078125,-0.1315765380859375,-0.99212646484375,0.0031044469214975,0.0172889754176139,0.0147685594856739
1770450064736,0.03582763671875,-0.1352081298828125,-1.0005035400390625,0.0186778139322996,0.0037614486645907,0.0099599556997418
1770450064746,0.0412445068359375,-0.1438140869140625,-1.0113067626953125,0.0319510102272033,-0.0131594780832529,0.0060009006410837
1770450064756,0.0435028076171875,-0.1446380615234375,-1.00537109375,0.0378147549927234,-0.0215052925050258,0.0031414648983627
1770450064766,0.044525146484375,-0.145477294921875,-0.995208740234375,0.0356868915259838,-0.0207276493310928,0.0092081455513834
1770450064776,0.0514984130859375,-0.1609649658203125,-0.9873199462890624,0.0350993983447551,-0.0176048260182142,0.0232717674225568
1770450064786,0.056610107421875,-0.155609130859375,-0.98248291015625,0.0346394702792167,-0.0052474923431873,0.0224078372120857
1770450064797,0.048065185546875,-0.1389312744140625,-0.9777069091796876,0.0310671050101518,0.0036954022943973,0.0205920934677124
1770450064807,0.0449371337890625,-0.1419677734375,-0.97705078125,0.0240169186145067,0.0010695254895836,0.014110492542386
1770450064817,0.04046630859375,-0.1394805908203125,-0.977386474609375,0.0159355569630861,-0.000924649531953,0.0096864495426416
1770450064827,0.038177490234375,-0.1395416259765625,-0.975341796875,0.0077780280262231,-0.0021166803780943,0.0022277343086898
1770450064837,0.041595458984375,-0.139739990234375,-0.9750213623046876,0.000826378876809,-0.0005190501105971,-0.0012471582740545
1770450064847,0.0424041748046875,-0.1435699462890625,-0.976776123046875,0.0019366507185623,0.0002820287481881,-0.0021699436474591
1770450064857,0.046112060546875,-0.1456146240234375,-0.97930908203125,0.001242897240445,0.0032330774702131,0.0009763148264028
1770450064867,0.0485687255859375,-0.146636962890625,-0.98248291015625,0.003500459017232,0.0027121631428599,0.0052168662659823
1770450064877,0.0503692626953125,-0.152313232421875,-0.988067626953125,0.0055625443346798,-0.0050759851001203,0.0097130807116627
1770450064887,0.0532989501953125,-0.152587890625,-0.9883880615234376,0.0061340588144958,-0.0072467275895178,0.0143179530277848
1770450064897,0.05218505859375,-0.1513824462890625,-0.98504638671875,0.0053721284493803,-0.0034274882636964,0.0134292561560869
1770450064907,0.0465850830078125,-0.1498565673828125,-0.982269287109375,0.0028232170734554,-0.0022216090001165,0.0140998400747776
1770450064917,0.0451507568359375,-0.14837646484375,-0.982635498046875,0.0010322412708774,-0.0016482303617522,0.016112657263875
1770450064927,0.0425567626953125,-0.1492919921875,-0.983642578125,-0.0004660531994886,0.0003041329910047,0.0125432219356298
1770450064937,0.042755126953125,-0.1501922607421875,-0.98638916015625,0.0011901666875928,-0.0025198829825967,0.0119392173364758
1770450064947,0.0406494140625,-0.1464996337890625,-0.986602783203125,0.003752393880859,-0.0024852619972079,0.0065947859548032
1770450064957,0.0376739501953125,-0.1454620361328125,-0.9876251220703124,0.0083817671984434,-0.0060099554248154,-0.0003366235469002
1770450064967,0.035064697265625,-0.144989013671875,-0.9892425537109376,0.0130074117332696,-0.0131512219086289,-0.0039361519739031
1770450064977,0.035736083984375,-0.14349365234375,-0.9877166748046876,0.0230909381061792,-0.0361556075513362,-0.010335462167859
1770450064987,0.0343780517578125,-0.141815185546875,-0.9831390380859376,0.0209718607366085,-0.0234480686485767,-0.015189872123301
1770450064997,0.03558349609375,-0.138916015625,-0.981170654296875,0.0095767276361584,-0.0140891876071691,-0.0207132678478956
1770450065008,0.03875732421875,-0.1400299072265625,-0.9746856689453124,0.0026868632994592,-0.0095066856592893,-0.0235063917934894
1770450065018,0.04144287109375,-0.1444244384765625,-0.9738616943359376,-0.0076613817363977,-0.0105631621554493,-0.0198562629520893
1770450065028,0.04644775390625,-0.1464996337890625,-0.9747314453125,-0.0152343465015292,-0.0078541943803429,-0.0151770887896418
1770450065038,0.0503692626953125,-0.150299072265625,-0.9758453369140624,-0.0220634900033473,-0.0035515916533768,-0.0074944016523659
1770450065048,0.052520751953125,-0.1518707275390625,-0.9806365966796876,-0.0251684691756963,0.0004735100374091,-0.0072155687958002
1770450065058,0.0504608154296875,-0.1505889892578125,-0.985198974609375,-0.021360682323575,0.0034320156555622,-0.0022104235831648
1770450065068,0.0496673583984375,-0.1505279541015625,-0.989593505859375,-0.018843462690711,0.0024122912436723,-0.0051838429644703
1770450065078,0.0440826416015625,-0.1458892822265625,-0.9905548095703124,-0.0158732384443283,-0.0028916602022945,-0.0100968424230813
1770450065088,0.040985107421875,-0.145660400390625,-0.9925079345703124,-0.0136644132435321,-0.0095226652920246,-0.011125355027616
1770450065098,0.042938232421875,-0.1598663330078125,-0.9927825927734376,-0.0133046200498938,-0.0074560521170496,0.0042384206317365
1770450065108,0.0527191162109375,-0.1619415283203125,-0.9930877685546876,-0.0028418591246008,-0.0090206591412425,0.0050083408132195
1770450065118,0.0462493896484375,-0.133026123046875,-0.986907958984375,7.643271965207532e-05,-0.0073788203299045,-0.0073993266560137
1770450065128,0.033172607421875,-0.1234130859375,-0.9844512939453124,-0.0052717272192239,0.0081724422052502,-0.0279027372598648
1770450065138,0.034149169921875,-0.1522064208984375,-0.998992919921875,0.014822089113295,0.000147805432789,-0.0267405342310667
1770450065148,0.03680419921875,-0.13909912109375,-1.0031890869140625,0.0245652645826339,-0.0122611932456493,-0.0324181281030178
1770450065158,0.034210205078125,-0.1380767822265625,-0.9922027587890624,0.0186482518911361,-0.0145216844975948,-0.0305589735507965
1770450065168,0.046630859375,-0.160400390625,-0.9866180419921876,0.0199236404150724,-0.0028929917607456,-0.0175909772515296
1770450065178,0.0570831298828125,-0.176116943359375,-0.980377197265625,0.0087372986599802,0.0033169670496135,0.0129458922892808
1770450065188,0.0699005126953125,-0.1779937744140625,-0.97052001953125,0.0093634082004427,-6.391586794052273e-05,0.0157994702458381
1770450065198,0.052001953125,-0.136932373046875,-0.9666290283203124,0.0125679895281791,0.0175552908331155,-0.0175132136791944
1770450065209,0.0225372314453125,-0.1172027587890625,-0.97003173828125,-0.0011102718999609,0.0378096960484981,-0.0461888015270233
1770450065219,0.01806640625,-0.1274566650390625,-0.97686767578125,-0.0102118914946913,0.0125866318121552,-0.0549852214753627
1770450065230,0.0274505615234375,-0.138641357421875,-0.9859619140625,-0.0077375480905175,-0.007464041467756,-0.0474199801683425
1770450065239,0.0397491455078125,-0.146392822265625,-0.997711181640625,0.0007776430575177,-0.0144809382036328,-0.0353800952434539
1770450065249,0.0484466552734375,-0.1512298583984375,-0.9984893798828124,-0.000876446312759,-0.0170996244996786,-0.0216243360191583
1770450065259,0.0608978271484375,-0.1601409912109375,-0.9803466796875,-0.0149014517664909,-0.0085748462006449,-0.0067593692801892
1770450065269,0.0673828125,-0.1627349853515625,-0.9682464599609376,-0.0310516599565744,0.0067684240639209,0.0038077877834439
1770450065279,0.0609283447265625,-0.1609039306640625,-0.9670562744140624,-0.0426531881093978,0.0184120312333107,0.0054845139384269
1770450065289,0.051239013671875,-0.1552276611328125,-0.9685516357421876,-0.0524594783782959,0.0263597015291452,0.0074424697086215
1770450065299,0.046234130859375,-0.148284912109375,-0.9740142822265624,-0.0532509721815586,0.0358898229897022,0.0030237531755119
1770450065309,0.0392303466796875,-0.141998291015625,-0.98651123046875,-0.0451821237802505,0.0322857685387134,-0.0042789010331034
1770450065319,0.03662109375,-0.140167236328125,-0.9991455078125,-0.0280785057693719,0.023132748901844,-0.0089881690219044
1770450065329,0.039306640625,-0.1420135498046875,-1.010650634765625,-0.0085157239809632,0.011044661514461,-0.0119195096194744
1770450065339,0.043426513671875,-0.149139404296875,-1.0146484375,0.0099458415061235,0.0011110707418993,-0.0083109270781278
1770450065349,0.0478515625,-0.15264892578125,-1.0098876953125,0.0206450913101434,0.003533215727657,-0.0008804410463199
1770450065359,0.0507659912109375,-0.1513214111328125,-0.995849609375,0.024892034009099,0.0082334289327263,0.0080552631989121
1770450065369,0.050933837890625,-0.1554412841796875,-0.9868316650390624,0.0245809759944677,0.0115197692066431,0.0111309476196765
1770450065379,0.0481719970703125,-0.1559906005859375,-0.983489990234375,0.0237101223319768,0.0092060156166553,0.010187922976911
1770450065389,0.0417938232421875,-0.140899658203125,-0.9783782958984376,0.0168306455016136,0.0054251253604888,0.0016839167801663
1770450065399,0.03509521484375,-0.138641357421875,-0.9681854248046876,0.0004564658156596,0.0067644291557371,-0.0046626622788608
1770450065410,0.0318450927734375,-0.135711669921875,-0.9632568359375,-0.0117243006825447,0.0108614359050989,-0.0144180878996849
1770450065419,0.0327301025390625,-0.1356048583984375,-0.966400146484375,-0.0237854905426502,0.0119168469682335,-0.0176247991621494
1770450065430,0.0384368896484375,-0.1427764892578125,-0.9694366455078124,-0.0299429856240749,0.0099056279286742,-0.0211026221513748
1770450065440,0.0431365966796875,-0.14593505859375,-0.9763336181640624,-0.0302292741835117,0.0118108531460165,-0.0161456800997257
1770450065450,0.05010986328125,-0.148345947265625,-0.9794464111328124,-0.0276468079537153,0.0124979484826326,-0.0131008885800838
1770450065460,0.05157470703125,-0.146514892578125,-0.9851226806640624,-0.0253588855266571,0.0087058739736676,-0.0081647187471389
1770450065470,0.0507659912109375,-0.1462554931640625,-0.9887847900390624,-0.0239532701671123,-1.145159239968052e-05,-0.0081444792449474
1770450065480,0.0487823486328125,-0.1454315185546875,-0.987640380859375,-0.0297576300799846,0.0005699164466932,-0.0089759184047579
1770450065490,0.04962158203125,-0.1445159912109375,-0.981597900390625,-0.0335923135280609,0.0087263798341155,-0.0044573326595127
1770450065500,0.049591064453125,-0.1446075439453125,-0.9813385009765624,-0.0338674187660217,0.0177659466862678,-0.0040152478031814
1770450065510,0.0487060546875,-0.146484375,-0.9878997802734376,-0.0327800512313842,0.0174804572016,-0.0035119105596095
1770450065520,0.0509490966796875,-0.147491455078125,-0.99200439453125,-0.0287925004959106,0.0133102126419544,0.0002436792419757
1770450065530,0.0553741455078125,-0.147857666015625,-0.9936370849609376,-0.0209071468561887,0.0156716369092464,0.0037265613209456
1770450065540,0.0549163818359375,-0.1475067138671875,-0.9982147216796876,-0.0107738180086016,0.0131956972181797,0.0067356671206653
1770450065550,0.053955078125,-0.145294189453125,-1.0027313232421875,0.0028732845094054,0.009075254201889,0.0074363448657095
1770450065560,0.0519256591796875,-0.148345947265625,-1.0037994384765625,0.0123951509594917,0.0034405377227813,0.0104260090738534
1770450065570,0.0518035888671875,-0.1488037109375,-0.9999542236328124,0.0185587704181671,0.0049438923597335,0.0117394803091883
1770450065580,0.0483245849609375,-0.146575927734375,-0.99298095703125,0.0174202695488929,0.008617190644145,0.0143243446946144
1770450065590,0.048309326171875,-0.1473541259765625,-0.9873199462890624,0.0153251606971025,0.0084736458957195,0.0158793646842241
1770450065600,0.0458221435546875,-0.1464691162109375,-0.986602783203125,0.0124454842880368,0.0054488275200128,0.0136508308351039
1770450065610,0.04339599609375,-0.1447906494140625,-0.9865570068359376,0.0134337833151221,0.0041337586008012,0.0096414424479007
1770450065620,0.04541015625,-0.1430206298828125,-0.98529052734375,0.0125940889120101,0.0022884542122483,0.0071244887076318
1770450065630,0.043975830078125,-0.1449737548828125,-0.9838409423828124,0.0114119118079543,-2.6631610694494157e-07,0.0065180868841707
1770450065641,0.0484466552734375,-0.1452178955078125,-0.9828338623046876,0.0116305574774742,0.0012903015594929,0.0102174840867519
1770450065651,0.052978515625,-0.1490020751953125,-0.98321533203125,0.0115410750731825,-0.0002484729338902,0.0121757062152028
1770450065661,0.0512542724609375,-0.1516265869140625,-0.9841766357421876,0.0085090659558773,-0.0004974784678779,0.0157222375273704
1770450065671,0.0521087646484375,-0.151580810546875,-0.9855804443359376,0.0055351140908896,-0.0043044672347605,0.0189167000353336
1770450065681,0.051361083984375,-0.1491241455078125,-0.980560302734375,-0.001055677072145,0.0011904330458492,0.0181313324719667
1770450065691,0.04974365234375,-0.147369384765625,-0.9777679443359376,-0.0038293593097478,0.0136500317603349,0.0195827558636665
1770450065701,0.0463714599609375,-0.147308349609375,-0.9811553955078124,-0.0075255604460835,0.0180383883416652,0.0240813679993152
1770450065711,0.047698974609375,-0.1489105224609375,-0.9836883544921876,-0.0096473013982176,0.0219750739634037,0.0224765464663505
1770450065721,0.0440216064453125,-0.1487579345703125,-0.98773193359375,-0.0101786013692617,0.0220280699431896,0.0191190987825393
1770450065731,0.0434722900390625,-0.145965576171875,-0.9879302978515624,-0.0093245254829525,0.0098720714449882,0.0173113457858562
1770450065741,0.0415496826171875,-0.146331787109375,-0.985137939453125,-0.0111519871279597,0.0121053988113999,0.0127725200727581
1770450065751,0.03778076171875,-0.1434173583984375,-0.9813232421875,-0.0125874308869242,0.0152982622385025,0.0072368737310171
1770450065761,0.0393524169921875,-0.1445770263671875,-0.98284912109375,-0.0141850607469677,0.0219244733452796,0.0068107680417597
1770450065771,0.0447845458984375,-0.1582794189453125,-0.9879150390625,-0.0105122961103916,0.0135200694203376,0.0106438556686043
1770450065781,0.0532989501953125,-0.1525115966796875,-0.991302490234375,-0.0040450752712786,0.0031036478467285,0.0068970546126365
1770450065791,0.0439910888671875,-0.1323089599609375,-0.988311767578125,-0.0039912792854011,0.0012333098566159,-0.0058672102168202
1770450065801,0.038482666015625,-0.135528564453125,-0.990020751953125,0.001725462032482,0.0182719472795724,-0.0123389577493071
1770450065811,0.04150390625,-0.142822265625,-1.0007476806640625,0.0244113337248563,0.0131173999980092,-0.023855797946453
1770450065821,0.0384521484375,-0.1328887939453125,-0.9993743896484376,0.0278798341751098,-0.0119397500529885,-0.0287075452506542
1770450065831,0.045867919921875,-0.145263671875,-0.98931884765625,0.0246267821639776,-0.0020953752100467,-0.0258041657507419
1770450065841,0.0544586181640625,-0.16229248046875,-0.982818603515625,0.0143853304907679,0.0116840861737728,-0.0021603561472147
1770450065852,0.074127197265625,-0.1786956787109375,-0.971221923828125,0.0081087928265333,0.003760915948078,0.0242475494742393
1770450065861,0.074462890625,-0.1540679931640625,-0.9639739990234376,0.0022327941842377,0.0234512630850076,0.0157549940049648
1770450065871,0.048370361328125,-0.1315155029296875,-0.967926025390625,-0.0010634001810103,0.0386762879788875,-0.0005832322640344
1770450065882,0.0355377197265625,-0.133392333984375,-0.978851318359375,-0.0069314092397689,0.0197723731398582,-0.0099048288539052
1770450065892,0.03985595703125,-0.14349365234375,-0.99072265625,-0.0041390848346054,-0.0036144421901553,-0.0051231230609118
1770450065902,0.043914794921875,-0.145294189453125,-1.0018157958984375,0.0040938113816082,-0.0152617767453193,-0.0039683762006461
1770450065912,0.0471954345703125,-0.14776611328125,-1.0011749267578125,0.0053436327725648,-0.0190117750316858,0.0042314967140555
1770450065922,0.0525970458984375,-0.1570587158203125,-0.9845428466796876,-0.0069713569246232,-0.0172141399234533,0.0148231545463204
1770450065932,0.057373046875,-0.1643829345703125,-0.9678497314453124,-0.0220919866114854,-0.004718855023384,0.025490179657936
1770450065942,0.057586669921875,-0.1638336181640625,-0.961181640625,-0.0377567000687122,0.0101666171103715,0.0285243187099695
1770450065952,0.0526123046875,-0.1592559814453125,-0.96282958984375,-0.0470990687608718,0.0195337533950805,0.027998611330986
1770450065962,0.0434417724609375,-0.1515350341796875,-0.9711456298828124,-0.048038899898529,0.0197225715965032,0.0217668134719133
1770450065972,0.03424072265625,-0.1427154541015625,-0.978271484375,-0.0437730476260185,0.0182133577764034,0.0107469204813241
1770450065982,0.0278778076171875,-0.1360015869140625,-0.989959716796875,-0.0304572414606809,0.0129520175978541,-0.0009158611064776
1770450065992,0.029632568359375,-0.136505126953125,-0.9988250732421876,-0.0142452483996748,0.000517185893841,-0.0091956285759806
1770450066002,0.0377349853515625,-0.1436767578125,-1.0052642822265625,0.0009105347562581,-0.0161456800997257,-0.0075410068966448
1770450066012,0.0454864501953125,-0.1527252197265625,-1.005096435546875,0.0130726583302021,-0.0236765667796134,-0.0013840447645634
1770450066022,0.053131103515625,-0.15570068359375,-0.9931793212890624,0.0091562140733003,-0.0202003438025712,0.0073122414760291
1770450066032,0.05584716796875,-0.1557159423828125,-0.980224609375,0.0004838963795918,-0.0092281196266412,0.0137072904035449
1770450066042,0.0546417236328125,-0.1602783203125,-0.9763641357421876,-0.005714344792068,-0.002273806836456,0.0188527833670377
1770450066052,0.0546112060546875,-0.1455230712890625,-0.974517822265625,-0.0106361331418156,0.0056360475718975,0.0128172617405653
1770450066063,0.0441131591796875,-0.1309051513671875,-0.9736785888671876,-0.013685718178749,0.0101996408775448,-0.0029803435318171
1770450066073,0.0295257568359375,-0.1255950927734375,-0.9854736328125,-0.0098334560170769,-0.0021212077699601,-0.0196685101836919
1770450066083,0.0297393798828125,-0.12799072265625,-0.9917449951171876,-0.0108936605975031,-0.0060754693113267,-0.0243327692151069
1770450066093,0.045501708984375,-0.1414642333984375,-0.99102783203125,-0.0079234363511204,-0.0108846053481101,-0.0220730770379304
1770450066103,0.05181884765625,-0.14398193359375,-0.9938812255859376,-0.002085521351546,-0.0146513804793357,-0.0147286122664809
1770450066113,0.0588226318359375,-0.14630126953125,-0.9943695068359376,-2.7430558475316506e-05,-0.0149653675034642,-0.0049606701359152
1770450066123,0.0639801025390625,-0.1503448486328125,-0.9910736083984376,0.0051987566985189,-0.0046432213857769,0.0064046359620988
1770450066133,0.066619873046875,-0.1549224853515625,-0.9861297607421876,0.0028077706228941,0.0089681949466466,0.01786102168262
1770450066143,0.0641937255859375,-0.15887451171875,-0.98272705078125,-0.0006796387024223,0.0251327827572822,0.0245466213673353
1770450066153,0.055938720703125,-0.1525115966796875,-0.9795379638671876,-0.000221042369958,0.0163177195936441,0.0277669169008731
1770450066163,0.0497283935546875,-0.1501922607421875,-0.98126220703125,0.0031507858075201,0.0144385937601327,0.0252925734966993
1770450066173,0.0418701171875,-0.148040771484375,-0.981048583984375,0.0010588727891445,0.0157568585127592,0.0181521065533161
1770450066183,0.0354156494140625,-0.14410400390625,-0.9801025390625,-0.0059375176206231,0.0065529742278158,0.0080344909802079
1770450066193,0.036041259765625,-0.1422271728515625,-0.9773101806640624,-0.0134950364008545,0.0013403689954429,-0.0024106933269649
1770450066203,0.035491943359375,-0.14239501953125,-0.9739227294921876,-0.0261634271591901,0.0033153691329061,-0.0078704403713345
1770450066213,0.0350341796875,-0.14495849609375,-0.971038818359375,-0.0378192849457263,0.0099695436656475,-0.0114108463749289
1770450066223,0.0381622314453125,-0.1471099853515625,-0.9746246337890624,-0.0427072495222091,0.0110792824998497,-0.0124382935464382
1770450066233,0.0417938232421875,-0.14862060546875,-0.97930908203125,-0.0443088747560977,0.0080699110403656,-0.0145381959155201
1770450066243,0.0420379638671875,-0.1446075439453125,-0.9815826416015624,-0.043873980641365,0.0110180303454399,-0.0182538386434316
1770450066253,0.041229248046875,-0.1445465087890625,-0.9853973388671876,-0.040174052119255,0.01464126072824,-0.021124193444848
1770450066263,0.04241943359375,-0.1439056396484375,-0.9853057861328124,-0.0390608496963977,0.0111783519387245,-0.01975879073143
1770450066273,0.044189453125,-0.1436614990234375,-0.986724853515625,-0.0310135763138532,0.0134502947330474,-0.0195119157433509
1770450066283,0.0430908203125,-0.1426849365234375,-0.993804931640625,-0.0203444194048643,0.0127219203859567,-0.0215420443564653
1770450066293,0.0443572998046875,-0.1428375244140625,-0.9991455078125,-0.0111642377451062,0.0056051551364362,-0.0238869562745094
1770450066304,0.04376220703125,-0.1401824951171875,-0.9931640625,-0.0062246061861515,0.0122012728825211,-0.0272619817405939
1770450066314,0.0435333251953125,-0.139862060546875,-0.9883270263671876,-0.0076952041126787,0.0095096156001091,-0.0316772349178791
1770450066324,0.0441741943359375,-0.140289306640625,-0.9829254150390624,-0.0119125861674547,0.0085298381745815,-0.0336884558200836
1770450066334,0.04364013671875,-0.1410064697265625,-0.982452392578125,-0.0105173559859395,0.0199526697397232,-0.0368677377700805
1770450066344,0.0433807373046875,-0.14056396484375,-0.9862060546875,-0.0074248928576707,0.0139951780438423,-0.0301563050597906
1770450066354,0.0552978515625,-0.1439971923828125,-0.98675537109375,-0.0112795522436499,0.0088606029748916,-0.0240283701568841
1770450066364,0.0573272705078125,-0.14984130859375,-0.98626708984375,-0.0035284222103655,0.011804461479187,-0.0225284788757562
1770450066374,0.0510711669921875,-0.1454315185546875,-0.993377685546875,-0.000113716974738,0.0072656362317502,-0.019438412040472
1770450066384,0.054290771484375,-0.14697265625,-0.989959716796875,-0.0050778491422533,0.0030357372015714,-0.0184213519096374
1770450066394,0.0502166748046875,-0.1458740234375,-0.9831390380859376,-0.0075343488715589,0.0056743971072137,-0.0187217555940151
1770450066404,0.0469512939453125,-0.14312744140625,-0.9802703857421876,-0.0123568009585142,0.0053212619386613,-0.0217079576104879
1770450066414,0.04071044921875,-0.1424102783203125,-0.9766693115234376,-0.0190296173095703,0.0066925236023962,-0.0284156631678342
1770450066424,0.0414581298828125,-0.150604248046875,-0.9766845703125,-0.0249082800000906,0.0068501830101013,-0.0237018670886755
1770450066434,0.050628662109375,-0.154083251953125,-0.981658935546875,-0.0208783838897943,0.0072965286672115,-0.0208341758698225
1770450066444,0.0475311279296875,-0.1329803466796875,-0.985382080078125,-0.017160078510642,0.0077700386755168,-0.0289325825870037
1770450066454,0.0372314453125,-0.1202392578125,-0.9845123291015624,-0.0179827287793159,0.0050650658085942,-0.0434891544282436
1770450066464,0.0377960205078125,-0.1380157470703125,-0.98785400390625,-0.0054826498962938,0.0016120113432407,-0.0479928255081176
1770450066474,0.040130615234375,-0.1357421875,-0.996856689453125,-0.0019126823171973,-0.0259040351957082,-0.0626801624894142
1770450066484,0.0376434326171875,-0.1257781982421875,-0.9823455810546876,-0.0202171206474304,-0.015801066532731,-0.06540297716856
1770450066494,0.0659942626953125,-0.1644134521484375,-0.9710845947265624,-0.0381575040519237,0.0139714758843183,-0.0310516599565744
1770450066504,0.0836029052734375,-0.197174072265625,-0.97076416015625,-0.0554613955318927,0.0272971354424953,0.0183158908039331
1770450066515,0.0962982177734375,-0.2005767822265625,-0.9698486328125,-0.0660551860928535,0.0288715958595275,0.0494120232760906
1770450066525,0.0804443359375,-0.156707763671875,-0.9716033935546876,-0.0663718357682228,0.0479238480329513,0.0356967449188232
1770450066535,0.036224365234375,-0.1130218505859375,-0.975067138671875,-0.0572174824774265,0.0679393708705902,-0.002102033002302
1770450066545,0.0097503662109375,-0.1080780029296875,-0.9904937744140624,-0.037606231868267,0.0553215779364109,-0.0278995409607887
1770450066555,0.0084686279296875,-0.1152191162109375,-1.0152740478515625,-0.0059194080531597,0.0081359567120671,-0.0467376783490181
1770450066565,0.0100250244140625,-0.1175689697265625,-1.0247039794921875,0.0233820211142301,-0.0223095659166574,-0.0569759346544742
1770450066575,0.0243377685546875,-0.1228485107421875,-1.0189208984375,0.0398006774485111,-0.0253626145422458,-0.0578521154820919
1770450066585,0.0454254150390625,-0.138885498046875,-1.004791259765625,0.0439698547124862,-0.0274049919098615,-0.0469738990068435
1770450066595,0.0660552978515625,-0.153594970703125,-0.983642578125,0.0387260913848876,-0.0259652882814407,-0.0328367762267589
1770450066605,0.0684356689453125,-0.1534271240234375,-0.97430419921875,0.0342301428318023,-0.0173379778861999,-0.0305800139904022
1770450066615,0.071685791015625,-0.1504058837890625,-0.9656219482421876,0.0273650456219911,0.0037289580795913,-0.0273682419210672
1770450066625,0.0679779052734375,-0.14483642578125,-0.96124267578125,0.0195603854954242,0.0154636446386575,-0.0293152779340744
1770450066635,0.052093505859375,-0.1340179443359375,-0.963592529296875,0.0162679199129343,0.0173369124531745,-0.0369489639997482
1770450066645,0.0433807373046875,-0.1244964599609375,-0.974151611328125,0.0090851075947284,0.0123344305902719,-0.0458926558494567
1770450066655,0.043121337890625,-0.123016357421875,-0.9828033447265624,0.0039454731158912,0.0059652146883308,-0.0500285476446151
1770450066665,0.0493316650390625,-0.1249847412109375,-0.9898681640625,0.0009757822263054,-0.0013081447687,-0.0492349229753017
1770450066675,0.0566253662109375,-0.131256103515625,-0.995025634765625,0.0052288505248725,-0.0135722681879997,-0.0407796539366245
1770450066685,0.0663299560546875,-0.136505126953125,-0.99755859375,0.0046797064132988,-0.0219463109970092,-0.0316239707171916
1770450066695,0.07354736328125,-0.145904541015625,-0.996002197265625,0.0089215897023677,-0.0200498737394809,-0.0124249784275889
1770450066705,0.0822906494140625,-0.14959716796875,-0.9949188232421876,0.0168053451925516,-0.008488293737173,0.0017603494925424
1770450066715,0.0747528076171875,-0.1389617919921875,-0.990081787109375,0.0185166932642459,0.0043217777274549,0.0090171974152326
1770450066726,0.070068359375,-0.1421966552734375,-0.98681640625,0.0160902868956327,0.0013206616276875,0.0128777157515287
1770450066736,0.0661468505859375,-0.1435089111328125,-0.982818603515625,0.0064578992314636,0.0027198863681405,0.0192914064973592
1770450066746,0.065673828125,-0.1506195068359375,-0.9787750244140624,-0.005951898638159,0.0004301005101297,0.0311017259955406
1770450066756,0.06597900390625,-0.1548004150390625,-0.9752044677734376,-0.0146132977679371,0.0032415995374321,0.0425083115696907
1770450066766,0.0591888427734375,-0.148284912109375,-0.97528076171875,-0.0214570891112089,0.0113714318722486,0.0439211204648017
1770450066776,0.0517730712890625,-0.145660400390625,-0.97601318359375,-0.0262281410396099,0.0178018994629383,0.0422960594296455
1770450066786,0.0487060546875,-0.14404296875,-0.9799652099609376,-0.0273128468543291,0.0170016195625066,0.0365460254251956
1770450066796,0.0481109619140625,-0.1421356201171875,-0.9818267822265624,-0.0265751518309116,0.0136212697252631,0.0331576876342296
1770450066806,0.0426483154296875,-0.1428985595703125,-0.9897308349609376,-0.0212837178260087,0.0090864393860101,0.0254784617573022
1770450066816,0.0404815673828125,-0.1423187255859375,-0.991119384765625,-0.019815782085061,0.0081372885033488,0.0199159178882837
1770450066826,0.0413360595703125,-0.1399078369140625,-0.986572265625,-0.0194703713059425,0.0105916578322649,0.0135698709636926
1770450066836,0.0405120849609375,-0.1397552490234375,-0.9836273193359376,-0.0177270658314228,0.0112119084224104,0.0084664551541209
1770450066846,0.0434112548828125,-0.14556884765625,-0.98529052734375,-0.0185092352330684,0.0107003152370452,0.0112316152080893
1770450066856,0.0483856201171875,-0.14471435546875,-0.990142822265625,0.0003464772598817,-0.0161587297916412,0.0083801690489053
1770450066866,0.0471038818359375,-0.147003173828125,-1.0042877197265625,-0.0040623857639729,-0.0141389882192015,0.0049047437496483
1770450066876,0.04608154296875,-0.1357421875,-0.982757568359375,-0.0078195733949542,0.0029917950741946,0.0031254857312887
1770450066886,0.0508270263671875,-0.1424407958984375,-0.9787750244140624,-0.0063955811783671,0.0106955207884311,0.0117325559258461
1770450066896,0.05303955078125,-0.143951416015625,-0.98480224609375,-0.0015584818320348,0.0165318381041288,0.0114169716835021
1770450066906,0.0479583740234375,-0.1395721435546875,-0.99102783203125,0.0065673552453517,0.0144572360441088,0.0124665228649973
1770450066916,0.047119140625,-0.1400146484375,-0.99102783203125,0.0061281998641788,0.0043257726356387,0.0109035139903426
1770450066927,0.0497283935546875,-0.143646240234375,-0.9874114990234376,-0.0010668623726814,-0.0070794811472296,0.0107485176995396
1770450066937,0.048248291015625,-0.1429443359375,-0.9775390625,-0.0101809985935688,0.0010077401529997,0.0080488715320825
1770450066947,0.0471343994140625,-0.1438751220703125,-0.974090576171875,-0.0186951234936714,0.008993761613965,0.0093274554237723
1770450066957,0.0496978759765625,-0.148101806640625,-0.976593017578125,-0.0221388582140207,0.0126412268728017,0.0105383945629
1770450066967,0.0511474609375,-0.1474456787109375,-0.9818572998046876,-0.0199484080076217,0.0109597072005271,0.0104494448751211
1770450066977,0.0490264892578125,-0.145050048828125,-0.98968505859375,-0.0154407415539026,0.0038501319941133,0.0090289153158664
1770450066987,0.0474853515625,-0.138336181640625,-0.9943084716796876,-0.0084238443523645,0.0005869606975466,0.0006005428149364
1770450066997,0.043914794921875,-0.1357421875,-0.9958038330078124,-0.0014495585346594,-0.0046621295623481,-0.0065223476849496
1770450067007,0.042938232421875,-0.1358795166015625,-0.993927001953125,0.0025414545089006,-0.0078241005539894,-0.0110486559569835
1770450067017,0.04364013671875,-0.139312744140625,-0.9906158447265624,0.0038882151711732,-0.0086467517539858,-0.0130649358034133
1770450067027,0.048004150390625,-0.139678955078125,-0.9867401123046876,0.004121774341911,-0.0059630838222801,-0.0169608741998672
1770450067037,0.0472869873046875,-0.142486572265625,-0.9828338623046876,0.0012002866715192,-0.0016018913593143,-0.0159374214708805
1770450067047,0.0496368408203125,-0.1416778564453125,-0.9810333251953124,-0.0028644960839301,0.0051292483694851,-0.0179427806288003
1770450067057,0.049163818359375,-0.14007568359375,-0.983642578125,-0.0056506949476897,0.0071196947246789,-0.0176266636699438
1770450067067,0.052032470703125,-0.1409912109375,-0.9833831787109376,-0.0063780043274164,0.0071516525931656,-0.0156929437071084
1770450067077,0.055267333984375,-0.1434326171875,-0.986175537109375,-0.0037633129395544,0.0052038165740668,-0.0112388059496879
1770450067087,0.0520782470703125,-0.1509857177734375,-0.991363525390625,0.0010471548885107,0.0068456553854048,-0.0034804851748049
1770450067097,0.0587310791015625,-0.1594085693359375,-0.99456787109375,0.0102156195789575,-0.0025409220252186,0.0032642364967614
1770450067107,0.0556488037109375,-0.1370697021484375,-0.9900970458984376,0.0110385362058877,-0.0050149988383054,-0.001440503867343
1770450067117,0.043121337890625,-0.1245269775390625,-0.984405517578125,0.0129136675968766,-0.0100326603278517,-0.0183782074600458
1770450067127,0.03326416015625,-0.134979248046875,-0.990386962890625,0.0149962604045867,-0.0130865070968866,-0.0237705763429403
1770450067137,0.0381011962890625,-0.132080078125,-0.989288330078125,0.0157038625329732,-0.0135775944218039,-0.0375790670514106
1770450067148,0.033721923828125,-0.1278228759765625,-0.9802398681640624,0.0098406467586755,-0.0124595994129776,-0.0445520207285881
1770450067158,0.0474395751953125,-0.1477203369140625,-0.9811859130859376,0.0090488884598016,-0.0118763670325279,-0.031031684949994
1770450067168,0.0625762939453125,-0.16864013671875,-0.9827728271484376,0.0089104045182466,-0.0092843119055032,0.0001635180960875
1770450067178,0.078399658203125,-0.1735992431640625,-0.9739532470703124,0.0066722836345434,-0.0006687197601422,0.0131845111027359
1770450067188,0.06683349609375,-0.1334686279296875,-0.966949462890625,0.0152702992781996,0.0282209850847721,-0.0057156761176884
1770450067198,0.0395355224609375,-0.107818603515625,-0.96649169921875,0.014135792851448,0.0476442165672779,-0.0291610807180404
1770450067208,0.03106689453125,-0.1222076416015625,-0.9699554443359376,0.0067985174246132,0.0231157056987285,-0.0284100696444511
1770450067218,0.0420989990234375,-0.141326904296875,-0.976593017578125,0.0120936809107661,-0.0242273081094026,-0.0143206156790256
1770450067228,0.045806884765625,-0.1456451416015625,-0.9868316650390624,0.0138865206390619,-0.0352245643734931,-0.0058826566673815
1770450067238,0.0428466796875,-0.143951416015625,-0.986907958984375,0.0030543794855475,-0.0312921442091465,-0.0042059300467371
1770450067248,0.041290283203125,-0.1443939208984375,-0.97186279296875,-0.0144881289452314,-0.0343174934387207,-0.0100797982886433
1770450067258,0.0389862060546875,-0.1406707763671875,-0.95831298828125,-0.034223485738039,-0.027273166924715,-0.0200778376311063
1770450067268,0.03668212890625,-0.1365509033203125,-0.9602813720703124,-0.0440212525427341,-0.0162181183695793,-0.0324508845806121
1770450067278,0.0345306396484375,-0.1371612548828125,-0.9744720458984376,-0.0423921979963779,-0.0145717523992061,-0.0438327006995677
1770450067288,0.03424072265625,-0.1351165771484375,-0.9881744384765624,-0.0321105308830738,-0.016679111868143,-0.0540483221411705
1770450067298,0.038238525390625,-0.1302337646484375,-0.99609375,-0.0246848408132791,-0.0202677212655544,-0.0615802742540836
1770450067308,0.0455169677734375,-0.1269378662109375,-1.0025482177734375,-0.0179140195250511,-0.0238595269620418,-0.0627057254314422
1770450067318,0.0565338134765625,-0.1323394775390625,-1.0083770751953125,-0.0044810348190367,-0.0362450890243053,-0.0637105330824852
1770450067328,0.05828857421875,-0.138031005859375,-1.0168304443359375,0.0018237327458336,-0.0657180249691009,-0.0588308274745941
1770450067338,0.06732177734375,-0.1376190185546875,-1.014068603515625,0.0092515554279088,-0.0550278313457965,-0.0528504326939582
1770450067349,0.0797882080078125,-0.1490020751953125,-1.0053253173828125,0.0159997399896383,-0.0253000296652317,-0.0367758572101593
1770450067358,0.081939697265625,-0.157562255859375,-0.999542236328125,0.026876887306571,-0.0020224044565111,-0.0094619449228048
1770450067369,0.0839691162109375,-0.1575927734375,-1.00018310546875,0.0325265191495418,0.0099724726751446,0.0103905890136957
1770450067379,0.07769775390625,-0.1531524658203125,-0.9966888427734376,0.0299238096922636,0.0110867395997047,0.0298974458128213
1770450067389,0.0774383544921875,-0.1554718017578125,-0.9949798583984376,0.0235663130879402,0.0091671328991651,0.0417525060474872
1770450067399,0.0696563720703125,-0.154388427734375,-0.994171142578125,0.0226376671344041,0.0111746238544583,0.0431562587618827
1770450067409,0.0594482421875,-0.1499481201171875,-0.989105224609375,0.0210450980812311,0.0116217685863375,0.0380610972642898
1770450067419,0.0505523681640625,-0.140472412109375,-0.9799041748046876,0.0179536994546651,0.0170074794441461,0.0260963160544633
1770450067429,0.0425872802734375,-0.13818359375,-0.97625732421875,0.016626913100481,0.0215186085551977,0.0213292576372623
1770450067439,0.042144775390625,-0.141754150390625,-0.97711181640625,0.0141815990209579,0.0196061916649341,0.0212810542434453
1770450067449,0.0418243408203125,-0.1433868408203125,-0.9784088134765624,0.0130279175937175,0.015205318108201,0.0197300296276807
1770450067459,0.0408782958984375,-0.1422271728515625,-0.9784393310546876,0.0079886838793754,0.0130316456779837,0.0158617869019508
1770450067469,0.0425567626953125,-0.141937255859375,-0.9757080078125,0.0003494067350402,0.0094046872109174,0.0153432702645659
1770450067479,0.0449981689453125,-0.141082763671875,-0.970672607421875,-0.0079117184504866,0.0133485626429319,0.0122310994192957
1770450067489,0.044097900390625,-0.137054443359375,-0.9682769775390624,-0.0131879737600684,0.0192003268748521,0.0059649483300745
1770450067499,0.04144287109375,-0.1385650634765625,-0.9727630615234376,-0.0191704984754323,0.0182588994503021,0.004250671248883
1770450067509,0.04449462890625,-0.143341064453125,-0.9768829345703124,-0.027598338201642,0.0130588104948401,0.0084936199709773
1770450067519,0.04962158203125,-0.14532470703125,-0.980010986328125,-0.0283059403300285,0.0122026037424802,0.0129679962992668
1770450067529,0.050018310546875,-0.142333984375,-0.986663818359375,-0.0253855176270008,0.0128513500094413,0.0154926730319857
1770450067539,0.0501861572265625,-0.1422271728515625,-0.992156982421875,-0.0227194279432296,0.0073372749611735,0.0207114033401012
1770450067549,0.052459716796875,-0.1459503173828125,-0.993194580078125,-0.020266655832529,0.003589941188693,0.0232294220477342
1770450067559,0.052978515625,-0.1474456787109375,-0.992431640625,-0.018148111179471,-0.0004607268783729,0.0270752925425767
1770450067569,0.0507354736328125,-0.1473236083984375,-0.9923095703125,-0.0149043807759881,-0.0018711369484663,0.0294529628008604
1770450067580,0.0477294921875,-0.14752197265625,-0.991851806640625,-0.0099831251427531,-0.0041337586008012,0.0305134337395429
1770450067590,0.0442047119140625,-0.1452789306640625,-0.9920806884765624,-0.0047638625837862,-0.0018500980222597,0.0311504621058702
1770450067600,0.03875732421875,-0.14208984375,-0.9941864013671876,0.0069982544519007,-0.0043089943937957,0.0206594727933406
1770450067610,0.03228759765625,-0.1363067626953125,-0.9987640380859376,0.0166705902665853,-0.0104686198756098,0.0088885659351944
1770450067620,0.0358734130859375,-0.137054443359375,-0.9962615966796876,0.0182839315384626,-0.0126971527934074,0.0011864382540807
1770450067630,0.0384674072265625,-0.1410064697265625,-0.993682861328125,0.0244456883519887,-0.017941715195775,-0.0057348511181771
1770450067640,0.042236328125,-0.1423187255859375,-0.9925689697265624,0.0278699807822704,-0.0189377386122941,-0.0066027753055095
1770450067650,0.042999267578125,-0.140777587890625,-0.98760986328125,0.030793597921729,-0.0176026951521635,-0.0084014739841222
1770450067660,0.044464111328125,-0.14080810546875,-0.982666015625,0.0279807671904563,-0.0146979857236146,-0.0121709126979112
1770450067670,0.0466766357421875,-0.14111328125,-0.9760589599609376,0.0217106211930513,-0.0072179655544459,-0.0129168638959527
1770450067680,0.045257568359375,-0.140472412109375,-0.9708404541015624,0.0100441118702292,-0.0061329938471317,-0.0133259249851107
1770450067690,0.0493927001953125,-0.14129638671875,-0.9644012451171876,-0.0078731030225753,0.0001275654212804,-0.0122880917042493
1770450067700,0.05084228515625,-0.142120361328125,-0.9652557373046876,-0.0235460717231035,0.0043081957846879,-0.0109586417675018
1770450067710,0.0523834228515625,-0.14141845703125,-0.9686126708984376,-0.0340157561004161,0.0058839879930019,-0.0066168899647891
1770450067720,0.0533599853515625,-0.15380859375,-0.975555419921875,-0.0427479967474937,0.0105194859206676,0.0083804354071617
1770450067730,0.0620269775390625,-0.1567535400390625,-0.983123779296875,-0.0448593497276306,0.0161475446075201,0.0168434288352727
1770450067740,0.0572052001953125,-0.132843017578125,-0.984588623046875,-0.034705251455307,0.0231636427342891,0.0115416077896952
1770450067750,0.04620361328125,-0.126190185546875,-0.9961090087890624,-0.0229905378073453,0.026528812944889,-0.0013435647124424
1770450067760,0.0391693115234375,-0.1380462646484375,-1.0117034912109375,0.0033087113406509,0.0145395277068018,-0.0040868869982659
1770450067770,0.0421142578125,-0.1332855224609375,-1.01373291015625,0.0196474716067314,-0.0103413211181759,-0.0079308934509754
1770450067781,0.046051025390625,-0.1495208740234375,-1.001739501953125,0.0171904377639293,-0.0238816309720277,-0.0034951325505971
1770450067790,0.0572662353515625,-0.159515380859375,-0.9869384765625,0.0081447456032037,-0.0139243379235267,0.0098864529281854
1770450067801,0.062896728515625,-0.1710357666015625,-0.973541259765625,-0.0049670618027448,-0.0033079122658818,0.0340778082609176
1770450067811,0.068023681640625,-0.1647796630859375,-0.9642333984375,-0.0147837400436401,0.0138452416285872,0.0333166792988777
1770450067821,0.049102783203125,-0.13360595703125,-0.9671630859375,-0.0088307755067944,0.0411240011453628,0.0050466903485357
1770450067831,0.02532958984375,-0.1200408935546875,-0.984649658203125,-0.0050898334011435,0.0239428840577602,-0.0182027053087949
1770450067841,0.023162841796875,-0.12933349609375,-0.9989471435546876,0.0024391892366111,-0.0134620126336812,-0.0245703235268592
1770450067851,0.033203125,-0.1430816650390625,-1.0067138671875,0.0105596994981169,-0.0384480580687522,-0.0207622703164815
1770450067861,0.0422210693359375,-0.144866943359375,-1.0010528564453125,0.0104244109243154,-0.0389908067882061,-0.0117927435785532
1770450067871,0.050018310546875,-0.1442108154296875,-0.980377197265625,-0.0009374326909892,-0.0223236810415983,-0.0052099418826401
1770450067881,0.05596923828125,-0.149688720703125,-0.9654388427734376,-0.0164764449000358,-0.0011217234423384,0.0038996667135506
1770450067891,0.0565948486328125,-0.1526336669921875,-0.963531494140625,-0.0286414977163076,0.0145887965336442,0.0087892301380634
1770450067901,0.0550079345703125,-0.1512298583984375,-0.971221923828125,-0.0328524895012378,0.0234533939510583,0.0141600277274847
1770450067911,0.05218505859375,-0.14849853515625,-0.9833984375,-0.0344746187329292,0.0354647822678089,0.013080115430057
1770450067921,0.0444793701171875,-0.14373779296875,-0.993194580078125,-0.0223130285739898,0.015712384134531,0.0077460701577365
1770450067931,0.0410308837890625,-0.137359619140625,-0.996612548828125,-0.0093950992450118,0.0047430898994207,0.0038930089212954
1770450067941,0.0383758544921875,-0.136505126953125,-0.9998626708984376,0.0017512947088107,0.0021491709630936,-0.0040320260450243
1770450067951,0.0370025634765625,-0.1388702392578125,-0.9986419677734376,0.00663872808218,-0.0034410704392939,-0.0068544438108801
1770450067961,0.0438995361328125,-0.1439971923828125,-0.9937744140625,0.0096201365813612,-0.0051809134893119,-0.0009153284481726
1770450067971,0.0491943359375,-0.1498870849609375,-0.9908294677734376,0.0090992227196693,-0.0028559740167111,0.0059654805809259
1770450067981,0.0511322021484375,-0.151824951171875,-0.9860076904296876,0.0049305763095617,-0.0006977482116781,0.0093564838171005
1770450067992,0.0505523681640625,-0.1563720703125,-0.9831695556640624,0.0003576625313144,-0.0005427522119134,0.0142457811161875
1770450068001,0.0503692626953125,-0.150238037109375,-0.98492431640625,0.0025481125339865,0.0076485984027385,0.008340754546225
1770450068012,0.0408477783203125,-0.1367034912109375,-0.9883880615234376,0.0049755838699638,0.0056240637786686,0.0042573292739689
1770450068022,0.037384033203125,-0.13519287109375,-0.9916534423828124,0.0112284198403358,-0.004365187138319,-0.0058554923161864
1770450068032,0.035247802734375,-0.1353607177734375,-0.996978759765625,0.0183989815413951,-0.0107743507251143,-0.016577111557126
1770450068042,0.035980224609375,-0.1392669677734375,-0.9952545166015624,0.0172682031989097,-0.0169105399399995,-0.0165627319365739
1770450068052,0.04620361328125,-0.1433563232421875,-0.9846343994140624,0.0148577755317091,-0.0104651581496,-0.0144311375916004
1770450068062,0.049774169921875,-0.14422607421875,-0.981964111328125,0.013783723115921,-0.0009384979493916,-0.011569570749998
1770450068072,0.0507965087890625,-0.1472930908203125,-0.9828338623046876,0.0148521829396486,0.0023331954143941,-0.0075173047371208
1770450068082,0.05267333984375,-0.1485137939453125,-0.9831390380859376,0.0146220857277512,0.0004367584188003,-0.003967311233282
1770450068092,0.0547027587890625,-0.14794921875,-0.9824371337890624,0.0135349836200475,0.0033182986080646,-0.0009616674506105
1770450068102,0.05657958984375,-0.1504669189453125,-0.982177734375,0.0085878958925604,0.0093990946188569,0.0070472569204866
1770450068112,0.054840087890625,-0.151031494140625,-0.9785614013671876,0.0048895636573433,0.0085570029914379,0.0078509990125894
1770450068122,0.0528717041015625,-0.1485137939453125,-0.976348876953125,0.0020919130183756,0.011355984956026,0.0082669844850897
1770450068132,0.049468994140625,-0.14642333984375,-0.97503662109375,-0.003312173532322,0.0175323877483606,0.0079274317249655
1770450068142,0.0460968017578125,-0.146728515625,-0.975860595703125,-0.0060879862867295,0.0135664092376828,0.0059500345960259
1770450068152,0.0460357666015625,-0.1453857421875,-0.9794769287109376,-0.0056320531293749,0.0142223453149199,0.004995291121304
1770450068162,0.041229248046875,-0.14434814453125,-0.9823760986328124,-0.0017723336350172,0.0078869517892599,0.0030152308754622
1770450068172,0.040313720703125,-0.1447601318359375,-0.986663818359375,0.0005664543714374,-0.0046522761695086,0.0007110640290193
1770450068182,0.0408935546875,-0.1444549560546875,-0.986602783203125,0.0008072041091509,-0.0043654534965753,-0.001400023815222
1770450068192,0.041717529296875,-0.1460113525390625,-0.9846343994140624,-0.0002748382103163,-0.0084797712042927,-0.0007510114228352
1770450068202,0.043609619140625,-0.14447021484375,-0.9806976318359376,-0.0026525084394961,-0.0082296999171376,-0.0030839405953884
1770450068213,0.0405426025390625,-0.142486572265625,-0.97979736328125,-0.0044850297272205,-0.0068136975169181,-0.002037584548816
1770450068223,0.044036865234375,-0.1435699462890625,-0.97857666015625,-0.0058397795073688,-0.0051678642630577,-0.0037736992817372
1770450068233,0.0453033447265625,-0.1456146240234375,-0.9803314208984376,-0.0082312980666756,-0.0064728129655122,-0.0047665257006883
1770450068243,0.0452423095703125,-0.143768310546875,-0.9842987060546876,-0.009278985671699,-0.0083514070138335,-0.0031656995415687
1770450068253,0.0507354736328125,-0.145294189453125,-0.983917236328125,-0.0102957803755998,-0.0064166202209889,0.000208791825571
1770450068263,0.0525360107421875,-0.147125244140625,-0.9835205078125,-0.0085008097812533,-0.0029566413722932,0.0095618134364485
1770450068273,0.05377197265625,-0.1475677490234375,-0.9851226806640624,-0.0067921262234449,7.829693640815094e-05,0.0140726752579212
1770450068283,0.0516815185546875,-0.1460723876953125,-0.987152099609375,-0.0020341223571449,-0.0008213188848458,0.0159464757889509
1770450068293,0.048675537109375,-0.1437530517578125,-0.988983154296875,0.0095676723867654,-0.0018050905782729,0.0168604720383882
1770450068303,0.0463409423828125,-0.1420440673828125,-0.9899749755859376,0.0127634657546877,-0.0038264298345893,0.015475096181035
1770450068313,0.045806884765625,-0.142730712890625,-0.9846038818359376,0.0125101990997791,-0.0056070191785693,0.0168178621679544
1770450068323,0.0440521240234375,-0.1439971923828125,-0.979400634765625,0.0047260457649827,-0.0050799795426428,0.0171512905508279
1770450068333,0.04486083984375,-0.1463775634765625,-0.9747772216796876,-0.00393428793177,-0.0012309130979701,0.0209380388259887
1770450068343,0.0478668212890625,-0.1490478515625,-0.9706268310546876,-0.0120372213423252,0.0063854614272713,0.0271261595189571
1770450068353,0.051788330078125,-0.1645355224609375,-0.9728240966796876,-0.0158372856676578,0.0079303607344627,0.0440646633505821
1770450068363,0.0597076416015625,-0.1560516357421875,-0.9749755859375,-0.0160535350441932,0.0136537607759237,0.0459618978202343
1770450068373,0.0463104248046875,-0.1295623779296875,-0.9721221923828124,-0.0167954917997121,0.0137610854580998,0.0341734178364276
1770450068383,0.0349884033203125,-0.1291351318359375,-0.9784698486328124,-0.0169520862400531,0.0061519020237028,0.0236917473375797
1770450068393,0.0347137451171875,-0.14984130859375,-0.99627685546875,0.0027928571216762,-0.0128449583426117,0.0142915872856974
1770450068403,0.0285186767578125,-0.1233367919921875,-1.0003814697265625,0.0086629968136549,-0.0255016312003135,-0.004521248396486
1770450068414,0.029998779296875,-0.13800048828125,-0.9866943359375,-0.0005139900604262,-0.030966704711318,0.0038088529836386
1770450068423,0.051910400390625,-0.167572021484375,-0.9788970947265624,-0.0099026979878544,-0.026447320356965,0.0350024588406086
1770450068433,0.068084716796875,-0.1811065673828125,-0.9695587158203124,-0.0241583324968814,-0.0180511716753244,0.0667148455977439
1770450068444,0.07073974609375,-0.174468994140625,-0.9646148681640624,-0.0276699773967266,6.817692337790504e-05,0.0694203525781631
1770450068454,0.055328369140625,-0.14495849609375,-0.970184326171875,-0.0180250722914934,0.0110822124406695,0.0425056479871273
1770450068464,0.0312652587890625,-0.117767333984375,-0.97821044921875,-0.0114489290863275,0.0063537694513797,0.0142862610518932
1770450068474,0.01690673828125,-0.122650146484375,-0.9929962158203124,-0.006768689956516,-0.0038826225791126,0.0013568805297836
1770450068484,0.022125244140625,-0.133270263671875,-1.0110321044921875,0.0087016122415661,-0.0391402132809162,0.0003957457374781
1770450068494,0.0285491943359375,-0.13934326171875,-1.0166015625,0.022137526422739,-0.0525321848690509,0.0023209447972476
1770450068504,0.0392913818359375,-0.1487579345703125,-1.0021514892578125,0.021524466574192,-0.0508693046867847,0.009860087186098
1770450068514,0.0496368408203125,-0.1580657958984375,-0.979583740234375,0.0040986048988997,-0.0394810959696769,0.0177678111940622
1770450068524,0.0536041259765625,-0.1600189208984375,-0.96234130859375,-0.0171017553657293,-0.0212280564010143,0.0213814545422792
1770450068534,0.0533599853515625,-0.1590576171875,-0.9547119140625,-0.034989409148693,-0.0005187837523408,0.0209968946874141
1770450068544,0.0481414794921875,-0.156158447265625,-0.9607391357421876,-0.0449048914015293,0.0098257325589656,0.0213806554675102
1770450068554,0.04107666015625,-0.1486663818359375,-0.9749755859375,-0.0443829111754894,0.0086582032963633,0.0116212358698248
1770450068564,0.03125,-0.1381378173828125,-0.9858245849609376,-0.0404883027076721,0.0026090987958014,-0.00247807148844
1770450068574,0.0279541015625,-0.129608154296875,-0.9944610595703124,-0.0324306450784206,-0.0031300131231546,-0.0131794512271881
1770450068584,0.030059814453125,-0.131317138671875,-1.00067138671875,-0.0139973079785704,-0.0033800839446485,-0.0174823217093944
1770450068594,0.03875732421875,-0.138336181640625,-1.0090484619140625,0.0042485408484935,-0.0060781324282288,-0.0134492293000221
1770450068604,0.047149658203125,-0.14556884765625,-1.0109405517578125,0.0195816904306411,-0.0162247754633426,-0.0065055699087679
1770450068614,0.0535736083984375,-0.1546478271484375,-1.0056610107421875,0.028996231034398,-0.0144053045660257,0.0037483992055058
1770450068624,0.0588531494140625,-0.1600799560546875,-0.996429443359375,0.0318404883146286,-0.0084877610206604,0.0120944799855351
1770450068635,0.0523834228515625,-0.1474456787109375,-0.984344482421875,0.0275698415935039,0.0001392833219142,0.0139003694057464
1770450068645,0.0415191650390625,-0.1410980224609375,-0.975067138671875,0.0174759291112422,-0.0001139832966146,0.0099884523078799
1770450068655,0.0373077392578125,-0.1396636962890625,-0.97076416015625,0.0036197684239596,0.0007028082036413,0.0051199272274971
1770450068665,0.034454345703125,-0.140106201171875,-0.97235107421875,-0.0057202037423849,-0.0020762004423886,0.0047915591858327
1770450068675,0.0345916748046875,-0.139984130859375,-0.9742889404296876,-0.0141397872939705,-0.0047574709169566,0.002992061432451
1770450068685,0.03521728515625,-0.1412200927734375,-0.9733734130859376,-0.0160213112831115,-0.0060632186941802,0.0067569720558822
1770450068695,0.03961181640625,-0.1451873779296875,-0.97607421875,-0.0162660554051399,-0.006451507564634,0.0117655796930193
1770450068705,0.041595458984375,-0.1490936279296875,-0.979400634765625,-0.0156434085220098,-0.0054584150202572,0.0182245429605245
1770450068715,0.0449066162109375,-0.149566650390625,-0.98248291015625,-0.0156431421637535,-0.0077982684597373,0.022620091214776
1770450068725,0.043548583984375,-0.1519012451171875,-0.982147216796875,-0.0190194975584745,-0.0130960941314697,0.0248140040785074
1770450068735,0.0425262451171875,-0.155853271484375,-0.9803619384765624,-0.0204594694077968,-0.0069391326978802,0.0284124668687582
1770450068745,0.0399169921875,-0.1569671630859375,-0.98284912109375,-0.0333600863814353,-0.0164586026221513,0.0219606924802064
1770450068755,0.03070068359375,-0.145751953125,-0.967742919921875,-0.0501113720238208,-0.017853831872344,0.0194141771644353
1770450068765,0.0362091064453125,-0.1433563232421875,-0.9699249267578124,-0.0608268640935421,-0.0057708038948476,0.0131685324013233
1770450068775,0.03125,-0.148468017578125,-0.9801177978515624,-0.0578561089932918,0.0028410602826625,0.0105035072192549
1770450068785,0.033447265625,-0.1464385986328125,-0.9974822998046876,-0.0405900366604328,-0.0023728765081614,0.0078134480863809
1770450068795,0.0359344482421875,-0.1436920166015625,-1.0109710693359375,-0.0196815598756074,-0.0171648729592561,0.0068059745244681
1770450068805,0.0351715087890625,-0.1431121826171875,-1.0182037353515625,0.0061202105134725,-0.0299243424087762,0.0049332394264638
1770450068815,0.0342559814453125,-0.14208984375,-1.0148468017578125,0.0252406410872936,-0.0354109890758991,0.0002114549861289
1770450068825,0.0320587158203125,-0.1374969482421875,-1.0057220458984375,0.0377087630331516,-0.0372131504118442,-0.0069279470480978
1770450068835,0.0309600830078125,-0.1363067626953125,-0.9971923828125,0.0456812009215354,-0.0352735668420791,-0.0156119829043746
1770450068845,0.032562255859375,-0.13812255859375,-0.9853515625,0.0425743572413921,-0.0333840548992157,-0.0211425703018903
1770450068856,0.032989501953125,-0.1392364501953125,-0.975738525390625,0.0341060385107994,-0.0266001857817173,-0.0271487962454557
1770450068866,0.0338287353515625,-0.141876220703125,-0.970916748046875,0.020189955830574,-0.0206157956272363,-0.0236749686300754
1770450068875,0.0392913818359375,-0.1431884765625,-0.9665069580078124,0.0046016760170459,-0.0131440311670303,-0.0203185882419347
1770450068886,0.044097900390625,-0.147186279296875,-0.96575927734375,-0.0056632119230926,-0.0034285534638911,-0.0139182126149535
1770450068896,0.046417236328125,-0.15069580078125,-0.9728851318359376,-0.0120308296754956,-0.0019840549211949,-0.0053681335411965
1770450068906,0.04803466796875,-0.151031494140625,-0.97760009765625,-0.0178724732249975,-0.003450391581282,0.0001906823308672
1770450068916,0.0470733642578125,-0.150146484375,-0.9803009033203124,-0.0231372769922018,-0.0049252500757575,0.0057159424759447
1770450068926,0.045013427734375,-0.148284912109375,-0.979766845703125,-0.0303949229419231,-0.0039417445659637,0.0055074170231819
1770450068936,0.04095458984375,-0.1466064453125,-0.9817962646484376,-0.0358975455164909,-0.0054885088466107,0.0071378042921423
1770450068946,0.037017822265625,-0.1439056396484375,-0.980926513671875,-0.0398246459662914,-0.0009129316313192,0.0073966635391116
1770450068956,0.037017822265625,-0.1435699462890625,-0.9807281494140624,-0.039853673428297,0.0052176653407514,0.0056794574484229
1770450068966,0.03790283203125,-0.144073486328125,-0.9860382080078124,-0.037936195731163,-0.0005230448441579,0.0033406692091375
1770450068976,0.03802490234375,-0.145782470703125,-0.98895263671875,-0.034084465354681,-0.0039702407084405,0.0056221992708742
1770450068986,0.03759765625,-0.1445465087890625,-0.990936279296875,-0.0332138799130916,-0.0029537118971347,0.0079508675262331
1770450068996,0.03765869140625,-0.1543731689453125,-0.990234375,-0.035278096795082,-0.0010910971323028,0.0213162079453468
1770450069006,0.0475616455078125,-0.1689605712890625,-0.9898834228515624,-0.031366977840662,0.0007182545377872,0.030523819848895
1770450069016,0.041229248046875,-0.140625,-0.985504150390625,-0.0304945260286331,0.001750229508616,0.0135759962722659
1770450069026,0.0228271484375,-0.1229095458984375,-0.9820404052734376,-0.0364323109388351,-0.004718855023384,-0.0104728806763887
1770450069036,0.011993408203125,-0.136322021484375,-0.985687255859375,-0.0306609738618135,0.0009211873984895,-0.0117472037672996
1770450069047,0.0210723876953125,-0.14361572265625,-1.000396728515625,-0.0156205045059323,-0.0041646515019237,-0.0250717978924512
1770450069056,0.0110321044921875,-0.1224517822265625,-1.00152587890625,-0.011740013025701,-0.0168013498187065,-0.0316705778241157
1770450069066,0.02447509765625,-0.15093994140625,-0.9986724853515624,-0.0122840963304042,-0.0220618918538093,-0.016014652326703
1770450069076,0.0430755615234375,-0.16595458984375,-0.995452880859375,-0.0104640927165746,-0.0171819161623716,0.0065247444435954
1770450069086,0.0565643310546875,-0.1737823486328125,-0.9890899658203124,-0.0103631587699055,-0.006967095658183,0.0305746868252754
1770450069097,0.059326171875,-0.1572418212890625,-0.9863739013671876,-0.0063537694513797,0.0070837419480085,0.0106739494949579
1770450069107,0.03277587890625,-0.1154327392578125,-0.98284912109375,-0.0054493602365255,0.0199356246739625,-0.0242968183010816
1770450069117,0.011993408203125,-0.1146240234375,-0.9864044189453124,-0.0062339273281395,0.0009592706337571,-0.0399498119950294
1770450069127,0.0155029296875,-0.128997802734375,-0.9949188232421876,0.0006178533658385,-0.0165382307022809,-0.0408422388136386
1770450069137,0.026092529296875,-0.1393890380859375,-1.00238037109375,0.0118036624044179,-0.0206639990210533,-0.0319041386246681
1770450069147,0.036956787109375,-0.14495849609375,-1.0020904541015625,0.020505541935563,-0.0176032278686761,-0.0211151391267776
1770450069157,0.04644775390625,-0.153167724609375,-0.9931182861328124,0.0134502947330474,-0.0173148084431886,-0.0043617254123091
1770450069167,0.0565948486328125,-0.1608428955078125,-0.977691650390625,-0.0006607302348129,-0.0109602389857172,0.0112782204523682
1770450069177,0.0590667724609375,-0.160552978515625,-0.968109130859375,-0.0168852396309375,0.0062203453853726,0.0241290386766195
1770450069187,0.051239013671875,-0.15716552734375,-0.966217041015625,-0.0281301718205213,0.0201675854623317,0.0243226494640111
1770450069197,0.0394744873046875,-0.1504364013671875,-0.9728240966796876,-0.0319866947829723,0.0250779222697019,0.0220325980335474
1770450069207,0.0301361083984375,-0.1373443603515625,-0.983642578125,-0.0318159870803356,0.0249117407947778,0.0119498698040843
1770450069217,0.0234375,-0.1318359375,-0.994598388671875,-0.0219921171665191,0.0129453595727682,0.0007637945818714
1770450069227,0.0184326171875,-0.1318359375,-1.003204345703125,-0.0088997520506381,0.0003102582704741,-0.009746104478836
1770450069237,0.02264404296875,-0.1357421875,-1.0092926025390625,0.0070336745120584,-0.0128255169838666,-0.0132012898102402
1770450069247,0.0311737060546875,-0.143341064453125,-1.0079345703125,0.0164772439748048,-0.018957445397973,-0.0099016325548291
1770450069257,0.038970947265625,-0.1485137939453125,-0.9979400634765624,0.0174663420766592,-0.0091697964817285,-0.0011105381418019
1770450069267,0.0434417724609375,-0.15277099609375,-0.9898834228515624,0.0200562663376331,0.0016903083305805,0.0082155857235193
1770450069277,0.0451812744140625,-0.1482696533203125,-0.9881591796875,0.0206173937767744,0.006727943662554,0.0098566254600882
1770450069288,0.037841796875,-0.1376495361328125,-0.9854278564453124,0.019057847559452,0.0071396683342754,0.0094166714698076
1770450069297,0.0324554443359375,-0.1373138427734375,-0.9869537353515624,0.0186764821410179,0.0034466630313545,0.0020439762156456
1770450069308,0.025238037109375,-0.1349945068359375,-0.9873046875,0.0157933440059423,-0.0012873720843344,-0.0040077911689877
1770450069318,0.0260772705078125,-0.1387939453125,-0.9832916259765624,0.0067423246800899,-0.0072925337590277,-0.0017009610310196
1770450069328,0.0325164794921875,-0.142120361328125,-0.9781494140625,-0.0005227785441093,-0.0047657266259193,-0.0008255799184553
1770450069338,0.035980224609375,-0.142547607421875,-0.977020263671875,-0.0062432484701275,0.0058685415424406,0.0037729002069681
1770450069348,0.03778076171875,-0.1422119140625,-0.9785614013671876,-0.0079681780189275,0.0083149215206503,0.007538610137999
1770450069358,0.038177490234375,-0.1461944580078125,-0.98388671875,-0.0040434775874018,0.0058818575926125,0.0084715150296688
1770450069368,0.038299560546875,-0.1466217041015625,-0.98870849609375,-0.0038029940333217,-0.000298806669889,0.008952216245234
1770450069378,0.0374908447265625,-0.1447601318359375,-0.9879913330078124,-0.002215217333287,0.0014913701452314,0.0076874806545674
1770450069388,0.03704833984375,-0.14605712890625,-0.9849853515625,-0.0087237162515521,0.0030602384358644,0.0103285377845168
1770450069398,0.0375823974609375,-0.14453125,-0.97900390625,-0.0118513330817222,0.0090430295094847,0.0125890290364623
1770450069408,0.0347900390625,-0.141754150390625,-0.9810791015625,-0.0112217618152499,0.0139195444062352,0.0107985856011509
1770450069418,0.0345611572265625,-0.1409912109375,-0.987274169921875,-0.0078651132062077,0.0110941966995596,0.0083490097895264
1770450069428,0.031402587890625,-0.1408843994140625,-0.9929351806640624,-0.0016226640436798,0.0096973683685064,0.0060232714749872
1770450069438,0.0322265625,-0.14178466796875,-0.9930877685546876,0.0031521173659712,0.006330067757517,0.0026232136879116
1770450069448,0.0305023193359375,-0.142303466796875,-0.9908599853515624,0.0049854377284646,0.0051247207447886,0.0026104305870831
1770450069458,0.033050537109375,-0.1399078369140625,-0.9885406494140624,0.0039635826833546,0.0070850737392902,0.002127865795046
1770450069468,0.0355682373046875,-0.141693115234375,-0.9859466552734376,0.0061819958500564,0.0081809647381305,0.0060815946198999
1770450069478,0.0345916748046875,-0.144073486328125,-0.9852447509765624,0.0070682959631085,0.009238239377737,0.0065780077129602
1770450069488,0.0340118408203125,-0.1416015625,-0.9859619140625,0.0054978295229375,0.0055849151685833,0.0039609195664525
1770450069498,0.0330352783203125,-0.1408843994140625,-0.9845123291015624,0.0037750308401882,0.0043044672347605,0.00262401252985
1770450069509,0.03411865234375,-0.1414642333984375,-0.9809417724609376,-0.0020812603179365,0.0067399279214441,0.000794953550212
1770450069519,0.035797119140625,-0.14080810546875,-0.9802093505859376,-0.0036107138730585,0.0063569652847945,-0.0004412857815623
1770450069529,0.0350189208984375,-0.1409759521484375,-0.9825897216796876,-0.0051300469785928,0.0046104644425213,-0.0011568771442398
1770450069539,0.0363311767578125,-0.1444854736328125,-0.9839630126953124,-0.0039057920221239,0.0048208539374172,0.0023409186396747
1770450069549,0.0374755859375,-0.1444854736328125,-0.98480224609375,-0.0041944785043597,0.0081527354195714,0.0053156693466007
1770450069559,0.038848876953125,-0.14337158203125,-0.984710693359375,-0.0055396412499248,0.0039617181755602,0.00618945248425
1770450069569,0.0359649658203125,-0.1425933837890625,-0.9860076904296876,-0.0059955744072794,0.0073492592200636,0.0067689563147723
1770450069579,0.0353851318359375,-0.1412811279296875,-0.9862060546875,-0.0042235073633491,0.0071806809864938,0.0033302828669548
1770450069589,0.034393310546875,-0.1392059326171875,-0.9893341064453124,-0.0037539917975664,0.0046141929924488,0.0027529096696525
1770450069599,0.0345916748046875,-0.1397247314453125,-0.988433837890625,-0.0048639974556863,-9.58738019107841e-06,-0.0028360001742839
1770450069609,0.0329437255859375,-0.138275146484375,-0.9849700927734376,-0.0061843926087021,0.0050094057805836,-0.0037212348543107
1770450069619,0.0352935791015625,-0.139190673828125,-0.9803619384765624,-0.0082941483706235,0.0121253719553351,-0.0011209244839847
1770450069629,0.033599853515625,-0.1407623291015625,-0.9826507568359376,-0.0085886940360069,0.0103778056800365,-0.0041899513453245
1770450069639,0.0324554443359375,-0.1389007568359375,-0.9867706298828124,-0.0072840116918087,0.006958573590964,-0.0070528495125472
1770450069649,0.0324249267578125,-0.1422882080078125,-0.989349365234375,-0.0083873597905039,0.0021869877818971,-0.0078486017882823
1770450069659,0.0384979248046875,-0.1568603515625,-0.9889068603515624,-0.0071870726533234,0.0004205131263006,0.0074145067483186
1770450069669,0.04730224609375,-0.1551513671875,-0.988739013671875,-0.0056477654725313,0.006329268682748,0.0011094729416072
1770450069679,0.0322418212890625,-0.1230010986328125,-0.9825897216796876,-0.0117437411099672,0.0043713124468922,-0.0189688969403505
1770450069689,0.0216522216796875,-0.1156768798828125,-0.979461669921875,-0.0169177316129207,0.0056211338378489,-0.035684760659933
1770450069699,0.024322509765625,-0.149261474609375,-0.9900360107421876,-0.0059524313546717,0.0069836070761084,-0.0270377434790134
1770450069709,0.03143310546875,-0.1331634521484375,-0.9966888427734376,-0.0003536677977535,-0.0003211772127542,-0.0376397855579853
1770450069719,0.028076171875,-0.1329193115234375,-0.9895782470703124,-0.0051553472876548,0.0023795343004167,-0.0340682230889797
1770450069730,0.041107177734375,-0.159271240234375,-0.9872589111328124,-0.0028565065003931,0.002372610149905,-0.0130367064848542
1770450069740,0.054962158203125,-0.1680450439453125,-0.9844512939453124,-0.0089101381599903,0.0073085129261016,0.0076557891443371
1770450069750,0.0599365234375,-0.1659393310546875,-0.9796295166015624,-0.0125959524884819,0.0213279258459806,0.0091793835163116
1770450069760,0.0476531982421875,-0.1308135986328125,-0.977264404296875,-0.0170386377722024,0.034600056707859,-0.0273807570338249
1770450069770,0.01470947265625,-0.1064605712890625,-0.97821044921875,-0.0235961396247148,0.0349294878542423,-0.0590345561504364
1770450069780,0.0095062255859375,-0.1161041259765625,-0.983245849609375,-0.0237298309803009,0.0129722580313682,-0.0652839317917823
1770450069790,0.0182952880859375,-0.13238525390625,-0.9980621337890624,-0.0144652258604764,-0.0093548856675624,-0.0640428960323333
1770450069800,0.02789306640625,-0.14056396484375,-1.0073699951171875,0.0010602044640108,-0.0184546411037445,-0.0596462860703468
1770450069810,0.0372161865234375,-0.1441650390625,-1.00213623046875,0.0031004520133137,-0.0182090979069471,-0.0510075241327285
1770450069820,0.0493927001953125,-0.1505279541015625,-0.98529052734375,-0.009402023628354,-0.0065545719116926,-0.0398621931672096
1770450069830,0.0570068359375,-0.159271240234375,-0.971099853515625,-0.0223673563450574,0.0105876633897423,-0.0256784651428461
1770450069840,0.0555267333984375,-0.15777587890625,-0.9688568115234376,-0.0267288163304328,0.0232667066156864,-0.0186080392450094
1770450069850,0.0468292236328125,-0.14984130859375,-0.981536865234375,-0.0247261188924312,0.0222632270306348,-0.0192871447652578
1770450069860,0.03985595703125,-0.14007568359375,-0.989837646484375,-0.0175646133720874,0.0261003095656633,-0.0210618749260902
1770450069870,0.0316314697265625,-0.1340179443359375,-0.9956817626953124,-0.0073463297449052,0.0248576793819665,-0.0262816715985536
1770450069880,0.0267486572265625,-0.1303558349609375,-0.99810791015625,0.0058688079006969,0.0233766958117485,-0.0325968265533447
1770450069890,0.02685546875,-0.1301727294921875,-1.00250244140625,0.0177449081093072,0.01365402713418,-0.0369870476424694
1770450069900,0.0312347412109375,-0.137847900390625,-1.0052032470703125,0.0284870341420173,0.001775529468432,-0.0360607989132404
1770450069910,0.0409393310546875,-0.1451873779296875,-0.9984588623046876,0.0283586699515581,-0.0037963360082358,-0.0283695887774229
1770450069920,0.0486297607421875,-0.1542510986328125,-0.98919677734375,0.025226792320609,-0.0001491370203439,-0.016675915569067
1770450069930,0.049530029296875,-0.1510162353515625,-0.983612060546875,0.0218730736523866,0.0026959178503602,-0.0137978373095393
1770450069940,0.039154052734375,-0.13616943359375,-0.9767913818359376,0.0112374741584062,0.0056847836822271,-0.0158055946230888
1770450069951,0.034149169921875,-0.1353912353515625,-0.97613525390625,-0.0020088222809135,0.0034669029992073,-0.0169283840805292
1770450069961,0.034271240234375,-0.1362457275390625,-0.9734954833984376,-0.0094422372058033,0.0094243939965963,-0.017423465847969
1770450069971,0.036163330078125,-0.138671875,-0.98004150390625,-0.0135424407199025,0.0084150563925504,-0.0155576542019844
1770450069981,0.039337158203125,-0.139617919921875,-0.9860992431640624,-0.0132609438151121,0.0061135524883866,-0.0135027589276432
1770450069991,0.04205322265625,-0.140594482421875,-0.9890594482421876,-0.009212139993906,0.0049044773913919,-0.0110174976289272
1770450070001,0.0478973388671875,-0.1439208984375,-0.988067626953125,-0.0054533551447093,0.0072975941002368,-0.0038565236609429
1770450070011,0.049102783203125,-0.1450042724609375,-0.9908294677734376,0.0002996056282427,0.0112188318744301,0.0018511632224544
1770450070021,0.048553466796875,-0.1463775634765625,-0.991668701171875,0.0011185276089236,0.0128486873582005,0.0039699743501842
1770450070031,0.045318603515625,-0.1454620361328125,-0.9885406494140624,0.0019944412633776,0.0147011820226907,0.0046086004003882
1770450070041,0.0439605712890625,-0.144805908203125,-0.98394775390625,-0.0013976269401609,0.0176226701587438,0.0046163233928382
1770450070051,0.041168212890625,-0.1471405029296875,-0.98248291015625,-0.0034647725988179,0.0205188579857349,0.0057439059019088
1770450070061,0.039093017578125,-0.1443328857421875,-0.9830780029296876,-0.0021486382465809,0.0243178568780422,0.0050900997593998
1770450070071,0.0364532470703125,-0.1417999267578125,-0.9874420166015624,-0.0015709986910223,0.0213034246116876,0.0027579695452004
1770450070081,0.0377044677734375,-0.140045166015625,-0.990142822265625,-1.4913702216290403e-05,0.0185398627072572,0.004046939779073
1770450070091,0.0400848388671875,-0.1395416259765625,-0.990936279296875,0.0044741104356944,0.0191859453916549,0.0031641016248613
1770450070101,0.039947509765625,-0.14080810546875,-0.9938507080078124,0.0128404311835765,0.0178173463791608,0.0048389635048806
1770450070111,0.0404510498046875,-0.1400604248046875,-0.9969940185546876,0.0232957359403371,0.0075609805062413,0.0052797170355916
1770450070121,0.03875732421875,-0.1446380615234375,-0.9953765869140624,0.0250105448067188,0.0024210796691477,0.0063178171403706
1770450070131,0.03961181640625,-0.145294189453125,-0.98858642578125,0.0237687118351459,0.0038232340011745,0.0061332597397267
1770450070141,0.0368194580078125,-0.144012451171875,-0.9827728271484376,0.0166519470512866,0.0068030450493097,0.0036597158759832
1770450070152,0.0354461669921875,-0.142486572265625,-0.9757843017578124,0.0064286044798791,0.0139578934758901,0.0020764668006449
1770450070162,0.036224365234375,-0.144378662109375,-0.97314453125,-0.0046184537932276,0.0158362202346324,0.0064054350368678
1770450070172,0.0400543212890625,-0.1446533203125,-0.9756622314453124,-0.0123807694762945,0.017913220450282,0.0073111760430037
1770450070182,0.0410919189453125,-0.1442108154296875,-0.9811553955078124,-0.0120681142434477,0.0181092284619808,0.0110987238585948
1770450070192,0.040435791015625,-0.143707275390625,-0.984710693359375,-0.0099237374961376,0.0145187554880976,0.0111189633607864
1770450070202,0.041778564453125,-0.1436767578125,-0.9866485595703124,-0.0056493636220693,0.01207503862679,0.0141227431595325
1770450070212,0.0434112548828125,-0.1420135498046875,-0.9876708984375,-0.0057194046676158,0.0158090572804212,0.0155161088332533
1770450070222,0.0413360595703125,-0.1414337158203125,-0.98876953125,-0.0009624664089642,0.0186048429459333,0.0148641671985387
1770450070232,0.040863037109375,-0.1407623291015625,-0.9892120361328124,0.0004585963324643,0.0243916250765323,0.0121786352246999
1770450070242,0.0375213623046875,-0.1399688720703125,-0.988189697265625,0.0034471957478672,0.0175614170730114,0.0078789619728922
1770450070252,0.0345611572265625,-0.140380859375,-0.985076904296875,0.0045771747827529,0.012540559284389,0.0042203115299344
1770450070262,0.03326416015625,-0.1395111083984375,-0.983551025390625,0.005584648810327,0.0122279040515422,-0.0012879046844318
1770450070272,0.0336761474609375,-0.139892578125,-0.981719970703125,0.00473323604092,0.0113575831055641,-0.0066413911990821
1770450070282,0.034942626953125,-0.14068603515625,-0.98138427734375,0.0028138959314674,0.0103889917954802,-0.0081910844892263
1770450070292,0.0326385498046875,-0.141876220703125,-0.9828948974609376,0.0022631543688476,0.005550826434046,-0.0134425722062587
1770450070302,0.03521728515625,-0.1481475830078125,-0.9827423095703124,-0.0054512242786586,0.0030093719251453,-0.0084885591641068
1770450070312,0.04547119140625,-0.162506103515625,-0.981903076171875,-0.0089727221056818,0.0035521241370588,0.0033899378031492
1770450070322,0.049530029296875,-0.152587890625,-0.984466552734375,-0.0047401604242622,0.001374990097247,-0.0009451558580622
1770450070332,0.0379486083984375,-0.1257476806640625,-0.9803314208984376,-0.0090781832113862,-0.0002500708214938,-0.0143035715445876
1770450070342,0.0261077880859375,-0.125823974609375,-0.978759765625,-0.0125631960108876,-0.0003981425834354,-0.0233298242092132
1770450070352,0.0288543701171875,-0.1506805419921875,-0.98846435546875,-0.0030996531713753,-0.0043425504118204,-0.0224208869040012
1770450070363,0.033203125,-0.133148193359375,-0.9895782470703124,-0.003131611039862,-0.0112017877399921,-0.0330679379403591
1770450070373,0.031829833984375,-0.13958740234375,-0.9810791015625,-0.0140582947060465,-0.0038040592335164,-0.0225700233131647
1770450070383,0.050994873046875,-0.171539306640625,-0.9800872802734376,-0.0260933861136436,0.009449427947402,0.0090598072856664
1770450070393,0.068115234375,-0.178070068359375,-0.97711181640625,-0.0280095301568508,0.0035771578550338,0.0369835831224918
1770450070403,0.0677642822265625,-0.1582794189453125,-0.972381591796875,-0.021257085725665,0.0253391787409782,0.0302551072090864
1770450070413,0.041595458984375,-0.1269378662109375,-0.9781646728515624,-0.0138311274349689,0.0444854423403739,-0.0027150926180183
1770450070423,0.0187835693359375,-0.1134185791015625,-0.9859619140625,-0.0130798490718007,0.0358783714473247,-0.026207635179162
1770450070433,0.019287109375,-0.1250457763671875,-0.991851806640625,-0.0093016223981976,0.0103730121627449,-0.0332287922501564
1770450070443,0.0251312255859375,-0.1345367431640625,-1.0018463134765625,-0.0018415758386254,-0.0110710272565484,-0.0321046747267246
1770450070453,0.03424072265625,-0.1446990966796875,-1.0040740966796875,0.0030895331874489,-0.0219444464892148,-0.0240954831242561
1770450070463,0.04315185546875,-0.1490020751953125,-0.9962310791015624,-0.0037880802992731,-0.0221279393881559,-0.0125823710113763
1770450070473,0.0509490966796875,-0.1539459228515625,-0.9776458740234376,-0.0177776645869016,-0.0037934065330773,-0.0040440103039145
1770450070483,0.057159423828125,-0.15625,-0.9673919677734376,-0.0348948650062084,0.0248017534613609,0.0063535035587847
1770450070493,0.05816650390625,-0.154998779296875,-0.9708709716796876,-0.0414787344634532,0.0415264032781124,0.0062919841147959
1770450070503,0.0507354736328125,-0.147186279296875,-0.980316162109375,-0.0291688051074743,0.0419189557433128,0.0031507858075201
1770450070513,0.042816162109375,-0.138763427734375,-0.993499755859375,-0.0126484176144003,0.0381524451076984,-0.0036298886407166
1770450070523,0.036712646484375,-0.1370849609375,-1.0047760009765625,0.0029281456954777,0.0272918082773685,-0.0083990776911377
1770450070533,0.031646728515625,-0.1341552734375,-1.0068817138671875,0.0151675008237361,0.0137006323784589,-0.0167089384049177
1770450070543,0.0324249267578125,-0.1361236572265625,-1.0009765625,0.0221124924719333,0.0010359697043895,-0.0195089858025312
1770450070553,0.0372314453125,-0.1427001953125,-0.9949951171875,0.0197241697460412,-0.0076842848211526,-0.0202935542911291
1770450070563,0.0425262451171875,-0.1559600830078125,-0.9856414794921876,0.017054883763194,-0.0063183498568832,-0.0140481749549508
1770450070574,0.047027587890625,-0.156951904296875,-0.9806976318359376,0.0146942576393485,-0.0069702914915978,-0.0104795387014746
1770450070584,0.0402374267578125,-0.1430816650390625,-0.973388671875,0.0015486282063648,-0.0040519996546208,-0.0120665160939097
1770450070594,0.036468505859375,-0.1376495361328125,-0.9677734375,-0.0140953129157423,0.0023228090722113,-0.0125874308869242
1770450070604,0.0344390869140625,-0.13568115234375,-0.9695281982421876,-0.0250350460410118,0.008805476129055,-0.0155965369194746
1770450070614,0.0357818603515625,-0.1383056640625,-0.9785308837890624,-0.0294231362640857,0.0004681837162934,-0.0159627217799425
1770450070624,0.0390472412109375,-0.138824462890625,-0.98675537109375,-0.0278995409607887,-0.0131823811680078,-0.0215178094804286
1770450070634,0.039215087890625,-0.138519287109375,-0.9884796142578124,-0.0251516923308372,-0.0126239163801074,-0.0223356653004884
1770450070644,0.0475006103515625,-0.1432037353515625,-0.9875335693359376,-0.0296830609440803,-0.0077820229344069,-0.0128177944570779
1770450070654,0.054107666015625,-0.1479644775390625,-0.9845428466796876,-0.028757344931364,0.0027595674619078,-0.0048259142786264
1770450070664,0.0549163818359375,-0.1494903564453125,-0.98443603515625,-0.0257636867463588,0.0114356139674782,0.0016114787431433
1770450070674,0.05560302734375,-0.1483154296875,-0.98712158203125,-0.0187380015850067,0.0185374654829502,0.0018471685471013
1770450070684,0.052154541015625,-0.1483917236328125,-0.990936279296875,-0.0092768548056483,0.0171563494950532,0.0004910869174636
1770450070694,0.0422210693359375,-0.146484375,-0.9940032958984376,-0.0015004249289631,0.0125863654538989,9.53411654336378e-05
1770450070704,0.03582763671875,-0.141021728515625,-0.9928436279296876,-0.0004359594604466,0.0070536485873162,-0.005600893869996
1770450070714,0.032470703125,-0.13690185546875,-0.9898681640625,-0.000381630990887,0.0071926652453839,-0.0101162837818264
1770450070724,0.0324249267578125,-0.1363677978515625,-0.989410400390625,-0.0007539408979937,0.0060674799606204,-0.0117011312395334
1770450070734,0.039520263671875,-0.1419677734375,-0.9915771484375,0.001659682020545,0.0036328181158751,-0.0128470892086625
1770450070744,0.0446929931640625,-0.1426544189453125,-0.9916534423828124,0.0026509105227887,0.0046751792542636,-0.0088685927912592
1770450070754,0.0471343994140625,-0.144287109375,-0.988006591796875,0.0069657638669013,0.0061550978571176,-0.0057566887699067
1770450070764,0.045257568359375,-0.14520263671875,-0.98944091796875,0.0108449244871735,0.005559348501265,-0.0109421303495764
1770450070774,0.043121337890625,-0.1434783935546875,-0.985382080078125,0.0112739596515893,0.0042064627632498,-0.0114364130422472
1770450070784,0.0411529541015625,-0.140625,-0.981292724609375,0.0092691322788596,0.0048669269308447,-0.0170535519719123
1770450070794,0.039031982421875,-0.1406097412109375,-0.98126220703125,0.0059090219438076,0.0021283982787281,-0.0181763414293527
1770450070805,0.0411224365234375,-0.141021728515625,-0.9813232421875,0.0028391960076987,-0.0003502056933939,-0.0167869701981544
1770450070815,0.04193115234375,-0.1401519775390625,-0.982421875,0.0028088360559195,-0.0016660735709592,-0.0185095015913248
1770450070825,0.0421295166015625,-0.14141845703125,-0.9836578369140624,0.0011736550368368,-0.0014197311829775,-0.0167960245162248
1770450070835,0.0471954345703125,-0.1424407958984375,-0.9850311279296876,0.0005837649223394,-0.0010018812026828,-0.0129360388964414
1770450070845,0.0500335693359375,-0.1451263427734375,-0.9835052490234376,0.0017073525814339,0.0058506983332335,-0.0082997418940067
1770450070855,0.047760009765625,-0.1441497802734375,-0.9830780029296876,0.0025257419329136,0.0078459391370415,-0.007210508454591
1770450070865,0.047271728515625,-0.142578125,-0.9840850830078124,0.0040645166300237,0.0054024886339902,-0.0082432823255658
1770450070875,0.044219970703125,-0.1411285400390625,-0.984344482421875,0.0040722396224737,0.0021989720407873,-0.010229468345642
1770450070885,0.0434417724609375,-0.14019775390625,-0.9843597412109376,0.0041199102997779,0.0004426173691172,-0.0108427936211228
1770450070895,0.0445556640625,-0.139984130859375,-0.9822845458984376,-0.0002601908345241,-0.0007142598042264,-0.0112249571830034
1770450070905,0.0442657470703125,-0.141845703125,-0.9818572998046876,-0.0025142903905361,-0.001136637176387,-0.0082211783155798
1770450070915,0.0467376708984375,-0.142578125,-0.97906494140625,-0.0044077979400753,0.0029324067290872,-0.0047766459174454
1770450070925,0.0458984375,-0.1419677734375,-0.9802703857421876,-0.002027730923146,0.0048996838741004,-0.0039614522829651
1770450070935,0.04486083984375,-0.1412811279296875,-0.9852447509765624,0.0020615530665963,0.0017270599491894,0.0009606021922081
1770450070945,0.048614501953125,-0.1541595458984375,-0.9889984130859376,0.005911951418966,-0.0082659190520644,0.0092733930796384
1770450070956,0.0539398193359375,-0.148193359375,-0.989013671875,0.0114643760025501,-0.0054323161020874,0.0037936728913336
1770450070965,0.039764404296875,-0.120086669921875,-0.9777679443359376,0.0061939801089465,-0.0032674323301762,-0.0122934179380536
1770450070975,0.0292816162109375,-0.1138763427734375,-0.9693450927734376,-0.0089034801349043,-0.006621949840337,-0.0293432418256998
1770450070985,0.0288848876953125,-0.1366119384765625,-0.972808837890625,-0.0088701909407973,0.0006117281154729,-0.0240174513310194
1770450070995,0.03912353515625,-0.1350250244140625,-0.9842681884765624,-0.0026229473296552,0.0022200110834091,-0.0308154374361038
1770450071006,0.0380859375,-0.1337127685546875,-0.9853363037109376,-0.0077993334271013,-0.0032410670537501,-0.0187028478831052
1770450071016,0.059661865234375,-0.1695556640625,-0.9863128662109376,-0.0084259752184152,-0.0153741622343659,0.0139879873022437
1770450071026,0.07733154296875,-0.1771087646484375,-0.9848785400390624,-0.0093218628317117,-0.0097634149715304,0.0474186465144157
1770450071036,0.07489013671875,-0.1631622314453125,-0.9743499755859376,-0.0093998936936259,0.0172050856053829,0.048853825777769
1770450071046,0.053924560546875,-0.1331634521484375,-0.97186279296875,-0.004799282643944,0.043579701334238,0.0235077235847711
1770450071056,0.02874755859375,-0.1142425537109375,-0.9793243408203124,-0.0074280886910855,0.03816469758749,-0.0011092065833508
1770450071066,0.0190887451171875,-0.1188507080078125,-0.9897308349609376,-0.0046099317260086,0.009116000495851,-0.014307833276689
1770450071076,0.0229339599609375,-0.1305389404296875,-1.0034637451171875,0.0037595843896269,-0.0200306996703147,-0.01451076567173
1770450071086,0.0318450927734375,-0.1381988525390625,-1.008453369140625,0.0090438285842537,-0.0332367829978466,-0.0095729986205697
1770450071096,0.042724609375,-0.1438446044921875,-0.99664306640625,0.0062733422964811,-0.0322386287152767,0.0040352218784391
1770450071106,0.05462646484375,-0.152435302734375,-0.9811553955078124,-0.0065652248449623,-0.0190320145338773,0.014069746248424
1770450071116,0.062042236328125,-0.157867431640625,-0.97088623046875,-0.0175989679992198,0.0004924184759147,0.0297573637217283
1770450071126,0.0655517578125,-0.157806396484375,-0.970672607421875,-0.0224112998694181,0.0150215597823262,0.0371090173721313
1770450071136,0.0615386962890625,-0.1513671875,-0.978546142578125,-0.0204352345317602,0.0257615558803081,0.0428686365485191
1770450071146,0.0552520751953125,-0.145721435546875,-0.988739013671875,-0.0114561198279261,0.0268787518143653,0.0389766953885555
1770450071156,0.042083740234375,-0.1358642578125,-0.9990386962890624,0.0026032398454844,0.0159800313413143,0.0289765242487192
1770450071166,0.031494140625,-0.1286773681640625,-1.004302978515625,0.0175401121377944,0.0045321676880121,0.0157235693186521
1770450071176,0.029022216796875,-0.1287384033203125,-1.005218505859375,0.0308063812553882,-0.0040229712612926,0.0062981094233691
1770450071186,0.0330810546875,-0.135589599609375,-1.0002899169921875,0.0364088751375675,-0.0133301867172122,0.0036591833923012
1770450071196,0.04107666015625,-0.1485137939453125,-0.993408203125,0.0359034053981304,-0.0209082104265689,0.0143919885158538
1770450071207,0.053436279296875,-0.153350830078125,-0.9850006103515624,0.0326325111091136,-0.0160119887441396,0.0196064580231905
1770450071217,0.050506591796875,-0.144805908203125,-0.975311279296875,0.0230664368718862,-0.0068970546126365,0.0255602207034826
1770450071227,0.050048828125,-0.143585205078125,-0.9686431884765624,0.0099682118743658,0.0018066884949803,0.0287357736378908
1770450071237,0.0469512939453125,-0.1427001953125,-0.9707183837890624,0.0007238471880555,0.0055793225765228,0.030352845788002
1770450071247,0.0438232421875,-0.1451263427734375,-0.9765777587890624,-0.0074587152339518,-0.0017904432024806,0.030844198539853
1770450071257,0.04443359375,-0.1415252685546875,-0.9822540283203124,-0.0115743642672896,-0.0091109406203031,0.0292742662131786
1770450071267,0.0420074462890625,-0.1406402587890625,-0.9825897216796876,-0.0166080053895711,-0.0067111658863723,0.0297826621681451
1770450071277,0.0467987060546875,-0.14202880859375,-0.980499267578125,-0.0182945858687162,-0.003115898463875,0.0331446379423141
1770450071287,0.0479736328125,-0.1437225341796875,-0.982666015625,-0.0160500723868608,0.0007677893154323,0.040318127721548
1770450071297,0.0491485595703125,-0.1471099853515625,-0.9899749755859376,-0.0075529911555349,0.0004942826926708,0.0452532321214675
1770450071307,0.049407958984375,-0.14825439453125,-0.9941253662109376,0.0030149647500365,-0.0054043526761233,0.0478516779839992
1770450071317,0.04754638671875,-0.150909423828125,-0.993316650390625,0.0090355733409523,-0.0090667316690087,0.0473432801663875
1770450071327,0.0450286865234375,-0.1494140625,-0.98626708984375,0.0114499945193529,-0.0074635087512433,0.0448984988033771
1770450071337,0.041046142578125,-0.1455535888671875,-0.9802093505859376,0.0094403736293315,0.0011733887949958,0.0403879024088382
1770450071347,0.0370635986328125,-0.1453399658203125,-0.9788665771484376,0.0027904601301997,0.0039497343823313,0.0387370102107524
1770450071357,0.0372314453125,-0.1422271728515625,-0.97607421875,-0.0043577305041253,0.0059732040390372,0.0356336273252964
1770450071367,0.0352325439453125,-0.1436920166015625,-0.9764556884765624,-0.0100084254518151,0.0043750409968197,0.0297677498310804
1770450071377,0.0348358154296875,-0.1439208984375,-0.9821319580078124,-0.013400494121015,-0.0003302319673821,0.0250443667173385
1770450071387,0.0336761474609375,-0.1425323486328125,-0.984649658203125,-0.0151949319988489,-0.0059782639145851,0.0218166150152683
1770450071397,0.0345001220703125,-0.1430511474609375,-0.983917236328125,-0.0183350648730993,-0.0023574302904307,0.0172218643128871
1770450071407,0.0348358154296875,-0.14434814453125,-0.983795166015625,-0.0156095856800675,-0.0022122878581285,0.0158990714699029
1770450071417,0.0361785888671875,-0.1409149169921875,-0.9868316650390624,-0.0120510701090097,-0.0046093990094959,0.0168034806847572
1770450071428,0.039093017578125,-0.14447021484375,-0.989898681640625,-0.0073388731107115,-0.0049106026999652,0.0155882807448506
1770450071437,0.0393829345703125,-0.1444244384765625,-0.9951629638671876,0.0016386429779231,-0.0025814019609242,0.0185371991246938
1770450071448,0.0399017333984375,-0.14447021484375,-0.997039794921875,0.0097274621948599,-0.0081482073292136,0.0169496890157461
1770450071458,0.043060302734375,-0.144866943359375,-0.9942169189453124,0.013817012310028,-0.0088856369256973,0.0197915472090244
1770450071468,0.04364013671875,-0.144561767578125,-0.990692138671875,0.0150255551561713,-0.0048821070231497,0.0190836787223815
1770450071478,0.042144775390625,-0.145843505859375,-0.9843902587890624,0.0107599692419171,-0.0024519723374396,0.0190250892192125
1770450071488,0.0409698486328125,-0.14605712890625,-0.977386474609375,0.0058192731812596,-0.0004436826275195,0.0176458396017551
1770450071498,0.040313720703125,-0.1451873779296875,-0.976837158203125,-0.0009387642494402,-0.002845321316272,0.014642059803009
1770450071508,0.0399169921875,-0.1451873779296875,-0.9740447998046876,-0.0104899248108267,-0.0004929511342197,0.0149176968261599
1770450071518,0.0383453369140625,-0.1434478759765625,-0.9740142822265624,-0.0185214858502149,-0.0003528688393998,0.0110768862068653
1770450071528,0.0391082763671875,-0.1446075439453125,-0.97705078125,-0.0220128912478685,-0.003532683243975,0.0149800144135952
1770450071538,0.0394287109375,-0.1441802978515625,-0.9803619384765624,-0.0271368119865655,-0.0067404606379568,0.0173768587410449
1770450071548,0.0386199951171875,-0.1442413330078125,-0.982513427734375,-0.0263208206743001,-0.0068358019925653,0.0158615205436944
1770450071558,0.0376434326171875,-0.1448974609375,-0.983367919921875,-0.0315533988177776,-0.0064001088030636,0.019704196602106
1770450071568,0.0419464111328125,-0.1575469970703125,-0.9833221435546876,-0.0325523503124713,-0.0082467449828982,0.0320713818073272
1770450071578,0.05133056640625,-0.15399169921875,-0.98272705078125,-0.0290423035621643,-0.0122420191764831,0.027866518124938
1770450071588,0.03594970703125,-0.1274261474609375,-0.979034423828125,-0.0280345641076564,-0.0181097611784935,0.0087514137849211
1770450071598,0.0211029052734375,-0.1236724853515625,-0.9778594970703124,-0.0433634519577026,-0.0152375428006052,-0.0136289931833744
1770450071608,0.02154541015625,-0.1478729248046875,-0.980743408203125,-0.0477307699620723,-0.0186903309077024,-0.0179696790874004
1770450071618,0.022918701171875,-0.13629150390625,-0.9805755615234376,-0.0469581857323646,-0.025888854637742,-0.0321081355214118
1770450071628,0.0194854736328125,-0.1389923095703125,-0.97796630859375,-0.0671998113393783,-0.0325302444398403,-0.02817970700562
1770450071639,0.0372161865234375,-0.1664886474609375,-0.9737701416015624,-0.0842757299542427,-0.0333116166293621,-0.0051169977523386
1770450071649,0.048736572265625,-0.1699676513671875,-0.9705963134765624,-0.095511607825756,-0.0331451706588268,0.0115330852568149
1770450071658,0.0528564453125,-0.1627044677734375,-0.970672607421875,-0.1053695678710937,-0.0193119123578071,0.0161890890449285
1770450071669,0.0467071533203125,-0.1385955810546875,-0.971405029296875,-0.1103840321302414,0.019538814201951,-0.002887399168685
1770450071679,0.0251312255859375,-0.1223602294921875,-0.9810333251953124,-0.1069498881697654,0.027387149631977,-0.0192930046468973
1770450071689,0.02105712890625,-0.125946044921875,-1.0017242431640625,-0.0848381891846656,0.0073908045887947,-0.0226150304079055
1770450071699,0.0242919921875,-0.136322021484375,-1.0283050537109375,-0.0520858392119407,-0.0129227228462696,-0.0139648178592324
1770450071709,0.030914306640625,-0.140533447265625,-1.042266845703125,-0.0128153972327709,-0.0287195295095443,-0.0012828446924686
1770450071719,0.0399169921875,-0.141021728515625,-1.0404205322265625,0.0183449182659387,-0.0301965177059173,0.0112923355773091
1770450071729,0.0463714599609375,-0.147735595703125,-1.0251007080078125,0.0317938812077045,-0.0219276696443557,0.0149091742932796
1770450071739,0.0487213134765625,-0.1543121337890625,-1.0003509521484375,0.0310420710593462,-0.0027939223218709,0.02210583537817
1770450071749,0.0474090576171875,-0.1526031494140625,-0.98095703125,0.0237838923931121,0.0197215061634778,0.0210320483893156
1770450071759,0.0387115478515625,-0.148651123046875,-0.977203369140625,0.0169667322188615,0.0331001617014408,0.0141030354425311
1770450071769,0.028961181640625,-0.13909912109375,-0.983642578125,0.0220525711774826,0.0371926426887512,-0.0017417073249816
1770450071779,0.01678466796875,-0.1294708251953125,-0.9924774169921876,0.0324167944490909,0.0236930791288614,-0.0219037011265754
1770450071789,0.00830078125,-0.1247711181640625,-1.000457763671875,0.0394925475120544,0.0041902177035808,-0.0398637913167476
1770450071799,0.01397705078125,-0.125335693359375,-1.0008392333984375,0.0487230643630027,-0.0010562096722424,-0.049686063081026
1770450071809,0.0233001708984375,-0.1327972412109375,-0.9962921142578124,0.0583506561815738,-0.0027973842807114,-0.0501326769590377
1770450071819,0.031951904296875,-0.1423187255859375,-0.9985198974609376,0.0684597492218017,-0.0058762650005519,-0.0452380515635013
1770450071829,0.043182373046875,-0.1524658203125,-0.9947357177734376,0.0727285295724868,-0.0076019931584596,-0.0377207472920417
1770450071839,0.0477294921875,-0.1440887451171875,-0.98699951171875,0.0708563327789306,-0.0013305152533575,-0.0333965718746185
1770450071850,0.044036865234375,-0.139068603515625,-0.9779205322265624,0.0597448237240314,0.0004956142511218,-0.0306915994733572
1770450071859,0.04217529296875,-0.1386260986328125,-0.970672607421875,0.0438444204628467,0.0038288265932351,-0.0306319445371627
1770450071869,0.040863037109375,-0.1386260986328125,-0.967193603515625,0.0280753094702959,0.0063897222280502,-0.0304340720176696
1770450071880,0.03924560546875,-0.139129638671875,-0.96844482421875,0.0104981809854507,0.0053723948076367,-0.0326823107898235
1770450071890,0.0399627685546875,-0.1407012939453125,-0.9653167724609376,-0.0082510057836771,0.0038349519018083,-0.0296609569340944
1770450071900,0.039520263671875,-0.1417388916015625,-0.96490478515625,-0.0211228616535663,0.0090052131563425,-0.0262286737561225
1770450071910,0.03857421875,-0.1430206298828125,-0.9669647216796876,-0.0320127941668033,0.0163744464516639,-0.0226493850350379
1770450071920,0.0391845703125,-0.1435394287109375,-0.9721221923828124,-0.0389623120427131,0.0159454103559255,-0.0178945790976285
1770450071930,0.0413970947265625,-0.1443328857421875,-0.9831085205078124,-0.0342261455953121,0.0121421506628394,-0.0131578799337148
1770450071940,0.04486083984375,-0.1473541259765625,-0.9934844970703124,-0.0276449434459209,0.0101045658811926,-0.0049572079442441
1770450071950,0.044921875,-0.1494598388671875,-1.0005035400390625,-0.0185177586972713,0.0058677429333329,0.0028746160678565
1770450071960,0.0464630126953125,-0.1509857177734375,-0.99920654296875,-0.0117069901898503,0.0058930427767336,0.0121251055970788
1770450071970,0.04730224609375,-0.1505126953125,-0.9959259033203124,-0.0046988814137876,0.0111567806452512,0.0184964518994092
1770450071980,0.0435638427734375,-0.1475677490234375,-0.9963531494140624,0.0062605589628219,0.0173640772700309,0.0186706241220235
1770450071990,0.0361328125,-0.140228271484375,-1.0010223388671875,0.0199430808424949,0.0190200302749872,0.0095530254766345
1770450072000,0.0277099609375,-0.136993408203125,-1.0024261474609375,0.0354730375111103,0.0169683303683996,-0.0021411816123872
1770450072010,0.0224456787109375,-0.1357879638671875,-1.002532958984375,0.045401569455862,0.0073141055181622,-0.0132968965917825
1770450072020,0.02447509765625,-0.136810302734375,-0.995147705078125,0.0501214899122715,9.29443194763735e-05,-0.0215652137994766
1770450072030,0.025634765625,-0.1395721435546875,-0.989532470703125,0.0481843054294586,-0.000351537251845,-0.0262326691299676
1770450072040,0.029388427734375,-0.1403350830078125,-0.981536865234375,0.0396842956542968,0.0011150655336678,-0.0283123310655355
1770450072050,0.0343170166015625,-0.142852783203125,-0.9765777587890624,0.0314591228961944,0.0041848914697766,-0.0254188068211078
1770450072060,0.038665771484375,-0.143341064453125,-0.973175048828125,0.0247610062360763,0.0071202274411916,-0.0198261681944131
1770450072070,0.0410003662109375,-0.144287109375,-0.975677490234375,0.0203918237239122,0.0082547338679432,-0.0200666524469852
1770450072081,0.0423736572265625,-0.1450347900390625,-0.976287841796875,0.0143491122871637,0.0091008199378848,-0.0186506491154432
1770450072091,0.04461669921875,-0.146026611328125,-0.9770050048828124,0.0084787057712674,0.0109405322000384,-0.0175829883664846
1770450072101,0.046173095703125,-0.1439056396484375,-0.975860595703125,0.0035425368696451,0.0128862373530864,-0.0150303486734628
1770450072111,0.0458984375,-0.1428070068359375,-0.9780731201171876,0.0004058657505083,0.0172149389982223,-0.0130835780873894
1770450072121,0.043487548828125,-0.1415557861328125,-0.9829864501953124,0.0019853864796459,0.0133051527664065,-0.0120753049850463
1770450072131,0.044464111328125,-0.140350341796875,-0.9842987060546876,0.002258893335238,0.0094371773302555,-0.0099863214418292
1770450072141,0.0445709228515625,-0.1385650634765625,-0.9857025146484376,0.0028517129831016,0.0090355733409523,-0.0091487569734454
1770450072151,0.0433807373046875,-0.1419525146484375,-0.9848175048828124,0.0067069046199321,0.0050592068582773,-0.0075388764962553
1770450072161,0.0441741943359375,-0.1446533203125,-0.9860382080078124,0.0032123047858476,0.0020346550736576,-0.0023156185634434
1770450072171,0.0457305908203125,-0.1439208984375,-0.981658935546875,-0.0019526296528056,0.0020647486671805,0.0022961774375289
1770450072181,0.043731689453125,-0.143951416015625,-0.979736328125,-0.0090763196349143,-0.0006362291751429,0.0100001702085137
1770450072191,0.045166015625,-0.153076171875,-0.9790802001953124,-0.0207830425351858,-0.0022224078420549,0.0243024099618196
1770450072201,0.0540313720703125,-0.1692047119140625,-0.979034423828125,-0.0193859487771987,-0.0007930893916636,0.0386129058897495
1770450072211,0.0466461181640625,-0.140594482421875,-0.982086181640625,-0.0232754945755004,-0.0007590008899569,0.019702598452568
1770450072221,0.0269927978515625,-0.1165313720703125,-0.97607421875,-0.0338538363575935,-0.0080310283228755,-0.0039782300591468
1770450072232,0.01763916015625,-0.131744384765625,-0.9783935546875,-0.0303397960960865,-0.0044163200072944,-0.0037113812286406
1770450072241,0.0305633544921875,-0.14935302734375,-0.9961090087890624,-0.0140122221782803,-0.007374026812613,-0.0130739901214838
1770450072251,0.0234527587890625,-0.12896728515625,-0.997833251953125,-0.0095841838046908,-0.0211902391165494,-0.0159549973905086
1770450072261,0.0356292724609375,-0.15118408203125,-0.99365234375,-0.0076933396048843,-0.0230078473687171,-0.0012958941515535
1770450072272,0.051910400390625,-0.1702880859375,-0.99139404296875,-0.006204632576555,-0.016892697662115,0.0229018535465002
1770450072281,0.062255859375,-0.16796875,-0.985137939453125,-0.0056624128483235,0.0001251685753231,0.0351390801370143
1770450072291,0.0569305419921875,-0.149322509765625,-0.98272705078125,-0.0016908409306779,0.0150971934199333,0.0156223690137267
1770450072302,0.033721923828125,-0.117340087890625,-0.983673095703125,0.0040637175552546,0.0176221374422311,-0.0178988389670848
1770450072312,0.0140380859375,-0.118133544921875,-0.9879302978515624,0.0069471220485866,-0.0044027380645275,-0.0302071701735258
1770450072322,0.01947021484375,-0.13385009765625,-0.999420166015625,0.0145909264683723,-0.0265461225062608,-0.0301547069102525
1770450072332,0.028106689453125,-0.141876220703125,-1.00665283203125,0.0282963532954454,-0.0333076231181621,-0.0246347729116678
1770450072342,0.0376434326171875,-0.1442413330078125,-1.001007080078125,0.0307571142911911,-0.0306069105863571,-0.0131874410435557
1770450072352,0.0513153076171875,-0.1528472900390625,-0.9847259521484376,0.0219628233462572,-0.0153589826077222,0.0062387213110923
1770450072362,0.060394287109375,-0.1588592529296875,-0.9716796875,0.0104052368551492,0.0032301479950547,0.0170173328369855
1770450072372,0.057769775390625,-0.1593780517578125,-0.9692230224609376,7.110639853635803e-05,0.0093594128265976,0.0223417915403842
1770450072382,0.05059814453125,-0.1578216552734375,-0.972381591796875,-0.0083428844809532,0.0085090659558773,0.0203510783612728
1770450072392,0.0405426025390625,-0.15240478515625,-0.97357177734375,-0.0170439649373292,0.0083324983716011,0.0145829375833272
1770450072402,0.031158447265625,-0.1432647705078125,-0.972381591796875,-0.0295589566230773,0.0056600160896778,0.0066658919677138
1770450072412,0.027252197265625,-0.135498046875,-0.9723052978515624,-0.0344573110342025,0.0076033249497413,0.0023009711876511
1770450072422,0.0259857177734375,-0.1366424560546875,-0.9798431396484376,-0.0316745713353157,0.0052405684255063,-0.0042943470180034
1770450072432,0.0308685302734375,-0.142333984375,-0.996124267578125,-0.0195710379630327,-0.0069172945804893,-0.0017656758427619
1770450072442,0.037689208984375,-0.1509246826171875,-1.0041656494140625,-0.0089383674785494,-0.0155422082170844,0.0012261193478479
1770450072452,0.0428924560546875,-0.157012939453125,-1.0025177001953125,0.0015579492319375,-0.0245002824813127,0.0087479511275887
1770450072462,0.04736328125,-0.149810791015625,-0.9947052001953124,0.0064568337984383,-0.0243708528578281,0.0056011602282524
1770450072473,0.03863525390625,-0.1373443603515625,-0.985198974609375,0.0045398906804621,-0.011779960244894,0.0056195361539721
1770450072482,0.0379486083984375,-0.1376800537109375,-0.9797821044921876,0.0016327840276062,-0.0012205267557874,0.0030727551784366
1770450072492,0.0354156494140625,-0.1367645263671875,-0.9835205078125,0.0043271039612591,-0.0019475696608424,0.0034280209802091
1770450072502,0.0367889404296875,-0.1411895751953125,-0.990142822265625,0.0068304752930998,-0.0109027149155735,0.0095924399793148
1770450072513,0.041412353515625,-0.1423187255859375,-0.9916229248046876,0.0116012617945671,-0.0109037803485989,0.0175449047237634
1770450072523,0.0420684814453125,-0.1450042724609375,-0.991546630859375,0.0129285817965865,-0.011901400052011,0.0187281481921672
1770450072533,0.039581298828125,-0.15081787109375,-0.986602783203125,0.0109538482502102,-0.0048245824873447,0.0223569702357053
1770450072543,0.04638671875,-0.1495361328125,-0.980560302734375,0.0081791002303361,0.0002111886715283,0.0292468350380659
1770450072553,0.0441436767578125,-0.1475830078125,-0.9793548583984376,0.0045428201556205,0.0037241643294692,0.0316047966480255
1770450072563,0.04034423828125,-0.1500091552734375,-0.9775390625,-0.000157392816618,0.0068405955098569,0.0286742560565471
1770450072573,0.036102294921875,-0.152496337890625,-0.9753570556640624,-0.008757272735238,0.0064565679058432,0.0300828013569116
1770450072583,0.034149169921875,-0.1500244140625,-0.9745025634765624,-0.016577910631895,0.0023126890882849,0.0294287279248237
1770450072593,0.0308837890625,-0.1468353271484375,-0.9763031005859376,-0.0201920866966247,0.0033555829431861,0.0255013648420572
1770450072603,0.02874755859375,-0.1436004638671875,-0.9821624755859376,-0.0214994326233863,0.0067220847122371,0.020610736683011
1770450072613,0.02716064453125,-0.140380859375,-0.9850616455078124,-0.015329954214394,0.0057739997282624,0.0134058203548192
1770450072623,0.026458740234375,-0.140289306640625,-0.988189697265625,-0.0084419539198279,0.0019225359428673,0.0083306338638067
1770450072633,0.028106689453125,-0.14337158203125,-0.9918975830078124,-0.0009635316673666,-0.0050663975998759,0.0046621295623481
1770450072643,0.031280517578125,-0.1425933837890625,-0.991485595703125,0.0029329392127692,-0.0088587393984198,0.0042602587491273
1770450072653,0.0339813232421875,-0.1462860107421875,-0.9871368408203124,0.0007337008719332,-0.0086169242858886,0.0029353362042456
1770450072663,0.0340118408203125,-0.1489105224609375,-0.9828338623046876,-0.0025361282750964,-0.0092116082087159,0.0050576091744005
1770450072673,0.0334625244140625,-0.1479644775390625,-0.9822845458984376,-0.0081572625786066,-0.0114148408174514,0.0060922470875084
1770450072683,0.0352783203125,-0.1481475830078125,-0.980560302734375,-0.0137003660202026,-0.0109152318909764,0.0058930427767336
1770450072693,0.0371551513671875,-0.1496124267578125,-0.9794158935546876,-0.0186288114637136,-0.0093711307272315,0.0093429014086723
1770450072704,0.0363311767578125,-0.150299072265625,-0.979736328125,-0.0247154664248228,-0.0066922572441399,0.0080723073333501
1770450072713,0.0362548828125,-0.1484222412109375,-0.977264404296875,-0.0288673341274261,-0.0034703651908785,0.0090251863002777
1770450072724,0.0353851318359375,-0.14697265625,-0.9816436767578124,-0.0289269890636205,-0.0018362496048212,0.0087151946499943
1770450072734,0.036529541015625,-0.145172119140625,-0.9889373779296876,-0.0195401459932327,-0.001006941194646,0.0111788846552371
1770450072744,0.031524658203125,-0.141845703125,-0.99456787109375,-0.0062781358137726,-0.0026706180069595,0.0060381852090358
1770450072754,0.0291595458984375,-0.13616943359375,-0.9981231689453124,0.0058767977170646,-0.0057873153127729,-5.326322207110934e-05
1770450072764,0.026824951171875,-0.139312744140625,-0.99713134765625,0.0141363255679607,-0.0114254932850599,-0.0021792647894471
1770450072774,0.0240631103515625,-0.139434814453125,-0.9918670654296876,0.0174239967018365,-0.0119964750483632,-0.009261941537261
1770450072784,0.026153564453125,-0.139434814453125,-0.985809326171875,0.0134598826989531,-0.0161834973841905,-0.012868127785623
1770450072794,0.0269317626953125,-0.1407623291015625,-0.9785003662109376,0.0058584217913448,-0.0153408730402588,-0.0195731688290834
1770450072804,0.027435302734375,-0.146453857421875,-0.9739837646484376,-0.0081881554797291,-0.0124705182388424,-0.0154820205643773
1770450072814,0.035491943359375,-0.163818359375,-0.9722747802734376,-0.0192951336503028,-0.0103000421077013,0.0005675196298398
1770450072824,0.0429840087890625,-0.1566162109375,-0.973724365234375,-0.0268521197140216,-0.0086020100861787,-0.0028328043408691
1770450072834,0.0306243896484375,-0.1293182373046875,-0.9722442626953124,-0.0337278693914413,-0.0139882536605,-0.0193755626678466
1770450072844,0.0187530517578125,-0.1222381591796875,-0.979888916015625,-0.0348168350756168,0.0004609931784216,-0.0390656441450119
1770450072854,0.014923095703125,-0.1466522216796875,-0.9953765869140624,-0.0198581274598836,0.0021225393284112,-0.0409290567040443
1770450072864,0.0217437744140625,-0.1385498046875,-1.0026702880859375,-0.0118955411016941,-0.0171891059726476,-0.0531031638383865
1770450072874,0.023895263671875,-0.134857177734375,-0.995452880859375,-0.0121959457173943,-0.0190698318183422,-0.0491126850247383
1770450072884,0.040374755859375,-0.157073974609375,-0.99176025390625,-0.0074350130744278,-0.0099232047796249,-0.0220357943326234
1770450072894,0.0581207275390625,-0.1728515625,-0.99066162109375,-0.0007107976707629,-0.0018538264557719,0.0093924365937709
1770450072904,0.06488037109375,-0.15631103515625,-0.99169921875,0.0132905049249529,0.00952426251024,0.0053897053003311
1770450072914,0.0413665771484375,-0.1255950927734375,-0.9965362548828124,0.0287807825952768,0.0120313623920083,-0.021060012280941
1770450072924,0.0225677490234375,-0.123046875,-1.001312255859375,0.0304708238691091,-0.0117075219750404,-0.0337744764983654
1770450072935,0.0236053466796875,-0.137237548828125,-0.997406005859375,0.026822293177247,-0.036296222358942,-0.0334945768117904
1770450072944,0.02984619140625,-0.14642333984375,-0.99188232421875,0.0244491510093212,-0.0343904644250869,-0.0267759542912244
1770450072955,0.0354461669921875,-0.1490478515625,-0.9819183349609376,0.012214321643114,-0.0214914437383413,-0.0160234402865171
1770450072965,0.044921875,-0.1535797119140625,-0.9703521728515624,-0.0039148465730249,-0.0037958035245537,-0.001234641415067
1770450072975,0.0506591796875,-0.1585693359375,-0.96551513671875,-0.0176208056509494,0.0082744415849447,0.0130092753097414
1770450072985,0.0500640869140625,-0.1565093994140625,-0.96917724609375,-0.0272585190832614,0.0135690718889236,0.0208791829645633
1770450072995,0.0437469482421875,-0.153350830078125,-0.980560302734375,-0.0251184031367301,0.0131331123411655,0.023853400722146
1770450073005,0.0382232666015625,-0.1511993408203125,-0.9917449951171876,-0.0200980771332979,0.0081330277025699,0.0229814816266298
1770450073015,0.030914306640625,-0.1445159912109375,-0.9940643310546876,-0.0125277759507298,0.007186806295067,0.016622919589281
1770450073025,0.0252685546875,-0.1358642578125,-0.990936279296875,-0.0079932119697332,0.0055510927923023,0.0095045557245612
1770450073035,0.020904541015625,-0.133697509765625,-0.992584228515625,0.0009845705935731,0.0033025860320776,-0.0009089368977583
1770450073045,0.0197906494140625,-0.1375274658203125,-0.9948577880859376,0.0127064744010567,-0.0001976065541384,-0.0088994856923818
1770450073055,0.0238494873046875,-0.1441650390625,-0.9974212646484376,0.0220222119241952,-0.0025651566684246,-0.0129277827218174
1770450073065,0.0308837890625,-0.153472900390625,-0.99755859375,0.0251737963408231,-0.0064152888953685,-0.0055244611576199
1770450073075,0.0377044677734375,-0.1514434814453125,-0.990142822265625,0.0233900118619203,1.8642127770363004e-06,-0.0065521751530468
1770450073085,0.0338287353515625,-0.140411376953125,-0.9793548583984376,0.0174951031804084,0.0027244137600064,-0.006491188891232
1770450073095,0.029815673828125,-0.139129638671875,-0.9770355224609376,0.0119661148637533,0.0033838124945759,-0.0095961680635809
1770450073105,0.0289306640625,-0.14276123046875,-0.975738525390625,0.0040695765055716,0.0025137576740235,-0.004849350079894
1770450073115,0.0304718017578125,-0.144134521484375,-0.97869873046875,-0.0027710190042853,-0.0034511904232203,-0.0056235310621559
1770450073126,0.0294647216796875,-0.1432952880859375,-0.982757568359375,-0.0104329334571957,-0.0109850065782666,-0.0089740538969635
1770450073135,0.0294189453125,-0.141571044921875,-0.981903076171875,-0.0172261241823434,-0.0121466778218746,-0.0088153295218944
1770450073146,0.034271240234375,-0.1416473388671875,-0.977752685546875,-0.02355832234025,-0.0045329662971198,-0.0042488072067499
1770450073156,0.04132080078125,-0.14459228515625,-0.977294921875,-0.0257804635912179,0.0036530580837279,0.0042581283487379
1770450073166,0.0447540283203125,-0.1492767333984375,-0.9854888916015624,-0.017649034038186,0.0112377405166625,0.0115597173571586
1770450073176,0.0460662841796875,-0.1513519287109375,-0.9975128173828124,-0.0019688750617206,0.0105330683290958,0.0184871312230825
1770450073186,0.045806884765625,-0.15289306640625,-1.00360107421875,0.0071553811430931,-1.3582121027866378e-05,0.0215915776789188
1770450073196,0.0449981689453125,-0.1526031494140625,-1.00048828125,0.0139120873063802,0.0032538501545786,0.0248454287648201
1770450073206,0.041717529296875,-0.1514739990234375,-0.990570068359375,0.0136226015165448,0.0067846691235899,0.0259082969278097
1770450073216,0.041015625,-0.1525421142578125,-0.982025146484375,0.002936135046184,0.0112047176808118,0.0321550071239471
1770450073226,0.040771484375,-0.150177001953125,-0.9742279052734376,-0.0075039891526103,0.0225537791848182,0.032828252762556
1770450073236,0.032989501953125,-0.15130615234375,-0.9768829345703124,-0.0115930065512657,0.0285671968013048,0.0318253077566623
1770450073246,0.0301055908203125,-0.149688720703125,-0.9854278564453124,-0.0110449278727173,0.0274015311151742,0.0351076535880565
1770450073256,0.0276031494140625,-0.147918701171875,-0.99383544921875,-0.0039614522829651,0.0228888038545846,0.0309102460741996
1770450073266,0.0230255126953125,-0.145721435546875,-1.00189208984375,0.0056096822954714,0.0173616800457239,0.0284028798341751
1770450073276,0.022613525390625,-0.145233154296875,-1.0024566650390625,0.0153728313744068,0.0133035546168684,0.0281714498996734
1770450073286,0.0244598388671875,-0.1459197998046875,-0.9980316162109376,0.022543391212821,0.0093093458563089,0.0230677686631679
1770450073296,0.0238494873046875,-0.1470184326171875,-0.9940948486328124,0.024926122277975,0.0071556475013494,0.0185933914035558
1770450073306,0.02587890625,-0.146697998046875,-0.9879913330078124,0.0277826283127069,0.0097815245389938,0.0107405288144946
1770450073317,0.0257568359375,-0.1468048095703125,-0.9814453125,0.0218459106981754,0.0151414023712277,0.0053534861654043
1770450073326,0.02630615234375,-0.147796630859375,-0.974609375,0.0124119287356734,0.0162090640515089,-0.0008325041271746
1770450073336,0.03033447265625,-0.1503448486328125,-0.971038818359375,0.0030735542532056,0.0209340434521436,-0.0022711437195539
1770450073347,0.0308990478515625,-0.1495361328125,-0.9720306396484376,-0.0039025961887091,0.0229170341044664,-0.0047966195270419
1770450073357,0.02801513671875,-0.14617919921875,-0.976226806640625,-0.0095879128202795,0.0232954695820808,-0.0060187438502907
1770450073367,0.0310211181640625,-0.14520263671875,-0.9784088134765624,-0.0105509115383028,0.0267389360815286,-0.0095772594213485
1770450073377,0.0315093994140625,-0.1443634033203125,-0.982452392578125,-0.0090627372264862,0.0252819210290908,-0.009548763744533
1770450073387,0.0337677001953125,-0.14410400390625,-0.987823486328125,-0.0059971725568175,0.0233521945774555,-0.0108672948554158
1770450073397,0.036468505859375,-0.1451263427734375,-0.9931182861328124,-0.0018122810870409,0.018557971343398,-0.0072041167877614
1770450073407,0.039886474609375,-0.1519012451171875,-0.9923248291015624,0.0003424825263209,0.0147038446739315,-0.0009709885343909
1770450073417,0.045654296875,-0.1669158935546875,-0.98870849609375,-0.0012349077733233,0.0142167527228593,0.0153738958761096
1770450073427,0.0521240234375,-0.1550445556640625,-0.9821929931640624,-0.0085538066923618,0.0179212093353271,0.005551625508815
1770450073437,0.03619384765625,-0.129852294921875,-0.9719696044921876,-0.019709788262844,0.0231636427342891,-0.0129152657464146
1770450073447,0.0233154296875,-0.1237335205078125,-0.968841552734375,-0.0225375331938266,0.0363361686468124,-0.0290654730051755
1770450073457,0.019622802734375,-0.1523590087890625,-0.9835968017578124,-0.0153070511296391,0.0347305499017238,-0.0213833190500736
1770450073467,0.02789306640625,-0.1444091796875,-0.9920501708984376,-0.0087258471176028,0.0145693551748991,-0.0325877703726291
1770450073477,0.0249176025390625,-0.139190673828125,-0.9881439208984376,-0.0119376191869378,0.0162487439811229,-0.032725989818573
1770450073487,0.034698486328125,-0.162384033203125,-0.9823455810546876,-0.0185957886278629,0.0181654207408428,-0.0100425137206912
1770450073497,0.0522003173828125,-0.178466796875,-0.976806640625,-0.0221303366124629,0.0239913519471883,0.0137576237320899
1770450073507,0.0549163818359375,-0.163848876953125,-0.9744720458984376,-0.0243990831077098,0.0403836406767368,0.0026328009553253
1770450073517,0.0339202880859375,-0.1313018798828125,-0.9769744873046876,-0.0222813375294208,0.054025150835514,-0.0289554856717586
