timestamp_ms,acc_x,acc_y,acc_z,gyro_x,gyro_y,gyro_z
1769157680403,-0.119842529296875,-0.1004638671875,-1.0158538818359375,0.0189028512686491,-0.0390762947499752,-0.0592739768326282
1769157680412,-0.1177520751953125,-0.103485107421875,-1.0107421875,0.0226658973842859,-0.021688250824809,-0.0541372708976268
1769157680421,-0.124542236328125,-0.10888671875,-0.991973876953125,0.0180138871073722,0.0086483489722013,-0.0550760366022586
1769157680431,-0.1287689208984375,-0.1105194091796875,-0.9820404052734376,0.0131658697500824,0.0216488372534513,-0.0575895272195339
1769157680441,-0.1274261474609375,-0.112335205078125,-0.9843292236328124,0.0087330378592014,0.034989409148693,-0.0600127354264259
1769157680451,-0.119415283203125,-0.1147003173828125,-0.98040771484375,0.0033073797821998,0.0398129262030124,-0.0558102689683437
1769157680462,-0.1122589111328125,-0.1153564453125,-0.9805145263671876,0.0077226343564689,0.0211622770875692,-0.0611126236617565
1769157680472,-0.1121673583984375,-0.1121673583984375,-0.9888763427734376,0.0123059349134564,-0.0014303837670013,-0.0602891743183136
1769157680482,-0.1089935302734375,-0.109893798828125,-0.9893798828125,0.0183278750628232,-0.0230563171207904,-0.0570901855826377
1769157680492,-0.1073455810546875,-0.10980224609375,-0.9918060302734376,0.0246685948222875,-0.0418635606765747,-0.0527002289891243
1769157680502,-0.1061859130859375,-0.11077880859375,-0.98846435546875,0.0181688833981752,-0.0314021296799182,-0.0436060652136802
1769157680512,-0.1113739013671875,-0.1120452880859375,-0.972442626953125,0.0056640109978616,-0.0018287927377969,-0.0361401624977588
1769157680524,-0.117095947265625,-0.1121978759765625,-0.9644775390625,-0.0103951161727309,0.0363380350172519,-0.0268758218735456
1769157680532,-0.1152191162109375,-0.1107025146484375,-0.9645843505859376,-0.0225098356604576,0.0651813969016075,-0.0166080053895711
1769157680542,-0.113311767578125,-0.108917236328125,-0.9725189208984376,-0.0233607161790132,0.0725450366735458,-0.0135104823857545
1769157680552,-0.1124114990234375,-0.1070556640625,-0.9851837158203124,-0.0145954545587301,0.0606297925114631,-0.0091133369132876
1769157680562,-0.106689453125,-0.1060028076171875,-0.9950714111328124,0.0025395904667675,0.0390946716070175,-0.0072893383912742
1769157680572,-0.1074066162109375,-0.1051483154296875,-1.0014801025390625,0.0167427603155374,0.0110393352806568,-0.0046658581122756
1769157680582,-0.105926513671875,-0.109710693359375,-0.99737548828125,0.0199702456593513,0.0023366576060652,-0.0011355718597769
1769157680592,-0.1107025146484375,-0.11383056640625,-0.9852294921875,0.0141909196972846,-0.0051135355606675,-0.0031419973820447
1769157680602,-0.1132659912109375,-0.115631103515625,-0.974517822265625,-0.0065617626532912,0.004120975267142,-0.0003747067530639
1769157680612,-0.1161346435546875,-0.117279052734375,-0.9638519287109376,-0.0281285736709833,0.0280633252114057,0.0028887307271361
1769157680622,-0.11920166015625,-0.1184234619140625,-0.9575042724609376,-0.0498839356005191,0.0453118197619915,0.0062214103527367
1769157680633,-0.11444091796875,-0.1187896728515625,-0.95794677734375,-0.0647156164050102,0.0646983012557029,0.0140734743326902
1769157680642,-0.112274169921875,-0.115936279296875,-0.9656219482421876,-0.0706222355365753,0.0624569877982139,0.014412228949368
1769157680652,-0.1162109375,-0.1099700927734375,-0.9829864501953124,-0.0583783537149429,0.0445216633379459,0.0121136540547013
1769157680663,-0.1108856201171875,-0.1071319580078125,-1.00653076171875,-0.0272393431514501,0.0372783951461315,0.0190911367535591
1769157680673,-0.1017303466796875,-0.1057281494140625,-1.0289459228515625,0.0232352819293737,0.0189646370708942,0.0269815493375062
1769157680683,-0.1010284423828125,-0.1043853759765625,-1.0447235107421875,0.0612950474023819,0.0159840267151594,0.0353100523352623
1769157680693,-0.1082611083984375,-0.105682373046875,-1.03302001953125,0.0831345692276954,0.0278223101049661,0.040636908262968
1769157680703,-0.1182403564453125,-0.1107940673828125,-1.0135955810546875,0.0908473506569862,0.0465515218675136,0.0413785986602306
1769157680713,-0.1215362548828125,-0.111907958984375,-0.9961700439453124,0.0872102677822113,0.0581170991063118,0.0431823581457138
1769157680724,-0.1173858642578125,-0.119476318359375,-0.9742584228515624,0.0566678047180175,0.0540520511567592,0.0500943250954151
1769157680733,-0.1100311279296875,-0.128692626953125,-0.9482574462890624,0.0166170597076416,0.0480309091508388,0.0482136011123657
1769157680743,-0.1184539794921875,-0.1226959228515625,-0.93463134765625,-0.0245849713683128,0.0513665191829204,0.0385585762560367
1769157680753,-0.1187896728515625,-0.1207427978515625,-0.932769775390625,-0.0546874813735485,0.0440343022346496,0.0358855612576007
1769157680763,-0.1127166748046875,-0.1126861572265625,-0.9429473876953124,-0.0698720216751098,0.0221223458647727,0.0230246260762214
1769157680773,-0.1231842041015625,-0.096160888671875,-0.966796875,-0.0677300468087196,0.0132428351789712,0.0172279886901378
1769157680783,-0.1245574951171875,-0.0965118408203125,-0.9836883544921876,-0.0627240985631942,0.0175635479390621,0.0191712975502014
1769157680793,-0.113616943359375,-0.1131744384765625,-0.9869232177734376,-0.0697085037827491,0.0174833852797746,0.0387058518826961
1769157680803,-0.10302734375,-0.12451171875,-0.9850616455078124,-0.0609512329101562,0.0192884765565395,0.0333579555153846
1769157680813,-0.121673583984375,-0.10833740234375,-1.00006103515625,-0.0356852933764457,0.0228659007698297,0.0246414300054311
1769157680823,-0.1287841796875,-0.0963287353515625,-1.0098724365234375,-0.021686652675271,0.0228893365710973,0.0254872497171163
1769157680833,-0.1231536865234375,-0.0963287353515625,-0.9985809326171876,-0.0264252163469791,0.0265599712729454,0.028081702068448
1769157680843,-0.1194000244140625,-0.1005096435546875,-0.990142822265625,-0.0373066253960132,0.0362107343971729,0.0293405782431364
1769157680853,-0.1125640869140625,-0.1055450439453125,-0.9851531982421876,-0.0417746119201183,0.0468995980918407,0.0316258370876312
1769157680863,-0.10614013671875,-0.1103057861328125,-0.989410400390625,-0.041838526725769,0.0436470806598663,0.0287293829023838
1769157680873,-0.1020660400390625,-0.1139068603515625,-0.9936065673828124,-0.0335808619856834,0.0288412347435951,0.0252118799835443
1769157680883,-0.100677490234375,-0.1190032958984375,-0.9934234619140624,-0.0293946396559476,0.0266478564590215,0.0227785501629114
1769157680894,-0.1049346923828125,-0.1177978515625,-0.9898681640625,-0.0227865390479564,0.0339001752436161,0.0173225309699773
1769157680904,-0.115936279296875,-0.1159210205078125,-0.9931640625,-0.0121828969568014,0.0338959135115146,0.0097567569464445
1769157680914,-0.1241302490234375,-0.1098175048828125,-0.9991455078125,0.0003973436250817,0.0413841903209686,-0.0006503439508378
1769157680924,-0.1299285888671875,-0.10546875,-1.0064849853515625,0.017266072332859,0.0522256530821323,-0.0015630092239007
1769157680934,-0.12921142578125,-0.1024932861328125,-1.0140228271484375,0.0386477932333946,0.0476649887859821,-0.0060323262587189
1769157680944,-0.124969482421875,-0.1002960205078125,-1.0170135498046875,0.0529130175709724,0.0427101776003837,-0.0011808456620201
1769157680954,-0.1196441650390625,-0.1024322509765625,-1.009063720703125,0.0614740140736103,0.0441778488457202,0.0042075281962752
1769157680964,-0.116363525390625,-0.108856201171875,-0.9987640380859376,0.0640303790569305,0.0450548268854618,0.0077929417602717
1769157680974,-0.107269287109375,-0.113250732421875,-0.9896087646484376,0.058857724070549,0.0359907560050487,0.0160681828856468
1769157680984,-0.103424072265625,-0.1124420166015625,-0.977508544921875,0.0442367047071456,0.0217726733535528,0.0165550075471401
1769157680994,-0.1077728271484375,-0.1107177734375,-0.9684295654296876,0.0258486419916152,0.0117794275283813,0.0111575797200202
1769157681004,-0.10589599609375,-0.1119232177734375,-0.96392822265625,0.0066523100249469,0.0006287723081186,0.0104129593819379
1769157681014,-0.1019134521484375,-0.1134490966796875,-0.958953857421875,-0.0155222341418266,-0.0014679343439638,0.0141448471695184
1769157681024,-0.097808837890625,-0.119293212890625,-0.9526824951171876,-0.0440087355673313,0.0079351551830768,0.0220927856862545
1769157681034,-0.0973968505859375,-0.1269683837890625,-0.949859619140625,-0.0685779973864555,0.0184429232031106,0.0231718979775905
1769157681045,-0.1044921875,-0.1179962158203125,-0.965301513671875,-0.0484793856739997,0.0294114183634519,0.0148745533078908
1769157681057,-0.1207275390625,-0.0980072021484375,-1.0055084228515625,-0.0087852356955409,0.0228448621928691,0.004890895448625
1769157681064,-0.1269989013671875,-0.092315673828125,-1.02734375,0.0292170066386461,0.0158617869019508,-0.0062879896722733
1769157681074,-0.12689208984375,-0.1000213623046875,-1.022613525390625,0.0473384857177734,0.0155968023464083,-0.0115245636552572
1769157681084,-0.1246337890625,-0.1090087890625,-1.0117340087890625,0.0562371723353862,0.0233548581600189,-0.013325392268598
1769157681094,-0.1190338134765625,-0.11395263671875,-1.0048370361328125,0.0593336299061775,0.0249002892524003,-0.0121828969568014
1769157681104,-0.1127777099609375,-0.11456298828125,-1.000518798828125,0.0622489936649799,0.0169827118515968,-0.0098576908931136
1769157681114,-0.1087646484375,-0.1159820556640625,-0.9976043701171876,0.0647933781147003,0.0146154277026653,-0.0084259752184152
1769157681125,-0.10693359375,-0.1140289306640625,-0.9892578125,0.0604633428156375,0.0097671430557966,-0.0034756914246827
1769157681135,-0.1039886474609375,-0.114471435546875,-0.977996826171875,0.0463384687900543,0.0144106307998299,-0.0006247775745578
1769157681145,-0.1044158935546875,-0.1113433837890625,-0.9622344970703124,0.0241162553429603,0.0049673281610012,0.002255963627249
1769157681155,-0.1062164306640625,-0.108123779296875,-0.957366943359375,0.0041356226429343,-0.0158708412200212,-0.0044416198506951
1769157681165,-0.1081085205078125,-0.1064300537109375,-0.9569854736328124,-0.0188543815165758,-0.0250571500509977,-0.0087594026699662
1769157681175,-0.1059112548828125,-0.1048431396484375,-0.9587554931640624,-0.0269376076757907,-0.0343806110322475,-0.0134116793051362
1769157681185,-0.10894775390625,-0.103973388671875,-0.97015380859375,-0.032177910208702,-0.0220749415457248,-0.017077786847949
1769157681195,-0.111419677734375,-0.103271484375,-0.978302001953125,-0.0233665760606527,0.0015542207984253,-0.0205521471798419
1769157681206,-0.1120758056640625,-0.1023406982421875,-0.993194580078125,-0.0063196811825037,0.0221745446324348,-0.0223681554198265
1769157681215,-0.108306884765625,-0.1043853759765625,-1.0073394775390625,0.012158129364252,0.031355258077383,-0.0238480754196643
1769157681225,-0.103912353515625,-0.107513427734375,-1.0078277587890625,0.0228339433670043,0.0291104800999164,-0.0225609689950943
1769157681235,-0.0985260009765625,-0.1097564697265625,-1.004150390625,0.0292558893561363,0.0130886379629373,-0.0234195720404386
1769157681245,-0.0971832275390625,-0.1139373779296875,-0.99395751953125,0.0211263243108987,0.0012319782981649,-0.0194985996931791
1769157681255,-0.0975799560546875,-0.1179656982421875,-0.9784698486328124,0.0046032737009227,-0.0191257577389478,-0.0178061611950397
1769157681265,-0.0986175537109375,-0.118621826171875,-0.9697265625,-0.0181691497564315,-0.0442915633320808,-0.0182482451200485
1769157681275,-0.1057891845703125,-0.117828369140625,-0.9647216796875,-0.0433267019689083,-0.0382834747433662,-0.0235380828380584
1769157681285,-0.1125640869140625,-0.117523193359375,-0.9650726318359376,-0.0550997368991375,-0.0189987253397703,-0.0270593147724866
1769157681295,-0.114471435546875,-0.116607666015625,-0.9740753173828124,-0.0568936429917812,0.0059694754891097,-0.0261780750006437
1769157681305,-0.11346435546875,-0.111968994140625,-0.9861907958984376,-0.0483960285782814,0.0364885032176971,-0.0261804703623056
1769157681315,-0.11602783203125,-0.1082611083984375,-0.9980926513671876,-0.0343875363469123,0.0358341634273529,-0.0344860702753067
1769157681325,-0.11419677734375,-0.1053466796875,-1.01092529296875,-0.018125208094716,0.0208932980895042,-0.0443831756711006
1769157681335,-0.1125335693359375,-0.1049346923828125,-1.0146026611328125,0.0044706487096846,0.0175233334302902,-0.044040959328413
1769157681346,-0.0970611572265625,-0.1103973388671875,-1.023712158203125,0.0381071716547012,-0.010563694871962,-0.0402243845164775
1769157681356,-0.09210205078125,-0.113250732421875,-1.029510498046875,0.0633912235498428,-0.0055359126999974,-0.038025677204132
1769157681366,-0.099090576171875,-0.1158599853515625,-1.01513671875,0.076023131608963,0.0058384481817483,-0.0342823415994644
1769157681376,-0.100555419921875,-0.1204986572265625,-0.9968719482421876,0.0731096267700195,0.015868978574872,-0.0327691324055194
1769157681386,-0.101165771484375,-0.1222686767578125,-0.984466552734375,0.0681705325841903,0.0198051296174526,-0.0330407731235027
1769157681396,-0.105499267578125,-0.12762451171875,-0.97625732421875,0.0490612871944904,-0.0158990714699029,-0.0239780377596616
1769157681406,-0.0853424072265625,-0.12799072265625,-0.965087890625,0.0220555011183023,-0.0095511609688401,-0.0168325100094079
1769157681416,-0.100067138671875,-0.12042236328125,-0.959014892578125,0.0019920445047318,-0.0099865878000855,-0.0257873889058828
1769157681426,-0.110626220703125,-0.1145172119140625,-0.95831298828125,-0.0102558331564068,-0.0142548363655805,-0.034569427371025
1769157681436,-0.111083984375,-0.1074066162109375,-0.9705352783203124,-0.0175313223153352,-0.0248512867838144,-0.0426904708147048
1769157681446,-0.110137939453125,-0.1021728515625,-0.982208251953125,-0.0044477451592683,-0.0533686839044094,-0.0504338778555393
1769157681456,-0.113494873046875,-0.099761962890625,-0.9947662353515624,-0.0038983351550996,-0.0142902564257383,-0.0499371998012065
1769157681466,-0.110626220703125,-0.1110992431640625,-0.991058349609375,-0.0158793646842241,0.0063172844238579,-0.03962117806077
1769157681476,-0.0957183837890625,-0.132232666015625,-0.9826812744140624,-0.0143685527145862,0.0266582425683736,-0.0376184806227684
1769157681486,-0.10260009765625,-0.125396728515625,-0.994781494140625,0.0099279982969164,0.0493731424212455,-0.0466234274208545
1769157681496,-0.1135101318359375,-0.111724853515625,-1.00836181640625,0.0309677701443433,0.0381692238152027,-0.0493329279124736
1769157681506,-0.1069488525390625,-0.11138916015625,-0.99798583984375,0.0191566497087478,0.0224533770233392,-0.0454620234668254
1769157681516,-0.1060638427734375,-0.1194000244140625,-0.9726715087890624,-0.0103714140132069,0.0065886606462299,-0.0458817370235919
1769157681527,-0.1065521240234375,-0.1221466064453125,-0.9632720947265624,-0.0395285002887249,-0.0112100439146161,-0.0440540090203285
1769157681536,-0.10260009765625,-0.125213623046875,-0.9698028564453124,-0.0537713542580604,-0.0322476848959922,-0.0369377769529819
1769157681547,-0.0968017578125,-0.1295623779296875,-0.982269287109375,-0.0606052912771701,-0.0327022857964038,-0.0315824262797832
1769157681556,-0.099853515625,-0.128570556640625,-0.990875244140625,-0.0464037172496318,-0.0169491562992334,-0.0345300137996673
1769157681567,-0.1096343994140625,-0.124114990234375,-1.0071563720703125,-0.018369685858488,-0.0005214469274505,-0.0417114943265914
1769157681576,-0.1120758056640625,-0.1152801513671875,-1.020843505859375,0.0191252250224351,0.0125666577368974,-0.0498072355985641
1769157681586,-0.114471435546875,-0.11151123046875,-1.030487060546875,0.059384498745203,0.0172397065907716,-0.0568835213780403
1769157681597,-0.113555908203125,-0.10772705078125,-1.032867431640625,0.0926409885287284,0.0351840853691101,-0.0618258155882358
1769157681607,-0.1116943359375,-0.10784912109375,-1.0244903564453125,0.1147492155432701,0.0503483898937702,-0.0553479455411434
1769157681617,-0.1068267822265625,-0.1124114990234375,-1.009735107421875,0.1234276592731475,0.0546563193202018,-0.0494445152580738
1769157681627,-0.104522705078125,-0.114837646484375,-0.9918365478515624,0.1089954599738121,0.0489768646657466,-0.04315971955657
1769157681637,-0.0988311767578125,-0.1213836669921875,-0.9691314697265624,0.0808479785919189,0.0485291853547096,-0.0356727764010429
1769157681647,-0.0970611572265625,-0.1287841796875,-0.9517974853515624,0.0475241094827652,0.0359129942953586,-0.0304955914616584
1769157681657,-0.09698486328125,-0.131866455078125,-0.94244384765625,0.0068826735951006,0.0209343098104,-0.0291419066488742
1769157681667,-0.102294921875,-0.1288299560546875,-0.9361419677734376,-0.034041590988636,0.0121229756623506,-0.0375308655202388
1769157681677,-0.10858154296875,-0.1228790283203125,-0.9375762939453124,-0.0619163624942302,-0.0082051996141672,-0.0456577651202678
1769157681687,-0.105987548828125,-0.1256866455078125,-0.9535980224609376,-0.0821390748023986,-0.018574483692646,-0.0442462898790836
1769157681697,-0.0928497314453125,-0.137451171875,-0.967681884765625,-0.0929845348000526,-0.024041686207056,-0.0297935809940099
1769157681707,-0.0783843994140625,-0.1393280029296875,-0.9904022216796876,-0.0574446506798267,-0.0133003592491149,-0.0274822246283292
1769157681717,-0.094482421875,-0.121490478515625,-1.0285797119140625,0.0016045545926317,0.0106278769671916,-0.0348115116357803
1769157681727,-0.1093597412109375,-0.1104278564453125,-1.04815673828125,0.0567072220146656,0.0426260232925415,-0.031936626881361
1769157681737,-0.1032257080078125,-0.113525390625,-1.0472259521484375,0.0995897054672241,0.0664245635271072,-0.0215412452816963
1769157681747,-0.09765625,-0.1194000244140625,-1.0347900390625,0.1189831122756004,0.0706257000565528,-0.0129400333389639
1769157681757,-0.0994873046875,-0.120758056640625,-1.0166015625,0.1204332038760185,0.0711918845772743,-0.0097106844186782
1769157681767,-0.104522705078125,-0.1215362548828125,-0.9983978271484376,0.1108807101845741,0.0625645741820335,-0.0103341303765773
1769157681777,-0.106353759765625,-0.123748779296875,-0.9811859130859376,0.0923746675252914,0.0438470840454101,-0.0102920522913336
1769157681787,-0.1034088134765625,-0.1220855712890625,-0.9712982177734376,0.0731740817427635,0.0221337974071502,-0.0200109928846359
1769157681797,-0.107696533203125,-0.1224822998046875,-0.9636688232421876,0.0503515861928463,0.0160253047943115,-0.0269091129302978
1769157681807,-0.10638427734375,-0.1217498779296875,-0.9587554931640624,0.0301272757351398,0.0154753625392913,-0.0297254044562578
1769157681817,-0.100921630859375,-0.125396728515625,-0.95648193359375,0.0128870364278554,0.0303235501050949,-0.0255738031119108
1769157681828,-0.094970703125,-0.126495361328125,-0.9554290771484376,-0.0004942826926708,0.0408827178180217,-0.0241396911442279
1769157681838,-0.0941619873046875,-0.127960205078125,-0.95843505859375,-0.0117208380252122,0.0572835281491279,-0.0220328643918037
1769157681848,-0.08984375,-0.1285858154296875,-0.96405029296875,-0.0091772526502609,0.0549820251762867,-0.0174618139863014
1769157681858,-0.087249755859375,-0.124725341796875,-0.979766845703125,0.0031302794814109,0.0470764301717281,-0.0236517991870641
1769157681868,-0.0917510986328125,-0.1233367919921875,-0.9915618896484376,0.0143254101276397,0.0336311981081962,-0.0277820955961942
1769157681878,-0.090789794921875,-0.124114990234375,-0.9981842041015624,0.0316878892481327,0.0359239131212234,-0.0217481721192598
1769157681888,-0.0904083251953125,-0.1256256103515625,-1.0044097900390625,0.0498871318995952,0.0440260469913482,-0.0169909670948982
1769157681898,-0.0970458984375,-0.1269683837890625,-1.0050811767578125,0.0606287270784378,0.0445229932665824,-0.011272095143795
1769157681908,-0.096343994140625,-0.1279449462890625,-0.9959869384765624,0.061050571501255,0.0331691391766071,-0.0071537834592163
1769157681918,-0.0977935791015625,-0.1302337646484375,-0.98150634765625,0.049380600452423,0.0303350016474723,-0.0075053204782307
1769157681928,-0.0983123779296875,-0.1321563720703125,-0.96417236328125,0.0288135390728712,0.0200211126357316,-0.0039167110808193
1769157681938,-0.0971832275390625,-0.1293182373046875,-0.9542083740234376,0.0031100395135581,0.0021901836153119,-0.0042061964049935
1769157681948,-0.1003570556640625,-0.12664794921875,-0.948577880859375,-0.0228784177452325,-0.0089399656280875,-0.0053433664143085
1769157681960,-0.1000518798828125,-0.1255340576171875,-0.9496002197265624,-0.0476498119533062,-0.0099804624915122,-0.0024626250378787
1769157681968,-0.0960540771484375,-0.128448486328125,-0.95166015625,-0.0664120465517044,0.0010354369878768,0.0019267969764769
1769157681979,-0.0901947021484375,-0.1319580078125,-0.9617767333984376,-0.0707846879959106,-0.0013552826130762,0.0056624128483235
1769157681988,-0.086761474609375,-0.130706787109375,-0.9830474853515624,-0.057999387383461,-0.0102323973551392,0.0107256146147847
1769157681999,-0.0865325927734375,-0.127655029296875,-1.0032958984375,-0.0305919982492923,-0.011462777853012,0.0107929930090904
1769157682008,-0.09271240234375,-0.1248626708984375,-1.0173797607421875,0.0011275823926553,-0.0132231274619698,0.0016061523929238
1769157682018,-0.1045379638671875,-0.1245574951171875,-1.0167999267578125,0.0192866120487451,0.0151872085407376,0.0056408415548503
1769157682028,-0.1034393310546875,-0.128173828125,-1.005828857421875,0.0273711699992418,0.0316673815250396,0.011714712716639
1769157682038,-0.0987701416015625,-0.13568115234375,-0.991912841796875,0.0208919662982225,0.0374094247817993,0.0180327966809272
1769157682048,-0.0996551513671875,-0.1312713623046875,-0.9815216064453124,0.0157198403030633,0.0398068018257617,0.0098622180521488
1769157682059,-0.10748291015625,-0.1250762939453125,-0.9786834716796876,0.0062786685302853,0.0206972882151603,-0.0019361181184649
1769157682069,-0.106292724609375,-0.11785888671875,-0.972808837890625,-0.0026442527305334,0.0052296495996415,-0.0164839010685682
1769157682079,-0.107269287109375,-0.1152496337890625,-0.9678802490234376,-0.017372865229845,-0.0090182619169354,-0.0228627044707536
1769157682089,-0.0930023193359375,-0.12774658203125,-0.958648681640625,-0.0392398126423358,-0.0213058218359947,-0.0163400918245315
1769157682099,-0.0850067138671875,-0.1391143798828125,-0.9520721435546876,-0.0643965676426887,-0.017830928787589,-0.0247772522270679
1769157682109,-0.092010498046875,-0.139892578125,-0.9513092041015624,-0.0823699757456779,-0.0091628720983862,-0.0223212838172912
1769157682119,-0.0843048095703125,-0.140411376953125,-0.964599609375,-0.076224997639656,0.0069359368644654,-0.0170905701816082
1769157682129,-0.0885162353515625,-0.12554931640625,-0.987884521484375,-0.0555404908955097,0.0335363894701004,-0.0194298904389143
1769157682139,-0.105560302734375,-0.1099090576171875,-1.00482177734375,-0.0396949499845504,0.0431426763534545,-0.0247524846345186
1769157682149,-0.107452392578125,-0.10772705078125,-1.00921630859375,-0.0321086682379245,0.0352381467819213,-0.023660322651267
1769157682159,-0.100738525390625,-0.11370849609375,-1.0110931396484375,-0.0297826621681451,0.0187680944800376,-0.0198815632611513
1769157682169,-0.095947265625,-0.1230926513671875,-1.0092620849609375,-0.0234541930258274,-0.0147187588736414,-0.0221084970980882
1769157682179,-0.0938568115234375,-0.130401611328125,-1.0122222900390625,-0.0138343228027224,-0.0350240319967269,-0.0231945347040891
1769157682189,-0.094146728515625,-0.136199951171875,-1.0098876953125,0.0064493771642446,-0.0465967953205108,-0.0283200554549694
1769157682199,-0.0943145751953125,-0.1360931396484375,-1.0053253173828125,0.019227223470807,-0.0371231324970722,-0.0330588817596435
1769157682209,-0.0995025634765625,-0.1360626220703125,-0.993865966796875,0.0281898267567157,-0.0076320869848132,-0.0344130992889404
1769157682219,-0.1006011962890625,-0.13641357421875,-0.980743408203125,0.023535419255495,0.018825352191925,-0.0366866402328014
1769157682229,-0.102508544921875,-0.135284423828125,-0.9723358154296876,0.0141368582844734,0.0389468669891357,-0.0374837256968021
1769157682239,-0.1002655029296875,-0.1298675537109375,-0.9727325439453124,0.011503524146974,0.0388057194650173,-0.0329715311527252
1769157682249,-0.094024658203125,-0.1266632080078125,-0.9794769287109376,0.0128484209999442,0.0159105230122804,-0.0277016684412956
1769157682259,-0.092315673828125,-0.122039794921875,-0.991943359375,0.0229686982929706,-0.0169174652546644,-0.0285253841429948
1769157682269,-0.0936126708984375,-0.119354248046875,-0.999908447265625,0.0327992253005504,-0.0313360840082168,-0.0268486589193344
1769157682279,-0.091949462890625,-0.1240234375,-0.9991607666015624,0.0377931855618953,-0.0302330031991004,-0.0236893501132726
1769157682290,-0.093505859375,-0.133514404296875,-0.992218017578125,0.0328966975212097,-0.0114675713703036,-0.0173358470201492
1769157682300,-0.0930633544921875,-0.1385955810546875,-0.981719970703125,0.0243388954550027,0.010685134679079,-0.0112896719947457
1769157682310,-0.093719482421875,-0.137237548828125,-0.977142333984375,0.0112063158303499,0.0154556548222899,-0.0079023977741599
1769157682320,-0.0935821533203125,-0.1389923095703125,-0.9714508056640624,-0.013667874969542,0.0090544810518622,9.108010999625547e-05
1769157682330,-0.0823974609375,-0.1522674560546875,-0.9581146240234376,-0.0432950109243392,-0.0095548890531063,0.0123879602178931
1769157682340,-0.07861328125,-0.145843505859375,-0.95794677734375,-0.044143758714199,-0.0103658214211463,0.0097335875034332
1769157682350,-0.0896148681640625,-0.1276092529296875,-0.9748992919921876,-0.0372959710657596,-0.0234139803797006,0.0052360408008098
1769157682360,-0.089385986328125,-0.1193084716796875,-0.9824066162109376,-0.040365532040596,-0.0379604324698448,0.0092225270345807
1769157682370,-0.0836334228515625,-0.1188812255859375,-0.982635498046875,-0.0396408848464489,-0.033587522804737,0.0098025631159543
1769157682380,-0.08953857421875,-0.1175079345703125,-0.984619140625,-0.0311842840164899,-0.0138542968779802,0.0095423720777034
1769157682390,-0.091796875,-0.1156768798828125,-0.9931640625,-0.0178362540900707,0.0003749730822164,0.0046333675272762
1769157682400,-0.0942840576171875,-0.1183929443359375,-1.003143310546875,-0.0009113337146118,0.0198581274598836,0.0003472761891316
1769157682410,-0.097625732421875,-0.1246337890625,-1.001129150390625,0.0140654854476451,0.0425368063151836,-0.0026192190125584
1769157682420,-0.0939483642578125,-0.13055419921875,-0.9949951171875,0.0196743682026863,0.0478090681135654,0.0077988007105886
1769157682430,-0.086517333984375,-0.134124755859375,-0.9860992431640624,0.0104358633980154,0.0391399450600147,0.0122140552848577
1769157682440,-0.0891876220703125,-0.135589599609375,-0.97821044921875,-0.0015949672088027,0.0267567783594131,0.0141373910009861
1769157682450,-0.092620849609375,-0.132293701171875,-0.97247314453125,-0.0159387532621622,0.0039737024344503,0.0149453934282064
1769157682460,-0.0930023193359375,-0.12799072265625,-0.976287841796875,-0.0237812288105487,-0.0177262667566537,0.0136305913329124
1769157682471,-0.094482421875,-0.12261962890625,-0.9853515625,-0.0223793406039476,-0.0260363947600126,0.0130124716088175
1769157682480,-0.0964202880859375,-0.1230926513671875,-0.9916534423828124,-0.0155501971021294,-0.0091213267296552,0.0106422575190663
1769157682490,-0.0982666015625,-0.1259002685546875,-0.99334716796875,-0.0060067595914006,0.0163235794752836,0.016244750469923
1769157682501,-0.098388671875,-0.126953125,-0.9920806884765624,-0.0011816446203738,0.0273764971643686,0.0190924685448408
1769157682511,-0.0999298095703125,-0.1268310546875,-0.987579345703125,0.0022370552178472,0.0343049764633178,0.0174919087439775
1769157682521,-0.098114013671875,-0.1288299560546875,-0.9826202392578124,-0.0006301039247773,0.0356533341109752,0.0204826388508081
1769157682531,-0.093841552734375,-0.129669189453125,-0.9759979248046876,-0.0117424102500081,0.0172290541231632,0.022695193067193
1769157682541,-0.091796875,-0.1278533935546875,-0.9702911376953124,-0.0283402949571609,0.0027273432351648,0.0233197044581174
1769157682551,-0.0908355712890625,-0.12774658203125,-0.9678802490234376,-0.0415471754968166,-0.0073407371528446,0.0209982264786958
1769157682561,-0.091522216796875,-0.128631591796875,-0.9738922119140624,-0.0472428798675537,-0.0109160309657454,0.0227186288684606
1769157682571,-0.0922393798828125,-0.1260986328125,-0.9811553955078124,-0.0434859581291675,-0.0175656769424676,0.020991301164031
1769157682581,-0.0938720703125,-0.1234283447265625,-0.992919921875,-0.0368632078170776,-0.0160032007843256,0.0190322808921337
1769157682591,-0.097625732421875,-0.122955322265625,-0.995147705078125,-0.033668216317892,0.0090981572866439,0.0197763685137033
1769157682601,-0.1040802001953125,-0.124053955078125,-0.98779296875,-0.0307885389775037,0.0327006876468658,0.0141592286527156
1769157682611,-0.1043853759765625,-0.128692626953125,-0.9865264892578124,-0.0261615626513957,0.0345454588532447,0.0107724862173199
1769157682621,-0.0964202880859375,-0.12841796875,-0.988739013671875,-0.0175017621368169,0.0147451236844062,0.0098342550918459
1769157682631,-0.0959930419921875,-0.1261138916015625,-0.9925689697265624,-0.0099767344072461,-0.0129943620413541,0.0021869877818971
1769157682641,-0.0979156494140625,-0.124969482421875,-0.9918060302734376,-6.391586794052273e-06,-0.025218803435564,0.0031904669012874
1769157682651,-0.0912322998046875,-0.1290435791015625,-0.9948577880859376,0.0051297806203365,-0.0345382690429687,0.0147978542372584
1769157682661,-0.0808868408203125,-0.1383514404296875,-0.985931396484375,-0.0078145135194063,-0.0377841293811798,0.0292995646595954
1769157682671,-0.0807952880859375,-0.1376800537109375,-0.97772216796875,-0.0132984947413206,-0.0178090911358594,0.0293320566415786
1769157682681,-0.099365234375,-0.126190185546875,-0.984100341796875,-0.0162032041698694,-0.0004492752777878,0.0289315171539783
1769157682691,-0.1028594970703125,-0.1203460693359375,-0.982879638671875,-0.0135853169485926,0.0098012313246726,0.0233503300696611
1769157682701,-0.10687255859375,-0.1126556396484375,-0.9881439208984376,-0.0069079734385013,0.0082459459081292,0.0164130609482526
1769157682711,-0.106414794921875,-0.1150970458984375,-0.9820098876953124,-0.0126857012510299,-0.0009925601771101,0.0174487642943859
1769157682724,-0.0964202880859375,-0.127227783203125,-0.9718475341796876,-0.0256992373615503,-0.0101732751354575,0.0111112408339977
1769157682731,-0.0989227294921875,-0.131561279296875,-0.9700775146484376,-0.0277546662837266,-0.0160170495510101,0.0075756278820335
1769157682742,-0.0960693359375,-0.130279541015625,-0.97943115234375,-0.0182778071612119,-0.0169835109263658,0.0041156490333378
1769157682752,-0.1011810302734375,-0.1210479736328125,-0.9888916015625,-5.912217602599412e-05,0.0046136602759361,-0.0030517163686454
1769157682762,-0.1131744384765625,-0.10760498046875,-0.9942626953125,0.0067311394959688,0.0273139122873544,-0.0048448224551975
1769157682772,-0.1099090576171875,-0.1073150634765625,-0.985015869140625,-0.0070182285271584,0.0453419163823127,0.0054376423358917
1769157682782,-0.0994720458984375,-0.114013671875,-0.9733428955078124,-0.0296684131026268,0.0248664673417806,0.0134689370170235
1769157682792,-0.0943145751953125,-0.116912841796875,-0.9688873291015624,-0.0505491942167282,0.0222246125340461,0.0152117097750306
1769157682802,-0.092926025390625,-0.1206512451171875,-0.9696044921875,-0.0709324926137924,0.0077274283394217,0.017216270789504
1769157682812,-0.09088134765625,-0.1248931884765625,-0.96905517578125,-0.0818985924124717,-0.0063966466113924,0.0169315785169601
1769157682822,-0.085205078125,-0.1289520263671875,-0.975128173828125,-0.0825638547539711,-0.0349694341421127,0.0155230332165956
1769157682832,-0.082550048828125,-0.129302978515625,-0.9872589111328124,-0.0743149742484092,-0.0498282760381698,0.0122295022010803
1769157682842,-0.0881500244140625,-0.1309661865234375,-0.99755859375,-0.0621363408863544,-0.0389508605003356,0.0096787260845303
1769157682853,-0.0936126708984375,-0.1309814453125,-1.00201416015625,-0.0450319238007068,-0.0151946656405925,0.0126705216243863
1769157682862,-0.0998382568359375,-0.1281280517578125,-1.006591796875,-0.0341824702918529,0.0062246061861515,0.0105445198714733
1769157682872,-0.1045989990234375,-0.125213623046875,-1.006988525390625,-0.024638233706355,0.0253125466406345,0.0086914924904704
1769157682882,-0.1078643798828125,-0.1202392578125,-1.010101318359375,-0.0077716368250548,0.0269186999648809,0.004129231441766
1769157682892,-0.1082611083984375,-0.1173095703125,-1.0159759521484375,0.0101690143346786,0.0206847712397575,-0.0007472829893231
1769157682902,-0.1044921875,-0.1168212890625,-1.016448974609375,0.0313784293830394,0.0135765289887785,0.0008463526028208
1769157682912,-0.100006103515625,-0.1217041015625,-1.011077880859375,0.0437184534966945,0.0108688930049538,0.0037212348543107
1769157682922,-0.0986175537109375,-0.1243438720703125,-1.0014495849609375,0.0537239499390125,0.0065492456778883,0.0044424189254641
1769157682932,-0.0966644287109375,-0.1226806640625,-0.99249267578125,0.0551402159035205,0.0055766594596207,0.0061790663748979
1769157682942,-0.098052978515625,-0.1197357177734375,-0.9827423095703124,0.0493611581623554,-0.0050400323234498,0.0080488715320825
1769157682952,-0.098236083984375,-0.1226348876953125,-0.9739837646484376,0.0238968096673488,-0.0032735576387494,0.0131741249933838
1769157682962,-0.09063720703125,-0.13287353515625,-0.9533538818359376,-0.014926484785974,-0.012868926860392,0.02149916626513
1769157682972,-0.0861663818359375,-0.1322174072265625,-0.9483489990234376,-0.0314721725881099,-0.0153150400146842,0.0151493921875953
1769157682983,-0.0986175537109375,-0.11871337890625,-0.9683380126953124,-0.0334594212472438,-0.0143118277192115,0.0046304380521178
1769157682993,-0.10528564453125,-0.110321044921875,-0.9824371337890624,-0.0263450536876916,-0.0057894457131624,-0.0023166837636381
1769157683003,-0.108428955078125,-0.1137237548828125,-0.988983154296875,-0.0215207375586032,0.006532734259963,-0.0025976472534239
1769157683013,-0.0966949462890625,-0.1203765869140625,-0.993499755859375,-0.0104385260492563,0.0015028218040242,0.0054642739705741
1769157683023,-0.0892333984375,-0.1201629638671875,-1.00177001953125,0.0010032127611339,-0.0131549499928951,0.0036519928835332
1769157683033,-0.095672607421875,-0.1146240234375,-1.006500244140625,0.0140756051987409,-0.0171875096857547,-0.0027015106752514
1769157683043,-0.100616455078125,-0.1155548095703125,-1.0014801025390625,0.0238094590604305,-0.0023270701058208,0.0012173309223726
1769157683053,-0.09613037109375,-0.118499755859375,-0.9897918701171876,0.0240592639893293,0.0060813282616436,0.005722067784518
1769157683063,-0.09722900390625,-0.1212005615234375,-0.9791717529296876,0.011657721363008,0.0071796160191297,0.0031369375064969
1769157683073,-0.1024322509765625,-0.1241302490234375,-0.9676666259765624,-0.0040591899305582,0.0105487806722521,0.0011400992516428
1769157683083,-0.093902587890625,-0.1231231689453125,-0.958160400390625,-0.0248472932726144,0.0083253076300024,0.0083271721377968
1769157683093,-0.0915679931640625,-0.1206512451171875,-0.9581298828125,-0.0464854761958122,0.0098771313205361,0.0101234745234251
1769157683103,-0.09722900390625,-0.1199188232421875,-0.9579315185546876,-0.0620234236121177,0.0119709093123674,0.0057678744196891
1769157683113,-0.10040283203125,-0.116424560546875,-0.9662322998046876,-0.0680392384529113,0.0134130110964179,0.0072589782066643
1769157683123,-0.0970001220703125,-0.1160736083984375,-0.9837646484375,-0.0602614767849445,0.0154444696381688,0.0091514205560088
1769157683133,-0.0959320068359375,-0.1141204833984375,-1.0001220703125,-0.0414848588407039,0.0145174236968159,0.0091407680884003
1769157683143,-0.09967041015625,-0.11273193359375,-1.00787353515625,-0.0203542746603488,0.003640008624643,0.0031105722300708
1769157683153,-0.0999603271484375,-0.11328125,-1.01177978515625,-0.0028429245576262,-0.0101165501400828,0.0019883159548044
1769157683163,-0.09515380859375,-0.11334228515625,-1.01263427734375,0.0029443909879773,-0.0289996936917305,0.0053859767504036
1769157683173,-0.095794677734375,-0.1150665283203125,-1.0000762939453125,-0.0088938931003212,-0.0357193797826767,0.0017110810149461
1769157683183,-0.1021270751953125,-0.1190185546875,-0.980316162109375,-0.0273421425372362,-0.0340623632073402,0.0007307713967747
1769157683193,-0.0986480712890625,-0.120391845703125,-0.9695587158203124,-0.0465075820684433,-0.0205505490303039,0.0087255807593464
1769157683203,-0.0931396484375,-0.11895751953125,-0.9686126708984376,-0.0616740174591541,-0.0005930859479121,0.0124388262629508
1769157683214,-0.0915985107421875,-0.1185760498046875,-0.9727325439453124,-0.0641259923577308,0.0062006381340324,0.0170732587575912
1769157683224,-0.0908966064453125,-0.1173858642578125,-0.984344482421875,-0.0592798367142677,0.0191033873707056,0.0138452416285872
1769157683234,-0.08709716796875,-0.1187744140625,-0.9933013916015624,-0.0398107953369617,0.0257064290344715,0.0198432132601737
1769157683244,-0.0826263427734375,-0.11676025390625,-1.0069580078125,-0.0140383206307888,0.0140503048896789,0.0214208699762821
1769157683254,-0.0880889892578125,-0.1148529052734375,-1.0149993896484375,0.0036884781438857,0.0076584522612392,0.0201441496610641
1769157683264,-0.095916748046875,-0.11572265625,-1.0072174072265625,0.0145813394337892,0.0031289479229599,0.0115168401971459
1769157683274,-0.1023101806640625,-0.112548828125,-1.0001068115234375,0.0202277731150388,0.0032562471460551,0.0058885156176984
1769157683284,-0.1058807373046875,-0.112762451171875,-0.995635986328125,0.0123325660824775,0.0091855088248848,0.0053697316907346
1769157683294,-0.108306884765625,-0.1159210205078125,-0.9827423095703124,-0.0049167280085384,0.016872989013791,0.0050221891142427
1769157683304,-0.107635498046875,-0.117523193359375,-0.9700164794921876,-0.0274489354342222,0.027146665379405,0.0082787023857235
1769157683314,-0.0983734130859375,-0.125,-0.961456298828125,-0.0621784180402755,0.0311209019273519,0.0230555180460214
1769157683324,-0.08428955078125,-0.1297149658203125,-0.95196533203125,-0.079774722456932,0.0148013168945908,0.0252555552870035
1769157683334,-0.0883636474609375,-0.1186676025390625,-0.96746826171875,-0.0822109803557396,-0.0019936424214392,0.0234922766685485
1769157683344,-0.0855255126953125,-0.1125946044921875,-0.9842987060546876,-0.0678397640585899,-0.0193800888955593,0.0178999044001102
1769157683354,-0.0916595458984375,-0.1029510498046875,-1.00042724609375,-0.037718616425991,-0.0391766987740993,-0.0004226436722092
1769157683365,-0.1083221435546875,-0.08917236328125,-1.014678955078125,-0.0126878321170806,-0.0375223420560359,-0.0117618506774306
1769157683374,-0.1028289794921875,-0.101104736328125,-1.00616455078125,-0.0106092346832156,-0.0094382427632808,-0.0018538264557719
1769157683384,-0.0912933349609375,-0.1261444091796875,-0.98333740234375,-0.0278143212199211,0.0149893360212445,0.0180559661239385
1769157683394,-0.0891876220703125,-0.131927490234375,-0.9737548828125,-0.0329600796103477,0.0290412381291389,0.0109024485573172
1769157683404,-0.113616943359375,-0.1113128662109375,-0.9857025146484376,-0.0266782157123088,0.0448377802968025,-0.0013510215794667
1769157683414,-0.1217193603515625,-0.0992431640625,-0.986328125,-0.035175297409296,0.0469616502523422,-0.0043691820465028
1769157683424,-0.111785888671875,-0.1009063720703125,-0.97882080078125,-0.0579511821269989,0.0246896333992481,0.0003214435419067
1769157683434,-0.09906005859375,-0.10211181640625,-0.9798583984375,-0.0736875385046005,-0.0064432518556714,0.0009914948605
1769157683445,-0.0919036865234375,-0.099822998046875,-0.993438720703125,-0.0770958513021469,-0.0322407595813274,-0.0012825783342123
1769157683454,-0.0893096923828125,-0.1028594970703125,-1.0028533935546875,-0.0674192532896995,-0.0521063432097435,-0.0025039040483534
1769157683465,-0.0815582275390625,-0.1135711669921875,-1.00567626953125,-0.0570033639669418,-0.0501957908272743,-0.0019813918042927
1769157683475,-0.0824127197265625,-0.1212615966796875,-1.00140380859375,-0.043064646422863,-0.0222144909203052,-0.0038775624707341
1769157683485,-0.09149169921875,-0.122283935546875,-0.99462890625,-0.0299325995147228,0.0270225629210472,-0.0007922904333099
1769157683495,-0.0947723388671875,-0.1218719482421875,-0.9875640869140624,-0.0231647081673145,0.0575828701257705,0.0034874093253165
1769157683505,-0.0948028564453125,-0.1173095703125,-0.988037109375,-0.0134316524490714,0.0690515041351318,0.0030605047941207
1769157683515,-0.098419189453125,-0.1096954345703125,-0.9955902099609376,-0.0022591594606637,0.0651742070913314,0.0037723677232861
1769157683525,-0.099151611328125,-0.099365234375,-1.005615234375,0.0136865172535181,0.0466037206351757,0.0037686391733586
1769157683535,-0.0980377197265625,-0.0970458984375,-1.0144500732421875,0.029713686555624,0.012688098475337,0.002502306131646
1769157683545,-0.0950164794921875,-0.0966033935546875,-1.0190887451171875,0.0478434227406978,-0.0130399018526077,-0.000884169479832
1769157683556,-0.0939788818359375,-0.102508544921875,-1.015899658203125,0.0544105097651481,-0.0276039317250251,-8.229167724493891e-05
1769157683565,-0.0930023193359375,-0.110748291015625,-1.00244140625,0.0499640963971614,-0.0093338470906019,0.0035401401109993
1769157683575,-0.0950469970703125,-0.115875244140625,-0.9832611083984376,0.0322580710053443,0.0296452436596155,0.0081580616533756
1769157683585,-0.1019744873046875,-0.1175537109375,-0.96826171875,0.0156460721045732,0.0508788935840129,0.0041864891536533
1769157683595,-0.0997161865234375,-0.1182403564453125,-0.965423583984375,-0.0064427191391587,0.039210520684719,0.009515474550426
1769157683605,-0.091064453125,-0.116851806640625,-0.9620819091796876,-0.0319920219480991,0.0118478713557124,0.0139299305155873
1769157683615,-0.0861663818359375,-0.1136932373046875,-0.9626312255859376,-0.0500719547271728,-0.0248073451220989,0.0142404548823833
1769157683625,-0.085784912109375,-0.1131591796875,-0.9703826904296876,-0.056242499500513,-0.0568960383534431,0.0162037368863821
1769157683635,-0.0790557861328125,-0.1118316650390625,-0.988433837890625,-0.037467747926712,-0.0773962512612342,0.0188812799751758
1769157683646,-0.085357666015625,-0.098907470703125,-1.0109405517578125,-0.0003054645785596,-0.0585903413593769,0.0128050111234188
1769157683655,-0.10406494140625,-0.090301513671875,-1.018890380859375,0.0357207134366035,-0.0204064715653657,0.0064190169796347
1769157683666,-0.1090240478515625,-0.0927581787109375,-1.0151214599609375,0.0567373149096965,0.0229463279247283,0.0047987499274313
1769157683676,-0.1050872802734375,-0.1006927490234375,-1.0037841796875,0.0580611713230609,0.0511984713375568,0.0075029237195849
1769157683686,-0.102752685546875,-0.1069488525390625,-0.9904327392578124,0.0482373051345348,0.0538184903562068,0.0050496198236942
1769157683696,-0.101165771484375,-0.107269287109375,-0.9842376708984376,0.0395575277507305,0.03341681137681,-2.9294771593413316e-05
1769157683706,-0.095672607421875,-0.1086578369140625,-0.982452392578125,0.0260449163615703,0.009769007563591,-0.0017646105261519
1769157683716,-0.087677001953125,-0.111175537109375,-0.9796905517578124,0.0197465401142835,-0.0257857907563447,0.0010929612908512
1769157683726,-0.0836334228515625,-0.1128997802734375,-0.9854278564453124,0.0146564403548836,-0.0474764369428157,0.0065537733025848
1769157683736,-0.0844268798828125,-0.1133880615234375,-0.9837493896484376,0.0068800104781985,-0.0416105613112449,0.017749436199665
1769157683746,-0.090606689453125,-0.1135406494140625,-0.9770050048828124,0.0011427623685449,-0.0237162485718727,0.0226733535528183
1769157683756,-0.0943450927734375,-0.11126708984375,-0.9782562255859376,-0.0006396913086064,-0.0031385354232043,0.0260790046304464
1769157683766,-0.0979461669921875,-0.1113739013671875,-0.9818267822265624,0.0003174488083459,0.0109772840514779,0.0300082322210073
1769157683776,-0.0952606201171875,-0.1109771728515625,-0.9845733642578124,0.0023832628503441,0.0168631356209516,0.0316002704203128
1769157683786,-0.097808837890625,-0.107391357421875,-0.9876708984375,0.0090214582160115,0.0089346393942832,0.028580779209733
1769157683796,-0.0995635986328125,-0.104156494140625,-0.9914703369140624,0.0154178384691476,0.0051814462058246,0.0256560947746038
1769157683806,-0.0985107421875,-0.103515625,-0.9911651611328124,0.0166287776082754,0.0061604240909218,0.026452112942934
1769157683816,-0.0964813232421875,-0.103515625,-0.992462158203125,0.0201944839209318,-0.0018048242200165,0.0236760340631008
1769157683826,-0.094085693359375,-0.1064300537109375,-0.99224853515625,0.0183915235102176,-0.0098534300923347,0.0212160721421241
1769157683836,-0.0936737060546875,-0.111358642578125,-0.985626220703125,0.0084856301546096,-0.014217285439372,0.0238265022635459
1769157683846,-0.094390869140625,-0.115203857421875,-0.978607177734375,-0.0035441347863525,-0.0064754760824143,0.0218174140900373
1769157683856,-0.1019439697265625,-0.117889404296875,-0.971221923828125,-0.018793661147356,0.0054003582336008,0.0180884562432765
1769157683866,-0.103546142578125,-0.1176605224609375,-0.9702606201171876,-0.0330341160297393,0.0072200959548354,0.0200437493622303
1769157683876,-0.0988922119140625,-0.1146697998046875,-0.97100830078125,-0.0420356020331382,-0.0006620618514716,0.0198895521461963
1769157683886,-0.1017608642578125,-0.11102294921875,-0.980377197265625,-0.0386374071240425,-0.0180549006909132,0.0143496440723538
1769157683896,-0.1013641357421875,-0.1082305908203125,-0.9914093017578124,-0.0245210547000169,-0.0226105041801929,0.0135190049186348
1769157683907,-0.097991943359375,-0.1085357666015625,-1.0023345947265625,-0.003581951605156,-0.006190251559019,0.0224919933825731
1769157683917,-0.097900390625,-0.10845947265625,-1.0023651123046875,0.0100976414978504,0.0015805860748514,0.0219340603798627
1769157683927,-0.0997467041015625,-0.110260009765625,-0.99871826171875,0.0118028633296489,0.0077774957753717,0.0215508323162794
1769157683937,-0.0998077392578125,-0.11328125,-0.9926910400390624,0.0061758705414831,0.0119043299928307,0.0204349681735038
1769157683947,-0.1027374267578125,-0.113677978515625,-0.9902496337890624,0.0036573191173374,0.0151627073064446,0.0173084158450365
1769157683957,-0.106109619140625,-0.111328125,-0.9941558837890624,0.0066693541593849,0.0139472410082817,0.0132020879536867
1769157683967,-0.1059417724609375,-0.1124725341796875,-0.99749755859375,0.0111557152122259,0.0143312690779566,0.0110100405290722
1769157683977,-0.1033172607421875,-0.1140594482421875,-0.9959564208984376,0.0132526885718107,0.0110457269474864,0.009411877952516
1769157683987,-0.0987701416015625,-0.1197967529296875,-0.990814208984375,0.0094640757888555,-0.0038469361606985,0.012876383960247
1769157683997,-0.0918426513671875,-0.127777099609375,-0.981597900390625,0.0088110687211155,-0.0197657160460948,0.0075774923898279
1769157684007,-0.097015380859375,-0.12261962890625,-0.982208251953125,0.0142543036490678,-0.0227476563304662,0.0086099999025464
1769157684017,-0.0980377197265625,-0.1185150146484375,-0.976318359375,0.0035348136443644,-0.0114087155088782,0.006867759861052
1769157684027,-0.1035919189453125,-0.11279296875,-0.9676513671875,-0.0031917984597384,0.0116270948201417,-0.0010618022643029
1769157684037,-0.1207275390625,-0.0977020263671875,-0.9696807861328124,-0.0064914552494883,0.0295634847134351,-0.0090531501919031
1769157684047,-0.121063232421875,-0.095062255859375,-0.9734344482421876,-0.0153648415580391,0.0198253691196441,-0.0115261608734726
1769157684058,-0.10736083984375,-0.1099853515625,-0.971343994140625,-0.0440372340381145,-0.0003366235469002,-0.0018343853298574
1769157684067,-0.090606689453125,-0.1233673095703125,-0.964996337890625,-0.050981692969799,-0.0134449684992432,-0.0103527726605534
1769157684077,-0.103668212890625,-0.10882568359375,-0.9806671142578124,-0.0333299934864044,-0.0138934450224041,-0.0222389921545982
1769157684087,-0.109466552734375,-0.0953216552734375,-0.99542236328125,-0.0257048308849334,-0.0200932845473289,-0.023848608136177
1769157684097,-0.102783203125,-0.0972900390625,-0.9922332763671876,-0.0306436624377965,-0.0290644075721502,-0.0224112998694181
1769157684107,-0.097076416015625,-0.1048431396484375,-0.9845123291015624,-0.0508791580796241,-0.0182450506836175,-0.0183196179568767
1769157684117,-0.093292236328125,-0.10992431640625,-0.977874755859375,-0.0603070147335529,-0.0115575864911079,-0.012990366667509
1769157684128,-0.0910491943359375,-0.1126861572265625,-0.987396240234375,-0.0606950372457504,-0.0009076052810996,-0.0107056414708495
1769157684137,-0.09124755859375,-0.1159820556640625,-0.99658203125,-0.053047239780426,0.0007893609581515,-0.0084813693538308
1769157684148,-0.0944976806640625,-0.11688232421875,-0.99871826171875,-0.0469880141317844,0.0012096078135073,-0.011594071984291
1769157684158,-0.0960845947265625,-0.1187591552734375,-1.0006866455078125,-0.0381156951189041,0.0131669342517852,-0.0123714487999677
1769157684168,-0.099334716796875,-0.116668701171875,-0.998260498046875,-0.0211042203009128,0.0113756926730275,-0.0196261648088693
1769157684178,-0.1053314208984375,-0.1114959716796875,-1.009918212890625,0.0048594698309898,0.0020346550736576,-0.027862524613738
1769157684188,-0.1076812744140625,-0.110076904296875,-1.0165863037109375,0.0285842400044202,0.00046392265358,-0.0305453930050134
1769157684198,-0.1087646484375,-0.1092681884765625,-1.0106048583984375,0.0461752191185951,-0.0022418489679694,-0.0360312387347221
1769157684208,-0.113250732421875,-0.1093902587890625,-1.0048370361328125,0.0551423467695713,0.0026581010315567,-0.0315363556146621
1769157684218,-0.105987548828125,-0.1096343994140625,-1.001953125,0.0578555762767791,-0.0134798558428883,-0.026767699047923
1769157684228,-0.106109619140625,-0.1079254150390625,-0.9953765869140624,0.0527361817657947,-0.0156298261135816,-0.026848392561078
1769157684239,-0.10882568359375,-0.1085052490234375,-0.9817962646484376,0.0461778827011585,0.0197084564715623,-0.0278718452900648
1769157684248,-0.109649658203125,-0.10845947265625,-0.980377197265625,0.0390547253191471,0.0324080064892768,-0.0247913654893636
1769157684258,-0.105133056640625,-0.10693359375,-0.973724365234375,0.0268478598445653,0.0392709746956825,-0.0256196092814207
1769157684268,-0.0973358154296875,-0.107818603515625,-0.9754638671875,0.0205255150794982,0.0332546271383762,-0.0204589366912841
1769157684278,-0.087799072265625,-0.10821533203125,-0.9810638427734376,0.0166865680366754,0.0112214954569935,-0.0146638974547386
1769157684288,-0.0826416015625,-0.11419677734375,-0.9860992431640624,0.0124513432383537,-0.0025172198656946,-0.0078185079619288
1769157684298,-0.0752716064453125,-0.1267852783203125,-0.9827117919921876,0.000672714493703,-0.0257972422987222,-0.0020144151058048
1769157684308,-0.0750274658203125,-0.1248016357421875,-0.9842681884765624,0.0115655763074755,-0.0182325337082147,-0.0081399520859122
1769157684318,-0.0942535400390625,-0.1111602783203125,-0.9995880126953124,0.0276364218443632,-0.0060070259496569,-0.015432751737535
1769157684328,-0.102752685546875,-0.1054534912109375,-0.9935455322265624,0.0267272181808948,0.0096315881237387,-0.0143115613609552
1769157684338,-0.1010589599609375,-0.1094512939453125,-0.9801788330078124,0.0108702247962355,0.0148907983675599,-0.0093013560399413
1769157684348,-0.09820556640625,-0.11346435546875,-0.968414306640625,-0.0139091573655605,0.0234334208071231,-0.0017883126856759
1769157684358,-0.095703125,-0.112762451171875,-0.9655914306640624,-0.0307757556438446,-0.0002053297212114,0.0018636800814419
1769157684368,-0.0970916748046875,-0.1040191650390625,-0.984771728515625,-0.0278811659663915,-0.0263770129531621,-0.0084403567016124
1769157684379,-0.1014404296875,-0.101531982421875,-1.002777099609375,-0.0113871442154049,-0.0418390594422817,-0.0117035275325179
1769157684389,-0.0967559814453125,-0.103363037109375,-1.0157318115234375,0.0139381857588887,-0.0378568358719348,-0.0143842659890651
1769157684399,-0.099334716796875,-0.111114501953125,-1.016876220703125,0.0327496901154518,-0.008714928291738,-0.0135621475055813
1769157684409,-0.0992431640625,-0.119354248046875,-1.007568359375,0.0481992214918136,0.0174154751002788,-0.010954912751913
1769157684419,-0.101593017578125,-0.120361328125,-1.00244140625,0.0545404739677906,0.0314423441886901,-0.0163605976849794
1769157684429,-0.1053009033203125,-0.1230010986328125,-0.995880126953125,0.0594420209527015,0.0331616811454296,-0.025194302201271
1769157684439,-0.10797119140625,-0.1214752197265625,-0.9893646240234376,0.060945376753807,0.0381393954157829,-0.0333049595355987
1769157684449,-0.1062164306640625,-0.1208648681640625,-0.9882049560546876,0.0616369992494583,0.0435831621289253,-0.0326210595667362
1769157684459,-0.101104736328125,-0.118499755859375,-0.986114501953125,0.061145644634962,0.0302511136978864,-0.0260094963014125
1769157684469,-0.09796142578125,-0.1127166748046875,-0.985931396484375,0.0553668513894081,0.0044264402240514,-0.0237063951790332
1769157684479,-0.09942626953125,-0.109954833984375,-0.9801177978515624,0.0394696444272995,-0.0204956866800785,-0.0243910923600196
1769157684489,-0.100372314453125,-0.109527587890625,-0.971527099609375,0.024869130924344,-0.0389300882816314,-0.0208293814212083
1769157684499,-0.097412109375,-0.1113128662109375,-0.973388671875,0.0160910859704017,-0.0338810011744499,-0.020451745018363
1769157684509,-0.10174560546875,-0.111907958984375,-0.9791412353515624,0.0171701982617378,-0.0112065821886062,-0.0191590469330549
1769157684519,-0.10369873046875,-0.114990234375,-0.9847564697265624,0.0236427448689937,0.0135248638689517,-0.0167480874806642
1769157684529,-0.102020263671875,-0.120330810546875,-0.988250732421875,0.0277610570192337,0.0259106922894716,-0.0170058812946081
1769157684539,-0.099517822265625,-0.126953125,-0.990386962890625,0.0296130198985338,0.0325438268482685,-0.0117533290758728
1769157684549,-0.0942535400390625,-0.1279449462890625,-0.9869232177734376,0.031194670125842,0.0304623022675514,-0.0128098046407103
1769157684559,-0.0948333740234375,-0.1250762939453125,-0.9908905029296876,0.0313486009836196,0.011716310866177,-0.0123975472524762
1769157684569,-0.0962677001953125,-0.119476318359375,-0.9876556396484376,0.0282255131751298,-0.0001486043911427,-0.0102821988984942
1769157684579,-0.0959930419921875,-0.1126251220703125,-0.9919586181640624,0.0355193763971328,-0.0281711835414171,-0.0136801255866885
1769157684590,-0.09881591796875,-0.1092529296875,-0.9947662353515624,0.0331496968865394,-0.0352061912417411,-0.0161869600415229
1769157684599,-0.10174560546875,-0.1139373779296875,-0.985687255859375,0.0271519925445318,-0.0196032617241144,-0.0205998178571462
1769157684610,-0.1036529541015625,-0.1224212646484375,-0.974761962890625,0.0153171708807349,0.0214847847819328,-0.0144913243129849
1769157684620,-0.1001739501953125,-0.1293487548828125,-0.9633636474609376,-0.0012149340473115,0.0434164479374885,-0.0094062853604555
1769157684630,-0.0953216552734375,-0.131866455078125,-0.9636688232421876,-0.0201952829957008,0.0436766408383846,-0.0077087860554456
1769157684640,-0.0931549072265625,-0.130645751953125,-0.9649658203125,-0.0348735600709915,0.0416856594383716,-0.0033643713686615
1769157684650,-0.0933380126953125,-0.1292724609375,-0.97271728515625,-0.0392677783966064,0.0226680282503366,-0.0029742182232439
1769157684660,-0.0955352783203125,-0.1214599609375,-0.9915618896484376,-0.0265543796122074,-0.0069428607821464,-0.0068709556944668
1769157684670,-0.0934600830078125,-0.120635986328125,-1.012664794921875,-0.0050397659651935,-0.0410057567059993,0.0008319715270772
1769157684680,-0.0841217041015625,-0.1263885498046875,-1.0220489501953125,0.0233063884079456,-0.0613509751856327,0.0036812876351177
1769157684690,-0.0955657958984375,-0.12158203125,-1.0279388427734375,0.052527654916048,-0.0463086441159248,-0.00950881652534
1769157684700,-0.1139984130859375,-0.1191253662109375,-1.0195465087890625,0.0739389359951019,-0.0184607654809951,-0.0175976362079381
1769157684710,-0.1121673583984375,-0.118133544921875,-1.0040130615234375,0.0815459936857223,0.0261216145008802,-0.0176905803382396
1769157684720,-0.115234375,-0.115509033203125,-0.9885406494140624,0.0790093317627906,0.061903316527605,-0.0190003234893083
1769157684730,-0.1141357421875,-0.1178741455078125,-0.9722137451171876,0.0572387874126434,0.0729732736945152,-0.0203721169382333
1769157684740,-0.1055450439453125,-0.1295318603515625,-0.9567413330078124,0.0211289878934621,0.049622680991888,-0.018305504694581
1769157684750,-0.0884246826171875,-0.1382904052734375,-0.9488372802734376,-0.0069793462753295,0.0156354177743196,-0.019863186404109
1769157684760,-0.0890960693359375,-0.13031005859375,-0.958526611328125,-0.0061463094316422,-0.0005627259379252,-0.03741155564785
1769157684770,-0.104522705078125,-0.1170196533203125,-0.9789276123046876,0.0014775217277929,-0.0084560690447688,-0.0438904911279678
1769157684780,-0.09954833984375,-0.11895751953125,-0.98455810546875,-0.0020722055342048,-0.0088555430993437,-0.0364594757556915
1769157684794,-0.09100341796875,-0.1264495849609375,-0.9847412109375,-0.0093242591246962,-0.006058691535145,-0.0264180246740579
1769157684800,-0.0908355712890625,-0.12969970703125,-0.9906463623046876,-0.0139142172411084,0.0018106831703335,-0.0241229124367237
1769157684810,-0.0951690673828125,-0.1320648193359375,-0.9969940185546876,-0.0075242291204631,0.0114284232258796,-0.0205723866820335
1769157684820,-0.0947723388671875,-0.1363983154296875,-1.0057830810546875,0.0021590245887637,0.0205135308206081,-0.0180383883416652
1769157684830,-0.0978546142578125,-0.1362457275390625,-1.0056304931640625,0.0203060712665319,0.0313190408051013,-0.0213375128805637
1769157684841,-0.1041259765625,-0.1316375732421875,-1.0067138671875,0.0368858464062213,0.0504669025540351,-0.0235649812966585
1769157684850,-0.1017913818359375,-0.128265380859375,-1.002349853515625,0.0506754294037818,0.0444465614855289,-0.0228701625019311
1769157684861,-0.0990447998046875,-0.123016357421875,-1.0010528564453125,0.0571487732231617,0.0205614678561687,-0.0273978020995855
1769157684871,-0.099151611328125,-0.1191864013671875,-0.9986572265625,0.0602401718497276,-0.0033236250746995,-0.0351055227220058
1769157684881,-0.0994110107421875,-0.119384765625,-0.9927520751953124,0.0592055320739746,-0.0106095010414719,-0.0413016341626644
1769157684891,-0.098602294921875,-0.12384033203125,-0.983551025390625,0.0529859848320484,-0.0024570324458181,-0.0425969958305358
1769157684901,-0.09844970703125,-0.1295166015625,-0.97222900390625,0.0440537445247173,0.0197108536958694,-0.0408827178180217
1769157684911,-0.0941619873046875,-0.1346435546875,-0.9629974365234376,0.0333052277565002,0.047000266611576,-0.0340011082589626
1769157684921,-0.091705322265625,-0.138153076171875,-0.9578857421875,0.020617127418518,0.0573903210461139,-0.0315270349383354
1769157684931,-0.0885162353515625,-0.1390838623046875,-0.954925537109375,-0.0007824367494322,0.0567964389920234,-0.0245231855660676
1769157684941,-0.0859832763671875,-0.1381378173828125,-0.957855224609375,-0.0142601625993847,0.0433269664645195,-0.0219250060617923
1769157684951,-0.087860107421875,-0.135528564453125,-0.970855712890625,-0.0281717162579298,0.0241889599710702,-0.0195465367287397
1769157684961,-0.085784912109375,-0.1327362060546875,-0.978302001953125,-0.0393162481486797,0.0090683298185467,-0.0080502033233642
1769157684971,-0.0800323486328125,-0.13592529296875,-0.984832763671875,-0.0466250255703926,-0.0096057560294866,-0.0007139935041777
1769157684982,-0.0743560791015625,-0.1443634033203125,-0.9982452392578124,-0.0372200720012187,-0.0300029069185256,0.0060650832019746
1769157684991,-0.0801849365234375,-0.1358184814453125,-1.01458740234375,6.817692337790504e-05,-0.0075809541158378,0.0041318945586681
1769157685001,-0.0982208251953125,-0.1224212646484375,-1.02587890625,0.0399439521133899,0.0270553193986415,-0.0039268308319151
1769157685011,-0.1084442138671875,-0.1205596923828125,-1.0186309814453125,0.0611656196415424,0.0522008873522281,-0.0052509545348584
1769157685021,-0.100372314453125,-0.1296234130859375,-0.9999237060546876,0.0603501610457897,0.0678022131323814,-0.0004926847759634
1769157685031,-0.093597412109375,-0.1324615478515625,-0.9875640869140624,0.058778628706932,0.0678450912237167,-0.0027100327424705
1769157685041,-0.095916748046875,-0.1302947998046875,-0.9820098876953124,0.0501675643026828,0.0565554201602935,-0.0067535103298723
1769157685052,-0.0990447998046875,-0.12957763671875,-0.9748382568359376,0.0442524142563343,0.0454657524824142,-0.0112071139737963
1769157685061,-0.098358154296875,-0.1307373046875,-0.973541259765625,0.0417381264269351,0.0275733042508363,-0.0187166966497898
1769157685072,-0.09478759765625,-0.13214111328125,-0.974456787109375,0.0325632691383361,0.0135666746646165,-0.0170554164797067
1769157685082,-0.0887451171875,-0.1357421875,-0.968109130859375,0.0240523386746644,0.0127083379775285,-0.0111221596598625
1769157685092,-0.0904388427734375,-0.1356964111328125,-0.9645233154296876,0.012705941684544,0.0119091235101223,-0.0182474479079246
1769157685102,-0.0922698974609375,-0.1353607177734375,-0.9685821533203124,0.0026740799658,0.022939670830965,-0.0131011549383401
1769157685112,-0.087677001953125,-0.137847900390625,-0.971832275390625,-0.0053028864786028,0.0360853001475334,-0.0054243262857198
1769157685122,-0.0867156982421875,-0.13775634765625,-0.9749603271484376,-0.0093980291858315,0.0466817505657672,0.0005134574603289
1769157685132,-0.0847015380859375,-0.134735107421875,-0.9787750244140624,-0.0118073904886841,0.0382880009710788,0.0021425131708383
1769157685142,-0.089141845703125,-0.129119873046875,-0.9812164306640624,-0.0136646796017885,0.0241237115114927,-0.0083615267649292
1769157685152,-0.091705322265625,-0.1255645751953125,-0.9822540283203124,-0.008968461304903,-0.005314870737493,-0.0123738450929522
1769157685162,-0.0871734619140625,-0.127410888671875,-0.988616943359375,-0.0030040456913411,-0.0337142869830131,-0.0189688969403505
1769157685172,-0.09173583984375,-0.1271209716796875,-0.9880218505859376,-0.0030112362001091,-0.0423583760857582,-0.0265756845474243
1769157685182,-0.0959930419921875,-0.1320648193359375,-0.9807586669921876,-0.0104534402489662,-0.0226568430662155,-0.0259277373552322
1769157685192,-0.0912017822265625,-0.140625,-0.9763336181640624,-0.0156111838296055,0.0129365716129541,-0.0196938104927539
1769157685202,-0.087615966796875,-0.1471710205078125,-0.973724365234375,-0.0233734995126724,0.051132958382368,-0.0055606802925467
1769157685212,-0.089385986328125,-0.148895263671875,-0.9730987548828124,-0.0325182601809501,0.0671984776854515,0.002642654813826
1769157685222,-0.089996337890625,-0.143310546875,-0.9765625,-0.0365984924137592,0.0615499131381511,0.0044858283363282
1769157685232,-0.0925445556640625,-0.1389312744140625,-0.984100341796875,-0.0350211001932621,0.0443948954343795,0.0053353770636022
1769157685242,-0.095977783203125,-0.1322784423828125,-0.9958648681640624,-0.0209204610437154,0.0092494245618581,0.0019369170768186
1769157685252,-0.097381591796875,-0.1271820068359375,-1.0068817138671875,-0.0052160671912133,-0.0255743358284235,-0.0039039277471601
1769157685262,-0.0956268310546875,-0.1243896484375,-1.011474609375,0.0127480197697877,-0.0392560586333274,-0.0086179887875914
1769157685272,-0.09716796875,-0.1267547607421875,-1.00927734375,0.0293608177453279,-0.0277437474578619,-0.0115099158138036
1769157685282,-0.09405517578125,-0.1306610107421875,-1.004913330078125,0.0381899960339069,-0.0016841830220073,-0.0054373759776353
1769157685293,-0.08807373046875,-0.134307861328125,-0.9930267333984376,0.0410329215228557,0.02333914488554,-0.0038394792936742
1769157685303,-0.087982177734375,-0.1378936767578125,-0.9814453125,0.0333683416247367,0.0528853200376033,0.0020128171890974
1769157685313,-0.08551025390625,-0.144744873046875,-0.9686737060546876,0.0123075321316719,0.0562140047550201,0.0094251930713653
1769157685323,-0.076507568359375,-0.1497344970703125,-0.95880126953125,-0.0058264639228582,0.0379210151731967,0.0127110015600919
1769157685333,-0.0811309814453125,-0.13934326171875,-0.963836669921875,-0.0131578799337148,0.0219345930963754,0.0029068402945995
1769157685343,-0.0941314697265625,-0.13006591796875,-0.973785400390625,-0.0130444290116429,-0.0017238641157746,-0.0046368297189474
1769157685353,-0.093780517578125,-0.126922607421875,-0.9824371337890624,-0.0091506214812397,-0.0159624554216861,-0.001612277701497
1769157685363,-0.087158203125,-0.125,-0.982940673828125,-0.0167883019894361,-0.0355976745486259,0.0124649256467819
1769157685373,-0.080322265625,-0.1357269287109375,-0.97723388671875,-0.0345992557704448,-0.0471845567226409,0.0179853923618793
1769157685383,-0.0849456787109375,-0.14471435546875,-0.9661712646484376,-0.0517295077443122,-0.0167454238981008,0.0151307499036192
1769157685393,-0.0922393798828125,-0.1457061767578125,-0.9620513916015624,-0.0639640688896179,0.0085772424936294,0.0188266839832067
1769157685403,-0.081512451171875,-0.1483154296875,-0.9682769775390624,-0.0632913559675216,0.0152545869350433,0.0236952099949121
1769157685413,-0.084197998046875,-0.1337890625,-0.9850311279296876,-0.0418718159198761,0.0154399424791336,0.0183345321565866
1769157685424,-0.096710205078125,-0.1169891357421875,-1.0058135986328125,-0.0248880386352539,-0.0068299430422484,0.0126454876735806
1769157685433,-0.093292236328125,-0.1183929443359375,-1.008209228515625,-0.0251772589981555,-0.0264055076986551,0.0154740307480096
1769157685443,-0.09112548828125,-0.126861572265625,-1.0037384033203125,-0.0198866222053766,-0.0368264578282833,0.0176125485450029
1769157685453,-0.0906524658203125,-0.13397216796875,-1.0086517333984375,-0.0088374335318803,-0.0430673100054264,0.0205156616866588
1769157685463,-0.0908050537109375,-0.138702392578125,-1.0114898681640625,0.0035041873343288,-0.0302415248006582,0.0183976497501134
1769157685473,-0.100830078125,-0.1388702392578125,-1.00750732421875,0.0274776965379714,0.006737264804542,0.0146809415891766
1769157685483,-0.1024932861328125,-0.1378936767578125,-1.0076446533203125,0.0567402429878711,0.0116092516109347,0.0062424493953585
1769157685493,-0.1020965576171875,-0.132720947265625,-1.005706787109375,0.0696989223361015,0.033859696239233,0.0016157397767528
1769157685503,-0.103302001953125,-0.12933349609375,-0.9874114990234376,0.0623699016869068,0.036727387458086,-0.0070318104699254
1769157685513,-0.097137451171875,-0.129425048828125,-0.9685211181640624,0.0489193387329578,0.0207188613712787,-0.0049068741500377
1769157685524,-0.0821075439453125,-0.1292724609375,-0.96844482421875,0.0334477052092552,0.0016650082543492,0.006728742737323
1769157685534,-0.073333740234375,-0.132476806640625,-0.9685821533203124,0.0137208718806505,-0.0207825098186731,0.0183901917189359
1769157685544,-0.0681304931640625,-0.1342010498046875,-0.969879150390625,0.0051787830889225,-0.0241221133619546,0.0293198060244321
1769157685554,-0.070648193359375,-0.1356048583984375,-0.9823455810546876,0.0107551757246255,-0.052904225885868,0.0344123020768165
1769157685564,-0.07110595703125,-0.1390533447265625,-0.988189697265625,0.0114531908184289,-0.0301081016659736,0.0389231629669666
1769157685574,-0.07904052734375,-0.1431732177734375,-0.9882659912109376,0.0201188512146472,-0.0260664876550436,0.0416105613112449
1769157685584,-0.0817108154296875,-0.1442718505859375,-0.9898223876953124,0.0223465841263532,0.0004253068182151,0.047494813799858
1769157685594,-0.089996337890625,-0.13824462890625,-0.9844512939453124,0.0114009929820895,0.0093176020309329,0.0488461032509803
1769157685604,-0.097991943359375,-0.1348876953125,-0.9727020263671876,-0.0100156161934137,0.0156407449394464,0.0525167360901832
1769157685614,-0.0904083251953125,-0.1398468017578125,-0.9746246337890624,-0.0374246053397655,-0.0117706395685672,0.0632226467132568
1769157685624,-0.07073974609375,-0.146881103515625,-0.973663330078125,-0.0466489940881729,-0.0511228404939174,0.0703971982002258
1769157685634,-0.073760986328125,-0.1383514404296875,-0.99603271484375,-0.0287123378366231,-0.0568781979382038,0.0682293847203254
1769157685644,-0.0895233154296875,-0.129730224609375,-1.01214599609375,0.0001587244041729,-0.0623347461223602,0.067940168082714
1769157685654,-0.0898284912109375,-0.1376495361328125,-1.0058746337890625,0.0176216047257184,-0.0370086170732975,0.0737463906407356
1769157685664,-0.0880889892578125,-0.1418304443359375,-0.9976348876953124,0.0316095910966396,-0.016115054488182,0.0763024911284446
1769157685674,-0.094818115234375,-0.1371917724609375,-0.99652099609375,0.0365428291261196,-0.0069588399492204,0.0743685066699981
1769157685684,-0.102752685546875,-0.129852294921875,-0.9916229248046876,0.037585724145174,0.003196059493348,0.065789133310318
1769157685695,-0.113128662109375,-0.1211700439453125,-0.9890899658203124,0.0368405729532241,0.0079727051779627,0.0501710250973701
1769157685704,-0.1096343994140625,-0.1212310791015625,-0.98895263671875,0.0326812490820884,0.0115064540877938,0.0513396188616752
1769157685714,-0.0961151123046875,-0.1268768310546875,-0.9806365966796876,0.0205393638461828,0.0005094627267681,0.050913780927658
1769157685725,-0.0892791748046875,-0.130828857421875,-0.9724578857421876,0.0036930055357515,-0.0146010471507906,0.0506503954529762
1769157685734,-0.0834808349609375,-0.1346435546875,-0.97186279296875,-0.0146156940609216,-0.0179789997637271,0.0564598143100738
1769157685744,-0.0778961181640625,-0.1376953125,-0.972259521484375,-0.0364264510571956,0.0003254382754676,0.0708464756608009
1769157685755,-0.07574462890625,-0.13726806640625,-0.9832305908203124,-0.0413501039147377,-0.0061644189991056,0.0787187814712524
1769157685765,-0.08026123046875,-0.1319580078125,-0.9978790283203124,-0.0332519635558128,0.0077540599741041,0.0847670882940292
1769157685775,-0.087738037109375,-0.1324310302734375,-1.013641357421875,-0.0197758357971906,0.0416347943246364,0.0862960070371627
1769157685785,-0.0948333740234375,-0.1334228515625,-1.01751708984375,0.012942430563271,0.0508733019232749,0.0893224254250526
1769157685795,-0.0921478271484375,-0.1359710693359375,-1.0250244140625,0.0562124066054821,0.0782396793365478,0.0819033905863761
1769157685805,-0.104583740234375,-0.1337432861328125,-1.03759765625,0.1000922471284866,0.0517151243984699,0.0735003128647804
1769157685815,-0.09808349609375,-0.13641357421875,-1.0318450927734375,0.1286096423864364,0.0304428599774837,0.0783187747001648
1769157685825,-0.095184326171875,-0.138885498046875,-1.014862060546875,0.1404023915529251,-0.0144764110445976,0.0650674179196357
1769157685835,-0.1019287109375,-0.1381683349609375,-0.9889068603515624,0.1253941357135772,-0.0458844006061553,0.0514591969549655
1769157685845,-0.1002044677734375,-0.147186279296875,-0.945587158203125,0.0850112959742546,-0.0433554649353027,0.0433932803571224
1769157685855,-0.1043853759765625,-0.1517486572265625,-0.918914794921875,0.0432761013507843,-0.0123749105259776,0.036841370165348
1769157685865,-0.10772705078125,-0.14990234375,-0.907318115234375,0.0072248894721269,0.0101538337767124,0.0365407019853591
1769157685875,-0.1047210693359375,-0.147705078125,-0.90765380859375,-0.023234749212861,0.0452524311840534,0.035814456641674
1769157685885,-0.1085205078125,-0.142608642578125,-0.92462158203125,-0.0463733561336994,0.0358046032488346,0.0330788567662239
1769157685895,-0.1067352294921875,-0.1376190185546875,-0.945220947265625,-0.0528869181871414,0.0237087905406951,0.0316372886300087
1769157685905,-0.09674072265625,-0.138275146484375,-0.9758453369140624,-0.0453395172953605,-0.0062507055699825,0.0313435420393943
1769157685915,-0.095672607421875,-0.1363677978515625,-0.994964599609375,-0.0381883978843688,-0.0315059944987297,0.0303315408527851
1769157685926,-0.0964508056640625,-0.1405181884765625,-0.9885101318359376,-0.0454002395272254,-0.0311659090220928,0.0299903899431228
1769157685935,-0.0941314697265625,-0.14227294921875,-0.97332763671875,-0.0551886856555938,-0.0122281704097986,0.0329933688044548
1769157685945,-0.0944061279296875,-0.143768310546875,-0.9676055908203124,-0.0724837854504585,0.0063005066476762,0.0387159697711467
1769157685955,-0.093719482421875,-0.1430816650390625,-0.9655914306640624,-0.0883679464459419,0.0224358011037111,0.0465853437781333
1769157685966,-0.087860107421875,-0.145904541015625,-0.9709014892578124,-0.0968591645359993,0.0194812901318073,0.052370797842741
1769157685975,-0.081329345703125,-0.152130126953125,-0.9789886474609376,-0.0895461291074752,0.0086044073104858,0.0485662035644054
1769157685986,-0.0906219482421875,-0.1418914794921875,-0.99737548828125,-0.062409583479166,0.0132622756063938,0.0387924015522003
1769157685996,-0.0968780517578125,-0.136444091796875,-1.015533447265625,-0.0298223439604043,0.0110539821907877,0.03796948492527
1769157686006,-0.0976409912109375,-0.1273193359375,-1.0269927978515625,0.0089924298226833,0.000343814084772,0.0198117885738611
1769157686016,-0.11871337890625,-0.112884521484375,-1.034820556640625,0.0391199700534343,0.002534530358389,0.0105029745027422
1769157686026,-0.1114501953125,-0.124298095703125,-1.0182342529296875,0.0401921607553958,0.0082491412758827,0.0227319430559873
1769157686036,-0.0975494384765625,-0.148773193359375,-0.9787139892578124,0.0092062810435891,0.0186855364590883,0.0253101494163274
1769157686046,-0.099365234375,-0.1594085693359375,-0.9485015869140624,-0.0245958901941776,0.030737405642867,0.0150402020663023
1769157686057,-0.11004638671875,-0.1460723876953125,-0.9434967041015624,-0.0438090004026889,0.0151419350877404,-0.0069306101649999
1769157686066,-0.118743896484375,-0.1287841796875,-0.9456024169921876,-0.057817492634058,0.0144851990044116,-0.0197180453687906
1769157686076,-0.1106109619140625,-0.127410888671875,-0.9554443359375,-0.0718070790171623,0.0162141229957342,-0.0158396828919649
1769157686086,-0.09600830078125,-0.1265411376953125,-0.9673614501953124,-0.0762620121240615,0.0228339433670043,-0.0078227696940302
1769157686096,-0.0919036865234375,-0.1261138916015625,-0.98834228515625,-0.0648908466100692,0.0140929156914353,-0.0068507157266139
1769157686106,-0.08917236328125,-0.1296539306640625,-1.0128021240234375,-0.0434191115200519,-0.0049465554766356,-0.0112513229250907
1769157686116,-0.0892181396484375,-0.1347198486328125,-1.02294921875,-0.021075190976262,-0.0100587597116827,-0.014136591926217
1769157686126,-0.087371826171875,-0.1402435302734375,-1.0178375244140625,0.0031931300181895,-0.0115823540836572,-0.0129272500053048
1769157686136,-0.0922698974609375,-0.1413421630859375,-1.0084991455078125,0.0086957532912492,-0.0012154667638242,-0.0137506993487477
1769157686146,-0.09600830078125,-0.142181396484375,-0.9888763427734376,-0.0024109596852213,0.0065247444435954,-0.0094233294948935
1769157686156,-0.0937652587890625,-0.140777587890625,-0.9694366455078124,-0.0219300668686628,0.007651527877897,-0.0048328381963074
1769157686166,-0.093719482421875,-0.136016845703125,-0.9618377685546876,-0.0405154675245285,0.0014074806822463,-0.0091426316648721
1769157686176,-0.097320556640625,-0.130401611328125,-0.961822509765625,-0.0524315163493156,0.0039020637050271,-0.0114249605685472
1769157686186,-0.09698486328125,-0.1277313232421875,-0.9625701904296876,-0.0590899512171745,0.0006578007596544,-0.0146870668977499
1769157686197,-0.09521484375,-0.1255645751953125,-0.9745330810546876,-0.0548845529556274,-0.0082049332559108,-0.0203771777451038
1769157686207,-0.0940704345703125,-0.1287994384765625,-0.986328125,-0.0453618876636028,-0.0104696853086352,-0.0209356416016817
1769157686216,-0.0912322998046875,-0.1339569091796875,-0.9924163818359376,-0.0337763391435146,0.0072102420963346,-0.0163784399628639
1769157686227,-0.0898590087890625,-0.137176513671875,-0.996185302734375,-0.0141227431595325,0.0169656667858362,-0.012271580286324
1769157686237,-0.090118408203125,-0.136444091796875,-1.008453369140625,0.0010828413069248,0.014200241304934,-0.0024799355305731
1769157686247,-0.0910491943359375,-0.138702392578125,-1.0080108642578125,0.0065780077129602,0.0085423551499843,0.0003539340978022
1769157686257,-0.0939178466796875,-0.1400604248046875,-1.003082275390625,0.0095801893621683,-0.0012144014472141,0.0027907264884561
1769157686267,-0.095489501953125,-0.140716552734375,-0.9950408935546876,0.0078597869724035,-0.011259845457971,0.0097117498517036
1769157686277,-0.090789794921875,-0.145172119140625,-0.9873046875,-0.0021302625536918,-0.0282534752041101,0.0162064004689455
1769157686287,-0.0892791748046875,-0.14288330078125,-0.9755096435546876,-0.0121823642402887,-0.0505726300179958,0.0072208950296044
1769157686297,-0.101318359375,-0.128875732421875,-0.97247314453125,-0.0116819562390446,-0.055282961577177,0.0008117315010167
1769157686307,-0.1044769287109375,-0.1158599853515625,-0.975250244140625,-0.009534116834402,-0.0516307018697261,0.0019006980583071
1769157686317,-0.102142333984375,-0.11724853515625,-0.9703216552734376,-0.0201414879411458,-0.0365308448672294,0.0049963565543293
1769157686327,-0.1009979248046875,-0.121734619140625,-0.9687652587890624,-0.0272364150732755,-0.0300899911671876,0.0027864654548466
1769157686337,-0.09613037109375,-0.1261138916015625,-0.9718170166015624,-0.0353318899869918,-0.0176746007055044,0.0038298920262604
1769157686347,-0.0931396484375,-0.1263275146484375,-0.9762115478515624,-0.0376309975981712,-0.0021821942646056,0.0067511131055653
1769157686357,-0.09356689453125,-0.1250152587890625,-0.9872589111328124,-0.0363750532269477,0.000835433602333,0.0069742863997817
1769157686367,-0.0929718017578125,-0.122955322265625,-0.9986724853515624,-0.0313600525259971,-0.0074123763479292,0.0096092177554965
1769157686377,-0.0918731689453125,-0.12310791015625,-1.0085601806640625,-0.0211103446781635,-0.0205119326710701,0.0107016460970044
1769157686387,-0.0918426513671875,-0.125823974609375,-1.01116943359375,-0.0112316152080893,-0.021819544956088,0.0113762253895401
1769157686397,-0.090789794921875,-0.132110595703125,-1.00299072265625,-0.000989097985439,-0.0336876548826694,0.0153480637818574
1769157686407,-0.08868408203125,-0.136688232421875,-0.99273681640625,0.0062608253210783,-0.0201864950358867,0.0185545086860656
1769157686417,-0.0927276611328125,-0.1412200927734375,-0.985321044921875,0.0066861324012279,-0.0249112080782651,0.0125458855181932
1769157686427,-0.0964813232421875,-0.1360321044921875,-0.97344970703125,-0.0036717001348733,-0.0260861944407224,0.0133536225184798
1769157686437,-0.096893310546875,-0.1319427490234375,-0.9658966064453124,-0.0186517145484685,-0.0186948589980602,0.0216147471219301
1769157686448,-0.0983428955078125,-0.1273040771484375,-0.9639739990234376,-0.0368789210915565,-0.0171129405498504,0.024679247289896
1769157686458,-0.10455322265625,-0.121337890625,-0.962982177734375,-0.0553783029317855,-0.0080251693725585,0.0199223086237907
1769157686468,-0.1084442138671875,-0.1167449951171875,-0.9658355712890624,-0.0653001740574836,0.0011395666515454,0.0171651374548673
1769157686478,-0.1053466796875,-0.1168670654296875,-0.9757080078125,-0.0669406875967979,-0.0049305763095617,0.0129440277814865
1769157686488,-0.10052490234375,-0.11865234375,-0.985260009765625,-0.0675550773739814,-0.0185443889349699,0.0098398476839065
1769157686498,-0.0948333740234375,-0.1220550537109375,-0.9886474609375,-0.0628774985671043,-0.0155725684016942,0.0118854213505983
1769157686508,-0.0914154052734375,-0.123016357421875,-0.9967193603515624,-0.0479827038943767,-0.0191755592823028,0.0087591363117098
1769157686518,-0.09735107421875,-0.1245269775390625,-1.0035858154296875,-0.0307339448481798,-0.0283432248979806,0.0041641187854111
1769157686528,-0.0932769775390625,-0.12786865234375,-1.0056304931640625,-0.017859423533082,-0.0313515327870845,0.0073974626138806
1769157686538,-0.0895233154296875,-0.1307525634765625,-0.99493408203125,-0.0171728618443012,-0.0125690549612045,0.0109908655285835
1769157686548,-0.09869384765625,-0.1314697265625,-0.9782257080078124,-0.0281900931149721,0.0032898029312491,0.012622051872313
1769157686558,-0.101837158203125,-0.1279449462890625,-0.969329833984375,-0.0351236313581466,-0.0003494067350402,0.0107107013463974
1769157686568,-0.099853515625,-0.1246337890625,-0.9761505126953124,-0.0369385778903961,-0.0156189072877168,0.0058616176247596
1769157686578,-0.10009765625,-0.120025634765625,-0.9812164306640624,-0.0363601371645927,-0.0205758493393659,0.0072368737310171
1769157686588,-0.1015777587890625,-0.1179656982421875,-0.9902801513671876,-0.0283496156334877,-0.0298982448875904,0.0063801351934671
1769157686598,-0.1006622314453125,-0.1198577880859375,-0.998748779296875,-0.0214182063937187,-0.025218004360795,0.0112670352682471
1769157686608,-0.1035003662109375,-0.11767578125,-1.0046539306640625,-0.0147935934364795,-0.0259186830371618,0.013107013888657
1769157686618,-0.1057281494140625,-0.117767333984375,-1.004608154296875,-0.0142977125942707,-0.0220531038939952,0.0133150061592459
1769157686628,-0.11016845703125,-0.119293212890625,-0.9961700439453124,-0.0189766213297843,-0.0162064004689455,0.0096297245472669
1769157686638,-0.1123504638671875,-0.12115478515625,-0.98883056640625,-0.0188208259642124,-0.0081090591847896,0.0077452715486288
1769157686648,-0.1117706298828125,-0.1222076416015625,-0.98712158203125,-0.0155555242672562,0.002568885218352,0.0052829124033451
1769157686659,-0.1068115234375,-0.13104248046875,-0.9822540283203124,-0.0157611202448606,0.0079655144363641,0.0066448533907532
1769157686668,-0.10211181640625,-0.1339874267578125,-0.9796142578125,-0.0059806606732308,0.0169592760503292,0.0006018743733875
1769157686680,-0.1085968017578125,-0.1225738525390625,-0.99090576171875,0.0116409435868263,0.0202682539820671,0.0017313209827989
1769157686688,-0.1055908203125,-0.1178741455078125,-0.9979705810546876,0.0279679857194423,0.0118984710425138,-0.0052466937340795
1769157686699,-0.110870361328125,-0.10662841796875,-0.9996337890625,0.0427027232944965,0.0034392061643302,-0.0186341386288404
1769157686709,-0.1195220947265625,-0.0955810546875,-1.0055084228515625,0.0596801079809665,0.0018809906905516,-0.0182650238275527
1769157686719,-0.1134033203125,-0.1038055419921875,-1.0041351318359375,0.0584446676075458,0.0053106094710528,-0.0082760397344827
1769157686729,-0.0975341796875,-0.12835693359375,-0.98114013671875,0.0324988216161727,0.006916229147464,0.0098851211369037
1769157686739,-0.09442138671875,-0.1368255615234375,-0.9605712890625,0.0131006222218275,0.0209247227758169,-0.0029664952307939
1769157686749,-0.12091064453125,-0.1177978515625,-0.9626312255859376,0.0009752495680004,0.0286726579070091,-0.01846769079566
1769157686759,-0.1258697509765625,-0.11016845703125,-0.9611053466796876,-0.0231660399585962,0.0363156646490097,-0.0198493376374244
1769157686769,-0.1138458251953125,-0.1142120361328125,-0.953338623046875,-0.052959356456995,0.024605743587017,-0.0129360388964414
1769157686779,-0.1062164306640625,-0.11663818359375,-0.95941162109375,-0.0755813121795654,-0.005550826434046,-0.0165515467524528
1769157686789,-0.0994110107421875,-0.11865234375,-0.9722747802734376,-0.0810181498527526,-0.0238054636865854,-0.0175417084246873
1769157686799,-0.092254638671875,-0.12066650390625,-0.9862518310546876,-0.0725844576954841,-0.0394347570836544,-0.0121778370812535
1769157686809,-0.0878143310546875,-0.12420654296875,-0.99725341796875,-0.0575237460434436,-0.0412084236741066,-0.0116454707458615
1769157686819,-0.0938262939453125,-0.1244964599609375,-1.0022430419921875,-0.0377356596291065,-0.025114407762885,-0.0099801961332559
1769157686829,-0.101959228515625,-0.1226348876953125,-1.004547119140625,-0.0246851071715354,0.0109256180003285,-0.01192909758538
1769157686840,-0.104278564453125,-0.127044677734375,-0.9976654052734376,-0.0210613422095775,0.0516304373741149,-0.007145260926336
1769157686849,-0.1070709228515625,-0.1263885498046875,-0.9925537109375,-0.0099040297791361,0.0543910712003707,-0.0137554928660392
1769157686859,-0.1106109619140625,-0.122039794921875,-0.997833251953125,0.0013781858142465,0.0426300168037414,-0.0191462635993957
1769157686869,-0.10791015625,-0.1211700439453125,-0.995941162109375,-0.000809600984212,0.0168695282191038,-0.022227007895708
1769157686879,-0.107421875,-0.1190948486328125,-0.98876953125,-0.008542088791728,-0.0185747500509023,-0.0280915554612875
1769157686889,-0.106292724609375,-0.1190948486328125,-0.984344482421875,-0.0147627005353569,-0.035684760659933,-0.0319283716380596
1769157686900,-0.104400634765625,-0.11895751953125,-0.9871063232421876,-0.0113344136625528,-0.0411604866385459,-0.0325883030891418
1769157686910,-0.1005859375,-0.119842529296875,-0.9943084716796876,-0.0017278589075431,-0.0343401320278644,-0.0277783684432506
1769157686920,-0.09918212890625,-0.1201019287109375,-0.99737548828125,0.0064288708381354,-0.016365123912692,-0.0220656208693981
1769157686930,-0.102813720703125,-0.1197052001953125,-0.997161865234375,0.0132193993777036,0.0124225812032818,-0.0215809252113103
1769157686940,-0.105438232421875,-0.11883544921875,-0.9965057373046876,0.0214427076280117,0.0258467774838209,-0.0190943330526351
1769157686950,-0.105194091796875,-0.117645263671875,-0.997589111328125,0.0265501178801059,0.0331944376230239,-0.0181864611804485
1769157686960,-0.1012420654296875,-0.1253204345703125,-0.995269775390625,0.0331390462815761,0.0370759963989257,-0.0130497552454471
1769157686970,-0.091064453125,-0.1355743408203125,-0.990966796875,0.0274747665971517,0.0278034023940563,-0.0064965151250362
1769157686980,-0.090423583984375,-0.1344146728515625,-0.984100341796875,0.0369721315801143,0.0180932506918907,-0.0127781126648187
1769157686990,-0.10107421875,-0.1180267333984375,-0.9949951171875,0.0508096516132354,-0.0082803005352616,-0.0151627073064446
1769157687000,-0.1020050048828125,-0.110992431640625,-0.999237060546875,0.0532914511859416,-0.0211084801703691,-0.0167779140174388
1769157687010,-0.1037750244140625,-0.1163330078125,-0.9832305908203124,0.036879189312458,-0.0096283927559852,-0.0138580249622464
1769157687020,-0.1057281494140625,-0.12109375,-0.9658355712890624,0.0117437411099672,0.0134018259122967,-0.0127474870532751
1769157687030,-0.104156494140625,-0.1229705810546875,-0.9537506103515624,-0.0160612575709819,0.0294867865741252,-0.0116790262982249
1769157687040,-0.1052398681640625,-0.12371826171875,-0.953277587890625,-0.037762027233839,0.0428007282316684,-0.0112587800249457
1769157687050,-0.1005706787109375,-0.120574951171875,-0.96551513671875,-0.0382355377078056,0.0313435420393943,-0.0159507375210523
1769157687060,-0.0969390869140625,-0.117706298828125,-0.988739013671875,-0.0238219760358333,0.006417419295758,-0.0202219150960445
1769157687070,-0.0954437255859375,-0.1207275390625,-1.0008087158203125,-0.008274707943201,-0.0045918221585452,-0.0237450096756219
1769157687080,-0.092041015625,-0.1244659423828125,-1.002410888671875,0.0106238825246691,-0.0148673625662922,-0.019277824088931
1769157687090,-0.09136962890625,-0.1251373291015625,-1.0031585693359375,0.0231495276093482,-0.0189028512686491,-0.0134875793009996
1769157687100,-0.096343994140625,-0.1275482177734375,-0.9951629638671876,0.022782277315855,-0.0170767214149236,-0.0116137787699699
1769157687110,-0.10345458984375,-0.1267547607421875,-0.9824981689453124,0.0079316925257444,-0.0074589815922081,-0.0080914823338389
1769157687121,-0.1060638427734375,-0.1288909912109375,-0.9659881591796876,-0.0140756051987409,-0.0039262985810637,-0.0070419306866824
1769157687130,-0.1055908203125,-0.1266021728515625,-0.96112060546875,-0.036142025142908,0.0059761335141956,-0.0065740132704377
1769157687141,-0.105865478515625,-0.122344970703125,-0.96575927734375,-0.0479195900261402,0.006557501386851,-0.0077940071932971
1769157687151,-0.104583740234375,-0.1209869384765625,-0.97491455078125,-0.0481683276593685,-0.0014375743921846,-0.0086699211969971
1769157687161,-0.1038665771484375,-0.117462158203125,-0.982666015625,-0.0453443117439746,-0.0057859835214912,-0.0089386338368058
1769157687171,-0.0990142822265625,-0.1173858642578125,-0.988983154296875,-0.0297054313123226,-0.0250116102397441,-0.011388742364943
1769157687181,-0.0945281982421875,-0.117919921875,-1.0014190673828125,-0.0148172955960035,-0.0315661802887916,-0.0071987905539572
1769157687191,-0.09393310546875,-0.1194000244140625,-1.005859375,0.0056459014303982,-0.0276031326502561,-0.0052557485178112
1769157687201,-0.09930419921875,-0.1199493408203125,-1.00872802734375,0.0220437832176685,-0.0108550442382693,-0.0045095304958522
1769157687211,-0.103179931640625,-0.1227569580078125,-1.005859375,0.0338708832859993,0.0108846053481101,-0.0072531192563474
1769157687221,-0.1060028076171875,-0.126007080078125,-0.996917724609375,0.0334538295865058,0.0383420623838901,-0.005256547126919
1769157687231,-0.1082000732421875,-0.1278839111328125,-0.9823150634765624,0.025112809613347,0.0529380477964878,-0.0054637412540614
1769157687241,-0.108001708984375,-0.12896728515625,-0.9743804931640624,0.0166080053895711,0.0335449092090129,-0.0085772424936294
1769157687251,-0.1015625,-0.1268157958984375,-0.9753570556640624,0.0064584319479763,-0.0002615224220789,-0.0077306241728365
1769157687261,-0.097900390625,-0.1239166259765625,-0.9715423583984376,-0.0122015383094549,-0.0316223762929439,-0.0088094705715775
1769157687271,-0.0983428955078125,-0.12164306640625,-0.96856689453125,-0.0247317124158144,-0.051088485866785,-0.0115959355607628
1769157687281,-0.096710205078125,-0.119415283203125,-0.969482421875,-0.0369838513433933,-0.0460785441100597,-0.0077982684597373
1769157687291,-0.0972442626953125,-0.1212921142578125,-0.966033935546875,-0.0518032759428024,-0.0171848461031913,-0.0065247444435954
1769157687301,-0.100860595703125,-0.1241302490234375,-0.9609832763671876,-0.0657598376274108,0.0230794865638017,-0.0041537322103977
1769157687311,-0.103790283203125,-0.12384033203125,-0.9660491943359376,-0.0627984032034874,0.0350234992802143,-0.0084347641095519
1769157687321,-0.1031341552734375,-0.1204681396484375,-0.9891204833984376,-0.0484333112835884,0.0343350693583488,-0.0069037126377224
1769157687331,-0.1003570556640625,-0.1187286376953125,-1.0096588134765625,-0.0213665403425693,0.0223119631409645,-0.0096728671342134
1769157687341,-0.1020660400390625,-0.1161346435546875,-1.0226593017578125,0.0101583618670701,0.0108798118308186,-0.0121623901650309
1769157687352,-0.100921630859375,-0.1197967529296875,-1.0263519287109375,0.0321653932332992,-0.0047505465336143,-0.0051422975957393
1769157687361,-0.091064453125,-0.1311187744140625,-1.0155029296875,0.0330564863979816,-0.0240297019481658,0.00393428793177
1769157687372,-0.092315673828125,-0.133453369140625,-0.9979705810546876,0.0357896871864795,-0.0378432534635067,-0.0024674187880009
1769157687382,-0.1065521240234375,-0.12860107421875,-0.993072509765625,0.0320607312023639,-0.040882185101509,-0.002544383984059
1769157687392,-0.104217529296875,-0.127655029296875,-0.9792938232421876,0.0166668612509965,-0.021498367190361,-0.0012013519881293
1769157687402,-0.10736083984375,-0.1248321533203125,-0.962554931640625,-0.002291117561981,-0.0073138391599059,-0.0049068741500377
1769157687412,-0.116241455078125,-0.113006591796875,-0.962188720703125,-0.0181851293891668,0.0050504184328019,-0.0088696582242846
1769157687422,-0.1149139404296875,-0.1178436279296875,-0.958282470703125,-0.0431061908602714,0.0213444363325834,-0.0034381409641355
1769157687432,-0.100067138671875,-0.1368255615234375,-0.94915771484375,-0.0696544423699379,0.022972160950303,0.0040165795944631
1769157687442,-0.099151611328125,-0.1349334716796875,-0.960693359375,-0.0576859340071678,0.0044980789534747,-0.0132739935070276
1769157687452,-0.114837646484375,-0.1147003173828125,-0.9998779296875,-0.0237082596868276,-0.0143421879038214,-0.0257213413715362
1769157687462,-0.115264892578125,-0.1047821044921875,-1.017242431640625,0.0014250575331971,-0.0222038384526968,-0.0245767161250114
1769157687472,-0.11151123046875,-0.1092071533203125,-1.010345458984375,0.0110603738576173,-0.022881880402565,-0.0236683115363121
1769157687482,-0.10845947265625,-0.1174163818359375,-1.0000762939453125,0.0034810178913176,-0.0202171206474304,-0.0192203000187873
1769157687492,-0.1024017333984375,-0.1229248046875,-0.991058349609375,-0.0117583889514207,0.0034666368737816,-0.0084518082439899
1769157687502,-0.0986328125,-0.1288909912109375,-0.98297119140625,-0.0231476631015539,0.0106366649270057,-0.0008349010022357
1769157687512,-0.095947265625,-0.12933349609375,-0.982513427734375,-0.0295174121856689,0.0049111354164779,-0.0019915117882192
1769157687522,-0.098480224609375,-0.128448486328125,-0.9823455810546876,-0.033702302724123,0.0130952959880232,-0.0034685009159147
1769157687532,-0.0986480712890625,-0.126373291015625,-0.98272705078125,-0.0281802397221326,0.0097815245389938,-0.0008665926288813
1769157687542,-0.099853515625,-0.1244354248046875,-0.9910736083984376,-0.0119594577699899,-0.0042551988735795,-0.0092182653024792
1769157687552,-0.1006011962890625,-0.122283935546875,-1.0008392333984375,0.006572681479156,-0.0091373054310679,-0.016140354797244
1769157687562,-0.09991455078125,-0.1207733154296875,-1.0023193359375,0.0307411346584558,-0.0128196580335497,-0.016867397353053
1769157687572,-0.0993194580078125,-0.12109375,-1.0035858154296875,0.0417996458709239,-0.0118662463501095,-0.016437828540802
1769157687582,-0.09967041015625,-0.122283935546875,-0.9936676025390624,0.038627553731203,-0.0019662117119878,-0.0118193747475743
1769157687592,-0.1033172607421875,-0.122314453125,-0.982391357421875,0.025670476257801,0.0025363946333527,-0.0116609167307615
1769157687602,-0.10626220703125,-0.12200927734375,-0.9723663330078124,0.0047404267825186,0.0055228634737432,-0.0129695944488048
1769157687613,-0.1084747314453125,-0.1211395263671875,-0.9654388427734376,-0.0102869924157857,0.0053188651800155,-0.0148907983675599
1769157687623,-0.1065216064453125,-0.1225128173828125,-0.965850830078125,-0.0250744596123695,0.0058810585178434,-0.0158005338162183
1769157687633,-0.1039276123046875,-0.1210479736328125,-0.970855712890625,-0.0294681433588266,-0.0038083202671259,-0.0155038582161068
1769157687643,-0.10137939453125,-0.120574951171875,-0.9792022705078124,-0.0251341145485639,-0.0104571683332324,-0.015010374598205
1769157687653,-0.0958404541015625,-0.1244354248046875,-0.989166259765625,-0.0180397201329469,-0.0178445111960172,-0.0034011229872703
1769157687663,-0.085693359375,-0.1378021240234375,-0.993408203125,-0.0175321213901042,-0.031480960547924,0.0088171940296888
1769157687673,-0.0828704833984375,-0.140655517578125,-0.9967803955078124,0.004186222795397,-0.0349281579256057,0.0036711674183607
1769157687683,-0.1049346923828125,-0.125457763671875,-1.013336181640625,0.0343750193715095,-0.023582823574543,-0.0074030552059412
1769157687693,-0.115447998046875,-0.115509033203125,-1.0135040283203125,0.0570441111922264,-0.0126878321170806,-0.0099325254559516
1769157687703,-0.112152099609375,-0.1179046630859375,-1.0102081298828125,0.0650186836719513,-0.0073300846852362,-0.0108542451635003
1769157687713,-0.109375,-0.122161865234375,-0.999664306640625,0.0657909959554672,0.0037579864729195,-0.0092097437009215
1769157687723,-0.1077880859375,-0.120697021484375,-0.9923858642578124,0.0622876100242137,-0.0046882289461791,-0.0073633738793432
1769157687733,-0.1064453125,-0.1157989501953125,-0.9884185791015624,0.0472324937582016,-0.0104036387056112,-0.0107184248045086
1769157687743,-0.1107635498046875,-0.1158905029296875,-0.9787445068359376,0.029845779761672,-0.0189649034291505,-0.0167169291526079
1769157687753,-0.1090545654296875,-0.11834716796875,-0.970489501953125,0.0156817585229873,-0.0247351732105016,-0.0200986098498106
1769157687763,-0.10296630859375,-0.1230010986328125,-0.966827392578125,-0.0030626351945102,-0.0217838585376739,-0.0196647811681032
1769157687773,-0.099639892578125,-0.1280059814453125,-0.960357666015625,-0.018958244472742,-0.0279852952808141,-0.0197169799357652
1769157687783,-0.0982208251953125,-0.1303863525390625,-0.9591827392578124,-0.0360959507524967,-0.000266049784841,-0.017002684995532
1769157687793,-0.10015869140625,-0.130828857421875,-0.96337890625,-0.0408712662756443,0.0057042245753109,-0.0134582845494151
1769157687803,-0.100311279296875,-0.12744140625,-0.9763641357421876,-0.0358602628111839,0.0099365198984742,-0.0118308262899518
1769157687814,-0.1033935546875,-0.1255340576171875,-0.99151611328125,-0.0254196058958768,0.0203833021223545,-0.0104465158656239
1769157687824,-0.104949951171875,-0.1235504150390625,-1.00103759765625,-0.0079527320340275,0.0222429875284433,-0.0067319385707378
1769157687834,-0.104888916015625,-0.1230316162109375,-1.0142059326171875,0.017078585922718,0.0139017011970281,-0.005552424583584
1769157687844,-0.1066436767578125,-0.1211090087890625,-1.0240478515625,0.047217845916748,0.006140184123069,-0.0087000150233507
1769157687854,-0.110260009765625,-0.1207427978515625,-1.0254669189453125,0.0697623044252395,-0.0016034892760217,-0.0116121815517544
1769157687864,-0.10980224609375,-0.1219940185546875,-1.015655517578125,0.0804610177874565,-0.0141781372949481,-0.0144849326461553
1769157687874,-0.11181640625,-0.1216278076171875,-1.004730224609375,0.0800551548600196,-0.0154141103848814,-0.0173494294285774
1769157687884,-0.1159820556640625,-0.124481201171875,-0.9883270263671876,0.0641989633440971,-0.0008468852029182,-0.0187033805996179
1769157687894,-0.115814208984375,-0.127410888671875,-0.9660797119140624,0.0422574430704116,0.0256017670035362,-0.0199121888726949
1769157687904,-0.112945556640625,-0.1279144287109375,-0.9548187255859376,0.0211305860430002,0.0244579389691352,-0.0217902492731809
1769157687914,-0.1060791015625,-0.127899169921875,-0.952911376953125,0.0011358382180333,0.0072459285147488,-0.0236507337540388
1769157687924,-0.0972747802734375,-0.12646484375,-0.9605560302734376,-0.0076049226336181,-0.0101586282253265,-0.0233956035226583
1769157687934,-0.09283447265625,-0.129302978515625,-0.967315673828125,-0.0108087053522467,-0.0212466996163129,-0.0221332646906375
1769157687944,-0.0908203125,-0.129852294921875,-0.978515625,-0.0045955507084727,-0.0221010409295558,-0.0205207206308841
1769157687954,-0.095001220703125,-0.127655029296875,-0.990631103515625,0.0110758207738399,-0.0131051493808627,-0.0205833055078983
1769157687964,-0.1038970947265625,-0.1257781982421875,-1.0030364990234375,0.0292969029396772,0.0063159526325762,-0.022506907582283
1769157687974,-0.1100616455078125,-0.1244964599609375,-1.007843017578125,0.0411101505160331,0.0334469079971313,-0.0189910009503364
1769157687984,-0.1128082275390625,-0.125701904296875,-1.00347900390625,0.0486721992492675,0.0466282218694686,-0.0150758884847164
1769157687994,-0.1132049560546875,-0.1250457763671875,-0.998291015625,0.047279629856348,0.0354424118995666,-0.0173550210893154
1769157688004,-0.111419677734375,-0.126129150390625,-0.990966796875,0.0397998765110969,0.0165651272982358,-0.0188764855265617
1769157688014,-0.109344482421875,-0.124908447265625,-0.986236572265625,0.0327587462961673,6.311691686278209e-05,-0.0221148896962404
1769157688024,-0.1100311279296875,-0.124053955078125,-0.9791412353515624,0.0261045712977647,-0.0134300552308559,-0.0277567971497774
1769157688034,-0.1094818115234375,-0.1276702880859375,-0.972076416015625,0.0197425447404384,-0.0069071743637323,-0.0324439592659473
1769157688044,-0.1024322509765625,-0.1348724365234375,-0.9673004150390624,0.009041697718203,0.0030868700705468,-0.0232427380979061
1769157688054,-0.087005615234375,-0.1455841064453125,-0.9657440185546876,-0.0026056368369609,0.0102600939571857,-0.0104901911690831
1769157688065,-0.085296630859375,-0.145538330078125,-0.967437744140625,-0.0077972030267119,0.0218219421803951,-0.0085016088560223
1769157688075,-0.09527587890625,-0.138427734375,-0.9792327880859376,-0.0037015276029706,0.0176431760191917,-0.0090630035847425
1769157688085,-0.0999603271484375,-0.13226318359375,-0.9914093017578124,0.0089649986475706,0.0207734555006027,-0.0111160343512892
1769157688095,-0.1070404052734375,-0.1247100830078125,-0.9976806640625,0.0278404187411069,0.0208448283374309,-0.0148793468251824
1769157688105,-0.1112518310546875,-0.122161865234375,-1.002349853515625,0.0449501648545265,0.0183411911129951,-0.0132364435121417
1769157688115,-0.1082611083984375,-0.1299591064453125,-0.998992919921875,0.0447200685739517,0.0108225541189312,-0.0108273476362228
1769157688125,-0.1014251708984375,-0.1440887451171875,-0.985565185546875,0.0380240827798843,0.0029345371294766,-0.000958737975452
1769157688135,-0.0972137451171875,-0.1451416015625,-0.9831085205078124,0.0451219379901886,-0.0062104915268719,-0.0057673417031764
1769157688145,-0.1130218505859375,-0.1270599365234375,-0.9918670654296876,0.0606612153351306,-0.0095437038689851,-0.0175204034894704
1769157688155,-0.123504638671875,-0.1158447265625,-0.9940643310546876,0.0631850957870483,0.0150090428069233,-0.0231473967432975
1769157688165,-0.1228485107421875,-0.1215057373046875,-0.9804534912109376,0.0524538867175579,0.0353151150047779,-0.0238121226429939
1769157688175,-0.11517333984375,-0.1294097900390625,-0.9699859619140624,0.0336450450122356,0.0444854423403739,-0.0230001248419284
1769157688185,-0.108734130859375,-0.134979248046875,-0.9641265869140624,0.0125080682337284,0.0404329113662242,-0.0249442309141159
1769157688195,-0.10382080078125,-0.1429443359375,-0.967742919921875,0.0022341257426887,0.0195289608091115,-0.0232134442776441
1769157688205,-0.0926055908203125,-0.143463134765625,-0.9770050048828124,0.0013310478534549,0.0050818440504372,-0.0252901762723922
1769157688215,-0.0923004150390625,-0.1438751220703125,-0.989990234375,0.0119440108537673,-0.0195420105010271,-0.0206466894596815
1769157688226,-0.0896759033203125,-0.139984130859375,-0.9954071044921876,0.0193428043276071,-0.0238587278872728,-0.0212746616452932
1769157688235,-0.097991943359375,-0.141021728515625,-0.9941864013671876,0.0208355076611042,-0.0028391960076987,-0.0219628233462572
1769157688245,-0.107086181640625,-0.1396636962890625,-0.988372802734375,0.0239913519471883,0.0190690327435731,-0.0228981245309114
1769157688256,-0.1104278564453125,-0.1388397216796875,-0.98321533203125,0.0238946806639432,0.0262587685137987,-0.0253423750400543
1769157688265,-0.107666015625,-0.139007568359375,-0.9777069091796876,0.0177265331149101,0.0240440834313631,-0.0258526355028152
1769157688276,-0.1088104248046875,-0.1419830322265625,-0.9748687744140624,0.0111176325008273,0.0234408769756555,-0.026798591017723
1769157688285,-0.1067962646484375,-0.1433563232421875,-0.9723052978515624,0.0021015002857893,0.0120361568406224,-0.0250848475843668
1769157688296,-0.1012420654296875,-0.14422607421875,-0.9701690673828124,-0.0093373088166117,-0.0019984361715614,-0.0218786671757698
1769157688306,-0.1030731201171875,-0.14312744140625,-0.9703369140625,-0.0169382374733686,-0.0132742598652839,-0.0251764599233865
1769157688316,-0.1043548583984375,-0.141326904296875,-0.979827880859375,-0.0149930641055107,-0.024067785590887,-0.0247969590127468
1769157688326,-0.103668212890625,-0.1380615234375,-0.9921112060546876,-0.009746903553605,-0.0097969705238938,-0.0222991798073053
1769157688336,-0.1077728271484375,-0.138580322265625,-0.9913330078125,-0.003999535460025,0.0191518571227788,-0.019006447866559
1769157688346,-0.1071014404296875,-0.1468353271484375,-0.9884033203125,-0.0031579763162881,0.0240984112024307,-0.0163203831762075
1769157688356,-0.0919036865234375,-0.1595458984375,-0.985809326171875,0.001015463261865,0.0200554672628641,-0.0108212223276495
1769157688366,-0.0982666015625,-0.1481475830078125,-0.9918060302734376,0.0254089534282684,0.0198163148015737,-0.0213588178157806
1769157688376,-0.1168670654296875,-0.134185791015625,-0.9977874755859376,0.0420672930777072,0.0214536264538764,-0.0372917130589485
1769157688386,-0.120086669921875,-0.1337738037109375,-0.98577880859375,0.0333305262029171,0.0132585475221276,-0.0366738587617874
1769157688396,-0.108734130859375,-0.1367950439453125,-0.967681884765625,0.0072696306742727,0.0144540406763553,-0.0353955402970314
1769157688406,-0.10693359375,-0.1362152099609375,-0.954803466796875,-0.0180839281529188,-0.0009382316493429,-0.0375734753906726
1769157688416,-0.1018829345703125,-0.1349639892578125,-0.9615631103515624,-0.0333592891693115,-0.0203843675553798,-0.0346418656408786
1769157688426,-0.0965118408203125,-0.1374664306640625,-0.9715728759765624,-0.0409831181168556,-0.0268340110778808,-0.0339590311050415
1769157688436,-0.0934600830078125,-0.1401214599609375,-0.9773406982421876,-0.042082205414772,-0.0179654173552989,-0.0317139886319637
1769157688446,-0.0935516357421875,-0.1426849365234375,-0.985137939453125,-0.0321366302669048,0.0074659055098891,-0.0299448501318693
1769157688456,-0.0963897705078125,-0.1445770263671875,-0.99005126953125,-0.0191521234810352,0.0292180720716714,-0.0239876247942447
1769157688466,-0.0974884033203125,-0.143829345703125,-0.9976806640625,-0.0041241711005568,0.0343577079474926,-0.0236241035163402
1769157688476,-0.094390869140625,-0.1419677734375,-1.0042877197265625,0.0120683806017041,0.0258547663688659,-0.0198717098683118
1769157688486,-0.0941925048828125,-0.1387176513671875,-1.009521484375,0.0273490659892559,0.0054168696515262,-0.0215657465159893
1769157688496,-0.0982208251953125,-0.13604736328125,-1.01116943359375,0.044063065201044,-0.0001070590733434,-0.0205577388405799
1769157688506,-0.103546142578125,-0.1343994140625,-1.0058746337890625,0.0553756393492221,0.0040828920900821,-0.0218722764402627
1769157688518,-0.10430908203125,-0.1366119384765625,-1.00048828125,0.0634562075138092,0.011166900396347,-0.0245695244520902
1769157688526,-0.1034698486328125,-0.1399383544921875,-0.9880218505859376,0.0623280890285968,0.0189180318266153,-0.0243479497730731
1769157688536,-0.1038970947265625,-0.1444244384765625,-0.974334716796875,0.0515279062092304,0.0316977426409721,-0.0233817547559738
1769157688547,-0.1046600341796875,-0.1450347900390625,-0.962982177734375,0.0289807859808206,0.0423176288604736,-0.0242155902087688
1769157688557,-0.1044769287109375,-0.1453857421875,-0.95770263671875,0.0132127413526177,0.0358805023133754,-0.0271940696984529
1769157688567,-0.1044158935546875,-0.14453125,-0.9615325927734376,0.0001251685753231,0.0249061491340398,-0.0303472522646188
1769157688577,-0.0986785888671875,-0.1454010009765625,-0.969757080078125,-0.0027113643009215,0.0055444352328777,-0.0285171288996934
1769157688587,-0.09210205078125,-0.147064208984375,-0.977752685546875,-0.0015978966839611,-0.0043920851312577,-0.0249351765960454
1769157688597,-0.0926666259765625,-0.14569091796875,-0.9827117919921876,-0.0004008057294413,-0.0071593760512769,-0.0223066378384828
1769157688607,-0.0963287353515625,-0.145294189453125,-0.98321533203125,0.0007337008719332,-0.0112912701442837,-0.0172223970293998
1769157688617,-0.093963623046875,-0.1471405029296875,-0.98370361328125,-0.0039135152474045,-0.0012745888670906,-0.0131043503060936
1769157688627,-0.097930908203125,-0.1455535888671875,-0.979248046875,-0.005691441707313,0.0116808908060193,-0.0127743845805525
1769157688637,-0.1058807373046875,-0.1451416015625,-0.9783477783203124,-0.0097021618857979,0.0229756236076354,-0.0116159096360206
1769157688647,-0.10205078125,-0.1460723876953125,-0.97601318359375,-0.0176783297210931,0.0330168046057224,-0.0099136168137192
1769157688657,-0.101318359375,-0.1434173583984375,-0.974212646484375,-0.0182170867919921,0.029520608484745,-0.0110824787989258
1769157688667,-0.1048126220703125,-0.140716552734375,-0.9793243408203124,-0.0194232333451509,0.0152732282876968,-0.0195806249976158
1769157688678,-0.1079254150390625,-0.1385345458984375,-0.9815826416015624,-0.0161009393632411,0.0141171505674719,-0.0217292644083499
1769157688687,-0.1029052734375,-0.1426544189453125,-0.98077392578125,-0.0148599063977599,0.0143832005560398,-0.0145568381994962
1769157688697,-0.0935516357421875,-0.1497344970703125,-0.981414794921875,-0.0170303825289011,-0.0020969731267541,-0.0038868836127221
1769157688707,-0.087677001953125,-0.1494903564453125,-0.9851837158203124,-0.0090462258085608,-0.0126433568075299,-0.003990214318037
1769157688717,-0.1002960205078125,-0.1400909423828125,-0.99481201171875,0.0003632551815826,-0.0095461010932922,-0.0084952171891927
1769157688727,-0.102294921875,-0.1401214599609375,-0.9896240234375,0.0019811254460364,0.0045494781807065,-0.0075673721730709
1769157688737,-0.09918212890625,-0.1407623291015625,-0.9811859130859376,0.0001890844287117,0.0190059151500463,-0.0013877731980755
1769157688748,-0.0977630615234375,-0.1462249755859375,-0.970458984375,-0.0161597952246665,0.020404340699315,0.0071101072244346
1769157688758,-0.087005615234375,-0.1536407470703125,-0.96319580078125,-0.0288617424666881,0.0052797170355916,0.0044938181526958
1769157688768,-0.0925140380859375,-0.1521453857421875,-0.96783447265625,-0.0393375530838966,-0.0022948458790779,0.0025044367648661
1769157688778,-0.088836669921875,-0.15423583984375,-0.9703521728515624,-0.0430603846907615,-0.007089068647474,0.0089460909366607
1769157688788,-0.0865325927734375,-0.1440277099609375,-0.97955322265625,-0.0295373853296041,-0.0143776079639792,-0.0001925465476233
1769157688798,-0.107666015625,-0.120635986328125,-1.0009918212890625,-0.0066259447485208,-0.0119099225848913,-0.0160735081881284
1769157688808,-0.1187744140625,-0.114227294921875,-1.001617431640625,-0.0034719631075859,0.0049590724520385,-0.0212059523910284
1769157688818,-0.1126861572265625,-0.126800537109375,-0.99041748046875,-0.0089450255036354,0.0180948469787836,-0.0181092284619808
1769157688828,-0.105255126953125,-0.1354217529296875,-0.9836273193359376,-0.0136593533679842,0.0313547253608703,-0.0177180115133523
1769157688838,-0.102325439453125,-0.1436004638671875,-0.9809417724609376,-0.0141738755628466,0.0332985669374465,-0.0158700440078973
1769157688848,-0.0960235595703125,-0.1482696533203125,-0.9815216064453124,-0.014444719068706,0.0329821854829788,-0.013883058913052
1769157688858,-0.0927886962890625,-0.150177001953125,-0.9810791015625,-0.0105983158573508,0.0261282734572887,-0.0144939878955483
1769157688868,-0.0933990478515625,-0.1468963623046875,-0.9836273193359376,-0.003810983384028,0.0180570315569639,-0.0162178520113229
1769157688878,-0.0905609130859375,-0.14483642578125,-0.986602783203125,0.0023843280505388,-0.0010564760304987,-0.0136071555316448
1769157688888,-0.085906982421875,-0.1440277099609375,-0.9900054931640624,0.0104156229645013,-0.0027454528026282,-0.0051217912696301
1769157688898,-0.084686279296875,-0.1405792236328125,-0.9983062744140624,0.0223114304244518,-0.0033510555513203,0.003124420531094
1769157688908,-0.0902862548828125,-0.1415557861328125,-0.99847412109375,0.0268867406994104,0.0136886481195688,0.0064544370397925
1769157688918,-0.09320068359375,-0.14349365234375,-0.9875030517578124,0.0281826350837945,0.0254606194794178,0.0157153140753507
1769157688928,-0.0920867919921875,-0.1436614990234375,-0.981658935546875,0.0225521810352802,0.0268356092274189,0.0214632134884595
1769157688938,-0.0914459228515625,-0.147796630859375,-0.974639892578125,0.0110776843503117,0.0266776829957962,0.0224973186850547
1769157688948,-0.0941009521484375,-0.14935302734375,-0.96417236328125,-0.0066666910424828,0.0221290048211812,0.0255466382950544
1769157688959,-0.09228515625,-0.148345947265625,-0.958404541015625,-0.0227750875055789,0.0138777326792478,0.0281541403383016
1769157688968,-0.0916595458984375,-0.14276123046875,-0.9592132568359376,-0.0381990522146225,-0.0038831550627946,0.0300311353057622
1769157688979,-0.09381103515625,-0.13763427734375,-0.966064453125,-0.0471699088811874,-0.0272872801870107,0.0322138629853725
1769157688989,-0.0930633544921875,-0.1394805908203125,-0.9723663330078124,-0.060036439448595,-0.0344860702753067,0.0384925305843353
1769157688999,-0.0808258056640625,-0.151947021484375,-0.9705657958984376,-0.0694600343704223,-0.045384258031845,0.0491694100201129
1769157689009,-0.0829315185546875,-0.150115966796875,-0.9822845458984376,-0.0561114735901355,-0.0418763421475887,0.044843103736639
1769157689019,-0.0956573486328125,-0.140106201171875,-1.000885009765625,-0.0343417264521122,-0.0250531546771526,0.0480639338493347
1769157689029,-0.098876953125,-0.141357421875,-1.0020294189453125,-0.0206749178469181,-0.0022290658671408,0.0503899380564689
1769157689039,-0.1013946533203125,-0.1464080810546875,-0.9937744140625,-0.019572103396058,0.0148889347910881,0.0471960082650184
1769157689049,-0.1104736328125,-0.1463470458984375,-0.990570068359375,-0.0212749280035495,0.0300750788301229,0.0450327210128307
1769157689059,-0.1096649169921875,-0.141204833984375,-0.991302490234375,-0.0188863389194011,0.0274649132043123,0.0406142733991146
1769157689069,-0.1070556640625,-0.1355133056640625,-0.9978485107421876,-0.0123325660824775,0.0016828514635562,0.0314852222800254
1769157689079,-0.10760498046875,-0.131988525390625,-1.00006103515625,-0.0083785708993673,-0.0225346032530069,0.0188312120735645
1769157689089,-0.105804443359375,-0.1331024169921875,-0.9964752197265624,0.0011235876008868,-0.0356224440038204,0.0107767479494214
1769157689099,-0.1012115478515625,-0.13751220703125,-0.9949951171875,0.0069745522923767,-0.0347590446472168,0.0064978469163179
1769157689109,-0.099853515625,-0.1389007568359375,-0.9871978759765624,0.0066059711389243,-0.0155994659289717,0.0060565611347556
1769157689119,-0.10028076171875,-0.1436004638671875,-0.9759063720703124,0.0002258360618725,0.0093900393694639,0.0011012171162292
1769157689129,-0.103546142578125,-0.1439666748046875,-0.9668731689453124,-0.0062911855056881,0.0275280307978391,-0.0006287723081186
1769157689139,-0.1029205322265625,-0.1461944580078125,-0.968963623046875,-0.01084172911942,0.0330136083066463,-0.0015305186389014
1769157689149,-0.1005096435546875,-0.142547607421875,-0.9727020263671876,-0.013718475587666,0.029577599838376,-0.0028423918411135
1769157689160,-0.0989532470703125,-0.1400909423828125,-0.98101806640625,-0.0115096494555473,0.0217654835432767,-0.0020061591640114
1769157689169,-0.0999755859375,-0.1346282958984375,-0.9893035888671876,-0.0022722089197486,0.0082565983757376,-0.0031449268572032
1769157689179,-0.0999908447265625,-0.1326904296875,-0.9964599609375,0.0067953215911984,-0.0093998936936259,-0.0012064119800925
1769157689189,-0.096038818359375,-0.1360321044921875,-0.99505615234375,0.0102339955046772,-0.0247247871011495,0.0033798178192228
1769157689199,-0.095794677734375,-0.1362457275390625,-0.9882965087890624,0.0055897086858749,-0.0364283137023448,0.0057052900083363
1769157689210,-0.098480224609375,-0.139129638671875,-0.97845458984375,-0.008983108215034,-0.0382152944803237,0.0054536210373044
1769157689220,-0.099884033203125,-0.1424407958984375,-0.9665985107421876,-0.0280923545360565,-0.0253125466406345,0.006884004920721
1769157689230,-0.10186767578125,-0.1425628662109375,-0.9583740234375,-0.0468793585896492,-0.0089753856882452,0.0093447659164667
1769157689240,-0.099090576171875,-0.1402587890625,-0.9573822021484376,-0.0646434426307678,0.0082302326336503,0.0137062249705195
1769157689250,-0.0971221923828125,-0.139404296875,-0.961212158203125,-0.0745546594262123,0.0163099970668554,0.0110856741666793
1769157689260,-0.0959625244140625,-0.1363525390625,-0.973419189453125,-0.0705295577645301,0.0075415396131575,0.011535482481122
1769157689270,-0.089141845703125,-0.13385009765625,-0.9935455322265624,-0.0464548505842685,-0.0117551926523447,0.0138942440971732
1769157689280,-0.084716796875,-0.1346588134765625,-1.01251220703125,-0.0170823149383068,-0.0227029155939817,0.0181001741439104
1769157689290,-0.0874176025390625,-0.1356048583984375,-1.017822265625,0.0046685212291777,-0.0262102987617254,0.0230376739054918
1769157689300,-0.09228515625,-0.13824462890625,-1.010101318359375,0.014085991308093,-0.0147765493020415,0.0272774267941713
1769157689310,-0.1005096435546875,-0.140289306640625,-0.99420166015625,0.0078515317291021,0.0105716837570071,0.0273642465472221
1769157689320,-0.1072540283203125,-0.1381988525390625,-0.979400634765625,-0.0031965922098606,0.0277775693684816,0.0253706034272909
1769157689330,-0.1091461181640625,-0.1354827880859375,-0.974334716796875,-0.0175214689224958,0.0271197687834501,0.0156505983322858
1769157689340,-0.1072540283203125,-0.1377105712890625,-0.96966552734375,-0.0355848930776119,0.0257112216204404,0.0140359243378043
1769157689350,-0.1039886474609375,-0.139862060546875,-0.96405029296875,-0.0570952445268631,0.0179782006889581,0.0141866588965058
1769157689360,-0.094329833984375,-0.147552490234375,-0.961822509765625,-0.0754220560193061,0.0039188414812088,0.0185044426470994
1769157689370,-0.08905029296875,-0.1457061767578125,-0.96905517578125,-0.0739562511444091,-0.0083671193569898,0.0110174976289272
1769157689380,-0.100738525390625,-0.136749267578125,-0.9909210205078124,-0.0614828020334243,-0.0155621813610196,0.0056738648563623
1769157689393,-0.0978546142578125,-0.13214111328125,-1.0023651123046875,-0.0368906408548355,-0.0197558607906103,-0.0080376863479614
1769157689400,-0.1108856201171875,-0.118743896484375,-1.0160064697265625,-0.0002785666438285,-0.0118976719677448,-0.0232560541480779
1769157689410,-0.1169586181640625,-0.1160430908203125,-1.019134521484375,0.021172396838665,0.0127275129780173,-0.0168740544468164
1769157689420,-0.103546142578125,-0.13409423828125,-1.00469970703125,0.0257210750132799,0.0344019159674644,-0.005836583673954
1769157689430,-0.095367431640625,-0.1521148681640625,-0.98724365234375,0.017749436199665,0.0419365316629409,0.004008057527244
1769157689440,-0.0958099365234375,-0.1516571044921875,-0.9765167236328124,0.0209257882088422,0.0525990277528762,-0.0022234732750803
1769157689451,-0.11138916015625,-0.131744384765625,-0.982177734375,0.0233130455017089,0.0372762642800807,-0.0092875082045793
1769157689461,-0.112945556640625,-0.1221923828125,-0.977813720703125,0.0066174226813018,0.0268662348389625,-0.0071370052173733
1769157689471,-0.10443115234375,-0.1268157958984375,-0.9612579345703124,-0.0262864641845226,0.0108449244871735,-0.0028067054226994
1769157689481,-0.095428466796875,-0.127716064453125,-0.952056884765625,-0.0569871179759502,-0.0081058628857135,-0.00023835292086
1769157689491,-0.0920257568359375,-0.1268768310546875,-0.9617462158203124,-0.0709042698144912,-0.0215471033006906,0.0031790153589099
1769157689501,-0.089019775390625,-0.128570556640625,-0.973236083984375,-0.0724968388676643,-0.029284119606018,0.0031502533238381
1769157689511,-0.087188720703125,-0.1316986083984375,-0.98504638671875,-0.0615821368992328,-0.031580563634634,0.0038450718857347
1769157689521,-0.0894012451171875,-0.1340179443359375,-0.9882965087890624,-0.0523063465952873,-0.0106973852962255,0.0056155412457883
1769157689531,-0.09429931640625,-0.1370697021484375,-0.9854278564453124,-0.0460271462798118,0.0182431861758232,0.0090680634602904
1769157689541,-0.0981597900390625,-0.138702392578125,-0.982574462890625,-0.0465062484145164,0.029829267412424,0.0096073532477021
1769157689551,-0.10052490234375,-0.1369476318359375,-0.9858245849609376,-0.0450050234794616,0.017797639593482,0.008272310718894
1769157689561,-0.1032562255859375,-0.1300048828125,-0.99102783203125,-0.0425629056990146,0.0044277715496718,0.0072709624655544
1769157689571,-0.1038970947265625,-0.1277008056640625,-0.995361328125,-0.0377601608633995,-0.0016871124971657,0.0088635329157114
1769157689581,-0.104522705078125,-0.1254425048828125,-0.9975738525390624,-0.0298452470451593,-0.009434781037271,0.0074485950171947
1769157689591,-0.1053619384765625,-0.1260528564453125,-0.999542236328125,-0.0216136816889047,-0.0201697163283824,0.0064917216077446
1769157689601,-0.1032257080078125,-0.1284637451171875,-1.004150390625,-0.0144111635163426,-0.0240182504057884,0.006548180244863
1769157689611,-0.099639892578125,-0.131134033203125,-1.0025482177734375,-0.0129086077213287,-0.0118878185749053,0.0091849761083722
1769157689622,-0.097900390625,-0.1332855224609375,-0.9961395263671876,-0.0094867125153541,0.0023230754304677,0.0124478815123438
1769157689631,-0.0995941162109375,-0.132843017578125,-0.992218017578125,-0.0065923887304961,0.013375992886722,0.0117924772202968
1769157689641,-0.09832763671875,-0.13262939453125,-0.9925384521484376,-0.0016658072127029,0.013506487943232,0.0140588274225592
1769157689651,-0.0955963134765625,-0.13165283203125,-0.9930877685546876,0.0020088222809135,0.0048887645825743,0.0119256349280476
1769157689661,-0.0966644287109375,-0.134765625,-0.99298095703125,0.0058259312063455,-0.0007680556736886,0.0163901578634977
1769157689672,-0.0899505615234375,-0.14013671875,-0.9940185546875,0.0069828084670007,-0.0203806385397911,0.0150484582409262
1769157689682,-0.0922698974609375,-0.1367340087890625,-0.99652099609375,0.0242422223091125,-0.0146702891215682,0.0104023069143295
1769157689692,-0.103607177734375,-0.1258544921875,-1.0058746337890625,0.0500035136938095,0.0111477263271808,0.0056195361539721
1769157689702,-0.112823486328125,-0.1207122802734375,-1.00537109375,0.0670189782977104,0.0381082370877265,0.0042203115299344
1769157689712,-0.1117401123046875,-0.123138427734375,-0.9941558837890624,0.0704651102423667,0.0468053221702575,0.0043516051955521
