timestamp_ms,acc_x,acc_y,acc_z,gyro_x,gyro_y,gyro_z
1768726620153,-0.0696563720703125,-0.9933624267578124,-0.069915771484375,-0.0533311329782009,-0.0044328314252197,-0.0294127501547336
1768726620162,-0.07037353515625,-0.9931640625,-0.071624755859375,-0.0549231693148613,0.0030775489285588,-0.0299160871654748
1768726620171,-0.068145751953125,-0.994537353515625,-0.0731048583984375,-0.0580001845955848,0.0087554082274436,-0.028431374579668
1768726620181,-0.0714874267578125,-0.9967498779296876,-0.073455810546875,-0.0615184865891933,0.0139765357598662,-0.0253117475658655
1768726620191,-0.0699920654296875,-0.997772216796875,-0.072509765625,-0.0592635907232761,0.0154026579111814,-0.020886905491352
1768726620203,-0.0711669921875,-0.997283935546875,-0.074554443359375,-0.0549364872276783,0.0059710736386477,-0.0172000266611576
1768726620211,-0.070281982421875,-0.99658203125,-0.078033447265625,-0.0451608188450336,0.00192093802616,-0.0145504465326666
1768726620222,-0.070404052734375,-0.9959564208984376,-0.0804595947265625,-0.0317054651677608,-0.0059098205529153,-0.0121232420206069
1768726620231,-0.0735626220703125,-0.9974517822265624,-0.08465576171875,-0.0226704254746437,-0.0017273263074457,-0.0142263397574424
1768726620241,-0.0737762451171875,-0.995513916015625,-0.0855255126953125,-0.0113437343388795,0.0059308595955371,-0.0122697157785296
1768726620251,-0.0740966796875,-0.996734619140625,-0.086029052734375,-0.002681270474568,0.0205484181642532,-0.0163496788591146
1768726620261,-0.0758209228515625,-0.9936676025390624,-0.081268310546875,0.0001366201613564,0.022514896467328,-0.017152888700366
1768726620272,-0.075225830078125,-0.9879150390625,-0.0756072998046875,0.0080541977658867,0.0180240087211132,-0.0129560120403766
1768726620282,-0.0712738037109375,-0.983001708984375,-0.0727691650390625,0.0129067441448569,0.0112404040992259,-0.0069963904097676
1768726620292,-0.0697021484375,-0.9856414794921876,-0.0699615478515625,0.0117924772202968,0.0020825918763875,-0.0079937446862459
1768726620302,-0.072998046875,-0.9940948486328124,-0.06744384765625,0.010471548885107,0.0003936151915695,-0.0110651683062314
1768726620312,-0.07830810546875,-0.9943695068359376,-0.066925048828125,0.0057987668551504,0.0054781222715973,-0.0137709397822618
1768726620322,-0.07586669921875,-0.986419677734375,-0.0669403076171875,-2.2903184799361043e-05,0.0068483185023069,-0.0108800781890749
1768726620332,-0.068450927734375,-0.9889984130859376,-0.0675811767578125,-0.0042730420827865,0.003916444722563,-0.0094739291816949
1768726620342,-0.069427490234375,-0.992584228515625,-0.068206787109375,-0.0073423348367214,0.0013073458103463,-0.0104334661737084
1768726620352,-0.07000732421875,-0.989410400390625,-0.0675506591796875,-0.0107506485655903,-0.002110555069521,-0.0119208414107561
1768726620362,-0.0674285888671875,-0.9898834228515624,-0.0700836181640625,-0.0133967651054263,-0.0007555388147011,-0.0058701396919786
1768726620372,-0.0658111572265625,-0.9615631103515624,-0.074005126953125,-0.0072003887034952,0.0068152956664562,0.0135035580024123
1768726620382,-0.0582733154296875,-0.973785400390625,-0.07489013671875,-0.0016016251174733,-0.0068299430422484,0.0107631655409932
1768726620392,-0.0742950439453125,-1.0172119140625,-0.0733795166015625,-0.0006391586503013,0.0021901836153119,-0.0168479550629854
1768726620402,-0.0894317626953125,-1.0067596435546875,-0.0684356689453125,0.0063431169837713,0.0182434525340795,-0.0231021232903003
1768726620412,-0.07861328125,-0.9977264404296876,-0.070709228515625,0.015515842474997,0.0225356686860322,-0.0094733964651823
1768726620422,-0.0691070556640625,-0.9697265625,-0.067840576171875,0.0124827688559889,-0.0033055155072361,0.0048307077959179
1768726620432,-0.0597686767578125,-0.97698974609375,-0.0570526123046875,-0.0013206616276875,-0.0435876920819282,0.0067953215911984
1768726620442,-0.063690185546875,-0.99444580078125,-0.054534912109375,-0.0142646897584199,-0.0682613477110862,0.000431165768532
1768726620452,-0.071868896484375,-1.008087158203125,-0.06396484375,-0.0251695346087217,-0.0609552301466465,-0.0086864326149225
1768726620463,-0.0742340087890625,-1.000030517578125,-0.0757904052734375,-0.0344991199672222,-0.023209448903799,-0.0041795647703111
1768726620473,-0.07220458984375,-0.98388671875,-0.0826416015625,-0.040929589420557,0.0097090862691402,0.0063718790188431
1768726620483,-0.069549560546875,-0.9786224365234376,-0.0835418701171875,-0.0479225181043148,0.0260374601930379,0.0156189072877168
1768726620493,-0.0667572021484375,-0.98828125,-0.0810699462890625,-0.0514275059103965,0.0264675598591566,0.0106577044352889
1768726620503,-0.0698394775390625,-0.996124267578125,-0.0774078369140625,-0.0462647005915641,0.0216469727456569,0.004923119675368
1768726620513,-0.07452392578125,-1.0003662109375,-0.07666015625,-0.0310135763138532,0.0093215964734554,0.0055281897075474
1768726620523,-0.0716400146484375,-1.00048828125,-0.0809326171875,-0.0104856640100479,-0.0011076086666435,0.0035856801550835
1768726620533,-0.0705108642578125,-0.996246337890625,-0.0856170654296875,0.0123544046655297,-0.0032160333357751,0.0058858525007963
1768726620543,-0.0714569091796875,-0.9950714111328124,-0.087921142578125,0.0412406474351882,-0.0012146678054705,0.005241101142019
1768726620553,-0.074615478515625,-0.9992828369140624,-0.0873565673828125,0.059875052422285,-0.0031672974582761,0.0012237224727869
1768726620563,-0.0786285400390625,-1.001373291015625,-0.0808258056640625,0.0649283975362777,-0.0013491574209183,-0.0059913136065006
1768726620573,-0.079559326171875,-1.00152587890625,-0.072174072265625,0.0678490847349166,-0.005871205125004,-0.0127733191475272
1768726620583,-0.0753631591796875,-0.99151611328125,-0.07098388671875,0.0619805455207824,-0.0049446909688413,-0.0109418639913201
1768726620593,-0.067413330078125,-0.990081787109375,-0.06768798828125,0.0546720325946807,-0.0058637480251491,-0.0165504813194274
1768726620603,-0.0721588134765625,-0.9947509765625,-0.06463623046875,0.0417375937104225,0.0098012313246726,-0.023028353229165
1768726620613,-0.0720062255859375,-0.980499267578125,-0.0595245361328125,0.0303025115281343,0.0354719720780849,-0.0173078831285238
1768726620623,-0.0618743896484375,-0.9789886474609376,-0.054656982421875,0.010057427920401,0.0341446548700332,-0.0192099139094352
1768726620633,-0.062713623046875,-0.99261474609375,-0.0459747314453125,-0.019163841381669,0.0317115895450115,-0.0294822584837675
1768726620643,-0.0692901611328125,-0.99066162109375,-0.0392303466796875,-0.0423272177577018,0.0222661569714546,-0.0302652269601821
1768726620653,-0.0689239501953125,-0.9859619140625,-0.045196533203125,-0.0567295923829078,0.0077932081185281,-0.0229955967515707
1768726620663,-0.06268310546875,-0.98443603515625,-0.0534210205078125,-0.06747517734766,-0.0020176109392195,-0.0218839943408966
1768726620673,-0.0643768310546875,-0.9876708984375,-0.06060791015625,-0.0733961835503578,0.0042434809729456,-0.0218381863087415
1768726620684,-0.0678863525390625,-0.989501953125,-0.0668487548828125,-0.0799427703022956,0.0099072251468896,-0.0221204813569784
1768726620694,-0.0690155029296875,-0.992401123046875,-0.0718994140625,-0.0788266360759735,0.0142487110570073,-0.0242065358906984
1768726620704,-0.067718505859375,-0.994476318359375,-0.0780487060546875,-0.0666746348142623,0.0097975032404065,-0.0227306131273508
1768726620714,-0.0657196044921875,-0.995880126953125,-0.0882720947265625,-0.0502194948494434,0.0135384453460574,-0.0223774779587984
1768726620724,-0.067291259765625,-0.9940032958984376,-0.0934906005859375,-0.0320732481777668,0.0228142347186803,-0.0177267994731664
1768726620734,-0.0660247802734375,-0.9935302734375,-0.096038818359375,-0.0131972944363951,0.0239993426948785,-0.0153714995831251
1768726620744,-0.06939697265625,-0.994232177734375,-0.095855712890625,0.007684551179409,0.018706576898694,-0.0118374843150377
1768726620754,-0.0672607421875,-0.994659423828125,-0.0937652587890625,0.0245474204421043,0.0134393759071826,-0.0061529674567282
1768726620764,-0.0707855224609375,-0.99432373046875,-0.0895538330078125,0.0411349199712276,0.0156916119158267,-0.0065479143522679
1768726620774,-0.072784423828125,-0.994232177734375,-0.0867767333984375,0.0535609610378742,0.022087724879384,-0.0047849016264081
1768726620784,-0.0726776123046875,-0.9922637939453124,-0.0785064697265625,0.058426558971405,0.0193558540195226,-0.0028714202344417
1768726620794,-0.0733184814453125,-0.995330810546875,-0.070465087890625,0.0576678216457366,0.0106124309822916,-0.0052517536096274
1768726620804,-0.0706329345703125,-0.9913177490234376,-0.065277099609375,0.0550342239439487,-0.0017212009988725,-0.0039055256638675
1768726620814,-0.0688323974609375,-0.9874420166015624,-0.0622406005859375,0.0531345903873443,-0.0031265511643141,-0.0008945558220148
1768726620824,-0.0723114013671875,-0.9828033447265624,-0.0615081787109375,0.0528696067631244,-0.0004785700584761,0.0050767841748893
1768726620834,-0.0732421875,-0.9835662841796876,-0.0616912841796875,0.0428739637136459,0.0016559535870328,0.0044754422269761
1768726620844,-0.072174072265625,-0.987518310546875,-0.0592498779296875,0.0329707339406013,-0.0048895636573433,0.0019406455103307
1768726620854,-0.072174072265625,-0.9864349365234376,-0.0556182861328125,0.020534835755825,-0.0064235446043312,0.000826378876809
1768726620864,-0.072265625,-0.986602783203125,-0.05242919921875,0.0087516801431775,-0.0093511575832962,-0.0019899138715118
1768726620874,-0.0711669921875,-0.9908294677734376,-0.0529632568359375,-0.0033156354911625,-0.0054264571517705,-0.0096504967659711
1768726620884,-0.0736846923828125,-0.9963836669921876,-0.0547027587890625,-0.0183505117893219,0.0034682345576584,-0.0115911420434713
1768726620894,-0.070953369140625,-0.993377685546875,-0.058685302734375,-0.0302292741835117,0.0092065474018454,-0.0150790838524699
1768726620905,-0.069366455078125,-0.9929656982421876,-0.060882568359375,-0.0338093638420105,0.0321677885949611,-0.0101980427280068
1768726620915,-0.06884765625,-0.9483642578125,-0.064544677734375,-0.0212126113474369,0.0390965342521667,0.0218147505074739
1768726620925,-0.047027587890625,-0.9672088623046876,-0.0661163330078125,-0.0158830918371677,-0.0019225359428673,0.0111834118142724
1768726620935,-0.0663909912109375,-1.0257110595703125,-0.0608062744140625,-0.0184029750525951,0.0043446808122098,-0.0273029934614896
1768726620944,-0.0840301513671875,-1.009002685546875,-0.0607757568359375,-0.0108166951686143,0.0224477853626012,-0.0230659041553735
1768726620955,-0.0662384033203125,-0.9875335693359376,-0.0704803466796875,-0.0029957899823784,0.0073702982626855,-0.00981215108186
1768726620965,-0.0560455322265625,-0.9737396240234376,-0.0683441162109375,-0.0119117870926857,-0.0129032814875245,0.0059817261062562
1768726620975,-0.0559234619140625,-0.973968505859375,-0.0596923828125,-0.0258893873542547,-0.022628080099821,0.0118633173406124
1768726620985,-0.0622711181640625,-0.988677978515625,-0.062591552734375,-0.0318500734865665,-0.0294636152684688,0.0128928953781723
1768726620995,-0.0632476806640625,-0.9968414306640624,-0.075225830078125,-0.0371015630662441,-0.0175973698496818,0.0150878727436065
1768726621005,-0.0649871826171875,-0.9878082275390624,-0.08111572265625,-0.0420190878212451,0.0064597632735967,0.0150963952764868
1768726621015,-0.0673370361328125,-0.984375,-0.0833282470703125,-0.0482958927750587,0.0140889212489128,0.0108915297314524
1768726621028,-0.06396484375,-0.987701416015625,-0.0830841064453125,-0.0479906946420669,0.0126755814999341,0.0030149647500365
1768726621035,-0.06182861328125,-0.9952545166015624,-0.0839996337890625,-0.0389505960047245,0.0104156229645013,-0.0032589102629572
1768726621045,-0.0667572021484375,-1.002685546875,-0.0878143310546875,-0.0175520963966846,0.0124175213277339,-0.0016935041639953
1768726621055,-0.0699310302734375,-1.00128173828125,-0.0906829833984375,0.0071639032103121,0.0144939878955483,0.0005704491049982
1768726621065,-0.069580078125,-1.003143310546875,-0.0935516357421875,0.0324817784130573,0.0202062018215656,0.0010538127971813
1768726621076,-0.0681610107421875,-1.0033111572265625,-0.0902099609375,0.0568736679852008,0.0281373616307973,0.0083111934363842
1768726621085,-0.0677490234375,-1.000885009765625,-0.0858306884765625,0.0745826214551925,0.0301334019750356,0.0090113384649157
1768726621095,-0.0691680908203125,-1.000213623046875,-0.079742431640625,0.085993468761444,0.0299091637134552,0.013014867901802
1768726621105,-0.0705108642578125,-1.001617431640625,-0.0720977783203125,0.0892318710684776,0.0291578844189643,0.0122010065242648
1768726621116,-0.072845458984375,-0.998687744140625,-0.06317138671875,0.0884824618697166,0.032976858317852,0.0145595017820596
1768726621125,-0.0696258544921875,-0.982452392578125,-0.054901123046875,0.0874161347746849,0.018739866092801,0.0170405022799968
1768726621136,-0.064117431640625,-0.9821624755859376,-0.0506744384765625,0.0755741223692894,0.0033547841012477,0.0148921301588416
1768726621145,-0.0703277587890625,-0.9824676513671876,-0.0461273193359375,0.0633667185902595,0.0016836504219099,0.0097154779359698
1768726621156,-0.0696868896484375,-0.9716339111328124,-0.0463714599609375,0.0516317673027515,0.0092563489452004,0.0134220654144883
1768726621166,-0.0626983642578125,-0.965667724609375,-0.042755126953125,0.0336290672421455,-0.0039444076828658,0.0145280761644244
1768726621175,-0.06402587890625,-0.9814300537109376,-0.0401763916015625,0.0121171167120337,-0.0119408154860138,0.0033342777751386
1768726621186,-0.07379150390625,-0.987274169921875,-0.03759765625,-0.010937069542706,-0.0085250446572899,-0.0034551850985735
1768726621196,-0.0743865966796875,-0.9861602783203124,-0.0399627685546875,-0.0302364658564329,-0.0062120896764099,-0.0040938113816082
1768726621206,-0.0706634521484375,-0.987762451171875,-0.04193115234375,-0.0501390658318996,-0.0058285943232476,-0.0028887307271361
1768726621216,-0.0711517333984375,-0.9922637939453124,-0.0435333251953125,-0.0706499367952346,0.0013978932984173,-0.0062552327290177
1768726621227,-0.076446533203125,-0.9981689453125,-0.047332763671875,-0.0898230969905853,0.0148724233731627,-0.0100920489057898
1768726621236,-0.078125,-1.002899169921875,-0.05194091796875,-0.1030225232243537,0.0200445484369993,-0.0181819330900907
1768726621246,-0.0753173828125,-0.998504638671875,-0.0566558837890625,-0.1088641658425331,0.0103679522871971,-0.0181148219853639
1768726621256,-0.0686187744140625,-0.9953765869140624,-0.0650177001953125,-0.1062686517834663,0.0038613171782344,-0.0207343064248561
1768726621266,-0.064483642578125,-0.9959716796875,-0.074676513671875,-0.0967118963599205,0.0003142530040349,-0.0194421410560607
1768726621276,-0.0623779296875,-0.9973297119140624,-0.081268310546875,-0.0853188931941986,0.0032647692132741,-0.0200429502874612
1768726621286,-0.0633697509765625,-0.9982452392578124,-0.087432861328125,-0.0690882578492164,0.009794307872653,-0.0159155838191509
1768726621296,-0.0616302490234375,-0.997100830078125,-0.0926971435546875,-0.0447743944823741,0.0115317534655332,-0.0103700831532478
1768726621306,-0.0618896484375,-0.997161865234375,-0.095703125,-0.0271304212510585,0.0130263194441795,-0.0065969163551926
1768726621316,-0.0634918212890625,-0.9971923828125,-0.0917816162109375,-0.0111549161374568,0.0119149824604392,-0.0059234029613435
1768726621327,-0.064727783203125,-0.99639892578125,-0.0880279541015625,0.0019475696608424,0.013979198411107,-0.0020176109392195
1768726621336,-0.0622100830078125,-0.9909515380859376,-0.086639404296875,0.0110334763303399,0.0133376428857445,0.000964596925769
1768726621347,-0.0620574951171875,-0.9883270263671876,-0.079833984375,0.0151832140982151,0.0137206055223941,0.0024333302862942
1768726621357,-0.065032958984375,-0.9879302978515624,-0.076873779296875,0.0197705086320638,0.0026493126060813,0.0109642343595623
1768726621367,-0.0622711181640625,-0.9821624755859376,-0.07611083984375,0.0253983009606599,-0.0064560351893305,0.0246760509908199
1768726621377,-0.0581512451171875,-0.97918701171875,-0.0750732421875,0.0264430586248636,-0.0113285547122359,0.0303634982556104
1768726621387,-0.06439208984375,-0.9840240478515624,-0.0748291015625,0.0245649982243776,-0.0099927131086587,0.0323747172951698
1768726621397,-0.071014404296875,-0.9865875244140624,-0.0710601806640625,0.0174554232507944,0.0017062872648239,0.0325068086385726
1768726621407,-0.0737762451171875,-0.98931884765625,-0.0686798095703125,0.0138846561312675,0.0053273872472345,0.0291895773261785
1768726621417,-0.07366943359375,-0.9949188232421876,-0.071319580078125,0.007962585426867,0.001757686259225,0.0229063816368579
1768726621427,-0.07305908203125,-0.9951019287109376,-0.0673828125,0.00542086455971,0.0001299622672377,0.0175124146044254
1768726621437,-0.0724029541015625,-0.993377685546875,-0.0666961669921875,0.0004668521287385,-0.0054658716544508,0.0178485047072172
1768726621447,-0.0700225830078125,-0.98486328125,-0.0679473876953125,0.0030221552588045,0.0149818789213895,0.0319145247340202
1768726621457,-0.0642242431640625,-0.9405059814453124,-0.0708160400390625,0.0063252737745642,-0.0020999026019126,0.0662171021103859
1768726621467,-0.048614501953125,-0.9870758056640624,-0.0684661865234375,0.0071007865481078,-0.0280183181166648,0.0473371557891368
1768726621477,-0.077362060546875,-1.030487060546875,-0.0702667236328125,0.0081029338762164,0.0110851414501667,0.0095498291775584
1768726621487,-0.093475341796875,-1.0093231201171875,-0.0691680908203125,0.0140279345214366,0.0374967753887176,0.0069026472046971
1768726621497,-0.072357177734375,-0.9858856201171876,-0.0692901611328125,0.0167446248233318,0.0197662468999624,0.0265461225062608
1768726621507,-0.064666748046875,-0.9691314697265624,-0.061859130859375,0.0108790127560496,0.0005099953268654,0.0365068800747394
1768726621517,-0.0686798095703125,-0.987548828125,-0.0531005859375,-0.0006178533658385,-0.0259058997035026,0.0276276320219039
1768726621527,-0.0767974853515625,-1.013824462890625,-0.056182861328125,-0.0057969028130173,-0.0269381403923034,0.014559768140316
1768726621537,-0.07855224609375,-1.0056915283203125,-0.057464599609375,-0.0157802943140268,-0.0295717399567365,0.0077860178425908
1768726621547,-0.0735015869140625,-0.9969329833984376,-0.058013916015625,-0.0265330728143453,-0.0375321954488754,0.0069974558427929
1768726621557,-0.0681610107421875,-0.9930419921875,-0.0624847412109375,-0.043943490833044,-0.0300058349967002,0.0119796972721815
1768726621568,-0.0687103271484375,-0.990386962890625,-0.0688934326171875,-0.0522253885865211,-0.0186099037528038,0.0133435018360614
1768726621577,-0.075164794921875,-0.99786376953125,-0.075927734375,-0.0565413050353527,-0.0062624234706163,0.0123088639229536
1768726621587,-0.07220458984375,-0.999359130859375,-0.0786895751953125,-0.0540746860206127,-0.0013677994720637,0.0126825058832764
1768726621598,-0.0661773681640625,-0.9943389892578124,-0.081939697265625,-0.04240657761693,0.0026027073618024,0.0158237032592296
1768726621608,-0.0688629150390625,-0.9901275634765624,-0.084075927734375,-0.028512068092823,0.0090371705591678,0.016250342130661
1768726621618,-0.0739898681640625,-0.9934539794921876,-0.0853729248046875,-0.0121850268915295,0.0080302292481064,0.0159291662275791
1768726621628,-0.076019287109375,-0.9922943115234376,-0.086212158203125,0.0028035095892846,0.0066722836345434,0.0162886921316385
1768726621638,-0.074493408203125,-0.9921417236328124,-0.083984375,0.0161723122000694,0.0062142200767993,0.0174772609025239
1768726621648,-0.0751190185546875,-0.994842529296875,-0.0817718505859375,0.0242568701505661,0.0043156524188816,0.0118497349321842
1768726621658,-0.0785369873046875,-0.9976043701171876,-0.0782470703125,0.0279133897274732,0.0053545515984296,0.0102723445743322
1768726621668,-0.07421875,-0.990997314453125,-0.0755462646484375,0.0313778966665267,-0.0043707797303795,0.0110627710819244
1768726621678,-0.0706329345703125,-0.996978759765625,-0.072296142578125,0.0322072058916091,-0.0011779161868616,0.0058653457090258
1768726621688,-0.0745391845703125,-0.98760986328125,-0.071319580078125,0.0355950109660625,-0.005927397403866,0.0096006952226161
1768726621698,-0.0690765380859375,-0.9885711669921876,-0.0692291259765625,0.0338213481009006,-0.0136055573821067,0.0071015851572155
1768726621708,-0.0704803466796875,-0.99212646484375,-0.0682525634765625,0.0286905001848936,-0.0083985449746251,0.0013968279818072
1768726621718,-0.074310302734375,-0.989990234375,-0.0624847412109375,0.0261932536959648,-0.0026756778825074,-0.0007337008719332
1768726621728,-0.07415771484375,-0.9899139404296876,-0.0617218017578125,0.0207841079682111,0.0002474076754879,0.0037084517534822
1768726621738,-0.0705413818359375,-0.985748291015625,-0.0625152587890625,0.0168189276009798,-0.003785417182371,0.0072384718805551
1768726621748,-0.0682830810546875,-0.986968994140625,-0.0631256103515625,0.0120241725817322,-0.0061444453895092,0.0085937548428773
1768726621758,-0.0711822509765625,-0.98828125,-0.059722900390625,0.0038610508199781,-0.0017632789677008,0.0100723411887884
1768726621768,-0.0751953125,-0.9914703369140624,-0.059722900390625,-0.0066717509180307,0.0025611619930714,0.011658520437777
1768726621778,-0.0770111083984375,-0.9928741455078124,-0.0592498779296875,-0.0159792322665452,-0.0026482474058866,0.0094262585043907
1768726621788,-0.077789306640625,-0.995269775390625,-0.0593109130859375,-0.0228246226906776,-0.00849468447268,0.0068661617115139
1768726621798,-0.0775604248046875,-0.9934539794921876,-0.0648345947265625,-0.0286593418568372,-0.0045404233969748,0.0054115434177219
1768726621808,-0.0804901123046875,-0.9942779541015624,-0.0689849853515625,-0.0275085903704166,-0.0049191247671842,0.0039057920221239
1768726621819,-0.0804290771484375,-0.9956817626953124,-0.0729522705078125,-0.025505892932415,-0.0016064187511801,0.0002793656021822
1768726621828,-0.0830078125,-0.9986114501953124,-0.071807861328125,-0.0271471980959177,-0.0027670243289321,-0.0038069887086749
1768726621839,-0.0815887451171875,-0.996856689453125,-0.0704345703125,-0.0287767872214317,-0.005060538649559,-0.0095860483124852
1768726621849,-0.08056640625,-0.9985504150390624,-0.072723388671875,-0.0293520297855138,-0.0006641923682764,-0.0111682321876287
1768726621858,-0.076202392578125,-0.9979248046875,-0.0731964111328125,-0.0285517498850822,0.0109096392989158,-0.0157957412302494
1768726621869,-0.0759735107421875,-0.9974212646484376,-0.0735015869140625,-0.0292233992367982,0.0150412674993276,-0.0182991120964288
1768726621879,-0.073486328125,-0.99560546875,-0.0743865966796875,-0.0243167914450168,0.0096044242382049,-0.0171709973365068
1768726621889,-0.0687103271484375,-0.990966796875,-0.0736846923828125,-0.0188642349094152,0.0016844493802636,-0.0154074523597955
1768726621899,-0.0688018798828125,-0.9882965087890624,-0.0742034912109375,-0.007832889445126,-0.0069375345483422,-0.0125943552702665
1768726621910,-0.070709228515625,-0.9850921630859376,-0.0771331787109375,0.0024208133108913,-0.0194850172847509,-0.0084693850949406
1768726621919,-0.068328857421875,-0.9826507568359376,-0.078826904296875,0.0139554962515831,-0.0277919508516788,-0.0062488410621881
1768726621929,-0.06500244140625,-0.9844512939453124,-0.0816802978515625,0.0176466386765241,-0.0206624008715152,-0.0135981002822518
1768726621939,-0.065216064453125,-0.9872894287109376,-0.0781707763671875,0.0237902849912643,-0.0235042609274387,-0.016490826383233
1768726621949,-0.0666656494140625,-0.988067626953125,-0.0684661865234375,0.0323251821100711,-0.0320181213319301,-0.0093554183840751
1768726621961,-0.0670623779296875,-0.98895263671875,-0.06475830078125,0.0142649561166763,-0.0348615758121013,-0.0004130562883801
1768726621969,-0.07537841796875,-0.994659423828125,-0.0641021728515625,-0.0028256138321012,0.0058688079006969,-0.0014343785587698
1768726621979,-0.075439453125,-0.9910888671875,-0.0730438232421875,-0.0075183701701462,0.05616420134902,-0.0020058928057551
1768726621989,-0.0682373046875,-0.9893646240234376,-0.0758209228515625,-0.01258210465312,0.0830855667591095,0.0115250954404473
1768726621999,-0.0634613037109375,-0.9410247802734376,-0.0688018798828125,-0.0065258098766207,0.0640913695096969,0.0507673062384128
1768726622009,-0.0507354736328125,-0.9562530517578124,-0.0574951171875,-0.002183792181313,-0.0030714236199855,0.0505113787949085
1768726622019,-0.0659942626953125,-1.0210113525390625,-0.0495758056640625,-0.0193436034023761,-0.0262667573988437,0.0084078656509518
1768726622029,-0.0987701416015625,-1.0213623046875,-0.051910400390625,-0.0296023674309253,0.019514312967658,-0.009990582242608
1768726622039,-0.0887603759765625,-0.9866943359375,-0.0644989013671875,-0.0393972061574459,0.0448351167142391,0.0065162223763763
1768726622049,-0.072509765625,-0.966522216796875,-0.0713043212890625,-0.0483720600605011,0.0505089797079563,0.0187071077525615
1768726622060,-0.0783538818359375,-0.9813995361328124,-0.0630035400390625,-0.0594377592206001,0.0309384744614362,0.0130763873457908
1768726622070,-0.087127685546875,-1.01812744140625,-0.0510406494140625,-0.080768346786499,0.0173616800457239,-0.016015451401472
1768726622080,-0.092681884765625,-1.015625,-0.0489654541015625,-0.0938977301120758,0.0079503348097205,-0.0285581406205892
1768726622090,-0.0767059326171875,-1.0015106201171875,-0.0617523193359375,-0.1051216274499893,-0.0107117667794227,-0.0290068835020065
1768726622100,-0.0697479248046875,-0.999481201171875,-0.0707244873046875,-0.1253198385238647,-0.0182988457381725,-0.0261855311691761
1768726622110,-0.0743408203125,-1.0006866455078125,-0.07659912109375,-0.1342922896146774,0.0015475628897547,-0.0280534718185663
1768726622120,-0.07977294921875,-0.997222900390625,-0.087066650390625,-0.1343141347169876,0.0270353462547063,-0.0216709412634372
1768726622130,-0.0733642578125,-0.9952850341796876,-0.0944366455078125,-0.1239847987890243,0.036403015255928,-0.0147624341771006
1768726622140,-0.0709381103515625,-0.995819091796875,-0.0966644287109375,-0.1094146445393562,0.0353183113038539,-0.0051417648792266
1768726622150,-0.0709686279296875,-0.994354248046875,-0.101715087890625,-0.0827601253986358,0.0386525876820087,0.0012969594681635
1768726622160,-0.075531005859375,-1.0004425048828125,-0.108489990234375,-0.0545034557580947,0.0367692001163959,-0.0030631679110229
1768726622170,-0.0773773193359375,-1.0028228759765625,-0.1076202392578125,-0.0238842945545911,0.0328072160482406,-0.0042434809729456
1768726622180,-0.076171875,-0.9992218017578124,-0.1074371337890625,0.0041553303599357,0.021067202091217,0.0008801747462712
1768726622190,-0.0776519775390625,-0.997772216796875,-0.103759765625,0.0223298072814941,0.0177683439105749,0.0016812535468488
1768726622200,-0.079315185546875,-0.997528076171875,-0.09991455078125,0.0344189591705799,0.0152580486610531,0.0018919096328318
1768726622210,-0.0822296142578125,-0.995758056640625,-0.09661865234375,0.0445943661034107,0.0170990917831659,0.0005387574783526
1768726622220,-0.0782928466796875,-0.9976654052734376,-0.0921478271484375,0.0498170927166938,0.0156042594462633,-0.0030325416009873
1768726622230,-0.0797882080078125,-0.9936370849609376,-0.0892181396484375,0.0494029708206653,0.0229436643421649,-0.0086664585396647
1768726622240,-0.07806396484375,-0.991180419921875,-0.081573486328125,0.0474974773824214,0.0226286128163337,-0.0157520659267902
1768726622250,-0.0723419189453125,-0.993133544921875,-0.07342529296875,0.0421048440039157,0.023046463727951,-0.0284340381622314
1768726622260,-0.07110595703125,-0.9879302978515624,-0.069610595703125,0.0397420860826969,0.0173672717064619,-0.0332849845290184
1768726622270,-0.0663909912109375,-0.9863128662109376,-0.063751220703125,0.0374032966792583,-0.0001107874995796,-0.0352940745651721
1768726622280,-0.0644989013671875,-0.9828338623046876,-0.059417724609375,0.0296180788427591,-0.0189920663833618,-0.0353388153016567
1768726622290,-0.0624847412109375,-0.9864044189453124,-0.05694580078125,0.016437828540802,-0.0328879095613956,-0.0348349474370479
1768726622301,-0.063751220703125,-0.9867095947265624,-0.0579376220703125,-0.0001786981010809,-0.0331502296030521,-0.0347212292253971
1768726622311,-0.06427001953125,-0.988189697265625,-0.0634765625,-0.021600367501378,-0.0151086449623107,-0.0345481224358081
1768726622321,-0.060302734375,-0.9906158447265624,-0.0681304931640625,-0.0367710627615451,0.0037337518297135,-0.0374203436076641
1768726622331,-0.0621337890625,-0.9936676025390624,-0.0711822509765625,-0.0482847094535827,0.0164532754570245,-0.0327012203633785
1768726622341,-0.0633392333984375,-0.9930267333984376,-0.07208251953125,-0.0618045106530189,0.0298548340797424,-0.0274832900613546
1768726622351,-0.065032958984375,-0.992767333984375,-0.0739593505859375,-0.0669763684272766,0.0293624158948659,-0.0291198026388883
1768726622361,-0.0691375732421875,-0.998321533203125,-0.078369140625,-0.065278336405754,0.0183864645659923,-0.0352296270430088
1768726622371,-0.0702972412109375,-1.0015716552734375,-0.0841217041015625,-0.0564118772745132,0.0142636243253946,-0.0376280695199966
1768726622381,-0.06829833984375,-0.99835205078125,-0.0894622802734375,-0.0480985529720783,0.0130034163594245,-0.0408747270703315
1768726622391,-0.07012939453125,-0.9966888427734376,-0.0897064208984375,-0.0486349128186702,0.0067465859465301,-0.0501414649188518
1768726622401,-0.071624755859375,-1.0016326904296875,-0.0889129638671875,-0.0424164310097694,-0.0023848607670515,-0.0562792494893074
1768726622411,-0.0702667236328125,-1.0003204345703125,-0.091705322265625,-0.0291624125093221,-0.0130532179027795,-0.0563210621476173
1768726622421,-0.067413330078125,-0.9959564208984376,-0.0933990478515625,-0.0159842930734157,-0.0116752982139587,-0.0504282861948013
1768726622431,-0.0647125244140625,-0.9941558837890624,-0.0956573486328125,-0.003523362101987,-0.005397162400186,-0.0462364703416824
1768726622441,-0.063751220703125,-0.99322509765625,-0.0964813232421875,0.0074515244923532,0.0009510148083791,-0.0384038463234901
1768726622451,-0.06292724609375,-0.989471435546875,-0.0992279052734375,0.017567541450262,0.0089724557474255,-0.0287789180874824
1768726622461,-0.0628662109375,-0.989715576171875,-0.0976715087890625,0.0272199027240276,0.0165182556957006,-0.0232507269829511
1768726622471,-0.0628662109375,-0.9903411865234376,-0.096099853515625,0.0321219824254512,0.0220104940235614,-0.0206205900758504
1768726622481,-0.064208984375,-0.98651123046875,-0.0910797119140625,0.0385383367538452,0.0205151289701461,-0.0160298328846693
1768726622491,-0.0634765625,-0.9849090576171876,-0.0887298583984375,0.0433184467256069,0.0145445875823497,-0.0109357386827468
1768726622502,-0.0637054443359375,-0.99169921875,-0.0887603759765625,0.0475805699825286,0.0108651649206876,-0.0140822632238268
1768726622512,-0.0665740966796875,-0.9991302490234376,-0.0855865478515625,0.0495273396372795,0.0146271456032991,-0.0172024220228195
1768726622521,-0.0671844482421875,-0.9892425537109376,-0.0807647705078125,0.0533580295741558,0.0130319120362401,-0.016359532251954
1768726622532,-0.06329345703125,-0.9860687255859376,-0.082305908203125,0.0475374236702919,0.0210570823401212,-0.0064310012385249
1768726622541,-0.063079833984375,-0.963104248046875,-0.0806427001953125,0.0506599806249141,0.047887098044157,0.0088464887812733
1768726622552,-0.057952880859375,-0.9552764892578124,-0.07586669921875,0.0558997504413127,0.0278201792389154,0.0217795968055725
1768726622562,-0.0589447021484375,-1.000396728515625,-0.0699615478515625,0.0527787916362285,0.0121940821409225,-0.002110022585839
1768726622572,-0.0793609619140625,-1.0116424560546875,-0.0597991943359375,0.0495204143226146,0.024981515482068,-0.0263402611017227
1768726622582,-0.076141357421875,-1.00250244140625,-0.0605316162109375,0.0557641945779323,0.028907548636198,-0.0238459445536136
1768726622592,-0.0634307861328125,-0.9735260009765624,-0.0618133544921875,0.0514530725777149,0.0081239724531769,-0.0051747881807386
1768726622602,-0.0601959228515625,-0.9694366455078124,-0.0482940673828125,0.0330287888646125,-0.027948809787631,0.000331563554937
1768726622612,-0.0610198974609375,-0.99249267578125,-0.042449951171875,0.0075535238720476,-0.0505843460559845,-0.0084177190437912
1768726622622,-0.064788818359375,-1.0048065185546875,-0.0489349365234375,-0.0211859792470932,-0.0454769358038902,-0.0200019367039203
1768726622632,-0.0623779296875,-1.004791259765625,-0.0550689697265625,-0.0545090474188327,-0.024950623512268,-0.028188494965434
1768726622642,-0.0611572265625,-0.996185302734375,-0.061676025390625,-0.0818123072385788,-0.0098638162016868,-0.0251290556043386
1768726622652,-0.059478759765625,-0.984649658203125,-0.0665283203125,-0.1024954840540885,-0.0052040829323232,-0.0172397065907716
1768726622662,-0.057769775390625,-0.9893035888671876,-0.0727386474609375,-0.1153947710990905,-0.0013789847726002,-0.016704412177205
1768726622672,-0.0606842041015625,-1.0005340576171875,-0.0794830322265625,-0.11470527946949,0.0067079700529575,-0.018180601298809
1768726622682,-0.062530517578125,-0.9990386962890624,-0.088134765625,-0.1014400720596313,0.0137786623090505,-0.0171225275844335
1768726622692,-0.061431884765625,-0.9942169189453124,-0.0970611572265625,-0.0766870528459549,0.012893428094685,-0.013537379913032
1768726622702,-0.0568084716796875,-0.9957122802734376,-0.105255126953125,-0.0482929646968841,0.0127608021721243,-0.0106321377679705
1768726622712,-0.0597381591796875,-0.9966583251953124,-0.109527587890625,-0.0173725988715887,0.0178136173635721,-0.0095090828835964
1768726622722,-0.0641632080078125,-0.9970550537109376,-0.112518310546875,0.0112305497750639,0.0212608128786087,-0.0112228272482752
1768726622732,-0.0653839111328125,-0.9996337890625,-0.1108856201171875,0.041363950818777,0.0224613659083843,-0.0153547218069434
1768726622743,-0.064971923828125,-1.00396728515625,-0.1068115234375,0.0662365406751632,0.0257996395230293,-0.017264474183321
1768726622753,-0.06268310546875,-0.9916534423828124,-0.1003875732421875,0.0832679942250251,0.020167052745819,-0.0143866622820496
1768726622763,-0.0566253662109375,-0.9895172119140624,-0.089019775390625,0.0946202501654625,-0.0044054011814296,-0.0136122154071927
1768726622773,-0.060150146484375,-0.9993438720703124,-0.0806732177734375,0.0978938043117523,-0.0114723648875951,-0.0245282463729381
1768726622783,-0.0640411376953125,-0.9893646240234376,-0.0792388916015625,0.0973047167062759,0.00459501799196,-0.0232326183468103
1768726622793,-0.0558624267578125,-0.97674560546875,-0.07550048828125,0.0918702706694603,0.0113320164382457,-0.0192141737788915
1768726622803,-0.05474853515625,-0.9880523681640624,-0.06695556640625,0.0750603973865509,0.0106912599876523,-0.0281272418797016
1768726622813,-0.0618743896484375,-0.992767333984375,-0.06048583984375,0.0596452206373214,0.0108814099803566,-0.031417578458786
1768726622823,-0.05706787109375,-0.9870758056640624,-0.0572967529296875,0.0408451668918132,0.0121719781309366,-0.0248941648751497
1768726622833,-0.05487060546875,-0.9827117919921876,-0.051910400390625,0.0156300924718379,0.013824469409883,-0.0199678484350442
1768726622843,-0.0571136474609375,-0.9869232177734376,-0.0448760986328125,-0.0100997723639011,0.0100667485967278,-0.0201763752847909
1768726622853,-0.0614776611328125,-0.9907073974609376,-0.0449981689453125,-0.031976044178009,0.0025379925500601,-0.0201004743576049
1768726622863,-0.05853271484375,-0.986602783203125,-0.0500640869140625,-0.0487955026328563,-0.0017861821688711,-0.0183712840080261
1768726622873,-0.055267333984375,-0.9857025146484376,-0.0556640625,-0.0572220087051391,-0.0037148434203118,-0.0165853686630725
1768726622883,-0.056182861328125,-0.9899139404296876,-0.0633392333984375,-0.0604396425187587,-0.003165965899825,-0.0177781973034143
1768726622893,-0.0591278076171875,-0.9930877685546876,-0.0701904296875,-0.0551673807203769,-0.0100222742184996,-0.0224400609731674
1768726622903,-0.060028076171875,-0.9928741455078124,-0.077789306640625,-0.0489933751523494,-0.0123472139239311,-0.022377211600542
1768726622913,-0.0615386962890625,-0.99249267578125,-0.0847625732421875,-0.037135649472475,-0.0018082864116877,-0.0265804771333932
1768726622923,-0.066314697265625,-0.9982147216796876,-0.087249755859375,-0.0260015074163675,0.0087759150192141,-0.0270217638462781
1768726622933,-0.0619659423828125,-0.9983062744140624,-0.0868682861328125,-0.0178165473043918,0.01678510569036,-0.0257884543389081
1768726622944,-0.0563812255859375,-0.996368408203125,-0.08258056640625,-0.0074856132268905,0.0169086754322052,-0.0235474035143852
1768726622954,-0.05633544921875,-0.9940185546875,-0.07977294921875,0.0006261091912165,0.0120848920196294,-0.0184751469641923
1768726622963,-0.0530242919921875,-0.990142822265625,-0.07891845703125,0.0079540628939867,0.0020924457348883,-0.0139592252671718
1768726622973,-0.0551910400390625,-0.9913787841796876,-0.07855224609375,0.0142388567328453,-0.0071015851572155,-0.0096789924427866
1768726622984,-0.05731201171875,-0.9915313720703124,-0.0774688720703125,0.0203777104616165,-0.0043635894544422,-0.0134766604751348
1768726622996,-0.0622711181640625,-0.9906768798828124,-0.0775604248046875,0.026748789474368,0.0006860303110443,-0.0117623833939433
1768726623004,-0.0619354248046875,-0.9876861572265624,-0.0771942138671875,0.0304167605936527,0.0075242291204631,-0.0119504025205969
1768726623014,-0.0570220947265625,-0.984771728515625,-0.0758819580078125,0.0294662788510322,0.0070435283705592,-0.0131672006100416
1768726623024,-0.055938720703125,-0.9834747314453124,-0.073333740234375,0.0262369308620691,0.0034527883399277,-0.012598349712789
1768726623034,-0.0544281005859375,-0.980987548828125,-0.07061767578125,0.0197276324033737,-0.0010146644199267,-0.0106593025848269
1768726623044,-0.05157470703125,-0.983551025390625,-0.0647125244140625,0.0104422541335225,-0.0073204971849918,-0.0063481768593192
1768726623054,-0.0550079345703125,-0.99407958984375,-0.059906005859375,-0.0031049794051796,-0.0139043638482689,-0.0097338538616895
1768726623064,-0.059112548828125,-0.9957427978515624,-0.059906005859375,-0.014445518143475,-0.01540984865278,-0.00804487708956
1768726623074,-0.0579833984375,-0.9955902099609376,-0.0625457763671875,-0.0252393092960119,-0.0218592267483472,-0.0061393850483
1768726623084,-0.056549072265625,-0.9764251708984376,-0.068878173828125,-0.0199824962764978,-0.0020671456586569,0.0131882401183247
1768726623095,-0.045318603515625,-0.94586181640625,-0.075164794921875,-0.0115594509989023,-0.0112593127414584,0.0426095128059387
1768726623104,-0.0411376953125,-0.998260498046875,-0.0791015625,-0.012654541991651,-0.0243263784795999,0.011641476303339
1768726623115,-0.0709686279296875,-1.0191497802734375,-0.0753326416015625,-0.0159467421472072,0.0045249769464135,-0.0116302911192178
1768726623124,-0.0687255859375,-0.9964141845703124,-0.0768890380859375,-0.0070427292957901,0.0196581240743398,-0.0062272693030536
1768726623134,-0.0553741455078125,-0.9760894775390624,-0.0815582275390625,-0.0028253474738448,0.0074517908506095,0.010578341782093
1768726623147,-0.04833984375,-0.966217041015625,-0.0717315673828125,-0.0118771661072969,-0.0226555112749338,0.0138047616928815
1768726623154,-0.0524749755859375,-0.98779296875,-0.0615234375,-0.0268196295946836,-0.0495092310011386,0.0054091466590762
1768726623164,-0.05938720703125,-1.0066070556640625,-0.066009521484375,-0.043141346424818,-0.047191746532917,-0.0065013086423277
1768726623174,-0.0587005615234375,-1.00396728515625,-0.0755615234375,-0.0499249473214149,-0.0251000262796878,-0.0036256273742765
1768726623184,-0.054168701171875,-0.9904022216796876,-0.0878143310546875,-0.0469270274043083,0.0001416801678715,0.0073226275853812
1768726623194,-0.0501708984375,-0.9874267578125,-0.0935821533203125,-0.0385290160775184,0.0139515018090605,0.0132540203630924
1768726623204,-0.051605224609375,-0.99853515625,-0.091705322265625,-0.0266635678708553,0.0138518996536731,0.0129189947620034
1768726623215,-0.055633544921875,-1.00634765625,-0.09002685546875,-0.0112470621243119,0.0069974558427929,0.0105604985728859
1768726623225,-0.054229736328125,-1.006744384765625,-0.091827392578125,0.0136060900986194,0.0032575787045061,0.0138258002698421
1768726623235,-0.0522003173828125,-1.001373291015625,-0.096282958984375,0.0451096892356872,0.006008624099195,0.018066618591547
1768726623245,-0.0520782470703125,-0.9984130859375,-0.0980377197265625,0.0711870938539505,0.0144282076507806,0.021575067192316
1768726623255,-0.0512847900390625,-0.995452880859375,-0.0928802490234375,0.0926348641514778,0.0171028207987546,0.0240496769547462
1768726623265,-0.0532379150390625,-0.992279052734375,-0.0853271484375,0.104234792292118,0.0136247323825955,0.0279320329427719
1768726623275,-0.0561065673828125,-0.9910888671875,-0.0750579833984375,0.1077035591006279,0.0059601543471217,0.0271211005747318
1768726623285,-0.0574493408203125,-0.99322509765625,-0.0636138916015625,0.0999838560819625,0.0049713226035237,0.0183366630226373
1768726623295,-0.0640716552734375,-0.9914398193359376,-0.0535125732421875,0.0846775993704795,0.0086893616244196,0.0152814844623208
1768726623305,-0.0619354248046875,-0.9839630126953124,-0.0492095947265625,0.0659337416291236,-0.0009544769418425,0.0135277928784489
1768726623315,-0.061187744140625,-0.991485595703125,-0.0479583740234375,0.0365817137062549,0.0084949508309364,0.0053055495955049
1768726623325,-0.069091796875,-0.986663818359375,-0.0454559326171875,0.0123972808942198,0.0346314795315265,-0.0012796488590538
1768726623335,-0.064422607421875,-0.9752197265625,-0.04425048828125,-0.0063236760906875,0.0326974913477897,0.0020634171087294
1768726623345,-0.054718017578125,-0.98175048828125,-0.0433349609375,-0.0306670982390642,0.0168745871633291,-0.0053617423400282
1768726623355,-0.05804443359375,-0.99273681640625,-0.03961181640625,-0.0502354726195335,0.0088129322975873,-0.0173110794275999
1768726623365,-0.06170654296875,-0.9921875,-0.0462646484375,-0.0615009106695652,0.0023811322171241,-0.0205990187823772
1768726623375,-0.0583343505859375,-0.9899139404296876,-0.055145263671875,-0.0658591762185096,-0.004185423720628,-0.014862036332488
1768726623385,-0.0531463623046875,-0.9867095947265624,-0.06341552734375,-0.0669233724474906,-0.0086946878582239,-0.0099514340981841
1768726623396,-0.054534912109375,-0.988861083984375,-0.069122314453125,-0.0683433711528778,-0.0064821341075003,-0.0080315610393881
1768726623405,-0.0554962158203125,-0.991485595703125,-0.071075439453125,-0.0679899677634239,-0.0049902312457561,-0.0029811426065862
1768726623415,-0.0547637939453125,-0.9930572509765624,-0.077667236328125,-0.0653009787201881,-0.0010128001449629,-0.000155528599862
1768726623425,-0.0527801513671875,-0.993804931640625,-0.079376220703125,-0.0659979283809661,0.0007153250626288,0.002732136985287
1768726623436,-0.0550079345703125,-0.996490478515625,-0.0799407958984375,-0.0633941516280174,-0.0054107443429529,0.0029254823457449
1768726623446,-0.0567626953125,-0.9979248046875,-0.0867919921875,-0.0546432696282863,-0.0067540425807237,0.0077601848170161
1768726623455,-0.056427001953125,-0.9975128173828124,-0.091094970703125,-0.038432877510786,-0.0014194648247212,0.0089902989566326
1768726623466,-0.058349609375,-0.995452880859375,-0.0986175537109375,-0.0172303859144449,0.00561687303707,0.0111160343512892
1768726623476,-0.05816650390625,-0.9910736083984376,-0.1026458740234375,0.0063657537102699,0.013570936396718,0.0160117223858833
1768726623486,-0.0542755126953125,-0.98883056640625,-0.1019134521484375,0.0299424529075622,0.0115575864911079,0.0219479091465473
1768726623496,-0.0525054931640625,-0.98944091796875,-0.10028076171875,0.050498329102993,0.0129837095737457,0.0256800632923841
1768726623506,-0.055999755859375,-0.9929656982421876,-0.09576416015625,0.0685953050851821,0.0165358334779739,0.0209193956106901
1768726623516,-0.0592803955078125,-0.99554443359375,-0.0888824462890625,0.078039139509201,0.0166077390313148,0.0202988795936107
1768726623526,-0.0599822998046875,-0.9942626953125,-0.0775604248046875,0.0837263241410255,0.0084462156519293,0.0190762225538492
1768726623536,-0.0610198974609375,-0.9909515380859376,-0.071441650390625,0.0833169966936111,0.0019491675775498,0.0225625671446323
1768726623546,-0.0647125244140625,-0.9904327392578124,-0.0654449462890625,0.0780343487858772,0.0014378406340256,0.0225766822695732
1768726623556,-0.0663909912109375,-0.9878082275390624,-0.0597686767578125,0.0729732736945152,-0.0054754591546952,0.0302266124635934
1768726623566,-0.0586395263671875,-0.988616943359375,-0.060821533203125,0.0574867278337478,-0.0004439489566721,0.0292510967701673
1768726623576,-0.0565948486328125,-0.9864044189453124,-0.0569915771484375,0.0386459305882453,0.0020961740519851,0.0268044490367174
1768726623586,-0.0577545166015625,-0.9886322021484376,-0.054443359375,0.0192764922976493,0.007521566003561,0.0245199911296367
1768726623596,-0.058319091796875,-0.991058349609375,-0.0524444580078125,0.0082744415849447,0.0094595476984977,0.0197497364133596
1768726623606,-0.06207275390625,-0.9958648681640624,-0.0535430908203125,-0.0013108078856021,0.0108539788052439,0.0147126335650682
1768726623616,-0.0645751953125,-0.994384765625,-0.055389404296875,-0.0120444120839238,0.0043034018017351,0.0136337867006659
1768726623626,-0.0639495849609375,-0.988525390625,-0.0570068359375,-0.0174815226346254,0.0142393894493579,0.0246392991393804
1768726623636,-0.0599212646484375,-0.9447174072265624,-0.05889892578125,-0.0172298531979322,-0.0020921793766319,0.0530714727938175
1768726623647,-0.043212890625,-0.9855499267578124,-0.0624237060546875,-0.022913571447134,-0.025719478726387,0.0341382622718811
1768726623656,-0.065704345703125,-1.03155517578125,-0.0626373291015625,-0.034500453621149,0.0081506045535206,-0.0102142877876758
1768726623666,-0.0782318115234375,-1.004913330078125,-0.0608673095703125,-0.0373508334159851,0.0502570457756519,-0.0122390892356634
1768726623677,-0.05670166015625,-0.9810333251953124,-0.062225341796875,-0.0399769768118858,0.0329355783760547,0.008504538796842
1768726623687,-0.0497894287109375,-0.96331787109375,-0.058990478515625,-0.0387386083602905,-0.0013478258624672,0.0295307282358407
1768726623697,-0.0539703369140625,-0.988128662109375,-0.05389404296875,-0.0435794368386268,-0.030003173276782,0.0195039268583059
1768726623707,-0.0658721923828125,-1.0135040283203125,-0.0574798583984375,-0.044517133384943,-0.0261351969093084,0.000532099569682
1768726623717,-0.0686187744140625,-1.0072174072265625,-0.0672149658203125,-0.0440321713685989,-0.0216451082378625,-0.0036685043014585
1768726623729,-0.0630340576171875,-1.0,-0.0713653564453125,-0.0467126443982124,-0.0243514124304056,-0.0095706023275852
1768726623737,-0.0596160888671875,-0.9984130859375,-0.075836181640625,-0.0568036288022995,-0.019791280850768,-0.009049953892827
1768726623747,-0.058929443359375,-0.9927825927734376,-0.07659912109375,-0.0658059120178222,-0.0177707411348819,-0.0010956244077533
1768726623757,-0.06048583984375,-0.9884796142578124,-0.078094482421875,-0.0633006766438484,-0.0137807931751012,0.0110244220122694
1768726623767,-0.0583953857421875,-0.9911041259765624,-0.0822906494140625,-0.0589908808469772,-0.0025720810517668,0.0147304767742753
1768726623778,-0.0588226318359375,-0.995147705078125,-0.0822296142578125,-0.0530126169323921,0.0035044536925852,0.0141477771103382
1768726623787,-0.0642852783203125,-0.9963836669921876,-0.080963134765625,-0.0458202175796031,0.0091855088248848,0.0161699149757623
1768726623797,-0.066131591796875,-0.9938507080078124,-0.0839996337890625,-0.0323307737708091,0.010242517106235,0.0147962570190429
1768726623807,-0.0666351318359375,-0.993438720703125,-0.085784912109375,-0.0199947468936443,0.0009318400407209,0.0129629364237189
1768726623817,-0.069671630859375,-0.99462890625,-0.0858917236328125,-0.0069923955015838,-0.003336408175528,0.0071601746603846
1768726623828,-0.072723388671875,-0.9986419677734376,-0.086212158203125,0.0030615699943155,-0.0004000068001914,0.0057257963344454
1768726623837,-0.0718841552734375,-0.9994659423828124,-0.0848846435546875,0.0172831155359745,0.0083796363323926,-0.004259992390871
1768726623847,-0.07122802734375,-0.9941253662109376,-0.0810394287109375,0.0231460649520158,0.0014825817197561,-0.0013294500531628
1768726623857,-0.06549072265625,-0.996795654296875,-0.076385498046875,0.0207079406827688,-0.009050752967596,-0.0051966262981295
1768726623867,-0.0672149658203125,-0.991668701171875,-0.0755767822265625,0.0204677246510982,-0.0035092474427074,-0.0049247173592448
1768726623877,-0.0623626708984375,-0.9895477294921876,-0.0740203857421875,0.0142574990168213,0.0004956142511218,-0.006255499087274
1768726623888,-0.0626983642578125,-0.9965057373046876,-0.0704803466796875,0.0059297946281731,0.0061114220879971,-0.0158854890614748
1768726623898,-0.063751220703125,-0.9900970458984376,-0.0664215087890625,0.0007904262165538,0.0020093549974262,-0.0137616181746125
1768726623908,-0.0590972900390625,-0.984832763671875,-0.0632476806640625,-0.0061162156052887,-0.0044658547267317,-0.0130058135837316
1768726623918,-0.057403564453125,-0.9852752685546876,-0.0644989013671875,-0.0152726965025067,-0.004489024169743,-0.014112090691924
1768726623928,-0.0537109375,-0.9849853515625,-0.0644378662109375,-0.0269469283521175,-0.0065361959859728,-0.012368518859148
1768726623938,-0.0528106689453125,-0.985382080078125,-0.06475830078125,-0.0390259623527526,-0.0087681915611028,-0.0087665934115648
1768726623948,-0.0551910400390625,-0.987335205078125,-0.0693511962890625,-0.0476391576230526,-0.0058701396919786,-0.0074219633825123
1768726623958,-0.0590057373046875,-0.9898834228515624,-0.0715179443359375,-0.0549769662320613,0.0001563275582157,-0.0046296389773488
1768726623968,-0.0605316162109375,-0.995849609375,-0.0724029541015625,-0.0592761076986789,-0.001889779116027,-0.0053068809211254
1768726623979,-0.064453125,-0.998291015625,-0.0727691650390625,-0.0652559697628021,-0.0010381002211943,-0.0083295684307813
1768726623988,-0.0670166015625,-1.0020599365234375,-0.0724639892578125,-0.0716614052653312,0.0001826928491936,-0.0139035647734999
1768726623998,-0.0681304931640625,-1.0013275146484375,-0.07586669921875,-0.072708822786808,0.0006050702068023,-0.017208281904459
1768726624008,-0.06396484375,-0.997955322265625,-0.0821685791015625,-0.062116365879774,0.0101295998319983,-0.0113847469910979
1768726624018,-0.0631256103515625,-0.9942779541015624,-0.0891876220703125,-0.0484080128371715,0.024918932467699,-0.0096560893580317
1768726624028,-0.065093994140625,-0.9930267333984376,-0.0922088623046875,-0.024816932156682,0.0308047849684953,-0.0128244524821639
1768726624038,-0.0581512451171875,-0.993927001953125,-0.0897216796875,-0.0113908722996711,0.0157794952392578,-0.0134340496733784
1768726624048,-0.0598602294921875,-0.9939422607421876,-0.0840301513671875,0.0009446232579648,0.0045137917622923,-0.0176564920693635
1768726624058,-0.061920166015625,-0.9921112060546876,-0.0830078125,0.0112478611990809,-0.0008207862265408,-0.0151411360129714
1768726624068,-0.06072998046875,-0.9921112060546876,-0.08380126953125,0.016728114336729,-0.0027017768006771,-0.011453989893198
1768726624078,-0.059112548828125,-0.9850921630859376,-0.0833587646484375,0.0154122458770871,0.005258145276457,-0.0024679512716829
1768726624088,-0.057952880859375,-0.979278564453125,-0.0787200927734375,0.0050600059330463,0.0136281941086053,0.0057226005010306
1768726624098,-0.061187744140625,-0.9792633056640624,-0.0716094970703125,-0.0073934677056968,0.0162484776228666,0.0127477534115314
1768726624109,-0.0641326904296875,-0.9849090576171876,-0.069000244140625,-0.0245127994567155,0.0215827897191047,0.0067537766881287
1768726624119,-0.0631256103515625,-0.9888916015625,-0.067596435546875,-0.0416086949408054,0.0265176277607679,0.0023363912478089
1768726624129,-0.0611572265625,-0.9920654296875,-0.0697021484375,-0.0592790357768535,0.0242371633648872,-0.0024927188642323
1768726624139,-0.0643768310546875,-0.9963836669921876,-0.069580078125,-0.0724305212497711,0.0188684966415166,-0.0063923853449523
1768726624149,-0.066680908203125,-0.999847412109375,-0.0703125,-0.0812498480081558,0.0207612048834562,-0.0123722469434142
1768726624159,-0.0704803466796875,-0.99932861328125,-0.0757904052734375,-0.0841396450996398,0.0263269450515508,-0.0122137889266014
1768726624169,-0.065704345703125,-0.997650146484375,-0.081451416015625,-0.0868419557809829,0.0347025878727436,-0.0058040930889546
1768726624179,-0.06402587890625,-0.9602813720703124,-0.0874176025390625,-0.082635760307312,0.0367364436388015,0.0281786415725946
1768726624189,-0.0511474609375,-0.9644012451171876,-0.0904388427734375,-0.0690573677420616,0.0101256044581532,0.0281205847859382
1768726624199,-0.0629119873046875,-1.0200042724609375,-0.0911712646484375,-0.0646463707089424,0.0154263600707054,-0.0160532686859369
1768726624209,-0.0811767578125,-1.0285186767578125,-0.0911712646484375,-0.0545689687132835,0.0550110526382923,-0.041638258844614
1768726624219,-0.06561279296875,-0.9984283447265624,-0.0963897705078125,-0.0364264510571956,0.0463065132498741,-0.0253074876964092
1768726624231,-0.044952392578125,-0.970001220703125,-0.09503173828125,-0.0288963634520769,0.0129272500053048,-0.0011638014111667
1768726624239,-0.044830322265625,-0.974365234375,-0.0841522216796875,-0.0331536903977394,-0.0342269465327262,0.0040695765055716
1768726624249,-0.0542755126953125,-1.00531005859375,-0.0848388671875,-0.0324306450784206,-0.0360219180583953,-0.0140321953222155
1768726624259,-0.0600433349609375,-1.0061187744140625,-0.0957794189453125,-0.02918291836977,-0.0051790494471788,-0.0204059388488531
1768726624269,-0.0543060302734375,-0.9927825927734376,-0.104827880859375,-0.0265762172639369,0.019114039838314,-0.0168439615517854
1768726624279,-0.0487213134765625,-0.9863128662109376,-0.1037139892578125,-0.031717449426651,0.0327041521668434,-0.0097391800954937
1768726624289,-0.0507659912109375,-0.9863739013671876,-0.099395751953125,-0.035409390926361,0.0388810858130455,-0.0037097833119332
1768726624299,-0.052886962890625,-0.985809326171875,-0.096527099609375,-0.0318524725735187,0.036315131932497,0.00548637798056
1768726624309,-0.0540313720703125,-0.991058349609375,-0.096282958984375,-0.0206043440848588,0.0290454998612403,0.0065495120361447
1768726624320,-0.0554656982421875,-1.000091552734375,-0.0971832275390625,-0.0058363173156976,0.0245463550090789,0.005781456362456
1768726624329,-0.0606689453125,-1.0028228759765625,-0.095733642578125,0.0054187336936593,0.0330138765275478,0.0031747543253004
1768726624339,-0.0659942626953125,-1.0035247802734375,-0.0933685302734375,0.0143264746293425,0.0314588546752929,0.0001115864506573
1768726624350,-0.0662994384765625,-1.002655029296875,-0.091827392578125,0.0193377453833818,0.0276033990085124,-0.0024977787397801
1768726624360,-0.066314697265625,-1.00177001953125,-0.0872802734375,0.0178178790956735,0.0256033632904291,-0.0080898841843009
1768726624370,-0.06884765625,-1.0006103515625,-0.08099365234375,0.0096686063334345,0.0280092637985944,-0.0136827891692519
1768726624380,-0.0685882568359375,-0.998138427734375,-0.077239990234375,-0.0044908886775374,0.0324120000004768,-0.0172743275761604
1768726624390,-0.070831298828125,-0.991455078125,-0.07330322265625,-0.0241309031844139,0.0326389037072658,-0.0219708122313022
1768726624400,-0.067352294921875,-0.992034912109375,-0.0712890625,-0.0482823103666305,0.0231993291527032,-0.0316354222595691
1768726624410,-0.06561279296875,-0.99334716796875,-0.0708465576171875,-0.0640165358781814,0.0226925294846296,-0.0384240895509719
1768726624420,-0.0643157958984375,-0.985809326171875,-0.0781402587890625,-0.0726821944117546,0.021942850202322,-0.0417237430810928
1768726624430,-0.0590362548828125,-0.9934844970703124,-0.081787109375,-0.0828719809651374,0.0249945651739835,-0.0519833043217659
1768726624440,-0.0611572265625,-0.9957275390625,-0.0803680419921875,-0.0882196053862571,0.0247839093208313,-0.055445946753025
1768726624450,-0.0558319091796875,-0.9940948486328124,-0.0835113525390625,-0.089037999510765,0.0146923931315541,-0.0538049079477787
1768726624460,-0.0513916015625,-0.98956298828125,-0.0879058837890625,-0.0816546455025672,0.0061657503247261,-0.0469717681407928
1768726624470,-0.045074462890625,-0.9877471923828124,-0.09490966796875,-0.0715391635894775,0.0007827030494809,-0.0426965989172458
1768726624480,-0.046051025390625,-0.98834228515625,-0.101654052734375,-0.061957910656929,0.0060821273364126,-0.0401175916194915
1768726624490,-0.0472869873046875,-0.9883880615234376,-0.104217529296875,-0.0545913390815258,0.0138212731108069,-0.0355473421514034
1768726624500,-0.046783447265625,-0.9905853271484376,-0.108306884765625,-0.0410741977393627,0.0131283188238739,-0.0342445224523544
1768726624510,-0.0453948974609375,-0.992706298828125,-0.106719970703125,-0.0302907936275005,0.0155291585251688,-0.0328410379588604
1768726624520,-0.045562744140625,-0.9877166748046876,-0.105133056640625,-0.0170681998133659,0.0078179752454161,-0.0293746665120124
1768726624530,-0.0445709228515625,-0.9893646240234376,-0.1031494140625,-0.0082296999171376,-0.0099714072421193,-0.0232528578490018
1768726624540,-0.04736328125,-0.99676513671875,-0.101715087890625,-0.0036490634083747,-0.0262025762349367,-0.0241897590458393
1768726624551,-0.049468994140625,-0.99554443359375,-0.10321044921875,0.0020999026019126,-0.0313198380172252,-0.0204381626099348
1768726624561,-0.0500640869140625,-0.9921112060546876,-0.1042633056640625,0.0016149408183991,-0.0236270315945148,-0.0125898271799087
1768726624570,-0.052581787109375,-0.9889678955078124,-0.10528564453125,0.0037505298387259,-0.0086853671818971,-0.0049401638098061
1768726624581,-0.0566864013671875,-0.9944915771484376,-0.1092681884765625,0.0083988113328814,0.0068134311586618,-0.005101284943521
1768726624591,-0.06219482421875,-0.9987945556640624,-0.109344482421875,0.0187465231865644,0.0143736125901341,-0.0084898909553885
1768726624601,-0.0628662109375,-0.9972991943359376,-0.1085662841796875,0.0310183688998222,0.0232209004461765,-0.0099881859496235
1768726624611,-0.06280517578125,-0.9955596923828124,-0.1033935546875,0.0387420691549778,0.0178253352642059,-0.0148889347910881
1768726624621,-0.06671142578125,-0.99969482421875,-0.0969390869140625,0.04503059014678,0.0021584921050816,-0.0199822299182415
1768726624631,-0.0655975341796875,-0.9967498779296876,-0.09051513671875,0.048708152025938,-0.009623066522181,-0.0220818668603897
1768726624641,-0.056243896484375,-0.9878387451171876,-0.0869293212890625,0.0467544570565223,-0.0235902816057205,-0.0200296342372894
1768726624651,-0.0502777099609375,-0.9884490966796876,-0.085479736328125,0.0413399823009967,-0.0272334851324558,-0.0157163795083761
1768726624662,-0.0489044189453125,-0.986053466796875,-0.08489990234375,0.0282465517520904,-0.022652581334114,-0.0158628523349761
1768726624671,-0.0498046875,-0.983184814453125,-0.079864501953125,0.0105983158573508,-0.0198703780770301,-0.0119464080780744
1768726624681,-0.047760009765625,-0.98565673828125,-0.0792694091796875,-0.0037113812286406,-0.0213612150400877,-0.0122662531211972
1768726624691,-0.0499420166015625,-0.9902191162109376,-0.08001708984375,-0.0177374519407749,-0.0230864100158214,-0.0137736024335026
1768726624701,-0.0491943359375,-0.98980712890625,-0.079071044921875,-0.0287709273397922,-0.0227324757725,-0.0100278668105602
1768726624711,-0.0479278564453125,-0.9874114990234376,-0.082305908203125,-0.0415732748806476,-0.0268680993467569,-0.0090600736439228
1768726624721,-0.04730224609375,-0.9715118408203124,-0.09027099609375,-0.0312143787741661,0.0001217064636875,0.007653126027435
1768726624731,-0.03863525390625,-0.9484405517578124,-0.098541259765625,-0.0109716905280947,-0.0021883193403482,0.0271698348224163
1768726624741,-0.0368499755859375,-0.99554443359375,-0.1043243408203125,-0.0019632822368294,0.0005789712304249,0.0016005598008632
1768726624751,-0.0600433349609375,-1.0108184814453125,-0.0961761474609375,0.0069740200415253,0.0185806080698966,-0.0177299939095973
1768726624761,-0.0560150146484375,-1.003326416015625,-0.0897369384765625,0.0207934286445379,0.0153800211846828,-0.02197534032166
1768726624771,-0.0497283935546875,-0.9870452880859376,-0.0901641845703125,0.0313880145549774,0.0027585022617131,-0.007954329252243
1768726624781,-0.04510498046875,-0.9735565185546876,-0.08172607421875,0.0236174445599317,-0.028642563149333,0.0053502907976508
1768726624791,-0.0446624755859375,-0.9902496337890624,-0.0728607177734375,0.0073364758864045,-0.0608878508210182,0.00253586191684
1768726624801,-0.0501861572265625,-1.004302978515625,-0.074951171875,-0.0112718287855386,-0.0660237595438957,-0.0051169977523386
1768726624812,-0.0489044189453125,-1.0065765380859375,-0.086761474609375,-0.0274321567267179,-0.0396917536854743,-0.0072624403983354
1768726624822,-0.0478515625,-0.9930419921875,-0.09661865234375,-0.0397846959531307,-0.012383964844048,-0.0018604843644425
1768726624832,-0.044036865234375,-0.981781005859375,-0.10357666015625,-0.0506890080869197,0.0041025998070836,0.0100118881091475
1768726624842,-0.0435638427734375,-0.9864044189453124,-0.104400634765625,-0.0508495979011058,0.0134734641760587,0.0149896023795008
1768726624852,-0.0457000732421875,-0.994598388671875,-0.105560302734375,-0.0445549525320529,0.0214477684348821,0.0183196179568767
1768726624863,-0.0521392822265625,-0.9961395263671876,-0.10809326171875,-0.0252126790583133,0.0324769839644432,0.0217258017510175
1768726624872,-0.051971435546875,-0.9962615966796876,-0.1106414794921875,-0.0024330639280378,0.0356165841221809,0.0221100952476263
1768726624882,-0.0538330078125,-0.999725341796875,-0.1103973388671875,0.0222637597471475,0.0316982753574848,0.0169661995023489
1768726624892,-0.05572509765625,-0.996734619140625,-0.1092071533203125,0.0457922555506229,0.0278558656573295,0.0159946791827678
1768726624902,-0.05889892578125,-0.99945068359375,-0.10650634765625,0.062233280390501,0.0244629979133605,0.0081450119614601
1768726624912,-0.0621337890625,-1.001708984375,-0.099578857421875,0.074099525809288,0.023210247978568,0.0040304278954863
1768726624922,-0.0614166259765625,-1.00140380859375,-0.0979156494140625,0.0803134813904762,0.0203385613858699,-0.0016173376934602
1768726624932,-0.055938720703125,-0.9987030029296876,-0.0914154052734375,0.076641246676445,0.0236448757350444,0.0007416903390549
1768726624942,-0.0481719970703125,-0.9848480224609376,-0.0859222412109375,0.0696848034858703,0.006531935185194,0.004438956733793
1768726624952,-0.0457763671875,-0.9937896728515624,-0.079742431640625,0.0498431883752346,0.0007832356495782,-0.0030213561840355
1768726624962,-0.0535430908203125,-0.9892425537109376,-0.0748748779296875,0.0407972298562526,0.0143504431471228,-0.0074589815922081
1768726624972,-0.0510711669921875,-0.9810638427734376,-0.0775299072265625,0.0312982685863971,0.007790545001626,-0.0042541334405541
1768726624982,-0.0436859130859375,-0.9859619140625,-0.0769500732421875,0.0210251249372959,-0.0040525323711335,-0.0139914490282535
1768726624992,-0.04803466796875,-0.9913330078125,-0.07525634765625,0.0061566955409944,0.0009960222523659,-0.0190884731709957
1768726625002,-0.0483551025390625,-0.98468017578125,-0.0768890380859375,-0.0038962047547101,0.01085717510432,-0.0135602839291095
1768726625012,-0.04388427734375,-0.97796630859375,-0.0791473388671875,-0.0134135438129305,0.0110475914552807,-0.006068012677133
1768726625022,-0.0400238037109375,-0.9763031005859376,-0.082061767578125,-0.0168588757514953,0.0083671193569898,0.002813097089529
1768726625033,-0.04364013671875,-0.9810943603515624,-0.083221435546875,-0.0183196179568767,0.0051984903402626,0.0028756812680512
1768726625042,-0.0501556396484375,-0.9860687255859376,-0.0870361328125,-0.0172394402325153,0.0094262585043907,0.0031806132756173
1768726625053,-0.05072021484375,-0.984588623046875,-0.09063720703125,-0.009236641228199,0.0160601921379566,0.0060424460098147
1768726625063,-0.05364990234375,-0.9901580810546876,-0.09521484375,0.001414404832758,0.0131541518494486,0.0031419973820447
1768726625073,-0.056915283203125,-0.99591064453125,-0.0963134765625,0.0144377946853637,0.0192376095801591,0.0019566244445741
1768726625083,-0.0607452392578125,-0.99505615234375,-0.094757080078125,0.0245274472981691,0.0217385850846767,-0.0029917950741946
1768726625093,-0.06500244140625,-0.995574951171875,-0.0931243896484375,0.0401351675391197,0.0177744701504707,-0.002223739400506
1768726625103,-0.0659332275390625,-0.9956817626953124,-0.0935821533203125,0.0545588508248329,0.0197646506130695,0.0019100190838798
1768726625113,-0.064178466796875,-0.9976348876953124,-0.093292236328125,0.0698981210589408,0.0244472865015268,0.0013374395202845
1768726625123,-0.0648193359375,-0.9962005615234376,-0.0912322998046875,0.0823409482836723,0.0287331119179725,0.0006857639527879
1768726625133,-0.06512451171875,-0.9969024658203124,-0.084747314453125,0.092186115682125,0.0301496461033821,-0.0005968143814243
1768726625143,-0.06304931640625,-0.993316650390625,-0.0779571533203125,0.1010352745652198,0.0209516212344169,-0.0013318468118086
1768726625153,-0.057830810546875,-0.994140625,-0.07177734375,0.1021394208073616,0.0086131952702999,-0.0026706180069595
1768726625163,-0.0572662353515625,-0.9911651611328124,-0.063262939453125,0.0969201549887657,-0.0003568635729607,-0.0047454866580665
1768726625173,-0.0587310791015625,-0.9886474609375,-0.055419921875,0.0860741659998893,-0.0113045861944556,-0.0064262077212333
1768726625183,-0.0564422607421875,-0.9883575439453124,-0.05218505859375,0.0687668099999427,-0.0171219948679208,-0.0070131681859493
1768726625193,-0.0540008544921875,-0.9826812744140624,-0.0496978759765625,0.0462122373282909,-0.0200717132538557,-0.0047084689140319
1768726625203,-0.0508880615234375,-0.980194091796875,-0.049835205078125,0.0125264441594481,-0.0201066005975008,-0.0007217166712507
1768726625213,-0.046630859375,-0.975128173828125,-0.0507659912109375,-0.0236699096858501,-0.013947507366538,0.0019678096286952
1768726625223,-0.0438232421875,-0.9761810302734376,-0.0501708984375,-0.0555639266967773,-0.0238352920860052,0.0006042712484486
1768726625233,-0.0454254150390625,-0.9853668212890624,-0.0538177490234375,-0.0808855295181274,-0.038399588316679,-0.0046461508609354
1768726625243,-0.0483245849609375,-0.99090576171875,-0.0620269775390625,-0.1029088050127029,-0.0345955267548561,-0.0092992261052131
1768726625253,-0.04754638671875,-0.9949951171875,-0.0732269287109375,-0.1244258135557174,-0.0220469795167446,-0.0169209260493516
1768726625264,-0.052215576171875,-0.9784088134765624,-0.0830841064453125,-0.1206633001565933,0.0210498906672,-0.0038804919458925
1768726625274,-0.042083740234375,-0.9471893310546876,-0.0958404541015625,-0.1138341575860977,0.0129775842651724,0.0242448858916759
1768726625284,-0.0326080322265625,-0.998291015625,-0.09918212890625,-0.1104026734828949,0.0045518749393522,-0.0024650217965245
1768726625294,-0.0594329833984375,-1.020843505859375,-0.0993499755859375,-0.0963795334100723,0.0370584204792976,-0.0215383153408765
1768726625304,-0.057220458984375,-1.000091552734375,-0.1041259765625,-0.0668112561106681,0.0446305833756923,-0.0125051392242312
1768726625314,-0.0432586669921875,-0.9889068603515624,-0.11492919921875,-0.0326940305531024,0.0379718840122222,0.0074808192439377
1768726625324,-0.039276123046875,-0.9700469970703124,-0.113433837890625,-0.0044269724749028,0.0135317873209714,0.0247271843254566
1768726625334,-0.0337677001953125,-0.9898681640625,-0.1080780029296875,0.0203412249684333,-0.0097492998465895,0.0279789045453071
1768726625344,-0.0406951904296875,-1.0039215087890625,-0.1077880859375,0.04373549669981,-0.0143855968490242,0.0274950079619884
1768726625354,-0.0438385009765625,-1.000701904296875,-0.1056976318359375,0.0637853741645813,-0.006369215901941,0.0364096723496913
1768726625364,-0.0427093505859375,-0.98272705078125,-0.1041107177734375,0.0799827128648758,0.0012809804175049,0.0568811260163784
1768726625374,-0.03912353515625,-0.9696502685546876,-0.09844970703125,0.088153563439846,0.0027891285717487,0.0721708685159683
1768726625384,-0.0427093505859375,-0.973602294921875,-0.090576171875,0.089836411178112,0.000843156769406,0.0776021182537078
1768726625394,-0.050689697265625,-0.9857025146484376,-0.0794677734375,0.0848400592803955,0.0009928264189511,0.073181003332138
1768726625404,-0.0569610595703125,-0.9969024658203124,-0.071502685546875,0.0796634033322334,-0.0003960120375268,0.0647260025143623
1768726625414,-0.061859130859375,-0.99871826171875,-0.06658935546875,0.0720813870429992,0.0061044977046549,0.0594665221869945
1768726625424,-0.0654296875,-0.9986419677734376,-0.062652587890625,0.062278289347887,0.0106332032009959,0.0497925914824008
1768726625434,-0.073699951171875,-0.9990386962890624,-0.0586090087890625,0.0521433614194393,0.0142649561166763,0.0452689453959465
1768726625444,-0.07635498046875,-1.0038909912109375,-0.055572509765625,0.0398659221827983,0.0082131884992122,0.0339390598237514
1768726625454,-0.0787811279296875,-1.0059661865234375,-0.052947998046875,0.0244254488497972,0.006729541812092,0.023264842107892
1768726625464,-0.076690673828125,-1.005523681640625,-0.04901123046875,0.0035697009880095,0.0062347264029085,0.012327772565186
1768726625474,-0.0768280029296875,-1.0008392333984375,-0.0483551025390625,-0.0215907786041498,0.0134303215891122,0.0035705000627785
1768726625485,-0.0752105712890625,-0.990631103515625,-0.04931640625,-0.0477869622409343,0.0042767701670527,-0.0010162622202187
1768726625495,-0.0689697265625,-0.99896240234375,-0.0514984130859375,-0.0773331373929977,0.0020607539918273,-0.0132830487564206
1768726625504,-0.0698089599609375,-0.9894256591796876,-0.0542449951171875,-0.1047469154000282,0.0042376220226287,-0.016464726999402
1768726625515,-0.062225341796875,-0.9866790771484376,-0.0582275390625,-0.1236769333481788,-0.0051462925039231,-0.0194759629666805
1768726625525,-0.054962158203125,-0.9882354736328124,-0.067596435546875,-0.1410399377346038,-0.011281949467957,-0.0271440036594867
1768726625535,-0.0526123046875,-0.99072265625,-0.0764312744140625,-0.1482845395803451,0.0017702031182125,-0.0290305856615304
1768726625545,-0.0503387451171875,-0.982330322265625,-0.0890350341796875,-0.1421853750944137,0.009090700186789,-0.021555358543992
1768726625555,-0.0473785400390625,-0.984222412109375,-0.099822998046875,-0.1324858665466308,0.0117629161104559,-0.0148926628753542
1768726625565,-0.0453033447265625,-0.984100341796875,-0.102874755859375,-0.1209080442786216,0.0102971121668815,-0.0091636711731553
1768726625575,-0.046417236328125,-0.987060546875,-0.1091461181640625,-0.1047008484601974,0.0115099158138036,-0.0040626521222293
1768726625585,-0.0467987060546875,-0.99005126953125,-0.115936279296875,-0.0817081779241561,0.0279104597866535,0.0040828920900821
1768726625595,-0.0446319580078125,-0.9830169677734376,-0.1219329833984375,-0.0555679202079772,0.0375044979155063,0.0152212968096137
1768726625605,-0.04620361328125,-0.989654541015625,-0.12347412109375,-0.0296550970524549,0.0367830470204353,0.0237548649311065
1768726625615,-0.0503387451171875,-0.9933013916015624,-0.1200103759765625,-0.0069718891754746,0.0281040724366903,0.0285898335278034
1768726625625,-0.0505828857421875,-1.0009307861328125,-0.11309814453125,0.0126460203900933,0.0190977938473224,0.026927487924695
1768726625635,-0.05120849609375,-0.9995574951171876,-0.1094207763671875,0.035683162510395,0.0116633139550685,0.0309113096445798
1768726625645,-0.0509033203125,-0.9951934814453124,-0.1097869873046875,0.0550166480243206,0.0075452681630849,0.0353348217904567
1768726625655,-0.05352783203125,-0.9942779541015624,-0.1069793701171875,0.0739826112985611,0.0102089615538716,0.0391737669706344
1768726625665,-0.0564117431640625,-0.9916839599609376,-0.10162353515625,0.0869681909680366,0.0069183600135147,0.0392320901155471
1768726625675,-0.063018798828125,-0.995330810546875,-0.094635009765625,0.0902595892548561,0.0021542310714721,0.0362647958099842
1768726625685,-0.0654754638671875,-1.0009307861328125,-0.08966064453125,0.0914851725101471,0.0010511496802791,0.0281107295304536
1768726625695,-0.0697479248046875,-1.000946044921875,-0.084442138671875,0.0803571566939354,0.001914812834002,0.0203066039830446
1768726625705,-0.0692901611328125,-1.0028839111328125,-0.076934814453125,0.0618101060390472,0.0120790330693125,0.0139072937890887
1768726625716,-0.0662841796875,-0.9931640625,-0.070709228515625,0.0435871593654155,0.0121336281299591,0.0210847780108451
1768726625725,-0.0619659423828125,-0.98455810546875,-0.0653228759765625,0.025719478726387,0.0147597715258598,0.0273831542581319
1768726625736,-0.0621337890625,-0.9776763916015624,-0.0615997314453125,0.0036218990571796,0.0214261952787637,0.0299973133951425
1768726625746,-0.0657958984375,-0.985107421875,-0.0589752197265625,-0.0183108299970626,0.0184064377099275,0.0243751145899295
1768726625756,-0.0656890869140625,-0.9861602783203124,-0.0581817626953125,-0.0378493778407573,0.0068640313111245,0.0181331969797611
1768726625766,-0.064453125,-0.987030029296875,-0.062591552734375,-0.0546342171728611,-0.0035446672700345,0.012678244151175
1768726625776,-0.0635986328125,-0.9917755126953124,-0.067779541015625,-0.0645821914076805,-0.0068065072409808,0.0064597632735967
1768726625786,-0.062225341796875,-0.9928436279296876,-0.073883056640625,-0.071583904325962,-0.0034511904232203,0.0028644960839301
1768726625796,-0.0594482421875,-0.989837646484375,-0.07958984375,-0.0821768939495086,0.0001523328101029,0.0044605284929275
1768726625806,-0.0584259033203125,-0.97772216796875,-0.083953857421875,-0.0771150216460228,0.0267293490469455,0.0265671629458665
1768726625816,-0.052764892578125,-0.9421539306640624,-0.0897216796875,-0.0662448033690452,-0.0007315703551284,0.055376973003149
1768726625826,-0.0439453125,-0.997589111328125,-0.0924530029296875,-0.0630093291401863,-0.0238328948616981,0.0363441593945026
1768726625836,-0.07232666015625,-1.02935791015625,-0.0937957763671875,-0.0537503138184547,0.0115562546998262,0.0071436632424592
1768726625846,-0.0799102783203125,-1.003326416015625,-0.097900390625,-0.0441536121070385,0.0267373379319906,0.0081961443647742
1768726625856,-0.0625,-0.9849853515625,-0.10003662109375,-0.0261591654270887,0.0167664624750614,0.0236182436347007
1768726625866,-0.058563232421875,-0.9705657958984376,-0.09747314453125,-0.0152798863127827,-0.0136636141687631,0.0350282900035381
1768726625876,-0.0607147216796875,-0.9951019287109376,-0.0911712646484375,-0.0131821148097515,-0.0337792672216892,0.0203835684806108
1768726625886,-0.0716094970703125,-1.0157470703125,-0.089263916015625,-0.0129956938326358,-0.0218975748866796,0.0031105722300708
1768726625897,-0.07000732421875,-1.0039825439453125,-0.0900726318359375,-0.0147158289328217,-0.0109008513391017,0.0004982774262316
1768726625906,-0.0603790283203125,-0.992828369140625,-0.090667724609375,-0.0265951249748468,-0.014511564746499,0.0003078614245168
1768726625916,-0.057830810546875,-0.996002197265625,-0.0882415771484375,-0.0449357815086841,-0.0208693295717239,0.0010958907660096
1768726625926,-0.0601043701171875,-0.9925384521484376,-0.0870819091796875,-0.0602518878877162,-0.0174162741750478,0.0062421830371022
1768726625936,-0.0616302490234375,-0.991912841796875,-0.0916900634765625,-0.0618356689810752,-0.0152918705716729,0.012271580286324
1768726625946,-0.0626678466796875,-0.9949493408203124,-0.10101318359375,-0.0513108596205711,-0.0100174807012081,0.0169765874743461
1768726625957,-0.06048583984375,-0.9940643310546876,-0.1078643798828125,-0.0363026149570941,-0.0002482066047377,0.0228278171271085
1768726625967,-0.060028076171875,-0.99188232421875,-0.10882568359375,-0.0200440157204866,0.0088451569899916,0.0222368631511926
1768726625977,-0.06549072265625,-0.995086669921875,-0.1091461181640625,-0.0080533986911177,0.0156822893768548,0.0170490238815546
1768726625987,-0.0686798095703125,-0.99700927734375,-0.106353759765625,0.0036922064609825,0.0165459532290697,0.0114667722955346
1768726625997,-0.0687255859375,-0.995361328125,-0.1001129150390625,0.0118553275242447,0.0093911048024892,0.0072336778976023
1768726626007,-0.0689544677734375,-0.9943084716796876,-0.0972747802734375,0.0176008306443691,0.0055106128565967,0.0011187939671799
1768726626017,-0.068695068359375,-0.994781494140625,-0.0947418212890625,0.0217311289161443,0.0059961071237921,0.0002239718451164
1768726626027,-0.0688629150390625,-0.9914093017578124,-0.095550537109375,0.017611751332879,0.0082677835598587,-0.0028229507151991
1768726626037,-0.0675506591796875,-0.99371337890625,-0.0923614501953125,0.0134292561560869,0.0122252404689788,-0.008152469061315
1768726626047,-0.0692291259765625,-0.98516845703125,-0.0911712646484375,0.0070160976611077,0.010717892087996,-0.0087503483518958
1768726626057,-0.066192626953125,-0.990234375,-0.08648681640625,0.0009531453251838,0.0155821554362773,-0.0146372662857174
1768726626067,-0.065460205078125,-0.98907470703125,-0.0853729248046875,-0.0060738716274499,0.0185928586870431,-0.0144995804876089
1768726626077,-0.0607147216796875,-0.9815521240234376,-0.0860748291015625,-0.0081601915881037,0.0187180284410715,-0.0117365503683686
1768726626087,-0.0595703125,-0.983062744140625,-0.0852813720703125,-0.0122737102210521,0.0161179825663566,-0.0132457641884684
1768726626097,-0.063262939453125,-0.9848785400390624,-0.083282470703125,-0.0116926087066531,0.0125293741002678,-0.0105586349964141
1768726626107,-0.05712890625,-0.980194091796875,-0.08404541015625,-0.0139986397698521,0.0056664077565073,-0.0081852255389094
1768726626117,-0.0565338134765625,-0.9806671142578124,-0.084930419921875,-0.0174761954694986,0.0047811730764806,-0.0061990399844944
1768726626127,-0.06011962890625,-0.9858551025390624,-0.0822601318359375,-0.0242374297231435,0.004898618441075,-0.0045468150638043
1768726626137,-0.058502197265625,-0.989227294921875,-0.08209228515625,-0.031162180006504,0.0043255062773823,-0.0020266654901206
1768726626148,-0.0594024658203125,-0.9903411865234376,-0.0814971923828125,-0.0361944884061813,-0.0042432146146893,0.0003560646437108
1768726626157,-0.061737060546875,-0.9922637939453124,-0.086029052734375,-0.0399599336087703,-0.0060813282616436,-0.0002407497668173
1768726626167,-0.0648345947265625,-0.9905242919921876,-0.0894927978515625,-0.0369846485555172,-0.0037297571543604,0.003353452309966
1768726626178,-0.0631103515625,-0.9901885986328124,-0.0952606201171875,-0.0302569717168808,0.004275971557945,0.0054427022114396
1768726626188,-0.0652618408203125,-0.9925079345703124,-0.101104736328125,-0.0258358586579561,0.015844477340579,0.0014868428697809
1768726626198,-0.06573486328125,-0.994873046875,-0.10009765625,-0.0203103311359882,0.0236488711088895,0.0005014732014387
1768726626208,-0.06475830078125,-0.99517822265625,-0.097442626953125,-0.0239833630621433,0.0253847185522317,-0.0017494305502623
1768726626218,-0.0620269775390625,-0.994476318359375,-0.0894622802734375,-0.0267690289765596,0.0161909535527229,-0.0059710736386477
1768726626228,-0.06536865234375,-0.99609375,-0.0825653076171875,-0.0316673815250396,0.0039297603070735,-0.0105924569070339
1768726626238,-0.0683135986328125,-0.99639892578125,-0.083038330078125,-0.0338791385293006,-0.006360693834722,-0.0148127684369683
1768726626248,-0.0680694580078125,-0.994354248046875,-0.0847930908203125,-0.0363087393343448,-0.0156130483373999,-0.0158993378281593
1768726626258,-0.0647125244140625,-0.987152099609375,-0.0868377685546875,-0.0390677750110626,-0.0272270943969488,-0.0129693280905485
1768726626268,-0.063507080078125,-0.9847259521484376,-0.088287353515625,-0.0473059974610805,-0.0364027470350265,-0.0120681142434477
1768726626278,-0.0674896240234375,-0.9883880615234376,-0.0914764404296875,-0.0557293072342872,-0.0326612740755081,-0.0154719008132815
1768726626288,-0.0670013427734375,-0.993408203125,-0.09521484375,-0.0681859776377677,-0.0202243123203516,-0.0220222119241952
1768726626298,-0.0675811767578125,-0.99285888671875,-0.0995025634765625,-0.0781861469149589,-0.0007771103992126,-0.0268372073769569
1768726626308,-0.0645904541015625,-0.9932708740234376,-0.100189208984375,-0.087163396179676,0.0052898367866873,-0.0291560217738151
1768726626318,-0.06427001953125,-0.9967803955078124,-0.0992889404296875,-0.093112900853157,-0.000386158353649,-0.0299336649477481
1768726626328,-0.0603485107421875,-0.99664306640625,-0.1013031005859375,-0.0948663279414177,-0.0048043425194919,-0.0300710834562778
1768726626338,-0.054656982421875,-0.992156982421875,-0.1058197021484375,-0.0949933603405952,-0.0073492592200636,-0.0267839431762695
1768726626348,-0.05572509765625,-0.975494384765625,-0.11181640625,-0.0815390646457672,0.0068160942755639,-2.210423735959921e-05
1768726626358,-0.0469818115234375,-0.9413604736328124,-0.12249755859375,-0.066148392856121,-0.008591890335083,0.034700721502304
1768726626368,-0.0382537841796875,-0.982391357421875,-0.127716064453125,-0.051105260848999,-0.0147906634956598,0.0121022025123238
1768726626380,-0.0684814453125,-1.0255584716796875,-0.1252593994140625,-0.0341185554862022,0.0262465178966522,-0.023979103192687
1768726626388,-0.080902099609375,-1.0068359375,-0.1304931640625,-0.008839564397931,0.058740809559822,-0.0177278649061918
1768726626398,-0.0610504150390625,-0.9794769287109376,-0.126953125,0.0140095585957169,0.0569093562662601,0.0068680262193083
1768726626408,-0.0534210205078125,-0.962890625,-0.1153106689453125,0.0284255165606737,0.0117509318515658,0.0229276865720748
1768726626419,-0.0566864013671875,-0.9944610595703124,-0.104095458984375,0.0327337123453617,-0.034605648368597,0.0102126896381378
1768726626429,-0.0693359375,-1.0179443359375,-0.1029205322265625,0.034901525825262,-0.0443988889455795,-0.0110305463895201
1768726626439,-0.0679473876953125,-1.0118865966796875,-0.106109619140625,0.0355577282607555,-0.0417495779693126,-0.0129506858065724
1768726626449,-0.058685302734375,-0.9962158203125,-0.10797119140625,0.0310298204421997,-0.0390318222343921,-0.009876599535346
1768726626459,-0.056304931640625,-0.99200439453125,-0.1035003662109375,0.0143903912976384,-0.023339943960309,-0.0047404267825186
1768726626469,-0.0616455078125,-0.9850311279296876,-0.0989837646484375,0.0016863135388121,-0.0115469340234994,0.0058682751841843
1768726626480,-0.05908203125,-0.9857177734375,-0.1012115478515625,-0.0051470915786921,-0.0110049806535243,0.0148170292377471
1768726626489,-0.055694580078125,-0.9949798583984376,-0.103790283203125,-0.0049375006929039,-0.0026937874499708,0.0122169852256774
1768726626499,-0.0624237060546875,-1.0007781982421875,-0.10711669921875,-0.0008602010202594,0.0075276908464729,0.0109658315777778
1768726626509,-0.0680389404296875,-1.0052032470703125,-0.107147216796875,0.0085386270657181,0.0089578088372945,0.0044986116699874
1768726626519,-0.0707244873046875,-1.003204345703125,-0.108795166015625,0.0167555436491966,0.0096787260845303,-0.0008793757879175
1768726626530,-0.0709228515625,-0.998077392578125,-0.108306884765625,0.0217772014439106,0.0106939235702157,-0.0044879592023789
1768726626539,-0.0709686279296875,-0.9975433349609376,-0.107208251953125,0.0260459817945957,0.0171227939426898,-0.0071766865439713
1768726626549,-0.071624755859375,-0.9991912841796876,-0.102569580078125,0.0246211905032396,0.0301070362329483,-0.0161866936832666
1768726626559,-0.0722808837890625,-0.9985809326171876,-0.0953216552734375,0.0166644640266895,0.034579548984766,-0.0196296274662017
1768726626569,-0.0663909912109375,-0.9882965087890624,-0.0890045166015625,0.0051068775355815,0.0155275603756308,-0.0158029310405254
1768726626580,-0.0567779541015625,-0.9884185791015624,-0.089324951171875,-0.0092195970937609,0.0034410704392939,-0.0199638549238443
1768726626589,-0.06134033203125,-0.9820098876953124,-0.08795166015625,-0.0184053722769022,-0.0019419770687818,-0.0203548055142164
1768726626599,-0.058868408203125,-0.9838104248046876,-0.091461181640625,-0.0280723813921213,-0.0021305289119482,-0.0280990116298198
1768726626609,-0.0583648681640625,-0.9903411865234376,-0.094696044921875,-0.036146018654108,-0.0009073389810509,-0.0312034599483013
1768726626619,-0.0587005615234375,-0.98797607421875,-0.0962677001953125,-0.0410563573241233,0.0085008097812533,-0.0316399522125721
1768726626630,-0.056610107421875,-0.983734130859375,-0.09674072265625,-0.0427309535443782,0.0076081184670329,-0.0272574536502361
1768726626640,-0.0538330078125,-0.9821624755859376,-0.0998992919921875,-0.0382696241140365,0.0048099351115524,-0.0233388785272836
1768726626650,-0.051177978515625,-0.984283447265625,-0.1016693115234375,-0.0332085527479648,0.0010801780736073,-0.0224294085055589
1768726626660,-0.0501861572265625,-0.98797607421875,-0.1032257080078125,-0.0312948040664196,-0.0021789984311908,-0.0222661569714546
1768726626670,-0.054840087890625,-0.9925537109375,-0.1027374267578125,-0.0327283851802349,0.0046711843460798,-0.0247841756790876
1768726626680,-0.057891845703125,-0.99200439453125,-0.1009674072265625,-0.0360922254621982,0.0052360408008098,-0.0295983720570802
1768726626690,-0.0592041015625,-0.997802734375,-0.0987548828125,-0.0381844043731689,0.0028093685396015,-0.032320387661457
1768726626700,-0.0599822998046875,-0.99517822265625,-0.10198974609375,-0.0351705029606819,0.0005323658697307,-0.0339592993259429
1768726626710,-0.0585784912109375,-0.9923553466796876,-0.1061248779296875,-0.0301642939448356,-0.0066898604854941,-0.0318063981831073
1768726626720,-0.05523681640625,-0.99005126953125,-0.107666015625,-0.0235625840723514,-0.0134380441159009,-0.0288644041866064
1768726626730,-0.05780029296875,-0.9911651611328124,-0.1078033447265625,-0.0159906838089227,-0.0188605058938264,-0.0272872801870107
1768726626740,-0.0603179931640625,-0.993011474609375,-0.1072540283203125,-0.0063641560263931,-0.0207897014915943,-0.0265322756022214
1768726626750,-0.0596771240234375,-0.9949188232421876,-0.107666015625,0.0007294398383237,-0.0233167745172977,-0.0284074060618877
1768726626760,-0.0588226318359375,-0.9985504150390624,-0.108856201171875,-3.0892668291926384e-05,-0.0195484012365341,-0.0339526422321796
1768726626770,-0.06243896484375,-0.9965972900390624,-0.1075439453125,0.0047193877398967,-0.0151717625558376,-0.0369969010353088
1768726626780,-0.062347412109375,-0.9906463623046876,-0.1079559326171875,0.0060469736345112,-0.0030490530189126,-0.0337225422263145
1768726626790,-0.05816650390625,-0.988555908203125,-0.1085357666015625,0.0067692226730287,0.0048442902043461,-0.0305235534906387
1768726626800,-0.0569305419921875,-0.9855194091796876,-0.1054534912109375,0.0057755974121391,0.0064477794803678,-0.021811556071043
1768726626810,-0.053985595703125,-0.9813995361328124,-0.0996551513671875,-0.0011150655336678,0.0008543420699425,-0.0197715740650892
1768726626820,-0.05340576171875,-0.9842071533203124,-0.096343994140625,-0.0102363917976617,-0.009809753857553,-0.020796624943614
1768726626830,-0.0548553466796875,-0.9841156005859376,-0.0982818603515625,-0.0153589826077222,-0.0176144130527973,-0.0214395113289356
1768726626840,-0.053924560546875,-0.9827117919921876,-0.1016693115234375,-0.0180951133370399,-0.0193558540195226,-0.0220480449497699
1768726626850,-0.0517120361328125,-0.9863128662109376,-0.105194091796875,-0.0177060272544622,-0.0129730561748147,-0.0208602752536535
1768726626861,-0.0534210205078125,-0.9885101318359376,-0.1094818115234375,-0.0175395794212818,-0.0119149824604392,-0.0199782345443964
1768726626871,-0.0530548095703125,-0.9869384765625,-0.1101531982421875,-0.0170700643211603,-0.0118627846240997,-0.0163970831781625
1768726626881,-0.050018310546875,-0.987823486328125,-0.111328125,-0.0174591522663831,-0.0116004636511206,-0.0163376946002244
1768726626891,-0.0510101318359375,-0.978424072265625,-0.1130523681640625,-0.003042128868401,0.0147720221430063,-0.0023180153220891
1768726626901,-0.0462493896484375,-0.955169677734375,-0.116729736328125,0.0100984405726194,0.0057574878446757,0.01606285572052
1768726626911,-0.0416107177734375,-0.9919586181640624,-0.11572265625,0.0216001011431217,-0.0026740799658,-0.0010104032699018
1768726626921,-0.0633697509765625,-1.0119171142578125,-0.111236572265625,0.0285956915467977,0.0175952389836311,-0.024519458413124
1768726626931,-0.06951904296875,-1.0081634521484375,-0.1061553955078125,0.0424451939761638,0.036427516490221,-0.0223100986331701
1768726626941,-0.05950927734375,-0.984344482421875,-0.107940673828125,0.0482045486569404,0.0353955402970314,-0.0072147697210311
1768726626951,-0.0517730712890625,-0.965087890625,-0.096527099609375,0.0429344177246093,0.0019038938917219,0.0066067702136933
1768726626961,-0.0474700927734375,-0.98211669921875,-0.0834808349609375,0.0263868663460016,-0.0496064350008964,0.0034061830956488
1768726626971,-0.0507049560546875,-1.002685546875,-0.085418701171875,0.0068203555420041,-0.0601754561066627,-0.0076171732507646
1768726626981,-0.0589599609375,-1.005218505859375,-0.092254638671875,-0.0046474821865558,-0.0457134246826171,-0.0133719984441995
1768726626991,-0.0587310791015625,-0.9940643310546876,-0.101470947265625,-0.016434634104371,-0.033428531140089,-0.0074187680147588
1768726627001,-0.053466796875,-0.9832000732421876,-0.109130859375,-0.0231599137187004,-0.0123325660824775,-0.0031119037885218
1768726627011,-0.0526885986328125,-0.9840850830078124,-0.109954833984375,-0.0304862707853317,0.0093274554237723,-0.0044986116699874
1768726627021,-0.0557861328125,-0.9946441650390624,-0.1078033447265625,-0.0316159836947917,0.0204381626099348,-0.0054972972720861
1768726627031,-0.0530853271484375,-0.995361328125,-0.1079559326171875,-0.0237644519656896,0.0291751958429813,-0.0046536074951291
1768726627041,-0.049530029296875,-0.991729736328125,-0.10491943359375,-0.0121437478810548,0.0318191833794117,-0.001693237805739
1768726627051,-0.0506591796875,-0.9908447265625,-0.103759765625,0.0016556872287765,0.0250619426369667,-0.0006844323943369
1768726627061,-0.053863525390625,-0.989837646484375,-0.1027679443359375,0.0185742173343896,0.0067913271486759,0.0003323625132907
1768726627071,-0.0522613525390625,-0.9916534423828124,-0.102996826171875,0.0279077980667352,-0.0110265519469976,-0.0053952978923916
1768726627081,-0.054290771484375,-0.9965972900390624,-0.10345458984375,0.0345672965049743,-0.0145603008568286,-0.0100361220538616
1768726627091,-0.0589141845703125,-1.000091552734375,-0.1031341552734375,0.0386864095926284,-0.0166932269930839,-0.0140753388404846
1768726627102,-0.0575408935546875,-0.9947662353515624,-0.102996826171875,0.0375223420560359,0.0006138586322776,-0.0125954207032918
1768726627112,-0.052764892578125,-0.983612060546875,-0.10015869140625,0.03124207444489,0.0043204464018344,-0.0087977526709437
1768726627122,-0.0532073974609375,-0.996185302734375,-0.0960845947265625,0.0228491239249706,0.0048903627321124,-0.0183518435806036
1768726627132,-0.0577850341796875,-0.995025634765625,-0.0921173095703125,0.0125461518764495,0.0091042825952172,-0.0219223424792289
1768726627142,-0.0518951416015625,-0.978912353515625,-0.091583251953125,0.0059550944715738,0.0074565848335623,-0.015499597415328
1768726627152,-0.044677734375,-0.982635498046875,-0.08978271484375,-0.0082866922020912,-0.0131802503019571,-0.0228374060243368
1768726627162,-0.0524444580078125,-1.002044677734375,-0.0881805419921875,-0.0220408532768487,-0.0067148944362998,-0.0372419096529483
1768726627172,-0.0602874755859375,-0.9975433349609376,-0.0885162353515625,-0.0321126617491245,0.0028762139845639,-0.0331331863999366
1768726627182,-0.0521087646484375,-0.9843597412109376,-0.0940093994140625,-0.0344666317105293,-0.0051103397272527,-0.0264784786850214
1768726627192,-0.0464324951171875,-0.984619140625,-0.0986175537109375,-0.037028856575489,-0.0110505204647779,-0.0229585785418748
1768726627202,-0.04937744140625,-0.9867095947265624,-0.099029541015625,-0.0366975590586662,-0.0135427070781588,-0.0236720405519008
1768726627212,-0.0539398193359375,-0.9893951416015624,-0.1031494140625,-0.029175728559494,-0.0161555334925651,-0.0236491374671459
1768726627222,-0.0514984130859375,-0.9886474609375,-0.10888671875,-0.0230749584734439,-0.0129546802490949,-0.0211305860430002
1768726627232,-0.0457000732421875,-0.9874725341796876,-0.111236572265625,-0.0140609573572874,-0.0102944495156407,-0.0206799786537885
1768726627242,-0.0496673583984375,-0.99090576171875,-0.111968994140625,-0.0033590451348572,-0.0048528122715651,-0.0219841282814741
1768726627252,-0.0511474609375,-0.9918060302734376,-0.1128387451171875,0.0078206388279795,0.0032748891972005,-0.0220187492668628
1768726627264,-0.04827880859375,-0.9877166748046876,-0.11279296875,0.0142636243253946,0.014862835407257,-0.0177382510155439
1768726627272,-0.04583740234375,-0.9872283935546876,-0.1081390380859375,0.0186703577637672,0.0203231144696474,-0.0138558940961956
1768726627282,-0.0487060546875,-0.9896392822265624,-0.1060943603515625,0.0251000262796878,0.013750166632235,-0.007431018166244
1768726627292,-0.0487518310546875,-0.9914703369140624,-0.1039581298828125,0.0352432094514369,0.0033420007675886,-0.0070259515196084
1768726627302,-0.04791259765625,-0.993682861328125,-0.103485107421875,0.0419591665267944,-0.001588309300132,-0.006304767448455
1768726627313,-0.0512542724609375,-0.994964599609375,-0.1020965576171875,0.0465725623071193,0.0065500447526574,-0.0067252805456519
1768726627323,-0.0532073974609375,-0.99383544921875,-0.1004791259765625,0.0466884076595306,0.0112185664474964,-0.0050165965221822
1768726627333,-0.0514373779296875,-0.9920806884765624,-0.09442138671875,0.0439517460763454,0.0045279064215719,-0.0032511870376765
1768726627343,-0.0504302978515625,-0.9888153076171876,-0.0901031494140625,0.0394925475120544,-0.0015904398169368,-0.0020732709672302
1768726627353,-0.0507965087890625,-0.9826507568359376,-0.08807373046875,0.034285269677639,0.000859135761857,0.0015294534387066
1768726627363,-0.0496673583984375,-0.9798583984375,-0.090057373046875,0.0289208646863698,0.00472551304847,0.0036993969697505
1768726627373,-0.0528564453125,-0.97991943359375,-0.0887298583984375,0.022646989673376,0.0060192765668034,0.0035481294617056
1768726627383,-0.049896240234375,-0.9792327880859376,-0.084686279296875,0.0097524961456656,0.001008006511256,0.004300738684833
1768726627393,-0.0505828857421875,-0.9846038818359376,-0.081085205078125,-0.0030983216129243,-0.0077868164516985,-0.0019006980583071
1768726627403,-0.051300048828125,-0.9906005859375,-0.0812835693359375,-0.0137554928660392,-0.0097492998465895,-0.0049849050119519
1768726627414,-0.048919677734375,-0.9858551025390624,-0.08538818359375,-0.0276918150484561,-0.0091815143823623,-0.0019270633347332
1768726627423,-0.04632568359375,-0.9855804443359376,-0.0871124267578125,-0.0284992847591638,0.0176519639790058,-0.0007645935402251
1768726627433,-0.0486602783203125,-0.94708251953125,-0.09527587890625,-0.016490027308464,0.0387306176126003,0.0431517325341701
1768726627443,-0.0277862548828125,-0.946990966796875,-0.097076416015625,-0.015975771471858,-0.0106619652360677,0.0525271221995353
1768726627453,-0.0386962890625,-1.0203094482421875,-0.091217041015625,-0.0233932062983512,-0.0094198668375611,0.004464257042855
1768726627463,-0.0696563720703125,-1.0154266357421875,-0.092254638671875,-0.016892697662115,0.0286593418568372,-0.0017499631503596
1768726627473,-0.058502197265625,-0.9908447265625,-0.0998077392578125,-0.0091863078996539,0.0159166492521762,0.0086443545296788
1768726627483,-0.04669189453125,-0.9837799072265624,-0.09930419921875,-0.0087751159444451,-0.0091636711731553,0.0124817034229636
1768726627493,-0.046417236328125,-0.9769439697265624,-0.0927734375,-0.0213990323245525,-0.036809679120779,0.0159653834998607
1768726627503,-0.0504150390625,-0.992401123046875,-0.0908966064453125,-0.0368384420871734,-0.0438414886593818,0.0073527214117348
1768726627513,-0.052398681640625,-1.0056304931640625,-0.099456787109375,-0.042608980089426,-0.0259306672960519,0.0007097324123606
1768726627523,-0.0527191162109375,-0.994598388671875,-0.112274169921875,-0.0449847839772701,0.0024186829105019,0.0047497479245066
1768726627533,-0.0454559326171875,-0.9880218505859376,-0.1183319091796875,-0.0408057533204555,0.0226592402905225,0.00542858755216
1768726627543,-0.0460968017578125,-0.9925537109375,-0.1167144775390625,-0.039277896285057,0.0210192650556564,0.003083674237132
1768726627554,-0.0492401123046875,-0.998931884765625,-0.1126708984375,-0.0315326265990734,0.0171403717249631,0.0043641221709549
1768726627564,-0.0414886474609375,-0.9956207275390624,-0.1142120361328125,-0.0143736125901341,0.0129554793238639,0.0109506519511342
1768726627574,-0.04217529296875,-0.99420166015625,-0.1187744140625,0.0103698167949914,0.0231103785336017,0.0179901849478483
1768726627584,-0.0485992431640625,-0.9931793212890624,-0.122222900390625,0.0416936501860618,0.0286883693188428,0.0257469080388546
1768726627594,-0.0501708984375,-0.99444580078125,-0.1222686767578125,0.0734060406684875,0.0322863012552261,0.0307184979319572
1768726627604,-0.049407958984375,-0.99517822265625,-0.118011474609375,0.0958490297198295,0.0338921882212162,0.0291490964591503
1768726627614,-0.055023193359375,-0.9978179931640624,-0.1087799072265625,0.1049194931983947,0.0313350185751915,0.0204421579837799
1768726627624,-0.061676025390625,-1.002410888671875,-0.094451904296875,0.0969979166984558,0.0276950113475322,0.01174081210047
1768726627634,-0.0600433349609375,-0.9988250732421876,-0.08074951171875,0.0836379081010818,0.0294883828610181,0.0038477350026369
1768726627644,-0.0562591552734375,-0.986968994140625,-0.072845458984375,0.0674533396959304,0.0224256794899702,0.002805906580761
1768726627654,-0.053009033203125,-0.9853668212890624,-0.071075439453125,0.0418678224086761,0.0037718350067734,-0.0014058827655389
1768726627664,-0.05560302734375,-0.999114990234375,-0.070037841796875,0.0166751164942979,0.0012817793758586,-0.0170836448669433
1768726627674,-0.06109619140625,-0.9918060302734376,-0.072235107421875,-0.0009875000687316,0.0154167730361223,-0.0177614204585552
1768726627684,-0.053802490234375,-0.978424072265625,-0.0769195556640625,-0.013561082072556,0.0056877131573855,-0.0117959389463067
1768726627694,-0.048095703125,-0.9903564453125,-0.0793304443359375,-0.03411216288805,-0.0024983114562928,-0.0239644553512334
1768726627704,-0.0579681396484375,-1.0020751953125,-0.079620361328125,-0.0577764809131622,0.015223161317408,-0.0357697159051895
1768726627714,-0.05865478515625,-0.9954681396484376,-0.0809173583984375,-0.0690368562936782,0.0225351359695196,-0.0349920727312564
1768726627724,-0.04986572265625,-0.9869842529296876,-0.0896148681640625,-0.0702547207474708,0.0244459547102451,-0.026100842282176
1768726627734,-0.041412353515625,-0.9820404052734376,-0.0934295654296875,-0.0703798905014991,0.018304705619812,-0.0177454408258199
1768726627744,-0.040985107421875,-0.9827880859375,-0.095428466796875,-0.0728547647595405,0.0132556175813078,-0.0147427273914217
1768726627755,-0.046478271484375,-0.9835968017578124,-0.096435546875,-0.0743756964802742,0.0146284773945808,-0.0116199040785431
1768726627765,-0.046112060546875,-0.98486328125,-0.1009979248046875,-0.0626018643379211,0.0028229507151991,-0.0064600296318531
1768726627775,-0.0414886474609375,-0.9856719970703124,-0.113616943359375,-0.0448630787432193,-0.0025417208671569,0.0006841660942882
1768726627785,-0.041473388671875,-0.9868621826171876,-0.1195526123046875,-0.0248456951230764,-0.0007709851488471,0.00576281407848
1768726627795,-0.0438079833984375,-0.98822021484375,-0.122894287109375,-0.0028666264843195,-0.000972852751147,0.0069348714314401
1768726627805,-0.0503082275390625,-0.9946136474609376,-0.1217498779296875,0.0113724963739514,3.0892668291926384e-05,0.0012005530297756
1768726627815,-0.0552215576171875,-0.9954833984375,-0.11669921875,0.0280630588531494,0.008715727366507,0.0046219159848988
1768726627825,-0.049407958984375,-0.9934844970703124,-0.117828369140625,0.0450180731713771,0.0218917168676853,0.0053534861654043
1768726627835,-0.053741455078125,-0.9932403564453124,-0.1156005859375,0.0589986033737659,0.0267178975045681,0.003566239029169
1768726627845,-0.05523681640625,-0.992919921875,-0.10894775390625,0.0677992850542068,0.0261157564818859,0.0044173854403197
1768726627855,-0.051513671875,-0.9936065673828124,-0.10198974609375,0.0751277729868888,0.0266121700406074,0.0068113007582724
1768726627865,-0.0505523681640625,-0.9929046630859376,-0.096343994140625,0.0796522200107574,0.0271514598280191,0.0107812751084566
1768726627875,-0.051849365234375,-0.9911346435546876,-0.0931549072265625,0.0774548426270484,0.0259389225393533,0.01124919205904
1768726627885,-0.0534210205078125,-0.9886932373046876,-0.0872039794921875,0.071877121925354,0.0278814323246479,0.0167483538389205
1768726627895,-0.0503997802734375,-0.988372802734375,-0.08172607421875,0.064735323190689,0.0188929978758096,0.0190493240952491
1768726627905,-0.0503387451171875,-0.9875640869140624,-0.078521728515625,0.056059006601572,0.0076248962432146,0.0183747466653585
1768726627915,-0.0546875,-0.98553466796875,-0.0767059326171875,0.0425381399691104,0.0084970816969871,0.0156926773488521
1768726627925,-0.054840087890625,-0.9852142333984376,-0.076324462890625,0.0290263257920742,0.0086523443460464,0.0122103272005915
1768726627935,-0.05206298828125,-0.9905242919921876,-0.077850341796875,0.0139083582907915,0.0070765516720712,0.0043350937776267
1768726627945,-0.055572509765625,-0.9920196533203124,-0.0752716064453125,-0.001374990097247,0.0037747644819319,0.0007542071980424
1768726627955,-0.053436279296875,-0.9903411865234376,-0.0767822265625,-0.0161542017012834,0.0063327308744192,-0.0045854309573769
1768726627965,-0.05517578125,-0.967681884765625,-0.0810699462890625,-0.0178271997720003,0.0342935249209404,0.0234312899410724
1768726627975,-0.0406951904296875,-0.9352569580078124,-0.082000732421875,-0.0262585021555423,0.0010117349447682,0.051043476909399
1768726627986,-0.0331573486328125,-0.9984588623046876,-0.0788726806640625,-0.041281659156084,-0.0254531614482402,0.0162317007780075
1768726627995,-0.0649566650390625,-1.0284576416015625,-0.08160400390625,-0.0469459369778633,0.0209758561104536,-0.0129232555627822
1768726628005,-0.06488037109375,-0.9929046630859376,-0.088531494140625,-0.039780169725418,0.0395295657217502,0.0022426480427384
1768726628016,-0.043304443359375,-0.975189208984375,-0.0933837890625,-0.0317928157746791,0.0260885916650295,0.0189715605229139
1768726628026,-0.0449371337890625,-0.9669342041015624,-0.09033203125,-0.0340160243213176,-0.0024234766606241,0.031056186184287
1768726628036,-0.0466766357421875,-0.9970703125,-0.0869903564453125,-0.0347672998905181,-0.030523819848895,0.0151006560772657
1768726628046,-0.060638427734375,-1.017608642578125,-0.091705322265625,-0.0333837904036045,-0.0336836613714695,-0.0011092065833508
1768726628056,-0.065460205078125,-1.0093536376953125,-0.0984039306640625,-0.0316287651658058,-0.0375092923641204,-0.0089215897023677
1768726628066,-0.05780029296875,-1.0006103515625,-0.1031341552734375,-0.0337201468646526,-0.038273885846138,-0.0082688489928841
1768726628076,-0.0569000244140625,-0.99359130859375,-0.1063385009765625,-0.0407327823340892,-0.0225721541792154,-0.0104068340733647
1768726628086,-0.056427001953125,-0.992767333984375,-0.10693359375,-0.0467392764985561,-0.0068200891837477,-0.0108393318951129
1768726628097,-0.055450439453125,-0.9947509765625,-0.104339599609375,-0.0508879497647285,0.0002607234637252,-0.0120068620890378
1768726628106,-0.049560546875,-0.9940643310546876,-0.1011199951171875,-0.0471784323453903,0.0031342741567641,-0.0094558196142315
1768726628117,-0.0457000732421875,-0.9944305419921876,-0.0994720458984375,-0.0407106764614582,-0.0018367822049185,-0.0015014902455732
1768726628126,-0.042816162109375,-0.99310302734375,-0.1013031005859375,-0.0268148370087146,-0.0100608896464109,0.0003286340797785
1768726628136,-0.045318603515625,-0.9934234619140624,-0.1063385009765625,-0.0120532009750604,-0.0199856925755739,0.0036522590089589
1768726628148,-0.0473175048828125,-0.992828369140625,-0.1121826171875,0.0049649314023554,-0.0216712076216936,0.0099128177389502
1768726628156,-0.0485382080078125,-0.99029541015625,-0.118988037109375,0.0260459817945957,-0.0057207364588975,0.0146207539364695
1768726628166,-0.0503387451171875,-0.9910430908203124,-0.1214141845703125,0.0396749749779701,0.0150841446593403,0.0142063666135072
1768726628176,-0.0543060302734375,-0.9957122802734376,-0.117156982421875,0.0486074835062027,0.0321954861283302,0.0124148577451705
1768726628186,-0.0570068359375,-0.991668701171875,-0.1067962646484375,0.0473376885056495,0.0282273776829242,0.0137807931751012
1768726628196,-0.0543975830078125,-0.9972991943359376,-0.0965118408203125,0.0447626784443855,0.0281898267567157,0.0077679082751274
1768726628206,-0.056060791015625,-0.9862213134765624,-0.0908660888671875,0.038217693567276,0.0193449351936578,0.0072163674049079
1768726628216,-0.0518646240234375,-0.987518310546875,-0.0845947265625,0.0324109382927417,0.0047540087252855,0.0033425334841012
1768726628227,-0.0525054931640625,-0.9915008544921876,-0.0830078125,0.0234022624790668,0.0039308257400989,4.6871635277057067e-05
1768726628237,-0.050537109375,-0.9857940673828124,-0.0839996337890625,0.0172471646219491,-0.0012578109744936,0.0009550095419399
1768726628248,-0.0475616455078125,-0.9842987060546876,-0.0846405029296875,0.0115653099492192,-0.0050546796992421,0.0020445086993277
1768726628257,-0.049835205078125,-0.9838714599609376,-0.08447265625,0.0042842272669076,-0.0026911243330687,0.0052954293787479
1768726628267,-0.05023193359375,-0.9853668212890624,-0.084197998046875,0.0004263720766175,-1.5712650565546937e-05,0.0046088667586445
1768726628277,-0.052642822265625,-0.9867706298828124,-0.08624267578125,-0.0035617116373032,0.0028037759475409,0.0050504184328019
1768726628287,-0.0506591796875,-0.9884796142578124,-0.08721923828125,-0.009345032274723,0.0035760926548391,0.0047209854237735
1768726628297,-0.0508270263671875,-0.990631103515625,-0.085418701171875,-0.0168634019792079,-0.0001874865411082,0.002649845322594
1768726628307,-0.0533447265625,-0.99237060546875,-0.085113525390625,-0.0210786536335945,-0.0092451637610793,0.0015819176333025
1768726628317,-0.0571746826171875,-0.994171142578125,-0.08740234375,-0.0244038756936788,-0.0119504025205969,-1.304948909819359e-05
1768726628327,-0.0587921142578125,-0.995880126953125,-0.0924530029296875,-0.0237109214067459,-0.0066842678934335,-0.0011150655336678
1768726628337,-0.05841064453125,-0.9961700439453124,-0.09576416015625,-0.0239181164652109,0.0038309572264552,-0.0027771443128585
1768726628348,-0.061126708984375,-0.9989166259765624,-0.097137451171875,-0.0230299513787031,0.006697317585349,-0.01011947914958
1768726628357,-0.0612640380859375,-0.9989166259765624,-0.0955352783203125,-0.0235047936439514,0.0103205479681491,-0.0131781203672289
1768726628367,-0.0610809326171875,-0.9996185302734376,-0.09332275390625,-0.0232235640287399,0.0066331354901194,-0.0206645317375659
1768726628377,-0.0601348876953125,-1.0,-0.0935821533203125,-0.0217425804585218,-0.0017518273089081,-0.0263892635703086
1768726628387,-0.0574951171875,-0.9970855712890624,-0.0951385498046875,-0.0201143231242895,-0.000386158353649,-0.0291930381208658
1768726628397,-0.0551605224609375,-0.991119384765625,-0.096099853515625,-0.0178098902106285,-0.000454335269751,-0.028342692181468
1768726628407,-0.0547027587890625,-0.9878387451171876,-0.098388671875,-0.0141035681590437,6.684534309897572e-05,-0.0250904392451047
1768726628417,-0.051513671875,-0.9817657470703124,-0.0984039306640625,-0.0095911081880331,0.000851412594784,-0.0171654038131237
1768726628427,-0.0472412109375,-0.9820098876953124,-0.0978546142578125,-0.0095767276361584,0.0009859022684395,-0.013864416629076
1768726628438,-0.049530029296875,-0.9860382080078124,-0.0958404541015625,-0.0108502507209777,-0.0001446096430299,-0.0130473589524626
1768726628447,-0.048065185546875,-0.9872589111328124,-0.093353271484375,-0.0110268183052539,-0.0048014130443334,-0.0121895549818873
1768726628457,-0.0439605712890625,-0.988006591796875,-0.094146728515625,-0.0105839343741536,-0.0189031176269054,-0.0113922040909528
1768726628468,-0.04315185546875,-0.9888458251953124,-0.094879150390625,-0.0181145556271076,-0.0140662845224142,-0.012124041095376
1768726628477,-0.048980712890625,-0.991058349609375,-0.0915069580078125,-0.0231202319264411,-0.0048264469951391,-0.0149291483685374
1768726628488,-0.05035400390625,-0.9909515380859376,-0.090789794921875,-0.0246273148804903,-0.0109099056571722,-0.0114806210622191
1768726628498,-0.0430755615234375,-0.992462158203125,-0.092926025390625,-0.0272966027259826,-0.0101511711254715,-0.0028290760237723
1768726628508,-0.0430755615234375,-0.955963134765625,-0.09735107421875,-0.0233434066176414,-0.0120526682585477,0.0385164991021156
1768726628518,-0.0289306640625,-0.9477386474609376,-0.1005096435546875,-0.0157624520361423,-0.0492170825600624,0.0501763522624969
1768726628528,-0.0386505126953125,-1.0131683349609375,-0.103607177734375,-0.0267397351562976,-0.0489901788532733,0.0132345790043473
1768726628538,-0.0695953369140625,-1.0372161865234375,-0.1057586669921875,-0.0186469219624996,0.0268569141626358,-0.0178820621222257
1768726628548,-0.06878662109375,-0.98193359375,-0.113189697265625,-0.0053162020631134,0.04957927018404,0.0096939066424965
1768726628558,-0.03887939453125,-0.9699249267578124,-0.114044189453125,0.0093383742496371,0.0401159934699535,0.0293786618858575
1768726628568,-0.0462799072265625,-0.9695892333984376,-0.100128173828125,0.0072592445649206,0.01704609580338,0.0370147414505481
1768726628578,-0.0565032958984375,-1.003570556640625,-0.088104248046875,0.0083751091733574,-0.010375409387052,0.0146532449871301
1768726628588,-0.0687255859375,-1.023162841796875,-0.0920867919921875,0.018387796357274,-0.0117573235183954,-0.0024493092205375
1768726628598,-0.0593719482421875,-1.005340576171875,-0.094757080078125,0.0195369496941566,-0.0109136337414383,-0.0027923244051635
1768726628608,-0.0483245849609375,-0.9961090087890624,-0.0958251953125,0.0181768741458654,-0.0201510749757289,-0.0033406692091375
1768726628618,-0.0512237548828125,-0.9958038330078124,-0.094482421875,0.0067953215911984,-0.0157976057380437,2.956108801299706e-05
1768726628628,-0.0518951416015625,-0.98895263671875,-0.091949462890625,-0.0108009818941354,-0.0084542045369744,0.006352171767503
1768726628638,-0.0459136962890625,-0.98468017578125,-0.09234619140625,-0.0209944974631071,-0.0030386666767299,0.0155770955607295
1768726628649,-0.0443572998046875,-0.9866790771484376,-0.0931854248046875,-0.0241703167557716,0.0017861821688711,0.0226062424480915
1768726628658,-0.0502777099609375,-0.9921875,-0.0949554443359375,-0.0261652916669845,0.004171042703092,0.0210991594940423
1768726628668,-0.0595703125,-0.9970703125,-0.0951080322265625,-0.0253604836761951,0.0068443240597844,0.0158149152994155
1768726628678,-0.059844970703125,-0.9937896728515624,-0.09832763671875,-0.0205646641552448,0.0082020033150911,0.0125472173094749
1768726628688,-0.056915283203125,-0.9911041259765624,-0.100799560546875,-0.0141823980957269,0.0072238245047628,0.0095474328845739
1768726628699,-0.0592803955078125,-0.9911651611328124,-0.1021575927734375,-0.0111493235453963,0.0121685154736042,0.0087966872379183
1768726628709,-0.060791015625,-0.994903564453125,-0.0998382568359375,-0.0098172109574079,0.0236155800521373,0.0028666264843195
1768726628719,-0.0615081787109375,-0.9927520751953124,-0.0984039306640625,-0.0113708991557359,0.0364040806889534,-0.0009369000908918
1768726628729,-0.058135986328125,-0.9888458251953124,-0.0951995849609375,-0.0168980229645967,0.0296441782265901,-0.0013126720441505
1768726628739,-0.0540313720703125,-0.9927978515625,-0.0920257568359375,-0.020953219383955,0.017321465536952,-0.0056427055969834
1768726628749,-0.054595947265625,-0.9845733642578124,-0.0916595458984375,-0.029558690264821,0.0088619347661733,-0.0054831821471452
1768726628759,-0.046844482421875,-0.988494873046875,-0.0892791748046875,-0.0341094993054866,0.0048677260056138,-0.0108214886859059
1768726628769,-0.0506134033203125,-0.9876251220703124,-0.091766357421875,-0.032871663570404,0.0079359533265233,-0.0089788474142551
1768726628779,-0.05059814453125,-0.9838714599609376,-0.096771240234375,-0.0306484568864107,0.0140524357557296,-0.0060083577409386
1768726628789,-0.0464324951171875,-0.98260498046875,-0.0977630615234375,-0.0265546459704637,0.0186565089970827,-0.0010695254895836
1768726628799,-0.0452728271484375,-0.9840850830078124,-0.0985260009765625,-0.0279131233692169,0.0261967163532972,0.0005467469454742
1768726628809,-0.0472259521484375,-0.9855804443359376,-0.0975189208984375,-0.0307475253939628,0.023714916780591,0.0005344964447431
1768726628819,-0.049163818359375,-0.98883056640625,-0.0960845947265625,-0.0336410515010356,0.0134582845494151,0.0013635384384542
1768726628829,-0.0501251220703125,-0.9915008544921876,-0.09442138671875,-0.0384062454104423,0.0057851849123835,0.0013952300650998
1768726628839,-0.05279541015625,-0.9947662353515624,-0.0935211181640625,-0.0480333045125007,0.0053092776797711,-0.0062581622041761
1768726628849,-0.0565032958984375,-0.9991607666015624,-0.09375,-0.0573607608675956,0.0038272286765277,-0.0108332065865397
1768726628859,-0.0577850341796875,-0.9994964599609376,-0.096954345703125,-0.0633502081036567,0.003924167715013,-0.0137570910155773
1768726628869,-0.056640625,-0.9989166259765624,-0.1026763916015625,-0.0636173263192176,0.0095263933762907,-0.0150615070015192
1768726628879,-0.056396484375,-0.99969482421875,-0.10687255859375,-0.0642658025026321,0.0167278479784727,-0.0175800584256649
1768726628889,-0.0589599609375,-1.0001068115234375,-0.1081695556640625,-0.0661960616707801,0.0266406647861003,-0.0195643808692693
1768726628899,-0.059326171875,-0.998291015625,-0.111297607421875,-0.0613986440002918,0.0289743933826684,-0.0234693735837936
1768726628909,-0.0574798583984375,-0.9994964599609376,-0.1139373779296875,-0.0570198781788349,0.02842578291893,-0.0278404187411069
1768726628920,-0.0584716796875,-0.999725341796875,-0.11444091796875,-0.0480711236596107,0.0264867339283227,-0.0336346589028835
1768726628929,-0.052825927734375,-0.9928741455078124,-0.117950439453125,-0.0388930700719356,0.0211095456033945,-0.0351614505052566
1768726628940,-0.050140380859375,-0.9880828857421876,-0.117462158203125,-0.0288417674601078,0.0251602139323949,-0.0349638424813747
1768726628950,-0.0479583740234375,-0.9833984375,-0.116973876953125,-0.0197300296276807,0.0263269450515508,-0.0304758828133344
1768726628960,-0.0468597412109375,-0.9813232421875,-0.114715576171875,-0.0116934077814221,0.0263213515281677,-0.0202850308269262
1768726628970,-0.0427093505859375,-0.9835205078125,-0.11279296875,-0.0069516492076218,0.019352925941348,-0.0175483673810958
1768726628980,-0.0442962646484375,-0.989959716796875,-0.111785888671875,-0.0033044503070414,0.0173627454787492,-0.0178197436034679
1768726628990,-0.0467376708984375,-0.991363525390625,-0.109039306640625,0.0005661880713887,0.0186714213341474,-0.0181723460555076
1768726629000,-0.0486602783203125,-0.9911041259765624,-0.109649658203125,0.003795270808041,0.0173558201640844,-0.0158607214689254
1768726629010,-0.0456695556640625,-0.994049072265625,-0.1081390380859375,0.0032988577149808,0.0095104146748781,-0.0138918468728661
1768726629020,-0.047119140625,-0.997802734375,-0.105743408203125,0.0057140784338116,0.0088821751996874,-0.0147688258439302
1768726629030,-0.0471649169921875,-0.9927520751953124,-0.105072021484375,0.0044626588933169,0.005576925817877,-0.0118710407987236
1768726629040,-0.0453948974609375,-0.987701416015625,-0.107452392578125,0.0060549629852175,0.0205811746418476,-0.0031672974582761
1768726629050,-0.046112060546875,-0.951934814453125,-0.1073455810546875,0.0061260694637894,0.0289107430726289,0.0242214500904083
1768726629060,-0.033111572265625,-0.9580078125,-0.1069793701171875,0.0087431576102972,0.016413327306509,0.0235391482710838
1768726629070,-0.0452117919921875,-1.0066070556640625,-0.1031341552734375,0.0002000034000957,0.0209084767848253,-0.0123330987989902
1768726629080,-0.0676422119140625,-1.0209503173828125,-0.0981903076171875,-0.0011526161106303,0.0545607134699821,-0.0373676121234893
1768726629090,-0.0610198974609375,-0.9920806884765624,-0.095947265625,0.00505201658234,0.0484357103705406,-0.0197859555482864
1768726629100,-0.04638671875,-0.9718017578125,-0.0935516357421875,0.0016141419764608,0.0162878930568695,0.0013630058383569
1768726629110,-0.0474090576171875,-0.9786529541015624,-0.08355712890625,-0.0177957750856876,-0.0310535226017236,-0.0052906358614563
1768726629120,-0.0565032958984375,-1.0109710693359375,-0.0812225341796875,-0.0360911600291729,-0.0511531978845596,-0.0267341416329145
1768726629131,-0.060577392578125,-1.0141448974609375,-0.090789794921875,-0.0519558750092983,-0.0498442538082599,-0.036307405680418
1768726629141,-0.049713134765625,-1.003997802734375,-0.102996826171875,-0.0622354112565517,-0.0318961478769779,-0.0367502905428409
1768726629151,-0.043548583984375,-0.9931793212890624,-0.1112518310546875,-0.0769810676574707,-0.0095431711524724,-0.0285789147019386
1768726629161,-0.041961669921875,-0.9825439453125,-0.1166229248046875,-0.0823598504066467,0.0101367896422743,-0.0198147166520357
1768726629171,-0.040252685546875,-0.9829254150390624,-0.125091552734375,-0.077027142047882,0.0287267193198204,-0.0106563726440072
1768726629181,-0.041717529296875,-0.9860076904296876,-0.1288604736328125,-0.0609850585460662,0.039671778678894,-0.006402239203453
1768726629191,-0.041778564453125,-0.9896697998046876,-0.1314544677734375,-0.0375803969800472,0.0441759824752807,-0.0054150056093931
1768726629201,-0.0443878173828125,-0.9929962158203124,-0.13067626953125,-0.0144215496256947,0.0366083458065986,-0.0035459990613162
1768726629211,-0.0453033447265625,-0.9949188232421876,-0.129730224609375,0.013563479296863,0.0302668251097202,-0.0028607675340026
1768726629221,-0.04595947265625,-0.99237060546875,-0.1307220458984375,0.0384975895285606,0.0291027575731277,-0.002077798359096
1768726629231,-0.050384521484375,-0.9968719482421876,-0.128326416015625,0.0524032860994339,0.0314332917332649,-0.0062863915227353
1768726629241,-0.0536346435546875,-1.0029144287109375,-0.1225738525390625,0.0627653822302818,0.0386507213115692,-0.0093759251758456
1768726629251,-0.0543670654296875,-1.0007476806640625,-0.1175079345703125,0.0707380846142768,0.0499350689351558,-0.0167619362473487
1768726629261,-0.052947998046875,-0.9928741455078124,-0.11468505859375,0.0708257034420967,0.0706014633178711,-0.0163672547787427
1768726629271,-0.0491943359375,-0.983245849609375,-0.108001708984375,0.0603048838675022,0.0662269592285156,-0.0222693532705307
1768726629281,-0.048095703125,-0.9925079345703124,-0.0999755859375,0.0531681478023529,0.0639102756977081,-0.0275482703000307
1768726629291,-0.0461578369140625,-0.98309326171875,-0.098419189453125,0.0492453090846538,0.0562249235808849,-0.0275922119617462
1768726629301,-0.041351318359375,-0.978424072265625,-0.0970458984375,0.0482471585273742,0.0340812727808952,-0.0211809184402227
1768726629311,-0.0360565185546875,-0.9860992431640624,-0.0990753173828125,0.049084722995758,0.0196240358054637,-0.0205726530402898
1768726629321,-0.040069580078125,-0.989898681640625,-0.0988922119140625,0.0478769764304161,0.0171187985688447,-0.0210565496236085
1768726629331,-0.0451202392578125,-0.9920654296875,-0.0964508056640625,0.0425155013799667,0.0141078298911452,-0.0173590164631605
1768726629341,-0.042022705078125,-0.9894256591796876,-0.09002685546875,0.029332322999835,0.0036948695778846,-0.0128699922934174
1768726629351,-0.0382232666015625,-0.9858551025390624,-0.0867462158203125,0.0168556794524192,-0.0065849320963025,-0.0110515858978033
1768726629361,-0.0393524169921875,-0.9853057861328124,-0.08551025390625,0.0007099987124092,-0.0091527523472905,-0.0114055201411247
1768726629372,-0.0394439697265625,-0.9865875244140624,-0.0856170654296875,-0.01522156316787,-0.0031137678306549,-0.0071002538315951
1768726629382,-0.0408172607421875,-0.98846435546875,-0.0884246826171875,-0.0291759949177503,-0.0049452236853539,-0.0087082702666521
1768726629392,-0.0439605712890625,-0.9942779541015624,-0.0953216552734375,-0.0351433381438255,0.0026336000300943,-0.0091309137642383
1768726629402,-0.044769287109375,-0.994110107421875,-0.095306396484375,-0.0425980612635612,0.0050504184328019,-0.0100888535380363
1768726629412,-0.04705810546875,-0.9940185546875,-0.0955963134765625,-0.0449850521981716,-0.0047454866580665,-0.0101346597075462
1768726629422,-0.0470123291015625,-0.994842529296875,-0.098724365234375,-0.0449411086738109,-0.0202852971851825,-0.0126193882897496
1768726629432,-0.0479583740234375,-0.997772216796875,-0.10247802734375,-0.039917055517435,-0.0215018298476934,-0.0131565481424331
1768726629442,-0.0458984375,-0.997650146484375,-0.110137939453125,-0.0339638255536556,-0.0153523245826363,-0.0175270624458789
1768726629452,-0.0476531982421875,-0.996856689453125,-0.1116790771484375,-0.0261546391993761,-0.0073367422446608,-0.0202647913247346
1768726629462,-0.0474700927734375,-0.9948577880859376,-0.113922119140625,-0.0189662333577871,-0.0040104542858898,-0.0211889091879129
