timestamp_ms,acc_x,acc_y,acc_z,gyro_x,gyro_y,gyro_z
1769158069704,-0.28887939453125,-0.9387054443359376,-0.0702056884765625,0.0319262407720088,0.0011520835105329,-0.0160106588155031
1769158069715,-0.2877044677734375,-0.9451751708984376,-0.05755615234375,-0.0051169977523386,0.0029771476984024,-0.016620522364974
1769158069722,-0.2773590087890625,-0.952850341796875,-0.0494537353515625,-0.0388869456946849,0.0048378985375165,-0.009418268688023
1769158069732,-0.2724151611328125,-0.95745849609375,-0.0497283935546875,-0.0642889738082885,0.0065409899689257,-0.0052701295353472
1769158069742,-0.2704010009765625,-0.960540771484375,-0.05889892578125,-0.0823002010583877,0.0113935358822345,-0.0012157330056652
1769158069752,-0.2672576904296875,-0.962371826171875,-0.069091796875,-0.0890382602810859,0.0053566819988191,-0.0015997608425095
1769158069762,-0.2721710205078125,-0.9622650146484376,-0.0839385986328125,-0.084363617002964,-0.0108622349798679,-0.0091681983321905
1769158069772,-0.275299072265625,-0.960662841796875,-0.098358154296875,-0.0716616660356521,-0.0198528002947568,-0.0185233503580093
1769158069782,-0.276214599609375,-0.9592437744140624,-0.108184814453125,-0.0587083213031291,-0.0174061544239521,-0.0180455800145864
1769158069793,-0.26812744140625,-0.9595184326171876,-0.1136474609375,-0.0415730103850364,-0.0166817754507064,-0.0144652258604764
1769158069802,-0.2670135498046875,-0.9558258056640624,-0.1167755126953125,-0.0219710785895586,-0.0041766352951526,-0.0139227397739887
1769158069812,-0.266357421875,-0.9562530517578124,-0.1182403564453125,-0.0053297844715416,0.0248616747558116,-0.0018812569323927
1769158069822,-0.2555999755859375,-0.9602508544921876,-0.1154327392578125,0.0125490808859467,0.0373228713870048,0.0075423386879265
1769158069832,-0.2587890625,-0.9579010009765624,-0.11444091796875,0.027522437274456,0.041508562862873,0.0139102227985858
1769158069842,-0.2635498046875,-0.9547576904296876,-0.105743408203125,0.031300663948059,0.0460617691278457,0.0133688021451234
1769158069852,-0.2696685791015625,-0.95513916015625,-0.0982818603515625,0.0330349169671535,0.0364932976663112,0.0100007019937038
1769158069862,-0.27008056640625,-0.955108642578125,-0.0953521728515625,0.0356408171355724,0.0223047733306884,0.0032570459879934
1769158069872,-0.2748870849609375,-0.9570465087890624,-0.0963897705078125,0.032351016998291,0.001953961327672,-0.0103487772867083
1769158069883,-0.280731201171875,-0.95635986328125,-0.093414306640625,0.0255229361355304,-0.0104270745068788,-0.0160183813422918
1769158069893,-0.2732086181640625,-0.957611083984375,-0.089019775390625,0.0136391129344701,-0.0137309925630688,-0.0159768350422382
1769158069903,-0.270172119140625,-0.9579315185546876,-0.086029052734375,0.0003616572648752,-0.0139190116897225,-0.0113418707624077
1769158069913,-0.2691192626953125,-0.958740234375,-0.081207275390625,-0.0152503252029418,0.0008977515972219,-0.0024586303625255
1769158069923,-0.2642974853515625,-0.9605865478515624,-0.0778350830078125,-0.0310146417468786,0.0160588603466749,0.0083255739882588
1769158069933,-0.2628021240234375,-0.9597015380859376,-0.0786895751953125,-0.0432811602950096,0.0172088146209716,0.0126098012551665
1769158069944,-0.26702880859375,-0.9612579345703124,-0.0812530517578125,-0.0501819439232349,0.0234027933329343,0.0147917289286851
1769158069953,-0.2648468017578125,-0.9664764404296876,-0.0874176025390625,-0.0498975180089473,0.0120545318350195,0.0134947700425982
1769158069963,-0.2720489501953125,-0.958831787109375,-0.1002197265625,-0.0306713599711656,0.0090265180915594,-0.0005123922019265
1769158069973,-0.2831573486328125,-0.9521484375,-0.11639404296875,-0.0036104475148022,0.0048597361892461,-0.0119147161021828
1769158069983,-0.2792816162109375,-0.950469970703125,-0.1237335205078125,0.0224792100489139,-0.005003813188523,-0.0133847808465361
1769158069993,-0.273529052734375,-0.951690673828125,-0.1193389892578125,0.0357223115861415,-0.001129446667619,-0.0111213605850934
1769158070003,-0.2717742919921875,-0.952606201171875,-0.106231689453125,0.036399021744728,0.0092765893787145,-0.0104379933327436
1769158070013,-0.2659149169921875,-0.9518585205078124,-0.0916748046875,0.0262116305530071,0.0104811368510127,-0.0046408246271312
1769158070023,-0.261474609375,-0.95086669921875,-0.0787200927734375,0.0018655443564057,0.0206024795770645,-0.0013377057621255
1769158070033,-0.2637481689453125,-0.9518890380859376,-0.0638580322265625,-0.023128755390644,0.0272838193923234,-0.0059878514148294
1769158070045,-0.2686767578125,-0.957366943359375,-0.05853271484375,-0.0513409525156021,0.0264933928847312,-0.0191569160670042
1769158070053,-0.270111083984375,-0.960174560546875,-0.0647735595703125,-0.0726702064275741,0.0169198606163263,-0.0245021469891071
1769158070063,-0.263427734375,-0.96258544921875,-0.0713348388671875,-0.0892979204654693,0.0057835867628455,-0.029897179454565
1769158070073,-0.2604827880859375,-0.964111328125,-0.0785980224609375,-0.1005335301160812,-0.0038706383202224,-0.0318620577454566
1769158070084,-0.2627716064453125,-0.9666748046875,-0.0937652587890625,-0.0969803407788276,-0.0079000005498528,-0.0312900133430957
1769158070094,-0.2611541748046875,-0.9697265625,-0.11431884765625,-0.0771299377083778,-0.0137216709554195,-0.0247040148824453
1769158070104,-0.25946044921875,-0.97149658203125,-0.1351318359375,-0.0451283305883407,-0.0169411674141883,-0.0072640380822122
1769158070114,-0.260955810546875,-0.9687042236328124,-0.1527557373046875,0.0021539647132158,-0.0104201501235365,0.0179731417447328
1769158070124,-0.26910400390625,-0.961395263671875,-0.164794921875,0.0471637845039367,-0.0125615978613495,0.0295102223753929
1769158070134,-0.280364990234375,-0.94989013671875,-0.162628173828125,0.081844262778759,-0.0109879365190863,0.0338202826678752
1769158070144,-0.286041259765625,-0.94390869140625,-0.1514129638671875,0.1065847650170326,-0.0270340144634246,0.0274183079600334
1769158070154,-0.28936767578125,-0.938568115234375,-0.135650634765625,0.1277289390563964,-0.0267213582992553,0.0096720680594444
1769158070164,-0.2882232666015625,-0.939208984375,-0.121063232421875,0.1435166895389557,-0.0031169636640697,0.0011883024126291
1769158070177,-0.280487060546875,-0.943084716796875,-0.1000518798828125,0.1542401760816574,0.0272950045764446,-0.0011622034944593
1769158070184,-0.2782135009765625,-0.949981689453125,-0.0849761962890625,0.1576074659824371,0.0559258498251438,0.0006234460161067
1769158070194,-0.277923583984375,-0.954833984375,-0.06658935546875,0.1436644941568374,0.0799544900655746,0.0095530254766345
1769158070204,-0.279693603515625,-0.957855224609375,-0.0508575439453125,0.1180438175797462,0.0710696503520011,0.0172650068998336
1769158070214,-0.282928466796875,-0.95819091796875,-0.039276123046875,0.076457493007183,0.0519031435251235,0.0162173192948102
1769158070225,-0.291656494140625,-0.954803466796875,-0.030120849609375,0.0334817953407764,0.0381894633173942,0.0132561502978205
1769158070234,-0.2939300537109375,-0.9507293701171876,-0.0242156982421875,-0.0159065276384353,0.009852897375822,0.0072805495001375
1769158070244,-0.2926483154296875,-0.9451751708984376,-0.0208282470703125,-0.0603328496217727,-0.0119818281382322,-0.0063409865833818
1769158070254,-0.2967987060546875,-0.9401397705078124,-0.0263519287109375,-0.1001050323247909,-0.0347619764506816,-0.0256816614419221
1769158070264,-0.3025054931640625,-0.93963623046875,-0.0330657958984375,-0.1328539252281189,-0.0417037717998027,-0.0447893105447292
1769158070278,-0.2931060791015625,-0.9435272216796876,-0.044708251953125,-0.1494097262620926,-0.0350370779633522,-0.054085873067379
1769158070284,-0.2747039794921875,-0.9502105712890624,-0.062408447265625,-0.1590564996004104,-0.0180541016161441,-0.0469573885202407
1769158070294,-0.256805419921875,-0.9543609619140624,-0.075469970703125,-0.1625729352235794,-0.0002316950121894,-0.0335600897669792
1769158070304,-0.253143310546875,-0.95574951171875,-0.0910797119140625,-0.1569270342588424,0.027084082365036,-0.0224373992532491
1769158070315,-0.25201416015625,-0.95947265625,-0.1051177978515625,-0.139948308467865,0.0298420507460832,-0.0118260327726602
1769158070325,-0.2573089599609375,-0.9584197998046876,-0.11773681640625,-0.1216196417808532,0.0105226822197437,-0.0177710074931383
1769158070335,-0.2611541748046875,-0.9601593017578124,-0.1237030029296875,-0.1028616651892662,-0.0054544201120734,-0.0219074301421642
1769158070345,-0.251678466796875,-0.9711456298828124,-0.1255645751953125,-0.0879072174429893,-0.0218642856925725,-0.0198818296194076
1769158070355,-0.2444915771484375,-0.98089599609375,-0.126922607421875,-0.0710139870643615,-0.0366546846926212,-0.019034145399928
1769158070365,-0.2461090087890625,-0.979278564453125,-0.128997802734375,-0.0522544160485267,-0.0304860044270753,-0.0259506404399871
1769158070375,-0.2486724853515625,-0.9730224609375,-0.1321563720703125,-0.0419490486383438,-0.0107141630724072,-0.0249551516026258
1769158070385,-0.2432861328125,-0.9655914306640624,-0.1296844482421875,-0.0329041555523872,0.0118454741314053,-0.0156130483373999
1769158070395,-0.2377471923828125,-0.9613189697265624,-0.1281585693359375,-0.0228991899639368,0.0253897793591022,-0.0077524618245661
1769158070405,-0.24139404296875,-0.96173095703125,-0.1282196044921875,-0.0164016094058752,0.0290047526359558,-0.0088888322934508
1769158070415,-0.244415283203125,-0.9664459228515624,-0.1311187744140625,-0.0031198931392282,0.0217218063771724,-0.0122457472607493
1769158070426,-0.2480926513671875,-0.96722412109375,-0.1360321044921875,0.0226286128163337,0.0126276444643735,-0.0174365136772394
1769158070435,-0.249664306640625,-0.966583251953125,-0.1421966552734375,0.0494889877736568,0.0038147119339555,-0.0167800448834896
1769158070445,-0.24700927734375,-0.959808349609375,-0.1431427001953125,0.0786037296056747,-0.0095972334966063,-0.015877766534686
1769158070455,-0.2548675537109375,-0.955596923828125,-0.143798828125,0.0995010212063789,-0.0057761301286518,-0.0094438353553414
1769158070465,-0.24810791015625,-0.96142578125,-0.1345367431640625,0.1168813481926918,-0.0069511164911091,0.0094243939965963
1769158070475,-0.242431640625,-0.9727935791015624,-0.126617431640625,0.1331668347120285,-0.0001078580244211,0.0224280767142772
1769158070485,-0.2552032470703125,-0.972686767578125,-0.1193084716796875,0.1516443789005279,0.0076954700052738,0.0269932672381401
1769158070495,-0.2722320556640625,-0.9633941650390624,-0.1071319580078125,0.1605025976896286,0.0181920528411865,0.0280739795416593
1769158070505,-0.2852020263671875,-0.952117919921875,-0.0865478515625,0.1545072793960571,0.0275554619729518,0.019627496600151
1769158070516,-0.2981109619140625,-0.94378662109375,-0.0754241943359375,0.1363905966281891,0.0227180961519479,0.0072262212634086
1769158070526,-0.3019866943359375,-0.9380645751953124,-0.0607452392578125,0.1068763807415962,0.0161544680595397,-0.0044514737091958
1769158070536,-0.2999267578125,-0.9373321533203124,-0.0454559326171875,0.0604798570275306,0.0144825363531708,-0.0038477350026369
1769158070546,-0.2890625,-0.9407196044921876,-0.030975341796875,0.0169427637010812,0.0116491988301277,0.0020128171890974
1769158070556,-0.2857513427734375,-0.9422760009765624,-0.0330810546875,-0.0193558540195226,0.0037350833881646,0.00168471573852
1769158070566,-0.2874755859375,-0.9415435791015624,-0.0410614013671875,-0.0438332334160804,0.0024447818286716,-0.0006282397080212
1769158070578,-0.2879486083984375,-0.944244384765625,-0.051422119140625,-0.0618657656013965,-0.0048157940618693,-0.0049340385012328
1769158070586,-0.2861328125,-0.94793701171875,-0.0614471435546875,-0.0776106417179107,-0.0043271039612591,-0.0148852057754993
1769158070596,-0.284942626953125,-0.9532470703125,-0.0677032470703125,-0.0912814438343048,-0.0052677327767014,-0.0224951896816492
1769158070606,-0.28125,-0.9563446044921876,-0.0735626220703125,-0.1018030568957328,-0.0067231501452624,-0.0299331322312355
1769158070616,-0.2777862548828125,-0.9587554931640624,-0.077392578125,-0.1086979806423187,-0.0015962987672537,-0.0334612876176834
1769158070626,-0.2685546875,-0.962860107421875,-0.085845947265625,-0.1081384569406509,-0.0015981629258021,-0.034355841577053
1769158070636,-0.2599029541015625,-0.9639129638671876,-0.0955047607421875,-0.0994221940636634,-0.002217347966507,-0.0310652405023574
1769158070646,-0.253997802734375,-0.9626007080078124,-0.1066131591796875,-0.0751346945762634,0.0063345949165523,-0.0237892195582389
1769158070656,-0.2508392333984375,-0.96209716796875,-0.118133544921875,-0.044236171990633,0.0072818812914192,-0.0174458362162113
1769158070666,-0.248504638671875,-0.9603424072265624,-0.127899169921875,-0.0104539720341563,0.0047175236977636,-0.0152396727353334
1769158070676,-0.251983642578125,-0.9598388671875,-0.128326416015625,0.0141078298911452,0.0134084830060601,-0.0129642682150006
1769158070686,-0.2477874755859375,-0.959625244140625,-0.1188812255859375,0.0248677991330623,0.0201564002782106,-0.0083908215165138
1769158070696,-0.251434326171875,-0.9603118896484376,-0.1098480224609375,0.0246568769216537,0.0311201028525829,-0.0047271107323467
1769158070706,-0.2552032470703125,-0.96099853515625,-0.0982666015625,0.0084371604025363,0.0388483293354511,-0.0041478732600808
1769158070716,-0.25225830078125,-0.96484375,-0.0877685546875,-0.0107048423960804,0.0382211543619632,-0.0001459412305848
1769158070727,-0.2521209716796875,-0.9656219482421876,-0.0852508544921875,-0.0310410056263208,0.0290217977017164,0.0042623891495168
1769158070737,-0.2582550048828125,-0.966217041015625,-0.0868072509765625,-0.0465403385460376,0.0105455853044986,-0.0028495823498815
1769158070747,-0.2680816650390625,-0.9646453857421876,-0.098388671875,-0.049811765551567,-0.0019997677300125,-0.0129022160544991
1769158070757,-0.26666259765625,-0.9654388427734376,-0.1073455810546875,-0.0405599437654018,-0.0242771096527576,-0.0114595824852585
1769158070767,-0.263092041015625,-0.9705810546875,-0.118865966796875,-0.0193563867360353,-0.0447142086923122,-0.0090656662359833
1769158070777,-0.2564697265625,-0.975433349609375,-0.1278839111328125,-0.0057937069796025,-0.0415913835167884,-0.0009488842915743
1769158070787,-0.25360107421875,-0.9716949462890624,-0.12103271484375,0.0156774967908859,-0.0300204828381538,0.0029220203869044
1769158070797,-0.2619781494140625,-0.9585723876953124,-0.121246337890625,0.0312474016100168,-0.0031686290167272,0.013209811411798
1769158070807,-0.2578125,-0.9514007568359376,-0.11346435546875,0.0365564115345478,0.0252510271966457,0.0303941238671541
1769158070817,-0.25726318359375,-0.950103759765625,-0.1037445068359375,0.0420124307274818,0.0379878617823123,0.0290899742394685
1769158070827,-0.2717437744140625,-0.9434051513671876,-0.103240966796875,0.0491172112524509,0.0283437576144933,0.0181017722934484
1769158070837,-0.2810211181640625,-0.940582275390625,-0.0975341796875,0.0447344481945037,0.0113035207614302,0.0003416835679672
1769158070847,-0.2821502685546875,-0.94427490234375,-0.088287353515625,0.037516750395298,0.0019648801535367,-0.0153259597718715
1769158070857,-0.2761077880859375,-0.9463653564453124,-0.0817413330078125,0.0246749855577945,-0.0057071540504693,-0.020852817222476
1769158070867,-0.274444580078125,-0.9465179443359376,-0.07733154296875,0.0149142341688275,-0.0149951949715614,-0.024628646671772
1769158070877,-0.27130126953125,-0.948272705078125,-0.080596923828125,0.0016895093722268,-0.0065047708339989,-0.02384621091187
1769158070887,-0.2686309814453125,-0.95697021484375,-0.079986572265625,-0.0064933192916214,-0.0017733989516273,-0.0153531236574053
1769158070897,-0.2600860595703125,-0.962982177734375,-0.0833282470703125,-0.0080169141292572,0.0086129289120435,-0.0001640507252886
1769158070907,-0.2532501220703125,-0.96600341796875,-0.0861053466796875,-0.0049161952920258,0.0221194177865982,0.0131823811680078
1769158070917,-0.2588348388671875,-0.970062255859375,-0.0819549560546875,-0.0110904676839709,0.0260398555546998,0.0114281568676233
1769158070927,-0.2710418701171875,-0.9706878662109376,-0.0780487060546875,-0.0219250060617923,0.0053415023721754,0.0032599754631519
1769158070937,-0.2791900634765625,-0.9682159423828124,-0.07513427734375,-0.0390744321048259,-0.0024029703345149,-0.0087444894015789
1769158070947,-0.2784271240234375,-0.963531494140625,-0.07159423828125,-0.0609507039189338,-0.0063050338067114,-0.0131283188238739
1769158070957,-0.2747955322265625,-0.9586639404296876,-0.0762786865234375,-0.0778796151280403,-0.0115123130381107,-0.0156982690095901
1769158070968,-0.2745361328125,-0.95556640625,-0.082916259765625,-0.0934519171714782,-0.0060541639104485,-0.0122334966436028
1769158070978,-0.2677001953125,-0.95556640625,-0.08599853515625,-0.101479485630989,0.003304183948785,-0.0044922200031578
1769158070988,-0.2624053955078125,-0.9538726806640624,-0.09503173828125,-0.1013772189617157,0.0103975133970379,-0.0002375539625063
1769158070998,-0.2603912353515625,-0.956207275390625,-0.10455322265625,-0.0824304297566413,0.019065037369728,0.0044786380603909
1769158071010,-0.2613983154296875,-0.95526123046875,-0.1248016357421875,-0.047974981367588,0.0027891285717487,-0.0040466734208166
1769158071018,-0.2634429931640625,-0.953643798828125,-0.1370086669921875,-0.0126683907583355,-0.0067852018401026,-0.0096899112686514
1769158071028,-0.262908935546875,-0.95330810546875,-0.1378326416015625,0.0128007503226399,-0.0110835433006286,-0.0182839315384626
1769158071038,-0.2623138427734375,-0.9523162841796876,-0.1300201416015625,0.0250291861593723,-0.0173619464039802,-0.0218184795230627
1769158071048,-0.25927734375,-0.9552001953125,-0.1220703125,0.0251615457236766,-0.0115072522312402,-0.0231047868728637
1769158071060,-0.25555419921875,-0.9558258056640624,-0.1116943359375,0.0196264311671257,0.0075508607551455,-0.0140465768054127
1769158071068,-0.2484893798828125,-0.9559783935546876,-0.103759765625,0.0124630611389875,0.0230105109512805,-0.0055178035981953
1769158071078,-0.2529754638671875,-0.95428466796875,-0.10430908203125,0.0059740031138062,0.0279376246035099,-0.0023955134674906
1769158071088,-0.2638092041015625,-0.951202392578125,-0.1075592041015625,0.0118396151810884,0.0281325690448284,-0.0122872926294803
1769158071098,-0.2681121826171875,-0.9544219970703124,-0.1142578125,0.0285762511193752,0.0181957818567752,-0.0204589366912841
1769158071108,-0.263336181640625,-0.9605712890625,-0.11895751953125,0.0565588846802711,-0.0027025758754462,-0.018468489870429
1769158071118,-0.2584991455078125,-0.96728515625,-0.1248626708984375,0.084082119166851,-0.0164500791579484,-0.0162056013941764
1769158071128,-0.2530670166015625,-0.9756927490234376,-0.119659423828125,0.0989622697234153,-0.0152745600789785,-0.0027073696255683
1769158071138,-0.244476318359375,-0.9798736572265624,-0.10247802734375,0.1034393087029457,-0.0059199407696723,0.0104710170999169
1769158071148,-0.252197265625,-0.9726409912109376,-0.088287353515625,0.0937691032886505,0.0041918153874576,0.0141906533390283
1769158071159,-0.262542724609375,-0.96417236328125,-0.072235107421875,0.0702845454216003,0.0238320957869291,0.0094829834997653
1769158071169,-0.2662353515625,-0.95721435546875,-0.05853271484375,0.040110133588314,0.0311075858771801,0.0088627338409423
1769158071179,-0.2672576904296875,-0.954559326171875,-0.0499725341796875,0.0078856199979782,0.0246430281549692,0.0066877300851047
1769158071189,-0.2657470703125,-0.9577484130859376,-0.047576904296875,-0.0247330423444509,0.0126726515591144,0.0005792375304736
1769158071199,-0.2699127197265625,-0.9546966552734376,-0.05169677734375,-0.0460420586168766,-0.000316117220791,-0.0101000387221574
1769158071209,-0.2765045166015625,-0.9524993896484376,-0.0601959228515625,-0.0670514702796936,-0.0075668394565582,-0.0163898915052413
1769158071219,-0.271728515625,-0.948944091796875,-0.067535400390625,-0.08218514919281,-0.0309704318642616,-0.0221841316670179
1769158071229,-0.279571533203125,-0.9422607421875,-0.0810394287109375,-0.086290143430233,-0.0379348658025264,-0.0343049764633178
1769158071239,-0.27667236328125,-0.95086669921875,-0.0951385498046875,-0.0896531865000724,-0.0309280883520841,-0.0271682385355234
1769158071249,-0.2579803466796875,-0.9658660888671876,-0.0959014892578125,-0.0856006518006324,-0.0222999788820743,-0.0121714454144239
1769158071259,-0.252105712890625,-0.973175048828125,-0.104461669921875,-0.077533408999443,-0.0091050816699862,-0.0050006173551082
1769158071269,-0.2574920654296875,-0.9652099609375,-0.1110687255859375,-0.0651571676135063,0.0133853135630488,-0.0002519350382499
1769158071279,-0.2626953125,-0.9545440673828124,-0.11822509765625,-0.0480679273605346,0.0178149491548538,-6.684534309897572e-05
1769158071289,-0.26904296875,-0.9481201171875,-0.1199188232421875,-0.0354807637631893,0.0144151579588651,-0.0053769219666719
1769158071299,-0.2736358642578125,-0.9485015869140624,-0.1168670654296875,-0.0373186096549034,0.0112518556416034,-0.0099256010726094
1769158071312,-0.268646240234375,-0.954071044921875,-0.1021881103515625,-0.0488586202263832,0.0021630194969475,-0.0095916409045457
1769158071319,-0.262115478515625,-0.958038330078125,-0.0992279052734375,-0.0547886788845062,-0.0039260322228074,-0.007888282649219
1769158071329,-0.257080078125,-0.96002197265625,-0.10552978515625,-0.0552491396665573,0.0008207862265408,-0.0021425131708383
1769158071339,-0.2560882568359375,-0.95977783203125,-0.1146392822265625,-0.042419895529747,0.0037526602391153,0.0036384107079356
1769158071349,-0.257171630859375,-0.9589996337890624,-0.1262969970703125,-0.0162125248461961,0.00065407238435,0.0028666264843195
1769158071360,-0.258697509765625,-0.957916259765625,-0.134368896484375,0.0066621638834476,-0.0002226402721134,0.0024839304387569
1769158071369,-0.2591400146484375,-0.960968017578125,-0.1345062255859375,0.0341337360441684,0.0074376761913299,0.0008934905636124
1769158071379,-0.2573089599609375,-0.9633941650390624,-0.1355133056640625,0.0620404668152332,-0.0006348976166918,0.0010476876050233
1769158071390,-0.2584075927734375,-0.9620208740234376,-0.128631591796875,0.0801411718130111,-0.0036546560004353,0.0036133769899606
1769158071400,-0.2571868896484375,-0.960693359375,-0.118133544921875,0.0870270431041717,0.0054688011296093,0.0047486824914813
1769158071410,-0.2583770751953125,-0.9600677490234376,-0.102569580078125,0.0866265073418617,0.0232896097004413,0.0100766029208898
1769158071420,-0.25872802734375,-0.9610595703125,-0.089111328125,0.076517678797245,0.0334386490285396,0.0155707038938999
1769158071430,-0.255584716796875,-0.9606475830078124,-0.076324462890625,0.0625392794609069,0.0447293892502784,0.0199177823960781
1769158071440,-0.25469970703125,-0.9592742919921876,-0.0707244873046875,0.0455248728394508,0.0411160103976726,0.0219287350773811
1769158071450,-0.262115478515625,-0.95751953125,-0.06744384765625,0.0273368153721094,0.0328804515302181,0.0142873264849185
1769158071460,-0.265106201171875,-0.9583740234375,-0.06231689453125,0.0007086671539582,0.0224086362868547,0.006295446306467
1769158071470,-0.264617919921875,-0.959136962890625,-0.0604095458984375,-0.0231708325445652,0.0024828650057315,-0.0015904398169368
1769158071480,-0.2710723876953125,-0.959503173828125,-0.0673675537109375,-0.0405018851161003,-0.0072954632341861,-0.015473498031497
1769158071490,-0.2717742919921875,-0.9580535888671876,-0.0766754150390625,-0.0466639064252376,-0.0098795285448431,-0.0250654052942991
1769158071500,-0.27056884765625,-0.9572296142578124,-0.0913848876953125,-0.0480058752000331,-0.0166660621762275,-0.0219566971063613
1769158071511,-0.262969970703125,-0.9562225341796876,-0.101715087890625,-0.0476852320134639,-0.0101149519905447,-0.0126055404543876
1769158071520,-0.257171630859375,-0.95404052734375,-0.1075286865234375,-0.0415700785815715,0.0046434877440333,-0.0012186624808236
1769158071530,-0.2553558349609375,-0.955963134765625,-0.118743896484375,-0.0213982332497835,0.0071817464195191,0.0033182986080646
1769158071540,-0.2564849853515625,-0.9634857177734376,-0.12689208984375,-0.0004058657505083,-0.0039838226512074,0.0065279402770102
1769158071550,-0.256622314453125,-0.9720001220703124,-0.125396728515625,0.0108268149197101,-0.0059713395312428,0.0066011771559715
1769158071560,-0.2567596435546875,-0.9700469970703124,-0.11944580078125,0.025301894173026,-0.0112326806411147,0.0029523803386837
1769158071570,-0.2653961181640625,-0.9599761962890624,-0.1175537109375,0.0377598963677883,-0.006418218370527,-0.0042980755679309
1769158071580,-0.2686614990234375,-0.955230712890625,-0.11175537109375,0.0419458523392677,0.0002671150432433,-0.0033718282356858
1769158071591,-0.2625579833984375,-0.95526123046875,-0.1031494140625,0.0373122170567512,0.0093919038772583,0.004963066894561
1769158071600,-0.2558135986328125,-0.955596923828125,-0.0931243896484375,0.0303672272711992,0.0145176900550723,0.01475684158504
1769158071611,-0.25726318359375,-0.95361328125,-0.0892181396484375,0.0246419627219438,0.009155947715044,0.0139437783509492
1769158071620,-0.269439697265625,-0.9502105712890624,-0.085235595703125,0.0163451507687568,-0.0014085458824411,0.0053441654890775
1769158071631,-0.277923583984375,-0.9519500732421876,-0.08233642578125,0.0058509646914899,-0.0012639362830668,-0.0075655081309378
1769158071641,-0.2740325927734375,-0.9564361572265624,-0.07501220703125,-0.0085772424936294,-0.0067322049289941,-0.0119796972721815
1769158071651,-0.269439697265625,-0.95794677734375,-0.072296142578125,-0.0216325912624597,-0.0075929383747279,-0.0171164032071828
1769158071661,-0.2675018310546875,-0.9588775634765624,-0.07843017578125,-0.0305254179984331,-0.0114659732207655,-0.0169779174029827
1769158071671,-0.2646942138671875,-0.9593963623046876,-0.080108642578125,-0.0432492047548294,-0.0049675945192575,-0.0116507969796657
1769158071681,-0.259490966796875,-0.9600982666015624,-0.0820465087890625,-0.0518876984715461,-0.0038051244337111,-0.006835535634309
1769158071691,-0.261138916015625,-0.960968017578125,-0.089569091796875,-0.0554419532418251,0.0027542412281036,-0.0005227785441093
1769158071701,-0.2588043212890625,-0.961395263671875,-0.0947723388671875,-0.0538949221372604,0.0018820558907464,0.0015763250412419
1769158071711,-0.26177978515625,-0.961181640625,-0.1049652099609375,-0.0404699295759201,-0.0062669506296515,-0.006531935185194
1769158071721,-0.2671661376953125,-0.9589996337890624,-0.1158599853515625,-0.0271091163158416,-0.000574443838559,-0.0073399380780756
1769158071731,-0.2629852294921875,-0.9589996337890624,-0.11358642578125,-0.0148223554715514,-0.0006202502408996,-0.0081460773944854
1769158071741,-0.263427734375,-0.958404541015625,-0.1125030517578125,-0.0074262246489524,-0.0092672677710652,-0.0126739833503961
1769158071751,-0.266265869140625,-0.957916259765625,-0.1075439453125,-0.0061447117477655,-0.0015390408225357,-0.0111333448439836
1769158071761,-0.2581634521484375,-0.960052490234375,-0.1036529541015625,-0.0043513388372957,-0.0005723133217543,-0.0066051720641553
1769158071772,-0.2521514892578125,-0.959686279296875,-0.1049652099609375,0.0010801780736073,-0.0004274373641237,-0.0004780374001711
1769158071781,-0.2506103515625,-0.9584503173828124,-0.1067352294921875,0.0051633366383612,0.0157965403050184,0.0083860279992222
1769158071791,-0.25421142578125,-0.958892822265625,-0.1020355224609375,0.0068890652619302,0.0320042707026004,0.0101098921149969
1769158071802,-0.2586822509765625,-0.9590911865234376,-0.1025848388671875,0.0117994016036391,0.0329528898000717,0.0049034119583666
1769158071812,-0.262908935546875,-0.9552001953125,-0.1108856201171875,0.0273828878998756,0.0278769042342901,-0.002510295715183
1769158071821,-0.2658843994140625,-0.95489501953125,-0.115509033203125,0.0416297353804111,0.0201468132436275,-0.0055777244269847
1769158071832,-0.26580810546875,-0.9559478759765624,-0.1098480224609375,0.0496373288333416,0.0061923819594085,-0.01136424113065
1769158071844,-0.26885986328125,-0.959930419921875,-0.1018218994140625,0.0427522584795951,-0.0045191179960966,-0.0097064226865768
1769158071852,-0.2593231201171875,-0.964202880859375,-0.0876617431640625,0.0260595642030239,-0.0049798446707427,0.0013952300650998
1769158071862,-0.252655029296875,-0.9664764404296876,-0.077056884765625,0.0082259718328714,0.0021228056866675,0.0079133166000247
1769158071872,-0.25860595703125,-0.9618988037109376,-0.0761260986328125,-0.0053100767545402,0.0152204977348446,0.0076019931584596
1769158071882,-0.263275146484375,-0.95672607421875,-0.076324462890625,-0.0185129642486572,0.0182924550026655,0.0069391326978802
1769158071892,-0.26434326171875,-0.9538726806640624,-0.078460693359375,-0.0348828844726085,0.0099948430433869,0.0023531690239906
1769158071902,-0.2713470458984375,-0.9554595947265624,-0.081756591796875,-0.0475371591746807,-0.0033510555513203,-0.0060472399927675
1769158071912,-0.272735595703125,-0.956878662109375,-0.087615966796875,-0.0489291921257972,-0.0158170461654663,-0.0178447775542736
1769158071922,-0.2784423828125,-0.9535675048828124,-0.100830078125,-0.0351702384650707,-0.0213974341750144,-0.0282545406371355
1769158071932,-0.2669677734375,-0.9590301513671876,-0.1078948974609375,-0.02567127533257,-0.0198722407221794,-0.0189209599047899
1769158071942,-0.249237060546875,-0.9574432373046876,-0.109954833984375,-0.0088416943326592,-0.0040056607685983,-0.0086145270615816
1769158071952,-0.252349853515625,-0.9583740234375,-0.1151580810546875,0.0082842949777841,0.004211523104459,0.0027068369090557
1769158071962,-0.2509613037109375,-0.9649505615234376,-0.1160888671875,0.0274814255535602,0.0112848784774541,0.0094622112810611
1769158071972,-0.249481201171875,-0.9705352783203124,-0.1105194091796875,0.0317195802927017,0.0257647521793842,0.0177566260099411
1769158071982,-0.25360107421875,-0.9712371826171876,-0.0987396240234375,0.0321984179317951,0.0262451861053705,0.0175845865160226
1769158071992,-0.264739990234375,-0.961639404296875,-0.0939483642578125,0.0300495121628046,0.0211582817137241,0.0057239322923123
1769158072003,-0.27423095703125,-0.9503173828125,-0.088043212890625,0.0202245786786079,0.0130968932062387,-0.0042373556643724
1769158072012,-0.2729949951171875,-0.9460601806640624,-0.079345703125,-0.0010048106778413,-0.0005688511882908,-0.0136138126254081
1769158072023,-0.2752532958984375,-0.9461517333984376,-0.0706634521484375,-0.034187264740467,-0.0085663236677646,-0.0242009442299604
1769158072032,-0.269500732421875,-0.953125,-0.063812255859375,-0.0681902393698692,-0.0067322049289941,-0.0204059388488531
1769158072042,-0.259796142578125,-0.95892333984375,-0.066680908203125,-0.090091273188591,0.0001187769812531,-0.0124833015725016
1769158072053,-0.2530059814453125,-0.9589385986328124,-0.082244873046875,-0.0950580686330795,0.0044911550357937,-0.0061034327372908
1769158072063,-0.255126953125,-0.9589385986328124,-0.10064697265625,-0.0872265174984932,0.0057444386184215,0.000127831735881
1769158072073,-0.257110595703125,-0.9605560302734376,-0.1198272705078125,-0.06596090644598,0.0039446740411221,0.0025776736438274
1769158072083,-0.2610321044921875,-0.962005615234375,-0.131683349609375,-0.0350037887692451,0.015008776448667,0.0026956517249345
1769158072094,-0.2596282958984375,-0.9617462158203124,-0.1447906494140625,0.0034429347142577,0.0014471617760136,-0.0043494747951626
1769158072103,-0.263397216796875,-0.9588775634765624,-0.1472625732421875,0.035647477954626,-0.0002596582053229,-0.0071098413318395
1769158072113,-0.258392333984375,-0.9605255126953124,-0.1407318115234375,0.0565287880599498,0.0009885653853416,-0.0035561190452426
1769158072123,-0.256561279296875,-0.9608001708984376,-0.12890625,0.0675745159387588,0.0061540324240922,-0.0030165624339133
1769158072133,-0.2590179443359375,-0.961944580078125,-0.113128662109375,0.0706709772348404,0.0190783534198999,0.0017994979862123
1769158072143,-0.2539215087890625,-0.959381103515625,-0.0970458984375,0.0621818825602531,0.0239130556583404,0.0109253516420722
1769158072153,-0.2523345947265625,-0.9603729248046876,-0.0837554931640625,0.0475312992930412,0.0223543085157871,0.0125016765668988
1769158072164,-0.2593536376953125,-0.9585723876953124,-0.0718536376953125,0.028938440605998,0.0231053195893764,0.010988469235599
1769158072173,-0.263763427734375,-0.95880126953125,-0.06671142578125,0.0085660573095083,0.0011488876771181,0.0051159323193132
1769158072183,-0.2669219970703125,-0.9582977294921876,-0.0635833740234375,-0.011889150366187,-0.005019792355597,0.0012343751732259
1769158072193,-0.2680511474609375,-0.9605712890625,-0.067230224609375,-0.0280952844768762,-0.0075913406908512,-0.0071902684867382
1769158072203,-0.269561767578125,-0.9595184326171876,-0.0729827880859375,-0.041818019002676,-0.0071157002821564,-0.0107083041220903
1769158072213,-0.2657470703125,-0.957977294921875,-0.0775604248046875,-0.0539284795522689,0.0030522488523274,-0.0053510894067585
1769158072223,-0.2633819580078125,-0.9550628662109376,-0.0841064453125,-0.058952797204256,-0.0009233179152943,-0.004251470323652
1769158072234,-0.2644500732421875,-0.9552459716796876,-0.0972137451171875,-0.0598316416144371,-9.77380113909021e-05,-0.0100078927353024
1769158072244,-0.2660980224609375,-0.9561309814453124,-0.1049346923828125,-0.0524703972041606,0.0150380712002515,-0.0050759851001203
1769158072253,-0.2567138671875,-0.960235595703125,-0.10357666015625,-0.0475403554737567,0.0189579781144857,0.0014514228096231
1769158072264,-0.2527008056640625,-0.9691314697265624,-0.10235595703125,-0.0451272651553154,0.0198842249810695,0.0043649207800626
1769158072274,-0.2575225830078125,-0.966094970703125,-0.103729248046875,-0.0401532799005508,0.0164540745317935,-0.0008130630594678
1769158072284,-0.26690673828125,-0.9583740234375,-0.10748291015625,-0.0367817170917987,0.0111410683020949,-0.0089298449456691
1769158072294,-0.2671051025390625,-0.9521026611328124,-0.109649658203125,-0.031711857765913,0.0042895535007119,-0.0099514340981841
1769158072304,-0.26495361328125,-0.9514617919921876,-0.1109771728515625,-0.0304519161581993,-0.0055465656332671,-0.0077948062680661
1769158072314,-0.2577972412109375,-0.9521942138671876,-0.11187744140625,-0.0331403762102127,0.0073093120008707,0.0011574097443372
1769158072325,-0.2509918212890625,-0.9550018310546876,-0.111663818359375,-0.0301496461033821,0.0221441835165023,0.0102331964299082
1769158072334,-0.257354736328125,-0.95343017578125,-0.114410400390625,-0.0245048105716705,0.0349984653294086,0.0118707744404673
1769158072344,-0.2607574462890625,-0.954071044921875,-0.113311767578125,-0.0202557370066642,0.0321613997220993,0.012489958666265
1769158072354,-0.263092041015625,-0.95770263671875,-0.109466552734375,-0.009721603244543,0.0141951814293861,-0.0035451999865472
1769158072364,-0.2732696533203125,-0.96063232421875,-0.1090240478515625,-0.0057210028171539,-0.0040131174027919,-0.0160186477005481
1769158072374,-0.268951416015625,-0.9640045166015624,-0.1051025390625,-0.0040269657038152,-0.0171496924012899,-0.0211785212159156
1769158072384,-0.25628662109375,-0.9642486572265624,-0.1011810302734375,-0.0029273466207087,-0.0203566700220108,-0.0200879573822021
1769158072394,-0.2525177001953125,-0.96380615234375,-0.1016845703125,-0.0010277138790115,-0.0266763512045145,-0.0123442839831113
1769158072404,-0.24908447265625,-0.961273193359375,-0.1034393310546875,0.0005211806274019,-0.0222714841365814,-0.0047894287854433
1769158072414,-0.251922607421875,-0.961700439453125,-0.1032867431640625,-0.0012700614752247,-0.0078946743160486,0.0028421254828572
1769158072424,-0.2525634765625,-0.960540771484375,-0.103118896484375,-0.0037217675708234,0.015564844943583,0.0137570910155773
1769158072434,-0.252777099609375,-0.959259033203125,-0.0991973876953125,-0.010310960933566,0.0330383777618408,0.0232643093913793
1769158072445,-0.260467529296875,-0.957427978515625,-0.0950164794921875,-0.0134644098579883,0.0271141752600669,0.0144244795665144
1769158072454,-0.2738037109375,-0.9545745849609376,-0.098052978515625,-0.0165214519947767,0.00696523161605,-0.0007491472060792
1769158072465,-0.271453857421875,-0.9580230712890624,-0.099456787109375,-0.0156529955565929,-0.0114657077938318,-0.006899984087795
1769158072475,-0.263092041015625,-0.9590911865234376,-0.1020660400390625,-0.0049987533129751,-0.0219489745795726,-0.0130055472254753
1769158072485,-0.2642669677734375,-0.9585723876953124,-0.1099853515625,0.0045715821906924,-0.0346778184175491,-0.0197984725236892
1769158072495,-0.2653350830078125,-0.9583587646484376,-0.11175537109375,0.009009207598865,-0.0343651659786701,-0.0166596695780754
1769158072505,-0.2581939697265625,-0.9557952880859376,-0.10833740234375,0.0069641661830246,-0.0157832242548465,-0.0129083413630723
1769158072515,-0.2569122314453125,-0.954681396484375,-0.1042633056640625,0.0064834654331207,0.0029585056472569,-0.0032213595695793
1769158072525,-0.2558135986328125,-0.9522857666015624,-0.0999603271484375,0.0055841160938143,0.0276247039437294,0.0017696705181151
1769158072535,-0.2580413818359375,-0.9533233642578124,-0.0975189208984375,0.0018282600212842,0.0350842177867889,0.0025592977181077
1769158072545,-0.2630157470703125,-0.9543609619140624,-0.0981597900390625,-0.0004655205411836,0.0275778323411941,0.0007464840309694
1769158072555,-0.263397216796875,-0.9603729248046876,-0.09588623046875,-0.004407531581819,0.0134686706587672,-0.0016969662392511
1769158072565,-0.2600860595703125,-0.9636383056640624,-0.097137451171875,-0.0041697113774716,-0.0096654100343585,-0.0072054485790431
1769158072577,-0.2643585205078125,-0.961822509765625,-0.1030426025390625,-0.0002540655550546,-0.02016625367105,-0.0145813394337892
1769158072585,-0.2674102783203125,-0.957611083984375,-0.10565185546875,0.0011992214713245,-0.0150860082358121,-0.0167214553803205
1769158072595,-0.2607421875,-0.9560394287109376,-0.1083984375,0.0011177286505699,-0.0081990743055939,-0.01087262108922
1769158072605,-0.2613067626953125,-0.9534759521484376,-0.1084442138671875,-0.0012183962389826,0.0151501903310418,-0.0102582303807139
1769158072615,-0.261871337890625,-0.9601287841796876,-0.108367919921875,-0.0095349159091711,0.0241886936128139,-0.0041033984161913
1769158072625,-0.249420166015625,-0.962982177734375,-0.1029815673828125,-0.0095538236200809,0.0237277001142501,0.0031609057914465
1769158072635,-0.2532196044921875,-0.9597930908203124,-0.1052703857421875,-0.0056363139301538,0.0203763786703348,0.0010820423485711
1769158072645,-0.2582550048828125,-0.9584808349609376,-0.104461669921875,-0.004824848845601,0.0049095372669398,-0.0055817193351686
1769158072655,-0.262115478515625,-0.957550048828125,-0.1053466796875,0.0027656927704811,-0.009908290579915,-0.0112214954569935
1769158072665,-0.2562713623046875,-0.9628448486328124,-0.10809326171875,0.0106254797428846,-0.0216336566954851,-0.0058906460180878
1769158072676,-0.245758056640625,-0.970733642578125,-0.1061553955078125,0.0196490678936243,-0.0129142003133893,0.0037390780635178
1769158072686,-0.246368408203125,-0.973724365234375,-0.10565185546875,0.0229931995272636,0.0090036150068044,0.0124180540442466
1769158072696,-0.2498016357421875,-0.9677581787109376,-0.106109619140625,0.029184516519308,0.0201902221888303,0.021391574293375
1769158072706,-0.2595367431640625,-0.953338623046875,-0.1067047119140625,0.0338588990271091,0.0292745325714349,0.0173507612198591
1769158072716,-0.2718048095703125,-0.947357177734375,-0.102508544921875,0.0282617323100566,0.0306601747870445,0.0102174840867519
1769158072727,-0.273345947265625,-0.947662353515625,-0.0937347412109375,0.0112350778654217,0.0257530342787504,0.0033675672020763
1769158072736,-0.2673797607421875,-0.952972412109375,-0.0861053466796875,-0.0018362496048212,0.0130004873499274,-0.0052011534571647
1769158072746,-0.2647857666015625,-0.9564361572265624,-0.084228515625,-0.0172149389982223,0.0012207929976284,-0.010259561240673
1769158072756,-0.25848388671875,-0.9594268798828124,-0.0850677490234375,-0.0267431978136301,-0.0122737102210521,-0.0100606232881546
1769158072766,-0.2578887939453125,-0.96148681640625,-0.0909423828125,-0.0293650794774293,-0.012771189212799,-0.0113061843439936
1769158072776,-0.2620391845703125,-0.9581451416015624,-0.1010589599609375,-0.0259109586477279,-0.0084872283041477,-0.0072360751219093
1769158072786,-0.260589599609375,-0.95819091796875,-0.1079254150390625,-0.0179414507001638,-0.0010373012628406,-0.0054445667192339
1769158072796,-0.261688232421875,-0.9605560302734376,-0.110076904296875,-0.0141054326668381,0.008045676164329,-0.0026290726382285
1769158072806,-0.261077880859375,-0.9624786376953124,-0.108245849609375,-0.0124241793528199,0.0221793372184038,0.0007869640830904
1769158072816,-0.2581024169921875,-0.9609527587890624,-0.10882568359375,-0.0026873957831412,0.0182530395686626,-0.0026218821294605
1769158072827,-0.2608795166015625,-0.9589996337890624,-0.1121673583984375,0.0006578007596544,0.0006788397440686,-0.0069239526055753
1769158072836,-0.261962890625,-0.957916259765625,-0.1082000732421875,-0.0018679412314668,-0.0015028218040242,-0.0081258369609713
1769158072846,-0.258087158203125,-0.9593963623046876,-0.103973388671875,-0.0035356127191334,-0.0075175710953772,-0.0123365614563226
1769158072856,-0.2630462646484375,-0.9573516845703124,-0.104156494140625,-0.0025875272694975,-0.0073212962597608,-0.0125237815082073
1769158072866,-0.2598114013671875,-0.9557647705078124,-0.1092681884765625,0.0078933434560894,0.0005550027708522,-0.007847536355257
1769158072877,-0.254791259765625,-0.9571990966796876,-0.1111297607421875,0.0168839078396558,0.0122119253501296,-0.0027768779546022
1769158072886,-0.256500244140625,-0.9589385986328124,-0.109130859375,0.0215622838586568,0.0217955764383077,-0.0022740731947124
1769158072897,-0.258575439453125,-0.96142578125,-0.1060791015625,0.0187052451074123,0.0275410804897546,0.0013925669481977
1769158072907,-0.255126953125,-0.9618988037109376,-0.0945281982421875,0.0103868609294295,0.0249138716608285,0.004628041293472
1769158072916,-0.2576446533203125,-0.9623870849609376,-0.0866851806640625,-0.0042261704802513,0.021124193444848,-0.0018144116038456
1769158072927,-0.2648468017578125,-0.96234130859375,-0.084320068359375,-0.0195593200623989,0.017667943611741,-0.0115309543907642
1769158072937,-0.2671661376953125,-0.960784912109375,-0.088836669921875,-0.027975708246231,0.0055076833814382,-0.0148423295468091
1769158072947,-0.2606048583984375,-0.95806884765625,-0.09576416015625,-0.0247988235205411,-0.0115514611825346,-0.0138375181704759
1769158072957,-0.256683349609375,-0.9586944580078124,-0.1058807373046875,-0.0080587258562445,-0.0157808270305395,-0.0106883309781551
1769158072967,-0.252655029296875,-0.9669342041015624,-0.11395263671875,-0.0004641889827325,-0.0158870872110128,0.0002804308605846
1769158072977,-0.2443084716796875,-0.972259521484375,-0.10791015625,0.000900947372429,6.657902849838138e-05,0.0084190508350729
1769158072987,-0.2498626708984375,-0.965576171875,-0.1079559326171875,0.0085080005228519,0.0086012110114097,0.0106635633856058
1769158072997,-0.2547149658203125,-0.9549102783203124,-0.11224365234375,0.0150625724345445,0.0186967216432094,0.0086118644103407
1769158073007,-0.2577362060546875,-0.9544525146484376,-0.1099395751953125,0.0214517619460821,0.0168468914926052,0.0067338026128709
1769158073017,-0.2588348388671875,-0.958282470703125,-0.1049652099609375,0.0207566767930984,0.0067716194316744,-0.0004990763845853
1769158073027,-0.2607421875,-0.959808349609375,-0.099334716796875,0.0136409774422645,-0.0151262218132615,-0.0102190813049674
1769158073037,-0.267486572265625,-0.9581756591796876,-0.093109130859375,0.0075023910030722,-0.0221694838255643,-0.0215921103954315
1769158073047,-0.2691192626953125,-0.9550933837890624,-0.090911865234375,0.0018106831703335,-0.0329994969069957,-0.029871080070734
1769158073057,-0.267578125,-0.9534912109375,-0.08905029296875,-0.0144575024023652,-0.0371255315840244,-0.0300801377743482
1769158073067,-0.2622222900390625,-0.9575653076171876,-0.084930419921875,-0.0319640599191188,-0.0282327029854059,-0.0254220031201839
1769158073077,-0.2570953369140625,-0.961395263671875,-0.0804443359375,-0.0523513555526733,-0.0179808642715215,-0.0159366223961114
1769158073087,-0.248382568359375,-0.9649505615234376,-0.077056884765625,-0.0745658501982688,-0.012196478433907,-0.0049548111855983
1769158073097,-0.24578857421875,-0.9661407470703124,-0.082855224609375,-0.0842967703938484,-0.01284362655133,0.0003289003798272
1769158073107,-0.2477874755859375,-0.9636688232421876,-0.09698486328125,-0.0748183131217956,-0.0185758154839277,-0.0024647556710988
1769158073118,-0.2558746337890625,-0.963470458984375,-0.1160736083984375,-0.0558805763721466,-0.027841217815876,-0.0081759048625826
1769158073128,-0.2587127685546875,-0.9626617431640624,-0.1291351318359375,-0.029934462159872,-0.0273003298789262,-0.0085596656426787
1769158073138,-0.2573089599609375,-0.9630889892578124,-0.138275146484375,-0.0005107942852191,-0.0272705033421516,-0.0069923955015838
1769158073148,-0.2548980712890625,-0.9597625732421876,-0.1405487060546875,0.0262065697461366,-0.0173781905323267,-0.0055002267472445
1769158073158,-0.2601470947265625,-0.9593505859375,-0.1331024169921875,0.0416446477174758,-0.0148609718307852,-0.0073380740359425
1769158073168,-0.2620391845703125,-0.95709228515625,-0.1212158203125,0.0451845228672027,-0.0121032679453492,-0.0022924491204321
1769158073178,-0.2564849853515625,-0.9584808349609376,-0.1091766357421875,0.0433147177100181,-0.0075958678498864,0.0020423782989382
1769158073188,-0.2518768310546875,-0.9586029052734376,-0.0961761474609375,0.0337419845163822,-0.0021201425697654,0.0123557355254888
1769158073198,-0.2540283203125,-0.9586181640625,-0.0814666748046875,0.0161888226866722,-0.0015931029338389,0.0097905788570642
1769158073208,-0.260711669921875,-0.95654296875,-0.0713348388671875,-0.0112193645909428,-0.0057090185582637,0.0065095648169517
1769158073218,-0.2602081298828125,-0.956756591796875,-0.0612945556640625,-0.0391671098768711,-0.0116974022239446,4.340952364145778e-05
1769158073228,-0.2653045654296875,-0.9570159912109376,-0.064697265625,-0.0615853331983089,-0.0250587482005357,-0.0071284831501543
1769158073238,-0.2669219970703125,-0.9568023681640624,-0.0731201171875,-0.0748691782355308,-0.0254845879971981,-0.0179539658129215
1769158073248,-0.2701416015625,-0.9533843994140624,-0.0879974365234375,-0.0729735419154167,-0.0331584848463535,-0.0282020773738622
1769158073258,-0.271728515625,-0.951324462890625,-0.1002044677734375,-0.0683803856372833,-0.0335172154009342,-0.0356730408966541
1769158073268,-0.2664337158203125,-0.952301025390625,-0.106414794921875,-0.0661076456308364,-0.021228589117527,-0.0327691324055194
1769158073278,-0.256072998046875,-0.96173095703125,-0.100341796875,-0.0737107023596763,-0.0140399187803268,-0.0215678755193948
1769158073288,-0.2447357177734375,-0.9665069580078124,-0.09710693359375,-0.0859252959489822,-0.0074683027341961,-0.0092012211680412
1769158073298,-0.24365234375,-0.9681854248046876,-0.0955810546875,-0.0964069664478302,-0.0079836240038275,0.0025252092164009
1769158073309,-0.246978759765625,-0.968231201171875,-0.1026458740234375,-0.0983992740511894,-0.0183502454310655,0.000998685369268
1769158073318,-0.2519378662109375,-0.9590606689453124,-0.1095428466796875,-0.0959259942173957,-0.0248835124075412,-0.0063393884338438
1769158073328,-0.2619476318359375,-0.9564666748046876,-0.11651611328125,-0.0889919251203537,-0.0248640701174736,-0.0164277087897062
1769158073338,-0.2680511474609375,-0.9513397216796876,-0.126007080078125,-0.0779890716075897,-0.0331438370048999,-0.026767699047923
1769158073349,-0.2638092041015625,-0.9541473388671876,-0.133148193359375,-0.0603413693606853,-0.0490503683686256,-0.0299781393259763
1769158073360,-0.256591796875,-0.9552764892578124,-0.1383514404296875,-0.034198984503746,-0.0290622785687446,-0.0274585224688053
1769158073369,-0.252288818359375,-0.9540557861328124,-0.1473388671875,-0.0064517739228904,-0.0173435695469379,-0.0106582371518015
1769158073379,-0.2387847900390625,-0.9535675048828124,-0.1466827392578125,0.0202560033649206,-0.0016940367640927,0.0103522399440407
1769158073389,-0.240203857421875,-0.9572296142578124,-0.1424713134765625,0.0502415969967842,0.0102057661861181,0.0201143231242895
1769158073399,-0.2467041015625,-0.967498779296875,-0.133270263671875,0.0642346441745758,0.0184061713516712,0.0297427158802747
1769158073409,-0.2453765869140625,-0.9749603271484376,-0.11431884765625,0.066935621201992,0.0187933947890996,0.0300423204898834
1769158073419,-0.2528533935546875,-0.9754638671875,-0.099029541015625,0.054313838481903,0.0128622688353061,0.0232597831636667
1769158073429,-0.25909423828125,-0.968902587890625,-0.089080810546875,0.0423064455389976,0.0021558289881795,0.0124244457110762
1769158073439,-0.26947021484375,-0.955474853515625,-0.0857391357421875,0.0259274709969759,0.0040514669381082,0.0016572851454839
1769158073449,-0.2720184326171875,-0.94671630859375,-0.0869598388671875,0.0092470282688736,-0.0014708638191223,-0.0015448997728526
1769158073459,-0.2634124755859375,-0.9422607421875,-0.086669921875,-0.0090518184006214,-0.0035510589368641,-0.0008998821140266
1769158073469,-0.266693115234375,-0.945281982421875,-0.091583251953125,-0.0200469456613063,-0.0054243262857198,-0.0004551342281047
1769158073479,-0.2634124755859375,-0.9499053955078124,-0.0962677001953125,-0.0332572907209396,-0.0213835854083299,-0.0052301818504929
1769158073489,-0.264862060546875,-0.95233154296875,-0.0999755859375,-0.038588672876358,-0.0334178768098354,-0.0087990844622254
1769158073499,-0.2645416259765625,-0.9565277099609376,-0.105743408203125,-0.0340628959238529,-0.0269061829894781,-0.0109852729365229
1769158073510,-0.2580413818359375,-0.960968017578125,-0.106353759765625,-0.0290953014045953,-0.0126018114387989,-0.0057739997282624
1769158073519,-0.2555389404296875,-0.9671173095703124,-0.106719970703125,-0.0291986316442489,-0.0058799935504794,0.0002623213513288
1769158073529,-0.2610015869140625,-0.9635009765625,-0.106536865234375,-0.0309818834066391,0.0021249363198876,-0.0062158177606761
1769158073539,-0.25970458984375,-0.959503173828125,-0.1058349609375,-0.0372690744698047,0.0019236012594774,-0.005079180933535
1769158073550,-0.25311279296875,-0.9593048095703124,-0.1090850830078125,-0.0345989912748336,0.0055766594596207,-0.0006157228490337
1769158073560,-0.2481536865234375,-0.958465576171875,-0.1189727783203125,-0.021918348968029,0.0055961003527045,0.0062288674525916
1769158073570,-0.250244140625,-0.9571685791015624,-0.130462646484375,-0.0004101268132217,0.0114510599523782,0.0107959220185875
1769158073580,-0.2524566650390625,-0.9578704833984376,-0.135223388671875,0.0270023234188556,0.0038551918696612,0.0140404514968395
1769158073590,-0.257080078125,-0.9609832763671876,-0.138031005859375,0.0494863279163837,-0.0093820504844188,0.0087210536003112
1769158073600,-0.2633209228515625,-0.9621734619140624,-0.1296844482421875,0.0627326220273971,-0.0088022798299789,0.0052416333928704
1769158073610,-0.2555999755859375,-0.964630126953125,-0.1161956787109375,0.0611136890947818,-0.0104699516668915,0.0101493066176772
1769158073620,-0.2498016357421875,-0.9647979736328124,-0.1012420654296875,0.0506405420601367,-0.0103296032175421,0.0178205426782369
1769158073630,-0.245574951171875,-0.962066650390625,-0.0892181396484375,0.0324628688395023,0.0042157839052379,0.028964539989829
1769158073640,-0.2482452392578125,-0.9622955322265624,-0.0808258056640625,0.0138319255784153,0.0242733806371688,0.032463401556015
1769158073650,-0.2545623779296875,-0.9592437744140624,-0.0794525146484375,-0.0098704742267727,0.0305073093622922,0.0386283509433269
1769158073660,-0.25860595703125,-0.9568939208984376,-0.0772705078125,-0.0309448670595884,0.0318772383034229,0.0353633165359497
1769158073670,-0.2646942138671875,-0.951690673828125,-0.0860595703125,-0.0346312150359153,0.0149496542289853,0.0224786773324012
1769158073680,-0.275634765625,-0.95037841796875,-0.1027984619140625,-0.031463649123907,-0.0052442969754338,0.0097602186724543
1769158073690,-0.2720947265625,-0.95794677734375,-0.1147918701171875,-0.0264364015311002,-0.0237793643027544,0.0038823562208563
1769158073700,-0.259063720703125,-0.9703521728515624,-0.11395263671875,-0.027255855500698,-0.0363494865596294,0.007734618615359
1769158073710,-0.253662109375,-0.9669189453125,-0.1152801513671875,-0.014552311040461,-0.0257450435310602,0.0057249972596764
1769158073720,-0.2574310302734375,-0.9620208740234376,-0.1192169189453125,-0.0035145736765116,-0.0215175431221723,0.0046512107364833
1769158073730,-0.2582244873046875,-0.9557342529296876,-0.11431884765625,0.0027116306591778,-0.006564958486706,0.0059489691630005
1769158073740,-0.2602691650390625,-0.9554901123046876,-0.1077423095703125,-0.0005006743012927,0.0084989462047815,0.0069383336231112
1769158073751,-0.259552001953125,-0.953338623046875,-0.09893798828125,-0.008166316896677,0.0096387788653373,0.0054365769028663
1769158073760,-0.259613037109375,-0.9531707763671876,-0.0985870361328125,-0.0135333854705095,0.0043835630640387,-0.0011872372124344
1769158073771,-0.2584228515625,-0.9559783935546876,-0.1027374267578125,-0.0169153343886137,-0.0032551817130297,0.0007041397620923
1769158073781,-0.258758544921875,-0.9582366943359376,-0.10552978515625,-0.0165060050785541,0.0016482303617522,0.0002237055305158
1769158073791,-0.25421142578125,-0.959381103515625,-0.11224365234375,-0.0099791307002305,0.0002806971897371,0.0065822689794003
1769158073801,-0.2500762939453125,-0.9630279541015624,-0.1186370849609375,-0.0001605886063771,0.0046623959206044,0.0173390433192253
1769158073811,-0.24725341796875,-0.9631500244140624,-0.1238555908203125,0.0144881289452314,0.005502357147634,0.0213984996080398
1769158073821,-0.2548370361328125,-0.961334228515625,-0.1251220703125,0.0242478158324956,-0.0006910903030075,0.0201177857816219
1769158073831,-0.2618255615234375,-0.9591064453125,-0.1187896728515625,0.0252829864621162,-0.0051859733648598,0.0101980427280068
1769158073841,-0.2645263671875,-0.959564208984375,-0.110260009765625,0.0154362143948674,-0.004724713973701,0.0078571243211627
1769158073851,-0.2607879638671875,-0.96075439453125,-0.0996551513671875,0.0013603427214547,-0.0085894931107759,0.0107999173924326
1769158073861,-0.2577362060546875,-0.9605560302734376,-0.0942230224609375,-0.0069937272928655,-6.01874417043291e-05,0.0152881424874067
1769158073871,-0.255828857421875,-0.9594268798828124,-0.10015869140625,-0.0075940038077533,-0.0015760586829856,0.0175371821969747
1769158073881,-0.259521484375,-0.955718994140625,-0.1099853515625,0.0032152342610061,-0.0126859676092863,0.0132883749902248
1769158073891,-0.2643280029296875,-0.953033447265625,-0.118255615234375,0.0210834480822086,-0.0180210787802934,0.0114079164341092
1769158073901,-0.2642669677734375,-0.9550323486328124,-0.120941162109375,0.031025294214487,-0.022213427349925,0.0143112950026988
1769158073912,-0.2593231201171875,-0.9561309814453124,-0.115570068359375,0.0394004024565219,-0.0141075635328888,0.0210086125880479
1769158073921,-0.2612152099609375,-0.957000732421875,-0.1106109619140625,0.0400552749633789,0.0019928433466702,0.0224035754799842
1769158073931,-0.2663116455078125,-0.9578704833984376,-0.1007537841796875,0.0321978852152824,0.0193380117416381,0.0296385865658521
1769158073941,-0.261993408203125,-0.9554290771484376,-0.089324951171875,0.0203910246491432,0.0278516039252281,0.0282785091549158
1769158073951,-0.2722625732421875,-0.95086669921875,-0.09002685546875,0.0090171974152326,0.0251407735049724,0.0137549601495265
1769158073961,-0.2769927978515625,-0.9471282958984376,-0.0909881591796875,0.0037124464288353,0.0197979398071765,0.0108992531895637
1769158073971,-0.27276611328125,-0.949554443359375,-0.0938262939453125,0.0088667282834649,-0.0109748868271708,-0.0012349077733233
1769158073982,-0.2708892822265625,-0.9534149169921876,-0.10308837890625,0.0105314701795578,-0.0114779574796557,0.0045641255564987
1769158073991,-0.264251708984375,-0.961669921875,-0.102813720703125,0.0113767581060528,-0.0219274032860994,0.0082174502313137
1769158074002,-0.260498046875,-0.9651641845703124,-0.096527099609375,0.0042088595218956,-0.0174173396080732,0.0133054191246628
1769158074012,-0.2602386474609375,-0.9622650146484376,-0.0863037109375,-0.0089724557474255,0.0024138891603797,0.0182248093187809
1769158074022,-0.2617340087890625,-0.956207275390625,-0.083282470703125,-0.0272254962474107,0.0006450176006183,0.0194732993841171
1769158074032,-0.2689361572265625,-0.9508056640625,-0.0819549560546875,-0.0440888963639736,0.0098497010767459,0.011617774143815
1769158074042,-0.2733917236328125,-0.950653076171875,-0.08770751953125,-0.0595485493540763,0.0095948362722992,0.0021054951939731
1769158074052,-0.2698974609375,-0.9557037353515624,-0.090606689453125,-0.0710779055953025,0.0011611381778493,-0.0009028115891851
1769158074062,-0.2670135498046875,-0.9587860107421876,-0.0968170166015625,-0.0606710687279701,-0.0063239424489438,-0.0117083210498094
1769158074072,-0.2703399658203125,-0.9550933837890624,-0.1164093017578125,-0.0374834612011909,-0.0129711925983428,-0.0180951133370399
1769158074082,-0.2623443603515625,-0.9542388916015624,-0.1301727294921875,-0.0137480366975069,-0.0187092386186122,-0.0105714183300733
1769158074092,-0.25518798828125,-0.9595947265625,-0.132598876953125,0.0051601408049464,-0.031919315457344,-0.0041441447101533
1769158074102,-0.254913330078125,-0.96466064453125,-0.128143310546875,0.013799169100821,-0.0132976956665515,0.0038328215014189
1769158074112,-0.249755859375,-0.9687652587890624,-0.119476318359375,0.0147248841822147,0.0142361940816044,0.0174807235598564
1769158074122,-0.246551513671875,-0.9713592529296876,-0.11163330078125,0.0096046905964612,0.0314857549965381,0.0282697211951017
1769158074132,-0.2490234375,-0.9665985107421876,-0.1057891845703125,0.0124611966311931,0.0341654270887374,0.0312830880284309
1769158074144,-0.2646942138671875,-0.9539031982421876,-0.1096954345703125,0.0252510271966457,0.0275466721504926,0.0169723257422447
1769158074152,-0.2826080322265625,-0.9429779052734376,-0.1164703369140625,0.0350490622222423,0.0113743608817458,0.0017694041598588
1769158074163,-0.28436279296875,-0.9402618408203124,-0.113037109375,0.0396070629358291,-0.0081665832549333,-0.0123834330588579
1769158074172,-0.28375244140625,-0.9456787109375,-0.111785888671875,0.0406251922249794,-0.0216080900281667,-0.0248006880283355
1769158074182,-0.278533935546875,-0.9486236572265624,-0.1055755615234375,0.0309989284723997,-0.0326668657362461,-0.0266172289848327
1769158074193,-0.2693328857421875,-0.95159912109375,-0.0959014892578125,0.0137235354632139,-0.0239061322063207,-0.0178213417530059
1769158074202,-0.2572479248046875,-0.95587158203125,-0.08984375,-0.0033489251509308,-0.0124595994129776,-0.0041486723348498
1769158074213,-0.2525482177734375,-0.96038818359375,-0.084686279296875,-0.0194935407489538,0.0049990196712315,0.0050229881890118
1769158074222,-0.25653076171875,-0.96258544921875,-0.0839691162109375,-0.0301547069102525,0.0187510512769222,0.0115234982222318
1769158074233,-0.261077880859375,-0.96112060546875,-0.0878753662109375,-0.0338527709245681,0.0208911672234535,0.0126617327332496
1769158074243,-0.2627716064453125,-0.9589080810546876,-0.098052978515625,-0.0262696873396635,0.0093820504844188,0.0111274858936667
1769158074253,-0.265869140625,-0.9549407958984376,-0.110443115234375,-0.012369317933917,0.0023861923255026,0.0074768248014152
1769158074263,-0.2675323486328125,-0.95440673828125,-0.1219482421875,0.0125075355172157,-0.0058919773437082,0.0032727585639804
1769158074273,-0.2674713134765625,-0.9559173583984376,-0.1313629150390625,0.0383713580667972,-0.0213532261550426,0.0010247844038531
1769158074283,-0.263671875,-0.9555511474609376,-0.1275634765625,0.0532195456326007,-0.0193172395229339,0.004546548705548
1769158074293,-0.261077880859375,-0.9589080810546876,-0.11724853515625,0.0553042665123939,-0.0032972597982734,0.0105652930215001
1769158074303,-0.2604522705078125,-0.958740234375,-0.1036224365234375,0.0435575954616069,0.0195385478436946,0.0208466928452253
1769158074313,-0.260467529296875,-0.9583282470703124,-0.091400146484375,0.0306841433048248,0.0467573851346969,0.0280785057693719
1769158074323,-0.261199951171875,-0.9565582275390624,-0.0797576904296875,0.0061135524883866,0.0508349500596523,0.0381684228777885
1769158074333,-0.25994873046875,-0.9557952880859376,-0.072235107421875,-0.0215665437281131,0.0435866266489028,0.0374946445226669
1769158074343,-0.2715606689453125,-0.9539031982421876,-0.07562255859375,-0.0371702723205089,0.0152979958802461,0.0180229432880878
1769158074353,-0.283660888671875,-0.950347900390625,-0.0884857177734375,-0.0460601709783077,-0.0070488546043634,0.0036216326989233
1769158074363,-0.276092529296875,-0.9535369873046876,-0.097015380859375,-0.0535580329596996,-0.0314439423382282,-0.0042104576714336
1769158074373,-0.2679901123046875,-0.952972412109375,-0.1053009033203125,-0.0588076561689376,-0.0463978573679924,-0.0001115864506573
1769158074383,-0.2632904052734375,-0.9520721435546876,-0.1141815185546875,-0.0591549314558506,-0.0530014336109161,0.0119610549882054
1769158074394,-0.2600250244140625,-0.9515228271484376,-0.12054443359375,-0.0594188533723354,-0.0364341735839843,0.0242430213838815
1769158074403,-0.2555084228515625,-0.9561614990234376,-0.121246337890625,-0.060919277369976,0.0006852313526906,0.0482229217886924
1769158074414,-0.2437896728515625,-0.9660186767578124,-0.11627197265625,-0.0599932968616485,0.021148694679141,0.0685787945985794
1769158074424,-0.253387451171875,-0.9606170654296876,-0.120758056640625,-0.0312988013029098,0.0449227318167686,0.0568475686013698
1769158074434,-0.275970458984375,-0.9582672119140624,-0.1415557861328125,0.010464359074831,0.0073162359185516,0.0388139747083187
1769158074444,-0.2802581787109375,-0.9536285400390624,-0.1468048095703125,0.0481435619294643,-0.0058112838305532,0.0098116183653473
1769158074454,-0.2895965576171875,-0.9597015380859376,-0.143951416015625,0.0809475779533386,-0.0106678241863846,-0.0146082369610667
1769158074464,-0.2814788818359375,-0.9599609375,-0.12872314453125,0.0980914160609245,-0.0251399744302034,-0.0172458328306674
1769158074474,-0.2600860595703125,-0.9605712890625,-0.1165924072265625,0.1016829535365104,-0.0191185679286718,0.0058744004927575
1769158074484,-0.2528839111328125,-0.9571685791015624,-0.0964813232421875,0.0958426371216774,0.0135104823857545,0.0230698995292186
1769158074494,-0.2545928955078125,-0.9537353515625,-0.083526611328125,0.0839630737900734,0.0437714494764804,0.0337832644581794
1769158074504,-0.263458251953125,-0.9568939208984376,-0.072052001953125,0.062238872051239,0.0561839118599891,0.034873828291893
1769158074514,-0.2657928466796875,-0.9599609375,-0.0619659423828125,0.0370858497917652,0.0456447154283523,0.0265719555318355
1769158074524,-0.274932861328125,-0.9597320556640624,-0.0557403564453125,0.0069689597003161,0.053266417235136,0.0036088495980948
1769158074534,-0.284088134765625,-0.9650421142578124,-0.05010986328125,-0.0255612861365079,-0.0066267438232898,-0.0108380001038312
1769158074544,-0.2902069091796875,-0.9619140625,-0.0529022216796875,-0.0564888417720794,-0.0411445051431655,-0.0230912044644355
1769158074554,-0.2798309326171875,-0.96099853515625,-0.0555572509765625,-0.0934412702918052,-0.0590542666614055,-0.0356791689991951
1769158074564,-0.2804412841796875,-0.957763671875,-0.0596771240234375,-0.1226763874292373,-0.0485164038836956,-0.0382035784423351
1769158074574,-0.271087646484375,-0.954864501953125,-0.074981689453125,-0.137662261724472,-0.0447328500449657,-0.0273197721689939
1769158074584,-0.2613983154296875,-0.9527740478515624,-0.0920867919921875,-0.1385911703109741,-0.0381029099225997,-0.0101796668022871
1769158074594,-0.2550201416015625,-0.955902099609375,-0.1109466552734375,-0.1277054995298385,-0.0244198553264141,0.0027949875220656
1769158074604,-0.2594146728515625,-0.955078125,-0.125244140625,-0.1093968003988266,-0.0182479787617921,0.0107053751125931
1769158074614,-0.262786865234375,-0.954437255859375,-0.133636474609375,-0.0880180075764656,-0.0101959118619561,0.0150934653356671
1769158074625,-0.26995849609375,-0.954864501953125,-0.1366424560546875,-0.0582553185522556,-0.0030365362763404,0.007661648094654
1769158074635,-0.2760467529296875,-0.951690673828125,-0.1428375244140625,-0.0269349440932273,-0.0005717806634493,0.000116912771773
1769158074645,-0.274688720703125,-0.9511566162109376,-0.1494598388671875,0.0041097900830209,-0.0017081515397876,-0.0066935890354216
1769158074655,-0.2686309814453125,-0.95361328125,-0.15087890625,0.0377508401870727,-0.0072275530546903,-0.005068261642009
1769158074665,-0.267333984375,-0.9537506103515624,-0.1480865478515625,0.0652959123253822,-0.0064211478456854,-0.0028485171496868
1769158074675,-0.2628936767578125,-0.9581451416015624,-0.1376495361328125,0.075370654463768,0.0100888535380363,0.0071551147848367
1769158074685,-0.2558746337890625,-0.9584197998046876,-0.1188812255859375,0.0739429369568824,0.0219918508082628,0.0203526765108108
1769158074695,-0.26092529296875,-0.9569549560546876,-0.104949951171875,0.0655068382620811,0.0238552652299404,0.0219758730381727
1769158074705,-0.269866943359375,-0.9531707763671876,-0.0958099365234375,0.0486927032470703,0.0339883267879486,0.0132620092481374
1769158074715,-0.2755584716796875,-0.9501190185546876,-0.08270263671875,0.0376949161291122,0.0302593689411878,-1.0120012120751198e-05
1769158074725,-0.2819061279296875,-0.95025634765625,-0.08392333984375,0.0332687422633171,0.0151161020621657,-0.0160479415208101
1769158074735,-0.2802886962890625,-0.9532928466796876,-0.084869384765625,0.0255900491029024,-0.0025840650778263,-0.02288986928761
1769158074745,-0.2693328857421875,-0.9633636474609376,-0.08062744140625,0.0077820229344069,-0.0157627183943986,-0.0158961415290832
1769158074755,-0.2598724365234375,-0.969879150390625,-0.0735931396484375,-0.0120542664080858,-0.0214336533099412,-0.0093098785728216
1769158074765,-0.262939453125,-0.96697998046875,-0.080047607421875,-0.0184277426451444,-0.0211484283208847,-0.00943558011204
1769158074775,-0.267120361328125,-0.9599151611328124,-0.0858001708984375,-0.0305808130651712,-0.0122201805934309,-0.0074121099896728
1769158074785,-0.2689361572265625,-0.953887939453125,-0.084320068359375,-0.0495204143226146,-0.0004932174342684,-0.0067782774567604
1769158074795,-0.2737274169921875,-0.9498443603515624,-0.0832977294921875,-0.0639470219612121,-0.0023009711876511,-0.0134132774546742
1769158074805,-0.2797393798828125,-0.9531402587890624,-0.0883636474609375,-0.0741863474249839,-0.003777427598834,-0.0280987452715635
1769158074815,-0.2773590087890625,-0.959625244140625,-0.096527099609375,-0.0746183097362518,-0.0029963224660605,-0.034009899944067
1769158074827,-0.2720489501953125,-0.9580230712890624,-0.1094970703125,-0.0564134754240512,-0.0005113269435241,-0.0347537174820899
1769158074835,-0.2667694091796875,-0.9556732177734376,-0.1247406005859375,-0.0270332153886556,0.0051132692024111,-0.0318593941628932
1769158074845,-0.260406494140625,-0.95294189453125,-0.1383056640625,0.0089793801307678,0.005331914871931,-0.0237804297357797
1769158074856,-0.2580718994140625,-0.957427978515625,-0.1440277099609375,0.0419317372143268,0.0217945110052824,-0.0060440441593527
1769158074866,-0.2471771240234375,-0.9698486328125,-0.138580322265625,0.0638375654816627,0.0375915840268135,0.0150476591661572
1769158074878,-0.245208740234375,-0.97674560546875,-0.1241302490234375,0.0706182420253753,0.0430800914764404,0.0226512495428323
1769158074886,-0.2627410888671875,-0.9718475341796876,-0.1095733642578125,0.0675494819879531,0.0474708452820777,0.0093397060409188
1769158074896,-0.2818145751953125,-0.9564056396484376,-0.0960540771484375,0.055028099566698,0.0306164994835853,-0.0030314761679619
1769158074906,-0.286712646484375,-0.9458465576171876,-0.0851593017578125,0.0341979190707206,0.0080067934468388,-0.014619156718254
1769158074916,-0.2839202880859375,-0.94140625,-0.0746612548828125,0.0064134243875741,-0.0025643578264862,-0.0271437373012304
1769158074927,-0.2821807861328125,-0.9399871826171876,-0.0731353759765625,-0.0198842249810695,-0.0112635735422372,-0.0312649793922901
1769158074936,-0.270477294921875,-0.9473114013671876,-0.0756683349609375,-0.0447839833796024,-0.0193792898207902,-0.0232565868645906
1769158074946,-0.263519287109375,-0.9524383544921876,-0.080291748046875,-0.0575951188802719,-0.0167467556893825,-0.0136186070740222
1769158074956,-0.2579345703125,-0.956787109375,-0.09075927734375,-0.059867862612009,-0.0220600292086601,-0.0098196072503924
1769158074966,-0.26483154296875,-0.959075927734375,-0.10198974609375,-0.0528461709618568,-0.0290095470845699,-0.0144598996266722
1769158074977,-0.26806640625,-0.960601806640625,-0.110015869140625,-0.0477494113147258,-0.0221196822822093,-0.0170823149383068
1769158074986,-0.267547607421875,-0.958831787109375,-0.106231689453125,-0.0479595363140106,-0.0139411156997084,-0.015368303284049
1769158074996,-0.2681732177734375,-0.9584503173828124,-0.108795166015625,-0.0491651482880115,-0.0249903053045272,-0.0253477003425359
1769158075006,-0.2749481201171875,-0.9562835693359376,-0.1106719970703125,-0.0521372370421886,-0.0333547592163085,-0.0300444513559341
1769158075016,-0.2676239013671875,-0.955718994140625,-0.1097869873046875,-0.05176892131567,-0.0231276899576187,-0.0211798530071973
1769158075026,-0.25616455078125,-0.9565277099609376,-0.1114501953125,-0.0472127869725227,-0.016702014952898,-0.01245160959661
1769158075036,-0.254669189453125,-0.9557647705078124,-0.1166229248046875,-0.034819234162569,-0.0144572360441088,-0.0125397602096199
1769158075046,-0.2605438232421875,-0.955108642578125,-0.126068115234375,-0.0220946501940488,-0.0067934575490653,-0.0099953757598996
1769158075056,-0.258392333984375,-0.9568939208984376,-0.125457763671875,-0.0031752870418131,0.0100478399544954,-0.0013257216196507
1769158075066,-0.2523345947265625,-0.96063232421875,-0.128326416015625,0.0165353007614612,0.0157059915363788,0.003188336500898
1769158075077,-0.2598114013671875,-0.959991455078125,-0.1303558349609375,0.0369913056492805,0.0148495193570852,-0.0001789644302334
1769158075087,-0.2613677978515625,-0.960845947265625,-0.129119873046875,0.058225754648447,0.0113336145877838,0.0002013349730987
1769158075097,-0.261993408203125,-0.9610443115234376,-0.1243896484375,0.0668091252446174,-0.0015853798249736,-0.0041984734125435
1769158075107,-0.2632598876953125,-0.960296630859375,-0.1112060546875,0.0619752183556556,-0.0003478088474366,-0.0012013519881293
1769158075117,-0.2572784423828125,-0.959228515625,-0.0972137451171875,0.0456146225333213,0.0138931786641478,0.0026589001063257
1769158075127,-0.2605133056640625,-0.958709716796875,-0.0854644775390625,0.0217684116214513,0.017967814579606,0.0065039717592298
1769158075137,-0.2606353759765625,-0.9574737548828124,-0.079498291015625,-0.0054131411015987,0.0340373292565345,0.0132718635722994
1769158075147,-0.259063720703125,-0.9570159912109376,-0.07794189453125,-0.0220472458750009,0.0355641208589077,0.0150021193549036
1769158075157,-0.2697906494140625,-0.9566802978515624,-0.0868988037109375,-0.0255485028028488,0.0217236708849668,0.0074573834426701
1769158075167,-0.272796630859375,-0.9597015380859376,-0.0968170166015625,-0.0227082408964633,0.0072760223411023,0.0040538636967539
1769158075178,-0.268585205078125,-0.963836669921875,-0.103607177734375,-0.0215042270720005,-0.0082936165854334,-0.002910568844527
1769158075187,-0.27099609375,-0.9572296142578124,-0.1081085205078125,-0.0113791543990373,-0.018466891720891,-0.0166905634105205
1769158075197,-0.279449462890625,-0.9496917724609376,-0.1164093017578125,0.000735831388738,-0.0152252921834588,-0.0213758628815412
1769158075207,-0.2742767333984375,-0.9495391845703124,-0.1193389892578125,0.0114675713703036,-0.0081751057878136,-0.0203337669372558
1769158075217,-0.262481689453125,-0.953155517578125,-0.1161041259765625,0.0178463757038116,0.0158908162266016,-0.0098230699077248
1769158075227,-0.2562713623046875,-0.953826904296875,-0.1092071533203125,0.0199777036905288,0.0336650200188159,0.001808819011785
1769158075237,-0.2607879638671875,-0.9538421630859376,-0.103607177734375,0.0177936442196369,0.0417929850518703,0.0002964098239317
1769158075247,-0.26654052734375,-0.9547576904296876,-0.1012115478515625,0.0104923220351338,0.0328277200460433,-0.0015688681742176
1769158075257,-0.264984130859375,-0.9541473388671876,-0.096099853515625,0.0055058193393051,0.0165701881051063,-0.0051873051561415
1769158075267,-0.2705535888671875,-0.95361328125,-0.0926666259765625,-0.0050701261498034,0.0023007048293948,-0.018091918900609
1769158075278,-0.27410888671875,-0.9552001953125,-0.086517333984375,-0.0174951031804084,-0.0078874845057725,-0.0213979668915271
1769158075287,-0.2688140869140625,-0.9585418701171876,-0.0887603759765625,-0.0249650049954652,-0.0199574623256921,-0.0256012342870235
1769158075298,-0.2642669677734375,-0.9610137939453124,-0.0972137451171875,-0.0270281545817852,-0.0272033922374248,-0.0248909685760736
1769158075308,-0.2608642578125,-0.9613494873046876,-0.102508544921875,-0.0284620020538568,-0.0271088499575853,-0.0236318260431289
1769158075318,-0.259613037109375,-0.962646484375,-0.1058502197265625,-0.0288348440080881,-0.0042488072067499,-0.0139784002676606
1769158075328,-0.2567138671875,-0.9633331298828124,-0.1028900146484375,-0.0338093638420105,0.0204900950193405,-0.0021078919526189
1769158075338,-0.255523681640625,-0.961212158203125,-0.100341796875,-0.0383452586829662,0.0284635983407497,0.0080744381994009
1769158075348,-0.2596893310546875,-0.9603271484375,-0.103546142578125,-0.0383031815290451,0.0161081291735172,0.0029704899061471
1769158075358,-0.268585205078125,-0.957122802734375,-0.109954833984375,-0.0368909053504467,0.0060778660699725,-0.0064816013909876
1769158075368,-0.26885986328125,-0.9563446044921876,-0.115447998046875,-0.0226784143596887,-0.0006719155353493,-0.0098379831761121
1769158075378,-0.2634429931640625,-0.957916259765625,-0.1264190673828125,-0.0015824503498151,-0.0145054394379258,-0.0159786995500326
1769158075388,-0.2656402587890625,-0.95635986328125,-0.1290283203125,0.0106350677087903,-0.024331972002983,-0.0219404529780149
1769158075398,-0.263916015625,-0.9553985595703124,-0.1239471435546875,0.0200597289949655,-0.0196898151189088,-0.0174809899181127
1769158075408,-0.2592926025390625,-0.956451416015625,-0.1180267333984375,0.0225812084972858,-0.0075407405383884,-0.0064318003132939
1769158075418,-0.2518157958984375,-0.9577789306640624,-0.11138916015625,0.0198799651116132,0.0160687156021595,0.0087402286008
1769158075428,-0.249053955078125,-0.95928955078125,-0.10064697265625,0.0075306207872927,0.0274888817220926,0.0213423073291778
1769158075438,-0.2588958740234375,-0.958709716796875,-0.0911865234375,-0.0102808671072125,0.0276345573365688,0.0190549176186323
1769158075448,-0.2684478759765625,-0.9552154541015624,-0.0878448486328125,-0.0313829556107521,0.0138590903952717,0.0117480028420686
1769158075458,-0.27374267578125,-0.951141357421875,-0.0901031494140625,-0.0470535270869731,-0.0136785274371504,-0.0059580239467322
1769158075468,-0.2829132080078125,-0.9467315673828124,-0.099517822265625,-0.0545998625457286,-0.0268148370087146,-0.0273322891443967
1769158075478,-0.2834014892578125,-0.94805908203125,-0.107391357421875,-0.0634151920676231,-0.028106203302741,-0.0363478884100914
1769158075488,-0.274566650390625,-0.9477996826171876,-0.112640380859375,-0.0588420107960701,-0.0279847625643014,-0.0419991165399551
1769158075499,-0.2688446044921875,-0.949798583984375,-0.1251373291015625,-0.045697446912527,-0.0186250824481248,-0.0370746627449989
1769158075509,-0.26031494140625,-0.956085205078125,-0.1343994140625,-0.0196426771581172,-0.0097919106483459,-0.025186313316226
1769158075519,-0.250244140625,-0.9675140380859376,-0.1393280029296875,0.0066432552412152,-0.0080691119655966,-0.0049774479120969
1769158075529,-0.240081787109375,-0.9765167236328124,-0.134124755859375,0.0302063710987567,-0.0099469069391489,0.0118726380169391
1769158075539,-0.241241455078125,-0.975341796875,-0.1297760009765625,0.0530048944056034,-0.0075223646126687,0.0169030837714672
1769158075549,-0.25421142578125,-0.966827392578125,-0.1208648681640625,0.0655318722128868,0.0006655239267274,0.0207076743245124
1769158075559,-0.256561279296875,-0.9593353271484376,-0.10443115234375,0.0620322115719318,0.0062331282533705,0.0201622601598501
1769158075569,-0.263519287109375,-0.95404052734375,-0.088714599609375,0.0469462014734745,0.0096819223836064,0.0120516028255224
1769158075579,-0.2697601318359375,-0.9503021240234376,-0.0762176513671875,0.0281610637903213,0.0200645215809345,0.0026517093647271
1769158075589,-0.270111083984375,-0.9527587890625,-0.0751953125,0.0126023441553115,0.0175646133720874,-0.0005305017111822
1769158075599,-0.265411376953125,-0.95611572265625,-0.0749053955078125,0.004571315832436,0.0134841175749897,-0.0065218149684369
1769158075609,-0.268035888671875,-0.9578094482421876,-0.0847930908203125,-0.0011914982460439,0.0123498765751719,-0.0044349622912704
1769158075619,-0.2618255615234375,-0.9555816650390624,-0.0872039794921875,-0.0125754466280341,0.0034487936645746,-0.0070049124769866
1769158075629,-0.2696380615234375,-0.9479827880859376,-0.087890625,-0.0232171714305877,0.0024122912436723,-0.0148615036159753
1769158075639,-0.272430419921875,-0.9521942138671876,-0.089874267578125,-0.0380413904786109,0.0003012035158462,-0.0101530356332659
1769158075649,-0.2572479248046875,-0.9662322998046876,-0.084930419921875,-0.051681037992239,-0.0065851984545588,-0.0050328415818512
1769158075660,-0.253509521484375,-0.973388671875,-0.089202880859375,-0.0654264092445373,-0.0103620933368802,-0.00907445512712
1769158075669,-0.2638702392578125,-0.96697998046875,-0.0961151123046875,-0.0692349970340728,-0.0084454165771603,-0.0177190750837326
1769158075680,-0.2733306884765625,-0.958038330078125,-0.104766845703125,-0.0663449317216873,-0.0001225054147653,-0.0279296357184648
1769158075689,-0.2680511474609375,-0.9513702392578124,-0.1191864013671875,-0.0528554916381835,0.0035172367934137,-0.0279376246035099
1769158075699,-0.2570648193359375,-0.9494781494140624,-0.130126953125,-0.0325779169797897,0.0135791916400194,-0.0155728347599506
1769158075711,-0.2518768310546875,-0.9520416259765624,-0.137847900390625,-0.0142250088974833,0.0269546527415514,-0.0059364521875977
1769158075719,-0.24957275390625,-0.9585418701171876,-0.1404876708984375,0.0020253339316695,0.0270047187805175,0.0052975597791373
1769158075730,-0.24908447265625,-0.9617462158203124,-0.1348114013671875,0.0146540440618991,0.0298271384090185,0.0113208312541246
1769158075740,-0.2473602294921875,-0.96197509765625,-0.12994384765625,0.0230936016887426,0.0315067917108535,0.0215572230517864
1769158075750,-0.2586822509765625,-0.9616546630859376,-0.1256103515625,0.0300700180232524,0.0086177233606576,0.0136465700343251
1769158075760,-0.26690673828125,-0.95751953125,-0.1207122802734375,0.0319318324327468,-0.0011717908782884,0.0074595143087208
1769158075770,-0.267425537109375,-0.95648193359375,-0.11602783203125,0.033252228051424,-0.0034144388046115,-0.0012658004416152
1769158075780,-0.2637481689453125,-0.955535888671875,-0.1121978759765625,0.0365971587598323,0.0009494169498793,-0.00495614297688
1769158075790,-0.2647247314453125,-0.9547119140625,-0.1157684326171875,0.0437898263335228,0.0032205607276409,-0.0088155958801507
1769158075800,-0.2649688720703125,-0.956024169921875,-0.11444091796875,0.0454966463148593,0.0045430865138769,-0.0078802937641739
1769158075810,-0.2603759765625,-0.959564208984375,-0.106201171875,0.0440974198281765,0.0131496237590909,-0.0027888622134923
1769158075820,-0.258331298828125,-0.962158203125,-0.097930908203125,0.0375377871096134,0.0202522743493318,0.001792041119188
1769158075830,-0.25994873046875,-0.9610443115234376,-0.088134765625,0.0264345370233058,0.0254739336669445,0.0102113587781786
1769158075840,-0.2582244873046875,-0.9618072509765624,-0.0779571533203125,0.0107589047402143,0.0208522845059633,0.0094989631325006
1769158075850,-0.2679595947265625,-0.9587249755859376,-0.0735931396484375,-0.0100984405726194,0.0191116426140069,-0.0012290488230064
1769158075860,-0.2686920166015625,-0.95721435546875,-0.071868896484375,-0.0304148979485034,0.0008708536624908,-0.0104385260492563
1769158075870,-0.26812744140625,-0.9574127197265624,-0.076416015625,-0.0411445051431655,-0.0142053011804819,-0.020003268495202
1769158075880,-0.266998291015625,-0.9556427001953124,-0.08660888671875,-0.0458734817802906,-0.0261711496859788,-0.0223077032715082
1769158075890,-0.2619476318359375,-0.95513916015625,-0.09136962890625,-0.0542360730469226,-0.0244342368096113,-0.0242225155234336
1769158075900,-0.257598876953125,-0.9569091796875,-0.0950927734375,-0.0607365854084491,-0.0015353123890236,-0.0117128491401672
1769158075913,-0.2428131103515625,-0.9598236083984376,-0.0978851318359375,-0.0630950778722763,0.0139523008838295,-0.0001424791116733
1769158075920,-0.2462921142578125,-0.95831298828125,-0.1100006103515625,-0.0503539852797985,0.0106481164693832,0.0020184097811579
1769158075930,-0.2550811767578125,-0.956573486328125,-0.1209869384765625,-0.0360080674290657,0.0160490069538354,0.0041329595260322
1769158075941,-0.2545166015625,-0.961761474609375,-0.1229705810546875,-0.0184418577700853,0.0092733930796384,0.0063423179090023
1769158075951,-0.2569427490234375,-0.968719482421875,-0.1246490478515625,-0.0098995026201009,0.0042834281921386,0.0056629455648362
1769158075961,-0.261260986328125,-0.9639129638671876,-0.1218414306640625,-0.0030144320335239,0.0074816183187067,-0.0032301479950547
1769158075971,-0.273223876953125,-0.954315185546875,-0.124359130859375,0.0010799118317663,0.0055004931055009,-0.0154625792056322
1769158075981,-0.2743988037109375,-0.94989013671875,-0.12835693359375,0.0078928107395768,0.008247809484601,-0.0154151748865842
1769158075991,-0.2600860595703125,-0.953948974609375,-0.12847900390625,0.0157733708620071,0.0294849220663309,-0.0033896714448928
1769158076001,-0.25372314453125,-0.958038330078125,-0.126556396484375,0.0198679808527231,0.0317938812077045,0.0067140953615307
1769158076011,-0.25653076171875,-0.958770751953125,-0.119903564453125,0.0262515768408775,0.0285035464912652,0.006254700012505
1769158076021,-0.262847900390625,-0.9609375,-0.1229400634765625,0.0332226678729057,0.0168500859290361,0.0057883807457983
1769158076031,-0.2650604248046875,-0.9620208740234376,-0.121063232421875,0.0406856425106525,0.0086187878623604,0.0031755531672388
1769158076041,-0.2645721435546875,-0.959197998046875,-0.1171875,0.0426268242299556,-0.007602259516716,-0.0003880225704051
1769158076051,-0.270111083984375,-0.9550018310546876,-0.1124114990234375,0.0435794368386268,-0.0188855398446321,-0.0092896381393074
1769158076061,-0.275909423828125,-0.9555206298828124,-0.1064300537109375,0.0355870239436626,-0.0110835433006286,-0.0163744464516639
1769158076071,-0.269073486328125,-0.9540557861328124,-0.099517822265625,0.0249144043773412,-0.0065636266954243,-0.0130958287045359
1769158076081,-0.2653656005859375,-0.9520111083984376,-0.0957794189453125,0.0132731944322586,0.0048663942143321,-0.0131927672773599
1769158076091,-0.2665252685546875,-0.954315185546875,-0.0938720703125,0.0027656927704811,0.0309379417449235,-0.0034887411165982
1769158076101,-0.25323486328125,-0.957763671875,-0.0914306640625,-5.406216951087117e-05,0.0330977663397789,0.0070160976611077
1769158076111,-0.2552337646484375,-0.957916259765625,-0.096343994140625,-0.0003757720405701,0.0165563393384218,0.0077460701577365
1769158076121,-0.2613372802734375,-0.9577178955078124,-0.0985107421875,-0.0063034361228346,0.005061337724328,0.0089053446426987
1769158076131,-0.264007568359375,-0.954620361328125,-0.0916748046875,-0.019458120688796,-0.0228113066405057,0.0044874264858663
1769158076142,-0.266510009765625,-0.9540557861328124,-0.090728759765625,-0.0264150965958833,-0.0324498191475868,-0.0037193708121776
1769158076152,-0.26715087890625,-0.9562530517578124,-0.0912628173828125,-0.0287719927728176,-0.027687819674611,-0.0110435960814356
1769158076162,-0.2638702392578125,-0.95880126953125,-0.0903472900390625,-0.0340391919016838,-0.015117167495191,-0.0109527828171849
1769158076172,-0.2609405517578125,-0.9599609375,-0.0861358642578125,-0.0418121628463268,0.0006250438746064,-0.010294715873897
1769158076182,-0.2550506591796875,-0.9606475830078124,-0.0893707275390625,-0.0444082096219062,0.0067676249891519,-0.0068403291516005
1769158076192,-0.255462646484375,-0.960723876953125,-0.0979766845703125,-0.0430867485702037,0.0026514432393014,-0.0087655279785394
1769158076202,-0.2556915283203125,-0.959625244140625,-0.10125732421875,-0.0462479218840599,0.0025592977181077,-0.0030871361959725
1769158076212,-0.25152587890625,-0.960968017578125,-0.100372314453125,-0.0490991026163101,0.0038796931039541,0.0016511598369106
1769158076222,-0.255279541015625,-0.96038818359375,-0.10272216796875,-0.0524544194340705,0.0033398703671991,-0.0017377126496285
1769158076232,-0.263580322265625,-0.9610595703125,-0.1073455810546875,-0.0536760129034519,-0.0052797170355916,-0.0100212087854743
1769158076242,-0.2635345458984375,-0.9620819091796876,-0.112091064453125,-0.0484010875225067,-0.0101498393341898,-0.0185451880097389
1769158076252,-0.263336181640625,-0.960540771484375,-0.12237548828125,-0.0345222912728786,-0.0146596366539597,-0.0258995071053504
1769158076262,-0.2566375732421875,-0.961639404296875,-0.130615234375,-0.0177166797220706,-0.014199442230165,-0.0229836124926805
1769158076272,-0.24444580078125,-0.9625396728515624,-0.130767822265625,-0.0048211202956736,-0.0068435249850153,-0.0132542867213487
1769158076282,-0.24420166015625,-0.959442138671875,-0.1313018798828125,0.0021283982787281,0.0119413482025265,-7.723167072981596e-05
1769158076292,-0.2467041015625,-0.9548797607421876,-0.1271820068359375,0.012622850947082,0.0319589972496032,0.0121778370812535
1769158076302,-0.25311279296875,-0.955078125,-0.126220703125,0.0217801295220851,0.0331212021410465,0.0123421540483832
1769158076312,-0.2613372802734375,-0.95330810546875,-0.125885009765625,0.0328647382557392,0.0296902507543563,0.0046868971548974
1769158076322,-0.265594482421875,-0.9578704833984376,-0.125579833984375,0.036378514021635,0.0248848441988229,0.0037667751312255
1769158076332,-0.2605438232421875,-0.9632110595703124,-0.1177978515625,0.0375170148909091,0.0105226822197437,0.0053228600881993
1769158076343,-0.2590789794921875,-0.963897705078125,-0.11419677734375,0.0373385846614837,-0.0002484729338902,0.0030951257795095
1769158076353,-0.262847900390625,-0.958160400390625,-0.1125030517578125,0.0347800850868225,-0.0010799118317663,0.0001217064636875
1769158076363,-0.2663421630859375,-0.9518280029296876,-0.1062774658203125,0.0274502672255039,0.0072150360792875,0.0036490634083747
1769158076372,-0.265777587890625,-0.9479827880859376,-0.1046600341796875,0.0259192157536745,0.0041497377678751,0.0068427259102463
1769158076383,-0.2663726806640625,-0.9445343017578124,-0.101318359375,0.0196823589503765,-0.0020812603179365,0.0058637480251491
1769158076394,-0.2703094482421875,-0.9495697021484376,-0.0985870361328125,0.0122518725693225,0.0075399414636194,-0.0016588830621913
1769158076402,-0.270263671875,-0.954864501953125,-0.0898895263671875,0.0104012414813041,0.0044043357484042,-0.0060760020278394
1769158076413,-0.2675933837890625,-0.9584503173828124,-0.0895233154296875,0.0016322514275088,0.0062395199202001,-0.0083388900384306
1769158076423,-0.26361083984375,-0.959259033203125,-0.08612060546875,-0.0056685381568968,0.0049058091826736,-0.0146002480760216
1769158076433,-0.267486572265625,-0.958648681640625,-0.0882415771484375,-0.0139416484162211,0.0007020092452876,-0.0214080866426229
1769158076443,-0.266204833984375,-0.963226318359375,-0.0845489501953125,-0.0248560812324285,0.0027904601301997,-0.0153994625434279
1769158076453,-0.2513885498046875,-0.9737548828125,-0.0793304443359375,-0.0419029742479324,0.004938299767673,-0.004784102551639
1769158076463,-0.244476318359375,-0.976318359375,-0.079559326171875,-0.0547063872218132,0.0103778056800365,-0.00384400668554
1769158076473,-0.2535552978515625,-0.967803955078125,-0.0911865234375,-0.0600391030311584,0.0190232265740633,-0.0074472636915743
1769158076483,-0.26361083984375,-0.9524383544921876,-0.1035003662109375,-0.0576571710407733,0.0216698758304119,-0.0089977560564875
1769158076493,-0.263885498046875,-0.9449310302734376,-0.1121673583984375,-0.0550640523433685,0.020754812285304,-0.0114241624251008
1769158076503,-0.2621307373046875,-0.94677734375,-0.1118316650390625,-0.0590002015233039,0.0188983231782913,-0.0115131111815571
1769158076513,-0.2574462890625,-0.9517669677734376,-0.113677978515625,-0.0582947321236133,0.0101764714345335,-0.0136234005913138
1769158076523,-0.2522735595703125,-0.957794189453125,-0.118408203125,-0.0520496182143688,-0.0066477828659117,-0.0140180811285972
1769158076533,-0.2505950927734375,-0.9638519287109376,-0.122955322265625,-0.0413594245910644,-0.0105261439457535,-0.0137341879308223
1769158076543,-0.2502288818359375,-0.9644622802734376,-0.1240997314453125,-0.0338306687772274,-0.0029097697697579,-0.0093812514096498
1769158076553,-0.248504638671875,-0.9630584716796876,-0.12725830078125,-0.0234368834644556,0.0056682717986404,-0.0028005801141262
1769158076563,-0.248565673828125,-0.96063232421875,-0.13336181640625,-0.0102835297584533,0.007489607669413,0.0044560013338923
1769158076573,-0.24822998046875,-0.956298828125,-0.1401519775390625,0.0066605657339096,0.0210634730756282,0.0140801323577761
1769158076584,-0.2540283203125,-0.9544677734375,-0.14642333984375,0.0339529067277908,0.022196115925908,0.0119735719636082
1769158076594,-0.2642364501953125,-0.9549560546875,-0.15130615234375,0.058952797204256,0.0205012802034616,0.0062451125122606
1769158076604,-0.2640533447265625,-0.9576416015625,-0.1459808349609375,0.0787296965718269,0.0133640086278319,0.0027361316606402
1769158076614,-0.2646331787109375,-0.95947265625,-0.132476806640625,0.0870986804366111,-0.0007480819476768,-0.0050879693590104
1769158076624,-0.268310546875,-0.960906982421875,-0.115081787109375,0.0804085582494735,-0.0020809939596801,-0.011323494836688
1769158076634,-0.264923095703125,-0.9615631103515624,-0.0970916748046875,0.0642572864890098,0.0046613309532403,-0.0118848886340856
1769158076644,-0.257904052734375,-0.96173095703125,-0.0865631103515625,0.0445725284516811,0.0073689664714038,-0.0087189227342605
1769158076654,-0.2530364990234375,-0.959991455078125,-0.0782470703125,0.0205604024231433,0.0046887611970305,-0.0023787354584783
1769158076664,-0.251953125,-0.9616241455078124,-0.0716400146484375,-0.0066997143439948,-0.0043843621388077,0.0033393376506865
1769158076674,-0.256011962890625,-0.959991455078125,-0.0709686279296875,-0.030435137450695,-0.0058099520392715,0.0033214944414794
1769158076684,-0.2590789794921875,-0.959564208984375,-0.073028564453125,-0.0503337457776069,0.0003051982494071,0.0036123117897659
1769158076694,-0.2617950439453125,-0.956451416015625,-0.07879638671875,-0.0621310137212276,-0.0033105756156146,8.57537888805382e-05
1769158076704,-0.2673187255859375,-0.9548187255859376,-0.088653564453125,-0.0652234777808189,-0.0080683128908276,-0.0092435656115412
1769158076714,-0.2670440673828125,-0.9560089111328124,-0.1019134521484375,-0.0602737255394458,-0.0139746712520718,-0.0145951882004737
1769158076724,-0.265869140625,-0.9524078369140624,-0.11627197265625,-0.0480594038963317,-0.0250225290656089,-0.0184165574610233
1769158076734,-0.2658538818359375,-0.95361328125,-0.1234893798828125,-0.0376693494617939,-0.0236115865409374,-0.0197984725236892
1769158076744,-0.2554473876953125,-0.9621734619140624,-0.1244659423828125,-0.0225425940006971,-0.0187790133059024,-0.0129429623484611
1769158076754,-0.2457733154296875,-0.9723663330078124,-0.1222381591796875,-0.0261546391993761,-0.0133762592449784,3.27568814100232e-05
1769158076764,-0.2431640625,-0.9672393798828124,-0.114105224609375,-0.0227354057133197,0.0118886176496744,0.0087514137849211
1769158076774,-0.24896240234375,-0.95794677734375,-0.11810302734375,-0.0180471781641244,0.0193257611244916,0.0106113655492663
1769158076785,-0.258026123046875,-0.9554443359375,-0.1220245361328125,-0.0127954240888357,0.0147728212177753,0.0068895975127816
1769158076794,-0.2633209228515625,-0.9554595947265624,-0.1249237060546875,-0.003989415243268,0.0024841965641826,0.0003302319673821
1769158076805,-0.2658233642578125,-0.9571380615234376,-0.124176025390625,0.0023134879302233,-0.0036269591655582,-0.010349310003221
1769158076815,-0.26837158203125,-0.9568328857421876,-0.12469482421875,0.0154407415539026,-0.0174687393009662,-0.0174322538077831
1769158076825,-0.265411376953125,-0.95477294921875,-0.1291961669921875,0.0280100628733634,-0.0271376110613346,-0.022359101101756
1769158076835,-0.260040283203125,-0.954071044921875,-0.1309814453125,0.0420566387474536,-0.0259445160627365,-0.0255631506443023
1769158076845,-0.25665283203125,-0.9582672119140624,-0.1294403076171875,0.0572718121111393,-0.016833309084177,-0.0224565733224153
1769158076855,-0.2490081787109375,-0.961700439453125,-0.1225128173828125,0.0582156367599964,-0.0042077945545315,-0.0040165795944631
1769158076865,-0.235809326171875,-0.964202880859375,-0.1075286865234375,0.0510804951190948,0.0196381490677595,0.0166974868625402
1769158076875,-0.238006591796875,-0.9676361083984376,-0.0956268310546875,0.0391788259148597,0.0208885036408901,0.0234174411743879
1769158076885,-0.2508697509765625,-0.96533203125,-0.0883331298828125,0.0204573385417461,0.0149067780002951,0.0163675211369991
1769158076895,-0.261260986328125,-0.9615631103515624,-0.0821990966796875,0.0024431839119642,0.0010210559703409,0.0040200417861342
1769158076905,-0.26654052734375,-0.959686279296875,-0.0796051025390625,-0.01729217171669,-0.0102081624791026,-0.0042480081319808
1769158076915,-0.267547607421875,-0.9600830078125,-0.0832977294921875,-0.0278294999152421,-0.0279008727520704,-0.0102635566145181
1769158076925,-0.26092529296875,-0.9575958251953124,-0.0930633544921875,-0.0293967705219984,-0.0335390530526638,-0.0107844704762101
1769158076935,-0.2578887939453125,-0.9546051025390624,-0.1064605712890625,-0.0195025950670242,-0.0250337142497301,-0.0095335841178894
1769158076945,-0.2596435546875,-0.9574127197265624,-0.1146087646484375,-0.0108635667711496,-0.0162066668272018,-0.0038093857001513
1769158076955,-0.2544097900390625,-0.9592132568359376,-0.1137847900390625,-0.0072176991961896,0.0039689089171588,0.0059819924645125
1769158076965,-0.2519073486328125,-0.960418701171875,-0.1111297607421875,-0.0034024545457214,0.0119165806099772,0.0128577416762709
1769158076975,-0.253814697265625,-0.9599609375,-0.1106109619140625,-0.0038229676429182,0.0063295350410044,0.0129376361146569
1769158076985,-0.2594146728515625,-0.9605712890625,-0.10595703125,-0.00613166205585,-0.007381749805063,0.0053862431086599
1769158076995,-0.2640838623046875,-0.958709716796875,-0.1026153564453125,-0.013431386090815,-0.0128260497003793,-0.0042605251073837
1769158077006,-0.265777587890625,-0.9582061767578124,-0.10113525390625,-0.0202906243503093,-0.0129498867318034,-0.0075447354465723
1769158077016,-0.258697509765625,-0.9598388671875,-0.104339599609375,-0.0161174517124891,-0.0171507578343153,-0.0070941285230219
1769158077026,-0.2545166015625,-0.9601593017578124,-0.1131591796875,-0.0118247019127011,-0.0193784907460212,-0.0067449882626533
1769158077036,-0.25555419921875,-0.9592437744140624,-0.116455078125,-0.0034325483720749,-0.0202610623091459,-0.0031457259319722
1769158077046,-0.2541351318359375,-0.958038330078125,-0.114990234375,0.0036421390250325,-0.0162290371954441,0.000998419127427
1769158077056,-0.2537689208984375,-0.957000732421875,-0.114288330078125,0.0082933502271771,-0.0051625375635921,0.0057047572918236
1769158077066,-0.252716064453125,-0.954010009765625,-0.110992431640625,0.0093807186931371,0.0082515385001897,0.0081351585686206
1769158077076,-0.25946044921875,-0.9514007568359376,-0.1100006103515625,0.0115490639582276,0.0087125310674309,0.0019443739438429
1769158077086,-0.265533447265625,-0.9511566162109376,-0.10504150390625,0.0013843111228197,0.014201040379703,-0.0030138993170112
1769158077096,-0.2661590576171875,-0.9569091796875,-0.095855712890625,-0.0057697384618222,0.0065809371881186,-0.0064240773208439
1769158077106,-0.2606048583984375,-0.9598846435546876,-0.0953369140625,-0.0125506790354847,-0.0065026404336094,-0.0021611552219837
1769158077116,-0.2505950927734375,-0.9640655517578124,-0.0951995849609375,-0.018392588943243,-0.0018631474813446,0.0040501351468265
1769158077126,-0.2496795654296875,-0.9671630859375,-0.099029541015625,-0.0177837908267974,-0.0019635485950857,0.0075260931625962
1769158077136,-0.254669189453125,-0.963348388671875,-0.1072845458984375,-0.0173678044229745,-0.0035116442013531,0.010964767076075
1769158077146,-0.2566986083984375,-0.9588165283203124,-0.1119384765625,-0.0091274520382285,-0.0045587993226945,0.0109746204689145
1769158077156,-0.258636474609375,-0.9567108154296876,-0.119964599609375,-0.0024708807468414,-0.0090241208672523,0.0068416609428822
1769158077166,-0.2668914794921875,-0.95489501953125,-0.1172943115234375,0.0043212450109422,0.0009845705935731,-0.0016727314796298
1769158077176,-0.2653350830078125,-0.961456298828125,-0.116607666015625,0.0062714777886867,-0.0067183566279709,-0.0068879998289048
1769158077186,-0.2587890625,-0.959381103515625,-0.11383056640625,0.0169110726565122,-0.0056267268955707,-0.0107003152370452
1769158077196,-0.260223388671875,-0.9556427001953124,-0.1139068603515625,0.0178306624293327,-0.0128345722332596,-0.0115826204419136
1769158077206,-0.255889892578125,-0.9573974609375,-0.103424072265625,0.0113695673644542,-0.0095077510923147,-0.0040464070625603
1769158077216,-0.250213623046875,-0.9600982666015624,-0.0931396484375,0.002690591616556,0.0056054214946925,0.0047028763219714
1769158077226,-0.2508087158203125,-0.96533203125,-0.087921142578125,-0.0101988418027758,0.0136660113930702,0.0150290168821811
1769158077237,-0.2448577880859375,-0.9689483642578124,-0.0834197998046875,-0.0248124059289693,0.0167424939572811,0.0245703235268592
1769158077247,-0.2471466064453125,-0.96990966796875,-0.0852203369140625,-0.0387876108288764,0.0226528476923704,0.0266254860907793
1769158077257,-0.25787353515625,-0.96142578125,-0.09368896484375,-0.0343688912689685,0.0149352736771106,0.0155115816742181
1769158077267,-0.2771759033203125,-0.94775390625,-0.108978271484375,-0.0207782480865716,0.0039699743501842,-0.0053305830806493
1769158077277,-0.2819976806640625,-0.9434356689453124,-0.1224365234375,-0.0044264402240514,-0.0102590294554829,-0.0205627996474504
1769158077287,-0.2776641845703125,-0.9445648193359376,-0.1269378662109375,0.0043105925433337,-0.0200099274516105,-0.0251772589981555
1769158077297,-0.2701568603515625,-0.9479217529296876,-0.122650146484375,0.0028208203148096,-0.0282055381685495,-0.0249146707355976
1769158077313,-0.2655029296875,-0.953125,-0.1158447265625,-0.0066096996888518,-0.0230829492211341,-0.0239282362163066
1769158077317,-0.261322021484375,-0.9564971923828124,-0.1057281494140625,-0.0203918237239122,-0.0131325796246528,-0.0181928519159555
1769158077327,-0.2528839111328125,-0.959228515625,-0.10302734375,-0.0295384507626295,-0.0053505566902458,-0.0101133538410067
1769158077337,-0.24871826171875,-0.963653564453125,-0.1049652099609375,-0.0252843182533979,0.004930043593049,-0.0035981968976557
1769158077347,-0.249725341796875,-0.9642486572265624,-0.1107177734375,-0.0201934184879064,0.0095418393611907,0.0040019322186708
1769158077357,-0.244293212890625,-0.9643096923828124,-0.113067626953125,-0.0113860787823796,0.0105285411700606,0.0095200017094612
1769158077367,-0.2509613037109375,-0.9628143310546876,-0.1162872314453125,0.0019182749092578,0.0101751396432518,0.00971254799515
1769158077379,-0.2572479248046875,-0.9593963623046876,-0.1214752197265625,0.0121709126979112,0.0022311962675303,0.0051638693548738
1769158077387,-0.2615814208984375,-0.957427978515625,-0.1179351806640625,0.0180570315569639,-0.0042999400757253,0.0032647692132741
1769158077397,-0.2624359130859375,-0.9586029052734376,-0.1124114990234375,0.0270973984152078,-0.0005126585019752,-0.0003113235288765
1769158077407,-0.263336181640625,-0.958892822265625,-0.109649658203125,0.0285640005022287,-0.0008745820960029,-0.0014788532862439
1769158077417,-0.2587432861328125,-0.959991455078125,-0.10162353515625,0.0277847591787576,0.0034876756835728,-0.0008471515611745
1769158077427,-0.255157470703125,-0.9627838134765624,-0.098846435546875,0.0229678992182016,0.002462891396135,-0.001137968734838
1769158077437,-0.2544097900390625,-0.96112060546875,-0.093414306640625,0.009180448949337,0.0005781722720712,0.0042474754154682
1769158077447,-0.2531890869140625,-0.960906982421875,-0.0843048095703125,-0.0114433364942669,0.004880775231868,0.0044591967016458
1769158077457,-0.256866455078125,-0.959686279296875,-0.0818328857421875,-0.0314660482108593,0.0041545312851667,0.0032181637361645
1769158077467,-0.2581024169921875,-0.9563446044921876,-0.083953857421875,-0.0481544807553291,-0.0032394691370427,0.0040711741894483
1769158077478,-0.26080322265625,-0.9559173583984376,-0.0904998779296875,-0.0544464625418186,0.0005597964627668,-0.0028186896815896
1769158077488,-0.2634429931640625,-0.95416259765625,-0.1028289794921875,-0.0461656302213668,0.0049982205964624,-0.0056320531293749
1769158077498,-0.261688232421875,-0.953460693359375,-0.1194915771484375,-0.0244978852570056,0.0107237510383129,-0.007995874620974
1769158077508,-0.2595062255859375,-0.9553070068359376,-0.1336212158203125,-0.0036272252909839,0.0200727768242359,0.0004154531343374
1769158077518,-0.248199462890625,-0.9628143310546876,-0.132598876953125,0.0134502947330474,0.0295118186622858,0.0141930505633354
1769158077528,-0.247039794921875,-0.9709014892578124,-0.1310882568359375,0.0213367138057947,0.0182338654994964,0.0223601665347814
1769158077538,-0.25177001953125,-0.9642791748046876,-0.130767822265625,0.0365606732666492,0.0001502022787462,0.0232997294515371
1769158077548,-0.2603912353515625,-0.958740234375,-0.1290130615234375,0.0497244112193584,-0.0021201425697654,0.015475895255804
1769158077558,-0.2672576904296875,-0.951507568359375,-0.1192474365234375,0.0525058172643184,-0.0058970376849174,0.0072677666321396
1769158077568,-0.2720947265625,-0.9509124755859376,-0.103546142578125,0.0402526147663593,-0.0106260124593973,-0.0069793462753295
1769158077578,-0.2711029052734375,-0.95263671875,-0.090789794921875,0.0185582377016544,-0.0049886330962181,-0.0121450796723365
1769158077588,-0.26300048828125,-0.9547271728515624,-0.0771942138671875,-0.0110151004046201,0.0005568669876083,-0.005102883093059
1769158077598,-0.2548980712890625,-0.9581298828125,-0.073028564453125,-0.0356440134346485,-0.0005781722720712,-0.0031957933679223
1769158077608,-0.2559051513671875,-0.959075927734375,-0.076446533203125,-0.0530837252736091,0.0065111625008285,-0.002216548891738
1769158077618,-0.255157470703125,-0.9622039794921876,-0.08697509765625,-0.057577010244131,0.0093423686921596,0.0033228259999305
1769158077628,-0.2552490234375,-0.964874267578125,-0.101348876953125,-0.0430891476571559,-0.0008562062866985,0.0029358686879277
1769158077638,-0.2554168701171875,-0.9640350341796876,-0.1168060302734375,-0.0227263513952493,-0.0100824618712067,0.0057055563665926
1769158077649,-0.259552001953125,-0.9597015380859376,-0.1266021728515625,-0.0042075281962752,-0.0168900340795516,0.0019499665359035
1769158077658,-0.2637939453125,-0.9596710205078124,-0.12847900390625,0.0110561130568385,-0.0236446093767881,0.0005728459218516
1769158077669,-0.26019287109375,-0.956512451171875,-0.126007080078125,0.0126428240910172,-0.0095343831926584,0.0047481497749686
1769158077679,-0.2529144287109375,-0.9600982666015624,-0.1178741455078125,0.0104345316067337,0.0033321471419185,0.0140558974817395
1769158077689,-0.251251220703125,-0.960113525390625,-0.1136474609375,0.0128731876611709,0.0117642479017376,0.0167723223567008
1769158077699,-0.2570953369140625,-0.9570770263671876,-0.114227294921875,0.0170602090656757,0.0126675916835665,0.0138348555192351
1769158077709,-0.2603607177734375,-0.9556427001953124,-0.1124420166015625,0.0232270248234272,0.0074145067483186,0.0123280389234423
1769158077719,-0.2583770751953125,-0.955963134765625,-0.108489990234375,0.0302830711007118,0.0116582540795207,0.0126207200810313
1769158077729,-0.2572479248046875,-0.9583282470703124,-0.1053314208984375,0.031449269503355,0.0075175710953772,0.0153208989650011
1769158077739,-0.258270263671875,-0.9579925537109376,-0.0982818603515625,0.0231431368738412,0.0100406501442193,0.0182402562350034
1769158077749,-0.2610321044921875,-0.957672119140625,-0.088104248046875,0.0079367524012923,0.0184525102376937,0.0172413047403097
1769158077759,-0.268646240234375,-0.9553680419921876,-0.0848388671875,-0.0066248793154954,0.0052120727486908,0.0102630238980054
1769158077769,-0.2718963623046875,-0.9535369873046876,-0.085968017578125,-0.024981515482068,0.0017398431664332,0.007006776984781
1769158077779,-0.2622528076171875,-0.959197998046875,-0.0867462158203125,-0.0389372780919075,0.0138774663209915,0.0104739461094141
1769158077789,-0.256011962890625,-0.96087646484375,-0.090911865234375,-0.0416640900075435,0.0010314423125237,0.0089926961809396
1769158077799,-0.2669830322265625,-0.9538421630859376,-0.0998382568359375,-0.0414046980440616,-0.0178988389670848,-0.0059175440110266
1769158077809,-0.27032470703125,-0.95001220703125,-0.1086883544921875,-0.0390768274664878,-0.0182935204356908,-0.0129687953740358
1769158077819,-0.273529052734375,-0.952484130859375,-0.1090087890625,-0.0320852324366569,-0.0223164912313222,-0.019621904939413
1769158077829,-0.2645263671875,-0.954071044921875,-0.112823486328125,-0.0200299005955457,-0.0254326555877923,-0.0142766740173101
1769158077839,-0.2564544677734375,-0.959625244140625,-0.114105224609375,-0.0149198276922106,-0.0218802653253078,-0.0093237273395061
1769158077849,-0.2502593994140625,-0.96441650390625,-0.11029052734375,-0.0167544782161712,-0.0069194249808788,0.0056373793631792
1769158077859,-0.2460174560546875,-0.965850830078125,-0.10675048828125,-0.015034875832498,0.0046368297189474,0.0120619889348745
1769158077869,-0.2556304931640625,-0.9575958251953124,-0.110748291015625,-0.0119914151728153,0.0157731045037508,0.0079521993175148
1769158077879,-0.2634124755859375,-0.95147705078125,-0.1160736083984375,-0.0042559974826872,0.0200773049145936,0.0031382690649479
1769158077892,-0.2639617919921875,-0.950408935546875,-0.118927001953125,0.0033931334037333,0.0206325743347406,0.0027073696255683
1769158077899,-0.2644195556640625,-0.95294189453125,-0.1211395263671875,0.0027265443932265,0.001186970854178,-0.0008074704091995
1769158077910,-0.2707061767578125,-0.956573486328125,-0.1151275634765625,0.0063649551011621,-0.0182418543845415,-0.0124510768800973
1769158077920,-0.275726318359375,-0.9537353515625,-0.115234375,0.0156495328992605,-0.0144053045660257,-0.0209998246282339
1769158077930,-0.266357421875,-0.9519805908203124,-0.120147705078125,0.023211047053337,-0.0226499177515506,-0.0150777529925107
1769158077940,-0.2540740966796875,-0.9563751220703124,-0.10980224609375,0.0234773624688386,-0.0174756627529859,-0.0035428032279014
1769158077950,-0.2495574951171875,-0.9630279541015624,-0.1012725830078125,0.0188314784318208,0.0014532869681715,0.0031691617332398
1769158077960,-0.249725341796875,-0.967926025390625,-0.0952301025390625,0.0110843423753976,0.011699266731739,0.01346574164927
1769158077970,-0.2438812255859375,-0.9704437255859376,-0.08978271484375,0.0003645867400337,0.0137682761996984,0.0191089790314435
1769158077980,-0.2484283447265625,-0.9700469970703124,-0.08984375,-0.0072296834550797,0.0068507157266139,0.0169355738908052
1769158077990,-0.2603302001953125,-0.960205078125,-0.0918121337890625,-0.0089389001950621,0.0073671024292707,0.0089695267379283
1769158078000,-0.2728729248046875,-0.9501190185546876,-0.0970611572265625,-0.0137016978114843,0.0106505136936903,0.0025923210196197
1769158078010,-0.27313232421875,-0.94757080078125,-0.099029541015625,-0.0157624520361423,0.0115980664268136,-0.0004186489095445
1769158078020,-0.2732391357421875,-0.946136474609375,-0.0977783203125,-0.0281578674912452,0.0044264402240514,-0.0076715019531548
1769158078030,-0.2728271484375,-0.946014404296875,-0.0970458984375,-0.0394946783781051,-0.0045316349714994,-0.0115554556250572
1769158078040,-0.2732696533203125,-0.950042724609375,-0.0972747802734375,-0.0538658946752548,-0.0133586823940277,-0.0124582676216959
1769158078050,-0.26702880859375,-0.95513916015625,-0.10015869140625,-0.0525558851659297,-0.008773517794907,-0.0135360490530729
1769158078060,-0.2592315673828125,-0.959808349609375,-0.11029052734375,-0.044532049447298,-0.0084030721336603,-0.0083524724468588
1769158078070,-0.2548980712890625,-0.963348388671875,-0.1172332763671875,-0.033536922186613,-0.0051095406524837,-0.0042069954797625
1769158078080,-0.2499847412109375,-0.9643402099609376,-0.1252899169921875,-0.0139757366850972,-0.0016823188634589,0.0006612628931179
1769158078090,-0.2536468505859375,-0.9622650146484376,-0.12896728515625,0.0008831042214296,0.0098044276237487,0.0021715415641665
1769158078100,-0.256256103515625,-0.9591217041015624,-0.1293182373046875,0.0137831903994083,0.0180106926709413,0.0043822317384183
1769158078111,-0.258270263671875,-0.9572296142578124,-0.1241607666015625,0.0292452368885278,0.018069814890623,0.0012713931500911
1769158078121,-0.259552001953125,-0.9581146240234376,-0.1227264404296875,0.0370951704680919,0.0150375394150614,0.0014708638191223
1769158078131,-0.2558746337890625,-0.9589691162109376,-0.115325927734375,0.0419834032654762,0.0177257340401411,0.0018953717080876
1769158078141,-0.258331298828125,-0.9594573974609376,-0.1082763671875,0.042027611285448,0.0265652984380722,0.0046402919106185
1769158078151,-0.25732421875,-0.959442138671875,-0.1009063720703125,0.034024279564619,0.0321832373738288,0.0098776640370488
1769158078161,-0.25567626953125,-0.9583282470703124,-0.092559814453125,0.0232965350151062,0.0222326014190912,0.0121051324531435
1769158078171,-0.2608642578125,-0.95855712890625,-0.08795166015625,0.0124822361394763,0.0253426413983106,0.0072238245047628
1769158078181,-0.2637939453125,-0.9603424072265624,-0.0905609130859375,0.0006783071439713,0.0158806964755058,0.0079719061031937
1769158078191,-0.2615966796875,-0.958282470703125,-0.0909271240234375,-0.0078472699970006,0.0176074896007776,0.0077972030267119
1769158078201,-0.26519775390625,-0.957763671875,-0.097869873046875,-0.0097301248461008,0.0117999343201518,0.0018399780383333
1769158078211,-0.26922607421875,-0.9566650390625,-0.1047821044921875,-0.0093429014086723,0.0080123860388994,-0.0058885156176984
1769158078221,-0.26800537109375,-0.95721435546875,-0.10943603515625,-0.0055992961861193,0.0054253917187452,-0.0086329029873013
1769158078231,-0.2632904052734375,-0.9572601318359376,-0.109619140625,-0.0043010050430893,-0.006058691535145,-0.0105719501152634
1769158078241,-0.2638397216796875,-0.9561309814453124,-0.106353759765625,-0.0084739122539758,-0.0083753755316138,-0.0130111398175358
1769158078251,-0.2639923095703125,-0.9553985595703124,-0.1018829345703125,-0.0163992140442132,-0.0069718891754746,-0.0130873061716556
1769158078261,-0.255157470703125,-0.9640655517578124,-0.0955810546875,-0.0376099608838558,-0.009409480728209,-0.0051830438897013
1769158078271,-0.246063232421875,-0.9686126708984376,-0.086334228515625,-0.0568076223134994,-0.0072363414801657,0.0021547635551542
1769158078282,-0.2541656494140625,-0.9593658447265624,-0.0897979736328125,-0.0656431913375854,0.0134652089327573,0.0008040083339437
1769158078291,-0.2640533447265625,-0.9534759521484376,-0.105377197265625,-0.0612242072820663,0.0045044706203043,-0.0025920546613633
1769158078302,-0.262725830078125,-0.9507598876953124,-0.1165313720703125,-0.0433029979467392,2.103897168126423e-05,-0.0055945026688277
1769158078312,-0.2652740478515625,-0.9511566162109376,-0.1307830810546875,-0.0150191634893417,-0.0070019830018281,-0.0096515621989965
1769158078322,-0.2668304443359375,-0.953857421875,-0.1399383544921875,0.0074089141562581,-0.0153099801391363,-0.0093242591246962
1769158078332,-0.2571258544921875,-0.956329345703125,-0.1355438232421875,0.0259098932147026,-0.0093008233234286,-0.0078150462359189
1769158078342,-0.2559967041015625,-0.9574432373046876,-0.130523681640625,0.041461955755949,0.003589941188693,-0.0087436903268098
1769158078352,-0.2579803466796875,-0.95880126953125,-0.124359130859375,0.0481142662465572,0.0208397675305604,-0.0037100496701896
1769158078362,-0.2539215087890625,-0.96075439453125,-0.1117706298828125,0.0446385741233825,0.0303754825145006,0.0032559807877987
1769158078372,-0.2523651123046875,-0.963043212890625,-0.0983428955078125,0.0273195058107376,0.0350184366106987,0.0073577812872827
1769158078382,-0.2579803466796875,-0.9635009765625,-0.0868377685546875,0.0045859632082283,0.0222674887627363,0.0058666775003075
1769158078392,-0.2616119384765625,-0.961669921875,-0.084320068359375,-0.0130268521606922,0.0054818508215248,-0.0013041499769315
1769158078402,-0.26495361328125,-0.9604949951171876,-0.09356689453125,-0.0201095286756753,-0.0060288640670478,-0.0089793801307678
1769158078412,-0.2630462646484375,-0.9575653076171876,-0.1008148193359375,-0.0196751672774553,-0.0094329165294766,-0.009615609422326
1769158078422,-0.25927734375,-0.957000732421875,-0.107574462890625,-0.015157913789153,-0.013063071295619,-0.0108430599793791
1769158078432,-0.2578277587890625,-0.95379638671875,-0.1160430908203125,-0.0074435351416468,-0.0135182058438658,-0.0071324780583381
1769158078442,-0.256317138671875,-0.9531097412109376,-0.11932373046875,0.0011443602852523,0.0004841626796405,6.604639202123508e-05
1769158078452,-0.2551422119140625,-0.958709716796875,-0.1197662353515625,0.0062666842713952,0.0127008818089962,0.0061798654496669
1769158078462,-0.25634765625,-0.960205078125,-0.10894775390625,0.0056474995799362,0.0282777100801467,0.0131248570978641
1769158078472,-0.2544708251953125,-0.9625244140625,-0.1058502197265625,0.0076398099772632,0.0223162248730659,0.0111051155254244
1769158078482,-0.262359619140625,-0.960540771484375,-0.1051788330078125,0.0052653355523943,0.0127251166850328,0.0018706043483689
1769158078492,-0.270538330078125,-0.957244873046875,-0.099700927734375,-0.0038400120101869,0.0088531468063592,-0.0073782876133918
1769158078502,-0.26934814453125,-0.9572906494140624,-0.0923614501953125,-0.0163347646594047,0.0044184504076838,-0.014461763203144
1769158078513,-0.264617919921875,-0.956939697265625,-0.0934600830078125,-0.0265866033732891,-0.0027507790364325,-0.0146156940609216
1769158078522,-0.2606048583984375,-0.95611572265625,-0.0972137451171875,-0.030918501317501,-0.0099628856405615,-0.0130417663604021
1769158078533,-0.2612152099609375,-0.95538330078125,-0.106597900390625,-0.023983895778656,-0.0169049482792615,-0.0172008238732814
1769158078542,-0.2586669921875,-0.9564666748046876,-0.1127166748046875,-0.0148670962080359,-0.0098566254600882,-0.0084075992926955
1769158078553,-0.2490234375,-0.9591522216796876,-0.1135101318359375,-0.0099636847153306,-0.0002644518972374,-0.0013081447687
1769158078563,-0.2548980712890625,-0.9593048095703124,-0.1145782470703125,-0.0029220203869044,0.0013494236627593,-0.0055660065263509
1769158078573,-0.2625732421875,-0.957733154296875,-0.114013671875,-0.0021307952702045,0.0133546879515051,-0.0024647556710988
1769158078583,-0.2515716552734375,-0.9619598388671876,-0.1124114990234375,0.0006189186242409,0.0174825880676507,0.0055313855409622
1769158078593,-0.25177001953125,-0.96148681640625,-0.1157073974609375,0.0082824304699897,0.0183779411017894,0.0028375980909913
1769158078603,-0.2631683349609375,-0.956695556640625,-0.1204071044921875,0.0141280693933367,0.0133837163448333,-0.0039444076828658
1769158078613,-0.2699127197265625,-0.9517974853515624,-0.1205291748046875,0.0243018772453069,0.0022578279022127,-0.0148825431242585
1769158078623,-0.2754669189453125,-0.951385498046875,-0.1195220947265625,0.033165942877531,-0.0140782687813043,-0.0262126959860324
1769158078633,-0.269683837890625,-0.9572296142578124,-0.1113739013671875,0.030810110270977,-0.0267706271260976,-0.0224168915301561
1769158078643,-0.2534637451171875,-0.9649200439453124,-0.09576416015625,0.0139038311317563,-0.0200618579983711,-0.0102334627881646
1769158078653,-0.2474212646484375,-0.967620849609375,-0.0843048095703125,-0.0009507485083304,-0.0019792614039033,-0.0028253474738448
1769158078663,-0.2490386962890625,-0.9604034423828124,-0.085418701171875,-0.0161579307168722,0.0090294480323791,-0.0002647181972861
1769158078673,-0.2562713623046875,-0.953643798828125,-0.089263916015625,-0.0286545474082231,0.0216301940381526,0.0037755635567009
1769158078683,-0.256561279296875,-0.952972412109375,-0.0953369140625,-0.0358613282442092,0.0206608027219772,0.0021867216564714
1769158078694,-0.2629241943359375,-0.9534912109375,-0.104888916015625,-0.0353049933910369,0.0187238864600658,-0.0035840822383761
1769158078703,-0.265655517578125,-0.9594268798828124,-0.112518310546875,-0.0288486927747726,-0.0018943065078929,-0.0103783383965492
1769158078713,-0.265899658203125,-0.960205078125,-0.1212921142578125,-0.0086411591619253,-0.0181102938950061,-0.021173195913434
1769158078723,-0.268157958984375,-0.9593658447265624,-0.128875732421875,0.007603857666254,-0.0202203169465065,-0.0230073146522045
1769158078733,-0.2575836181640625,-0.9552154541015624,-0.122589111328125,0.018261294811964,-0.0074195666238665,-0.023340743035078
1769158078743,-0.25592041015625,-0.9581756591796876,-0.11529541015625,0.0259016379714012,0.0024138891603797,-0.0156519301235675
1769158078754,-0.24664306640625,-0.9654998779296876,-0.109161376953125,0.0244523454457521,0.0102553004398942,0.0008785768295638
1769158078764,-0.239990234375,-0.9756317138671876,-0.0999603271484375,0.0135283255949616,0.0148814776912331,0.0114515926688909
1769158078774,-0.240234375,-0.9758453369140624,-0.092987060546875,0.0006905576447024,0.0268838126212358,0.0151842795312404
1769158078784,-0.254119873046875,-0.964263916015625,-0.0943603515625,-0.0013036173768341,0.0278667844831943,0.0036072516813874
1769158078794,-0.2686767578125,-0.9507293701171876,-0.10308837890625,0.0004380900063551,0.0205944906920194,-0.0026378610637038
1769158078804,-0.2668304443359375,-0.946624755859375,-0.10235595703125,-0.0043492084369063,0.0160948131233453,-0.006539658177644
1769158078814,-0.267059326171875,-0.9466094970703124,-0.103302001953125,-0.0043747746385633,0.0064797373488545,-0.0147786801680922
1769158078824,-0.2704620361328125,-0.9482574462890624,-0.1046600341796875,-0.010775682516396,-0.0053923684172332,-0.0223958529531955
1769158078834,-0.2658843994140625,-0.9542388916015624,-0.09765625,-0.0253831204026937,-0.0071716266684234,-0.0244928263127803
1769158078844,-0.2547454833984375,-0.9603424072265624,-0.09515380859375,-0.0363942272961139,-0.0074368771165609,-0.0139267342165112
1769158078854,-0.2470550537109375,-0.9640960693359376,-0.0989990234375,-0.0370648093521595,-0.0054357778280973,-0.009613212198019
1769158078864,-0.251678466796875,-0.9641265869140624,-0.107635498046875,-0.0207819771021604,-0.0190120413899421,-0.0118257664144039
1769158078874,-0.2520904541015625,-0.963836669921875,-0.1175537109375,-0.0220709480345249,0.011388742364943,0.0007550061563961
1769158078884,-0.248992919921875,-0.9633026123046876,-0.118896484375,-0.0123541383072733,0.0182317346334457,0.0036357475910335
1769158078894,-0.2549896240234375,-0.959747314453125,-0.1238250732421875,-0.0001408812240697,0.0176788624376058,0.0061697452329099
1769158078904,-0.2587127685546875,-0.95648193359375,-0.126373291015625,0.0099658146500587,0.0092816492542624,0.0004125236591789
1769158078914,-0.2627105712890625,-0.9575042724609376,-0.1228790283203125,0.0120167154818773,0.0139448437839746,-0.0058698733337223
1769158078924,-0.262237548828125,-0.9588623046875,-0.115814208984375,0.0164159908890724,0.0101908519864082,-0.0068099689669907
1769158078934,-0.2580413818359375,-0.958648681640625,-0.113525390625,0.0244768466800451,0.0113860787823796,-0.0040655815973877
1769158078944,-0.251861572265625,-0.9598846435546876,-0.11676025390625,0.0343859381973743,0.0150998570024967,0.0014679343439638
1769158078954,-0.250091552734375,-0.9608917236328124,-0.1120758056640625,0.0375652201473712,0.0164580699056386,0.0072011873126029
1769158078965,-0.2503814697265625,-0.9607696533203124,-0.1067657470703125,0.0383939929306507,0.019572103396058,0.0120798321440815
1769158078975,-0.2520294189453125,-0.9615936279296876,-0.0987701416015625,0.0303049087524414,0.0190711636096239,0.011478223837912
1769158078985,-0.25628662109375,-0.9610443115234376,-0.092498779296875,0.0196043271571397,0.0157632511109113,0.0091178650036454
1769158078995,-0.2651214599609375,-0.9597015380859376,-0.0869598388671875,0.0053497580811381,0.0090249199420213,-0.0020857877098023
1769158079005,-0.267547607421875,-0.9578094482421876,-0.085906982421875,-0.0094233294948935,0.0051580104045569,-0.0078358184546232
