timestamp_ms,acc_x,acc_y,acc_z,gyro_x,gyro_y,gyro_z
1768734161838,0.096710205078125,-0.4002838134765625,-0.910980224609375,0.0601368397474288,-0.0226970557123422,-0.0275298953056335
1768734161847,0.101837158203125,-0.41436767578125,-0.896087646484375,0.0506626442074775,-0.0250433012843132,-0.0257501043379306
1768734161857,0.1048736572265625,-0.4114990234375,-0.89263916015625,0.0429714359343051,-0.0051745218224823,-0.0176748670637607
1768734161867,0.112060546875,-0.41326904296875,-0.89862060546875,0.0376222096383571,-0.001603755634278,-0.0093900393694639
1768734161877,0.10870361328125,-0.422943115234375,-0.889190673828125,0.0210320483893156,-0.0063961138948798,-0.0126817068085074
1768734161890,0.1130523681640625,-0.42364501953125,-0.8914794921875,0.0147552443668246,0.0122484108433127,0.0022122878581285
1768734161898,0.119171142578125,-0.4251861572265625,-0.894073486328125,0.0147589724510908,0.0213244631886482,0.0172540880739688
1768734161908,0.1091461181640625,-0.41705322265625,-0.8984375,0.0239825639873743,0.0270156376063823,0.0190575812011957
1768734161918,0.0905609130859375,-0.406463623046875,-0.9037017822265624,0.0330016240477561,0.0267674326896667,0.0163763109594583
1768734161928,0.08795166015625,-0.4080352783203125,-0.900146484375,0.0364757180213928,0.0182442516088485,0.0106824720278382
1768734161938,0.08795166015625,-0.4109344482421875,-0.8963775634765625,0.0233711022883653,0.0006916229031048,-0.002379800658673
1768734161948,0.0869598388671875,-0.41387939453125,-0.8928375244140625,0.0087655279785394,-0.0049966229125857,-0.0189973935484886
1768734161958,0.0977325439453125,-0.41961669921875,-0.8949127197265625,-0.0002471413463354,-0.006811833474785,-0.0214821230620145
1768734161968,0.106048583984375,-0.4207611083984375,-0.902130126953125,0.0050195259973406,-0.0160482078790664,-0.0154095822945237
1768734161978,0.1067657470703125,-0.421356201171875,-0.90350341796875,0.0102630238980054,-0.0145595017820596,-0.0073420689441263
1768734161988,0.1098785400390625,-0.4261322021484375,-0.9015045166015624,0.0129152657464146,-0.0107059078291058,-0.0002471413463354
1768734161998,0.105560302734375,-0.4240570068359375,-0.8993682861328125,0.0174484979361295,-0.0111940652132034,0.0026407905388623
1768734162008,0.1032562255859375,-0.4191741943359375,-0.90289306640625,0.0246052108705043,-0.0107866013422608,0.0023742080666124
1768734162019,0.0971832275390625,-0.4160003662109375,-0.90374755859375,0.025214809924364,-0.0169062782078981,-0.0080685792490839
1768734162028,0.0909271240234375,-0.4161834716796875,-0.90191650390625,0.0273722354322671,-0.0180272031575441,-0.0157054606825113
1768734162038,0.0924835205078125,-0.41461181640625,-0.9068756103515624,0.0351055227220058,-0.0227902680635452,-0.0205279123038053
1768734162048,0.092193603515625,-0.4161376953125,-0.9041748046875,0.0381860025227069,-0.0256896503269672,-0.026747990399599
1768734162058,0.0882720947265625,-0.422088623046875,-0.89892578125,0.0394312962889671,-0.0195715706795454,-0.0281719826161861
1768734162068,0.0904693603515625,-0.4239501953125,-0.8995361328125,0.0428534559905529,-0.0123461484909057,-0.0338959135115146
1768734162078,0.0915679931640625,-0.4222412109375,-0.893310546875,0.0424494557082653,-0.0159241054207086,-0.038858450949192
1768734162089,0.0898284912109375,-0.4231109619140625,-0.891204833984375,0.0367292538285255,-0.0262510441243648,-0.0529263317584991
1768734162099,0.092254638671875,-0.415191650390625,-0.8957366943359375,0.0366112738847732,-0.0492993742227554,-0.0644889771938324
1768734162109,0.1018524169921875,-0.4167022705078125,-0.9004974365234375,0.0396350286900997,-0.0678152665495872,-0.0630356892943382
1768734162119,0.1047210693359375,-0.420013427734375,-0.89788818359375,0.0392691083252429,-0.0700581818819046,-0.0554579310119152
1768734162129,0.0923004150390625,-0.413848876953125,-0.8980712890625,0.0383846722543239,-0.0584491938352584,-0.0511060617864131
1768734162139,0.094390869140625,-0.4156341552734375,-0.897430419921875,0.0382342040538787,-0.044199950993061,-0.0479345023632049
1768734162149,0.1042938232421875,-0.4234161376953125,-0.89837646484375,0.0392640493810176,-0.0365383028984069,-0.0438793078064918
1768734162159,0.11016845703125,-0.4263916015625,-0.898712158203125,0.0359015427529811,-0.0311185047030448,-0.0428452007472515
1768734162169,0.1119537353515625,-0.4259490966796875,-0.896881103515625,0.0324298441410064,-0.0336583629250526,-0.037422738969326
1768734162179,0.1129608154296875,-0.425079345703125,-0.894012451171875,0.0269916709512472,-0.0357625260949134,-0.0301128942519426
1768734162189,0.114227294921875,-0.424560546875,-0.893951416015625,0.0295168794691562,-0.031855933368206,-0.0193979330360889
1768734162199,0.1110076904296875,-0.4244842529296875,-0.8960418701171875,0.0260931197553873,-0.0378144904971122,-0.0157805606722831
1768734162209,0.1079864501953125,-0.4219970703125,-0.8964385986328125,0.0219404529780149,-0.0549298264086246,-0.0136087527498602
1768734162219,0.109466552734375,-0.42437744140625,-0.894317626953125,0.0161603279411792,-0.0570912472903728,-0.0080597903579473
1768734162229,0.098297119140625,-0.42742919921875,-0.891693115234375,0.0069420621730387,-0.0517084673047065,-0.0042655849829316
1768734162239,0.08636474609375,-0.424530029296875,-0.8946990966796875,0.0044176517985761,-0.0373319238424301,-0.008486695587635
1768734162249,0.0961456298828125,-0.4229888916015625,-0.9027862548828124,0.0074579161591827,-0.0313320904970169,-0.0078352857381105
1768734162259,0.10791015625,-0.4235687255859375,-0.904144287109375,0.0145634962245821,-0.0414470434188842,0.0010125337867066
1768734162269,0.1123199462890625,-0.4203338623046875,-0.9105224609375,0.0268385391682386,-0.0492756702005863,0.0115477330982685
1768734162279,0.1105804443359375,-0.423797607421875,-0.9050750732421876,0.0320050716400146,-0.0543117076158523,0.018736669793725
1768734162290,0.105743408203125,-0.42852783203125,-0.892120361328125,0.0282263122498989,-0.044194359332323,0.0200911536812782
1768734162299,0.102569580078125,-0.4300384521484375,-0.891998291015625,0.0277045983821153,-0.0315379537642002,0.0262680891901254
1768734162310,0.104095458984375,-0.42315673828125,-0.9001922607421875,0.0327044166624546,-0.0293799936771392,0.02829928137362
1768734162320,0.1085205078125,-0.4223785400390625,-0.9057159423828124,0.0407935008406639,-0.0340759456157684,0.0360312387347221
1768734162330,0.1058197021484375,-0.4280548095703125,-0.9062652587890624,0.0544928014278411,-0.0356994085013866,0.0440825074911117
1768734162340,0.0960540771484375,-0.4293975830078125,-0.90106201171875,0.0659097731113433,-0.0520698577165603,0.0456455163657665
1768734162350,0.0818328857421875,-0.43121337890625,-0.8915557861328125,0.0670381560921669,-0.0618953257799148,0.0318500734865665
1768734162360,0.0748138427734375,-0.43035888671875,-0.8861846923828125,0.059759471565485,-0.0714544728398323,0.0220922529697418
1768734162370,0.0721588134765625,-0.430877685546875,-0.88543701171875,0.0503257550299167,-0.0665731653571128,0.0116595858708024
1768734162380,0.074737548828125,-0.43585205078125,-0.884857177734375,0.0449006296694278,-0.0566387772560119,0.0034775556996464
1768734162390,0.0757904052734375,-0.4347076416015625,-0.8851776123046875,0.0371079519391059,-0.0563554167747497,-0.0072629726491868
1768734162400,0.0865936279296875,-0.4309844970703125,-0.89208984375,0.0390073210000991,-0.0577642284333705,-0.014174940995872
1768734162410,0.0952606201171875,-0.43072509765625,-0.9012298583984376,0.0522464253008365,-0.0735213533043861,-0.0070366039872169
1768734162420,0.10693359375,-0.4267425537109375,-0.9151153564453124,0.0722994953393936,-0.0756233856081962,0.0140231410041451
1768734162430,0.1095733642578125,-0.42718505859375,-0.9188079833984376,0.0934079810976982,-0.0843455046415329,0.0294343214482069
1768734162440,0.0990447998046875,-0.4338531494140625,-0.9111328125,0.1045314669609069,-0.0943472757935524,0.0342557094991207
1768734162450,0.0892791748046875,-0.4380340576171875,-0.9055633544921876,0.11172866076231,-0.0865207761526107,0.0435826294124126
1768734162460,0.0738677978515625,-0.438720703125,-0.893310546875,0.1113443672657013,-0.0853628367185592,0.0431149788200855
1768734162470,0.056182861328125,-0.43975830078125,-0.8790283203125,0.1067983508110046,-0.0829548016190528,0.0364179275929927
1768734162480,0.0608367919921875,-0.438446044921875,-0.8719635009765625,0.0899125784635543,-0.0891983211040496,0.0262704864144325
1768734162490,0.06121826171875,-0.4378509521484375,-0.8580474853515625,0.0498312041163444,-0.1029511466622352,0.0051321778446435
1768734162500,0.06640625,-0.440032958984375,-0.840667724609375,-0.0045111286453902,-0.1074830517172813,-0.0157800279557704
1768734162510,0.0626068115234375,-0.4387054443359375,-0.8324432373046875,-0.0575160235166549,-0.0976458638906478,-0.0295078251510858
1768734162521,0.0533294677734375,-0.4374542236328125,-0.83648681640625,-0.1032683327794075,-0.0740728974342346,-0.0428936704993248
1768734162531,0.03912353515625,-0.4371337890625,-0.854339599609375,-0.1233775913715362,-0.060542706400156,-0.068731389939785
1768734162541,0.0524139404296875,-0.4309234619140625,-0.8713226318359375,-0.129729762673378,-0.0535609610378742,-0.0739373415708541
1768734162551,0.0681915283203125,-0.4371337890625,-0.8822174072265625,-0.1403043866157531,-0.0772705525159835,-0.081866905093193
1768734162561,0.0723876953125,-0.4430999755859375,-0.8800201416015625,-0.1613590717315673,-0.104985274374485,-0.1044542342424392
1768734162571,0.07696533203125,-0.433502197265625,-0.88763427734375,-0.1817751228809356,-0.0926212817430496,-0.1096050590276718
1768734162581,0.0798187255859375,-0.432037353515625,-0.8880462646484375,-0.1996249556541443,-0.0692363306879997,-0.1026278436183929
1768734162591,0.0767822265625,-0.4219512939453125,-0.902252197265625,-0.1885065287351608,-0.0468101166188716,-0.0978048592805862
1768734162601,0.071258544921875,-0.4124298095703125,-0.916473388671875,-0.1687125861644745,-0.0276049952954053,-0.0959299877285957
1768734162611,0.07427978515625,-0.409576416015625,-0.9300537109375,-0.1337050646543502,-0.031561654061079,-0.0892079100012779
1768734162621,0.085235595703125,-0.40911865234375,-0.937530517578125,-0.1031998917460441,-0.0425032526254653,-0.0814903303980827
1768734162631,0.0951690673828125,-0.412933349609375,-0.9336700439453124,-0.0833947584033012,-0.0599325746297836,-0.0721152052283287
1768734162641,0.0953521728515625,-0.420013427734375,-0.926605224609375,-0.0695620328187942,-0.072674736380577,-0.0633267760276794
1768734162651,0.0909271240234375,-0.4264068603515625,-0.9131927490234376,-0.0630814954638481,-0.0639153346419334,-0.0544227622449398
1768734162661,0.0860595703125,-0.4285430908203125,-0.9072723388671876,-0.056713081896305,-0.0471675135195255,-0.048752624541521
1768734162671,0.0899810791015625,-0.4311065673828125,-0.904296875,-0.0518972873687744,-0.0283176582306623,-0.0266108382493257
1768734162681,0.094207763671875,-0.42730712890625,-0.909271240234375,-0.0414457097649574,-0.0214123483747243,-0.0075058531947433
1768734162691,0.0835418701171875,-0.41986083984375,-0.9151763916015624,-0.0246709920465946,-0.0333875194191932,-0.0066621638834476
1768734162701,0.0785675048828125,-0.415924072265625,-0.9148712158203124,-0.012558402493596,-0.0428997948765754,0.0009526127250865
1768734162711,0.07464599609375,-0.4156341552734375,-0.913330078125,-0.0027939223218709,-0.0426744930446147,0.0046171224676072
1768734162722,0.0731201171875,-0.4156646728515625,-0.914276123046875,0.0084962826222181,-0.0357518717646598,0.0150995906442403
1768734162732,0.0714263916015625,-0.416473388671875,-0.911285400390625,0.0130164660513401,-0.0269943326711654,0.019683688879013
1768734162742,0.070770263671875,-0.4156951904296875,-0.910400390625,0.0238936152309179,-0.0243157260119915,0.0210823826491832
1768734162752,0.0775604248046875,-0.4171905517578125,-0.9085540771484376,0.034635741263628,-0.0372512303292751,0.0188927315175533
1768734162762,0.0782623291015625,-0.42401123046875,-0.89959716796875,0.0370427072048187,-0.0488903112709522,0.0226251520216465
1768734162772,0.07708740234375,-0.4284515380859375,-0.89385986328125,0.0325504876673221,-0.0494570322334766,0.0299110263586044
1768734162782,0.0670318603515625,-0.425384521484375,-0.886932373046875,0.0184477176517248,-0.0464670993387699,0.0273386798799037
1768734162792,0.0641326904296875,-0.4268035888671875,-0.88751220703125,0.003352120751515,-0.0404432974755764,0.0276188440620899
1768734162802,0.07147216796875,-0.4263763427734375,-0.8923797607421875,-0.0038352182600647,-0.0420489162206649,0.0375678800046443
1768734162812,0.0731964111328125,-0.418792724609375,-0.90521240234375,0.0033654365688562,-0.0443498864769935,0.0326993577182292
1768734162822,0.063873291015625,-0.4155120849609375,-0.908599853515625,0.0111466608941555,-0.0562765896320343,0.0234302245080471
1768734162832,0.0642547607421875,-0.41693115234375,-0.9084930419921876,0.0221364609897136,-0.0550195761024951,0.0241583324968814
1768734162842,0.067840576171875,-0.420562744140625,-0.9066009521484376,0.029852170497179,-0.0481318421661853,0.0270214974880218
1768734162852,0.0626220703125,-0.4213104248046875,-0.902740478515625,0.0289333816617727,-0.0522988922894001,0.0228624381124973
1768734162862,0.060455322265625,-0.4190826416015625,-0.8974151611328125,0.0206765159964561,-0.0500242859125137,0.0198807641863822
1768734162872,0.0605926513671875,-0.41705322265625,-0.8987274169921875,0.012489958666265,-0.0456758737564086,0.0114244287833571
1768734162882,0.0583343505859375,-0.4222869873046875,-0.89617919921875,0.0078227696940302,-0.0440343022346496,0.0104481130838394
1768734162892,0.0567169189453125,-0.4282684326171875,-0.8888397216796875,-0.0027632960118353,-0.0392374172806739,0.0147310094907879
1768734162902,0.0531005859375,-0.4314422607421875,-0.88848876953125,-0.0103572998195886,-0.0385798811912536,0.010399111546576
1768734162912,0.0570526123046875,-0.4291534423828125,-0.8951568603515625,-0.0112606436014175,-0.0462407320737838,0.0133043536916375
1768734162923,0.066436767578125,-0.4243927001953125,-0.91162109375,-0.0046133939176797,-0.0630822926759719,0.0108499843627214
1768734162933,0.0627899169921875,-0.4208984375,-0.9158782958984376,0.0008213188848458,-0.0881050899624824,0.0004551342281047
1768734162943,0.0543060302734375,-0.4223785400390625,-0.917449951171875,0.0039100530557334,-0.1018198356032371,-0.0187190920114517
1768734162953,0.051025390625,-0.4212188720703125,-0.923248291015625,0.0212466996163129,-0.1019194424152374,-0.0247516855597496
1768734162963,0.0521697998046875,-0.420806884765625,-0.925384521484375,0.0395479425787925,-0.0813294798135757,-0.0146178249269723
1768734162973,0.0562591552734375,-0.422821044921875,-0.9248504638671876,0.0574446506798267,-0.0583597123622894,-0.00305065093562
1768734162983,0.0570526123046875,-0.4243621826171875,-0.9141082763671876,0.0628897473216056,-0.0474972128868103,0.0032194955274462
1768734162993,0.0569000244140625,-0.4310760498046875,-0.9053497314453124,0.0660804808139801,-0.0436894223093986,0.0026756778825074
1768734163003,0.056854248046875,-0.4288787841796875,-0.9003448486328125,0.0638442263007164,-0.0442119352519512,-0.0006812366191297
1768734163013,0.0568389892578125,-0.429443359375,-0.892059326171875,0.0596750490367412,-0.047800812870264,-0.0048195226117968
1768734163023,0.0538482666015625,-0.427337646484375,-0.8892059326171875,0.0525052845478057,-0.062128085643053,-0.0098957736045122
1768734163033,0.0513763427734375,-0.4258880615234375,-0.8884429931640625,0.0454399175941944,-0.058387141674757,-0.0137235354632139
1768734163043,0.0531463623046875,-0.426025390625,-0.8903350830078125,0.0406478270888328,-0.0552648529410362,-0.0109384013339877
1768734163053,0.055023193359375,-0.42626953125,-0.890777587890625,0.0367657393217086,-0.0449584200978279,-0.0049670618027448
1768734163063,0.052398681640625,-0.425018310546875,-0.8895416259765625,0.0288572143763303,-0.0338285379111766,-0.0092869754880666
1768734163073,0.0519866943359375,-0.4297943115234375,-0.883453369140625,0.0184024423360824,-0.0316793657839298,-0.0053239255212247
1768734163083,0.0551910400390625,-0.430206298828125,-0.8842315673828125,0.0078043933026492,-0.0274555925279855,-0.0097687412053346
1768734163093,0.0513763427734375,-0.4298248291015625,-0.882293701171875,-0.0056411079131066,-0.0321749821305274,-0.012516058050096
1768734163103,0.04827880859375,-0.429656982421875,-0.8817138671875,-0.020320450887084,-0.0423045791685581,-0.0217654835432767
1768734163113,0.0452117919921875,-0.431488037109375,-0.8807830810546875,-0.0342618338763713,-0.0384957268834114,-0.0267629045993089
1768734163123,0.0410919189453125,-0.4286651611328125,-0.88232421875,-0.0484341122210025,-0.0341795422136783,-0.0354852899909019
1768734163134,0.0428619384765625,-0.4277801513671875,-0.88885498046875,-0.0558235831558704,-0.0304396655410528,-0.0443655997514724
1768734163143,0.048065185546875,-0.423980712890625,-0.8960113525390625,-0.060818076133728,-0.0353127159178257,-0.0514048673212528
1768734163154,0.05224609375,-0.4168853759765625,-0.908111572265625,-0.0534621588885784,-0.0436321645975112,-0.0537162236869335
1768734163164,0.052886962890625,-0.41375732421875,-0.9146270751953124,-0.0449791923165321,-0.0448835864663124,-0.0536600314080715
1768734163174,0.0542449951171875,-0.4188232421875,-0.91119384765625,-0.0443158000707626,-0.0459536425769329,-0.060473196208477
1768734163184,0.0545654296875,-0.4256439208984375,-0.9041748046875,-0.0423133671283721,-0.0431543961167335,-0.0581123046576976
1768734163194,0.0565032958984375,-0.4204864501953125,-0.9085235595703124,-0.0382648296654224,-0.0347396060824394,-0.0505997948348522
1768734163204,0.0496673583984375,-0.41009521484375,-0.9129486083984376,-0.0220539029687643,-0.0273432079702615,-0.0572017692029476
1768734163214,0.0447540283203125,-0.41937255859375,-0.902862548828125,-0.0168311782181262,-0.0271117780357599,-0.0675638616085052
1768734163224,0.051971435546875,-0.423797607421875,-0.8982696533203125,-0.0100800646468997,-0.0178924482315778,-0.0532075613737106
1768734163234,0.0650634765625,-0.434600830078125,-0.89508056640625,-0.0118015315383672,-0.0241660568863153,-0.0418582335114479
1768734163244,0.0612945556640625,-0.4322052001953125,-0.8919525146484375,-0.0196322910487651,-0.020822724327445,-0.0431261658668518
1768734163254,0.0517120361328125,-0.4305267333984375,-0.8925018310546875,-0.0314223729074001,-0.0135632129386067,-0.0488631464540958
1768734163264,0.042938232421875,-0.429534912109375,-0.894012451171875,-0.0352320224046707,-0.0010615360224619,-0.0546837523579597
1768734163274,0.0369110107421875,-0.4193572998046875,-0.9063262939453124,-0.0206634663045406,0.0098712723702192,-0.0619547143578529
1768734163284,0.0334625244140625,-0.4095611572265625,-0.9149932861328124,-0.0032330774702131,0.0088102696463465,-0.0637624710798263
1768734163294,0.0404510498046875,-0.4073944091796875,-0.91741943359375,0.0164476819336414,-0.0064571001566946,-0.0590233728289604
1768734163304,0.051788330078125,-0.40802001953125,-0.91839599609375,0.0262787416577339,-0.0219889227300882,-0.0476719141006469
1768734163314,0.053985595703125,-0.4144439697265625,-0.9122314453125,0.0292958375066518,-0.0301973167806863,-0.0428145751357078
1768734163324,0.0505218505859375,-0.4228973388671875,-0.898193359375,0.022061625495553,-0.0369449667632579,-0.0517135262489318
1768734163334,0.05682373046875,-0.4308319091796875,-0.8877716064453125,0.0074496604502201,-0.0374158136546611,-0.0496415868401527
1768734163344,0.0641632080078125,-0.429443359375,-0.891204833984375,0.0042197788134217,-0.0324135981500148,-0.0371692068874836
1768734163355,0.0671844482421875,-0.4280548095703125,-0.8978424072265625,0.0008351673022843,-0.0264438576996326,-0.0245679263025522
1768734163365,0.064117431640625,-0.4247589111328125,-0.900665283203125,-0.0020381172653287,-0.0151730934157967,-0.0050128679722547
1768734163375,0.0557708740234375,-0.42236328125,-0.905487060546875,-0.0024098944850265,-0.0006753776688128,0.0016857809387147
1768734163385,0.050140380859375,-0.421630859375,-0.9061279296875,-0.0017374462913721,0.0040834248065948,0.0038703719619661
1768734163395,0.0542755126953125,-0.4198760986328125,-0.9165191650390624,0.0098478365689516,0.0118353543803095,0.0068264808505773
1768734163405,0.05865478515625,-0.418243408203125,-0.923492431640625,0.0238134544342756,0.0005640574963763,0.0065636266954243
1768734163415,0.05645751953125,-0.421173095703125,-0.9156494140625,0.0325669981539249,-0.0213465671986341,0.0089716566726565
1768734163425,0.055694580078125,-0.4217529296875,-0.910369873046875,0.0405210591852664,-0.0240968149155378,0.0083418190479278
1768734163435,0.0533905029296875,-0.4234161376953125,-0.9043121337890624,0.040140762925148,-0.0300750788301229,0.0129405660554766
1768734163445,0.0518341064453125,-0.42864990234375,-0.8953704833984375,0.0353566594421863,-0.0294260662049055,0.0170157346874475
1768734163455,0.0514678955078125,-0.4319000244140625,-0.8884429931640625,0.0290010254830122,-0.0265695583075284,0.0266856737434864
1768734163465,0.053924560546875,-0.427581787109375,-0.8917999267578125,0.0267360061407089,-0.0169994905591011,0.0313422083854675
1768734163475,0.0567626953125,-0.4263916015625,-0.895599365234375,0.0258092265576124,-0.0244566071778535,0.0394691117107868
1768734163485,0.0704345703125,-0.4265594482421875,-0.90631103515625,0.0358059331774711,-0.0152439335361123,0.0579320080578327
1768734163495,0.0761260986328125,-0.422576904296875,-0.9173126220703124,0.0607496351003646,-0.0086318375542759,0.0806053653359413
1768734163505,0.0608673095703125,-0.41717529296875,-0.918060302734375,0.0803515613079071,-0.0114172380417585,0.0861580520868301
1768734163515,0.039581298828125,-0.420867919921875,-0.9030914306640624,0.0854573771357536,-0.0148037131875753,0.0791645944118499
1768734163525,0.0295562744140625,-0.4270477294921875,-0.896270751953125,0.0835699960589408,-0.0102233430370688,0.065410166978836
1768734163535,0.0319976806640625,-0.4276580810546875,-0.8947296142578125,0.0792087987065315,-0.0091998903080821,0.0574824661016464
1768734163546,0.037841796875,-0.4270172119140625,-0.8971710205078125,0.0762425735592842,-0.0084091974422335,0.053487192839384
1768734163556,0.0430908203125,-0.42529296875,-0.9002685546875,0.0735104382038116,-0.0201614610850811,0.0535918548703193
1768734163565,0.038238525390625,-0.4317474365234375,-0.8889923095703125,0.0643611475825309,-0.0360570698976516,0.0514474771916866
1768734163576,0.0320587158203125,-0.4375762939453125,-0.8809967041015625,0.0536179542541503,-0.0382512472569942,0.0434193797409534
1768734163586,0.0309600830078125,-0.4350433349609375,-0.8788604736328125,0.0429061874747276,-0.0433749035000801,0.0343270823359489
1768734163596,0.032806396484375,-0.43402099609375,-0.8765106201171875,0.028079304844141,-0.0486799217760562,0.0248459614813327
1768734163606,0.0342864990234375,-0.4383544921875,-0.875274658203125,0.0080826934427022,-0.0462425947189331,0.0158716402947902
1768734163616,0.0311126708984375,-0.4387054443359375,-0.873138427734375,-0.0132995601743459,-0.0384722910821437,0.0065561700612306
1768734163626,0.029022216796875,-0.4364013671875,-0.878662109375,-0.029447104781866,-0.0338045693933963,-0.0040482711046934
1768734163636,0.0322113037109375,-0.43475341796875,-0.8866424560546875,-0.0397364944219589,-0.019332418218255,-0.0075593828223645
1768734163646,0.0380706787109375,-0.427886962890625,-0.899169921875,-0.0432255007326602,-0.0122324312105774,-0.0087210536003112
1768734163656,0.0412750244140625,-0.4272003173828125,-0.903228759765625,-0.0424819476902484,-0.0071034496650099,-0.0157515332102775
1768734163666,0.0436553955078125,-0.430572509765625,-0.9038543701171876,-0.0391601845622062,-0.0079047949984669,-0.0168543476611375
1768734163676,0.043487548828125,-0.4311981201171875,-0.902923583984375,-0.0386605784296989,-0.0069037126377224,-0.017723336815834
1768734163686,0.0453948974609375,-0.430206298828125,-0.9019622802734376,-0.0341451875865459,-0.002959837205708,-0.0178165473043918
1768734163696,0.0481109619140625,-0.4302978515625,-0.900177001953125,-0.0329619459807872,-0.0061423145234584,-0.0189867410808801
1768734163706,0.046905517578125,-0.434356689453125,-0.892913818359375,-0.0342394635081291,-0.0060283313505351,-0.0186423938721418
1768734163716,0.0428924560546875,-0.4336395263671875,-0.8864898681640625,-0.0434044636785984,-0.0010213222121819,-0.0161515399813652
1768734163726,0.0379486083984375,-0.4348297119140625,-0.8812255859375,-0.051849614828825,0.0079154474660754,-0.01710787974298
1768734163736,0.0343780517578125,-0.4354248046875,-0.8812103271484375,-0.0602335110306739,0.017534252256155,-0.0172010902315378
1768734163746,0.039306640625,-0.432281494140625,-0.89178466796875,-0.0596806406974792,0.0243157260119915,-0.0193896759301424
1768734163757,0.044525146484375,-0.4289398193359375,-0.8979034423828125,-0.0558853708207607,0.0151030523702502,-0.0182903241366148
1768734163766,0.0447998046875,-0.42864990234375,-0.8982086181640625,-0.0588057935237884,0.0142151545733213,-0.0138646829873323
1768734163777,0.0355682373046875,-0.428497314453125,-0.8993072509765625,-0.0564225278794765,0.0115373460575938,-0.015098525211215
1768734163787,0.0310516357421875,-0.4269866943359375,-0.902862548828125,-0.0497606322169303,0.0141917187720537,-0.0157201066613197
1768734163797,0.0297393798828125,-0.4278411865234375,-0.903106689453125,-0.0432268343865871,0.0166460890322923,-0.0202032718807458
1768734163807,0.0395660400390625,-0.42742919921875,-0.9101409912109376,-0.0309256911277771,0.0213926397264003,-0.0176330562680959
1768734163817,0.0491180419921875,-0.430908203125,-0.9136199951171876,-0.0158476717770099,0.0146596366539597,-0.0098915128037333
1768734163827,0.0509796142578125,-0.4327392578125,-0.91064453125,-0.0106683569028973,0.0108774146065115,-0.0018149443203583
1768734163837,0.0394287109375,-0.430389404296875,-0.9016571044921876,-0.0152010573074221,0.0043420176953077,-0.0019702066201716
1768734163847,0.0296783447265625,-0.4273681640625,-0.8952178955078125,-0.0264369342476129,0.0009771138429641,-0.0095349159091711
1768734163857,0.028839111328125,-0.4300384521484375,-0.89727783203125,-0.0350211001932621,-0.0124422889202833,-0.0231870785355567
1768734163867,0.033966064453125,-0.43438720703125,-0.89874267578125,-0.0425160340964794,-0.0177816599607467,-0.0253026932477951
1768734163877,0.0333404541015625,-0.430328369140625,-0.9078826904296876,-0.0382102355360984,-0.0090467585250735,-0.025513082742691
1768734163887,0.0224609375,-0.41912841796875,-0.9215545654296876,-0.0151334125548601,-0.0078597869724035,-0.0363803766667842
1768734163897,0.030120849609375,-0.4248046875,-0.9168243408203124,-0.0055878446437418,-0.0117509318515658,-0.0422044433653354
1768734163907,0.0452728271484375,-0.422271728515625,-0.919952392578125,0.0073748254217207,-0.0076874806545674,-0.0354107208549976
1768734163917,0.05889892578125,-0.4297027587890625,-0.9196319580078124,0.0200059320777654,-0.0105154914781451,-0.01710787974298
1768734163927,0.060943603515625,-0.4343109130859375,-0.9068603515625,0.0216752011328935,-0.009253685362637,-0.0138729382306337
1768734163937,0.05804443359375,-0.437103271484375,-0.89208984375,0.0134297888725996,-0.0037430729717016,-0.0068115671165287
1768734163947,0.05352783203125,-0.4317474365234375,-0.8855438232421875,0.0068328725174069,0.0033822145778685,-0.001267664716579
1768734163957,0.0487823486328125,-0.42108154296875,-0.8948974609375,0.0145038412883877,0.0214035585522651,-0.0014828480780124
1768734163967,0.040557861328125,-0.4154815673828125,-0.8980712890625,0.0189358741044998,0.0268252231180667,-0.0036527917254716
1768734163977,0.0404052734375,-0.418609619140625,-0.8914337158203125,0.0136926425620913,0.0297174155712127,-0.0080834925174713
1768734163988,0.0412445068359375,-0.4254608154296875,-0.8812103271484375,-0.0063335294835269,0.030499318614602,-0.009181248024106
1768734163998,0.043365478515625,-0.4274749755859375,-0.8778839111328125,-0.0241506099700927,0.0270574502646923,-0.0085034733638167
1768734164008,0.047821044921875,-0.427520751953125,-0.880279541015625,-0.0381942577660083,0.0285810437053442,-0.0064136907458305
1768734164018,0.051361083984375,-0.431549072265625,-0.882476806640625,-0.0434500053524971,0.0357073955237865,-0.0037025928031653
1768734164028,0.05108642578125,-0.43280029296875,-0.887298583984375,-0.043234821408987,0.0475576668977737,0.0016583503456786
1768734164038,0.0530242919921875,-0.430328369140625,-0.8943023681640625,-0.0432252362370491,0.0523183308541774,0.0068041100166738
1768734164048,0.04541015625,-0.4302215576171875,-0.8975067138671875,-0.0416387878358364,0.053054429590702,0.0064531057141721
1768734164058,0.035858154296875,-0.4262847900390625,-0.900665283203125,-0.040121853351593,0.0468098483979702,0.002599777886644
1768734164068,0.0347442626953125,-0.4232330322265625,-0.9039306640625,-0.0333435758948326,0.0472601912915706,0.0010018812026828
1768734164078,0.0291290283203125,-0.420654296875,-0.904449462890625,-0.0248289164155721,0.0468476675450801,-0.0086789755150675
1768734164088,0.0185394287109375,-0.42034912109375,-0.9040679931640624,-0.0213897116482257,0.0433136522769928,-0.0268071126192808
1768734164098,0.020721435546875,-0.4158782958984375,-0.908477783203125,-0.0144652258604764,0.0562009550631046,-0.0360211171209812
1768734164108,0.0281524658203125,-0.414642333984375,-0.910797119140625,-0.0080435452982783,0.0576763451099395,-0.0424715615808963
1768734164118,0.0368499755859375,-0.41741943359375,-0.9105224609375,-0.0048983520828187,0.0534142218530178,-0.0460242182016372
1768734164128,0.0433502197265625,-0.419036865234375,-0.9108428955078124,-0.0041468082927167,0.048383243381977,-0.0542453937232494
1768734164138,0.0467071533203125,-0.4225006103515625,-0.9114990234375,0.0008090683259069,0.033847976475954,-0.0558608695864677
1768734164148,0.0506134033203125,-0.4232940673828125,-0.909820556640625,0.0032162996940314,0.0347579792141914,-0.0610841251909732
1768734164158,0.0417327880859375,-0.4224853515625,-0.9031829833984376,-0.0020407803822308,0.0395511388778686,-0.0702773556113243
1768734164168,0.0416259765625,-0.4274444580078125,-0.899871826171875,-0.0034969968255609,0.0421937927603721,-0.0749911516904831
1768734164179,0.0471649169921875,-0.423126220703125,-0.90301513671875,-0.0025132251903414,0.040837712585926,-0.0818272233009338
1768734164189,0.0516815185546875,-0.4187164306640625,-0.9098663330078124,0.0075695025734603,0.0428015254437923,-0.0804096236824989
1768734164198,0.0645599365234375,-0.4218902587890625,-0.9131927490234376,0.0193281583487987,0.041814025491476,-0.0685825198888778
1768734164209,0.073455810546875,-0.4263458251953125,-0.909820556640625,0.0267509203404188,0.0324341058731079,-0.0568992346525192
1768734164219,0.075531005859375,-0.422607421875,-0.910980224609375,0.0327342450618743,0.0146910613402724,-0.0494754090905189
1768734164229,0.074615478515625,-0.42535400390625,-0.9019775390625,0.0332437083125114,0.0060962419956922,-0.03468794003129
1768734164239,0.0713348388671875,-0.4303131103515625,-0.8953704833984375,0.0292140785604715,0.01361168269068,-0.0195055250078439
1768734164249,0.066314697265625,-0.4318389892578125,-0.885284423828125,0.0183305367827415,0.0235402137041091,-0.0088424934074282
1768734164259,0.06463623046875,-0.432159423828125,-0.882720947265625,0.0031513185240328,0.0401263795793056,-0.0013643373968079
1768734164269,0.0660247802734375,-0.4337005615234375,-0.8835906982421875,-0.0074432687833905,0.0519473552703857,0.0051622712053358
1768734164279,0.0664825439453125,-0.4308929443359375,-0.8918914794921875,-0.0150545835494995,0.045150700956583,0.0081601915881037
1768734164289,0.0700836181640625,-0.430633544921875,-0.9033660888671876,-0.018851451575756,0.0335566289722919,0.0092355767264962
1768734164299,0.0776824951171875,-0.430267333984375,-0.915374755859375,-0.0092337122187018,0.0228656344115734,0.0226603057235479
1768734164309,0.07342529296875,-0.4293060302734375,-0.9225311279296876,0.0064243436791002,0.0071902684867382,0.0305243525654077
1768734164319,0.0681304931640625,-0.4272613525390625,-0.9248046875,0.0203766450285911,0.0062033012509346,0.0365766547620296
1768734164329,0.0609588623046875,-0.4257354736328125,-0.915924072265625,0.0271647758781909,0.0061425808817148,0.0388043858110904
1768734164339,0.0556488037109375,-0.4252471923828125,-0.9122467041015624,0.0333140157163143,0.0140343261882662,0.038067489862442
1768734164349,0.052734375,-0.4256439208984375,-0.9066162109375,0.0324426293373107,0.0174367800354957,0.0393708422780036
1768734164359,0.054412841796875,-0.4265594482421875,-0.9016265869140624,0.0315219722688198,0.0213313866406679,0.0393362194299697
1768734164369,0.0578460693359375,-0.42523193359375,-0.8942413330078125,0.0282132625579834,0.0231407396495342,0.0385061129927635
1768734164379,0.0546417236328125,-0.4220733642578125,-0.8887786865234375,0.0206951592117548,0.0187318753451108,0.0325238555669784
1768734164389,0.058929443359375,-0.42010498046875,-0.8897247314453125,0.0173875130712986,0.0233205016702413,0.0238933488726615
1768734164399,0.065582275390625,-0.4247283935546875,-0.888916015625,0.0116851516067981,0.0245905648916959,0.0249551516026258
1768734164409,0.06390380859375,-0.4268341064453125,-0.8823394775390625,0.0022871226537972,0.028267590329051,0.0201912876218557
1768734164420,0.05865478515625,-0.4214935302734375,-0.8802032470703125,-0.005593969952315,0.0300825349986553,0.0219545681029558
1768734164430,0.0645599365234375,-0.425201416015625,-0.8857574462890625,-0.0068903965875506,0.0525875762104988,0.0324396975338459
1768734164440,0.0623016357421875,-0.4268646240234375,-0.8860015869140625,-0.00613166205585,0.0612388551235199,0.0339055024087429
1768734164450,0.0547027587890625,-0.4214324951171875,-0.889007568359375,-0.0087847029790282,0.0533519051969051,0.0249413028359413
1768734164460,0.052642822265625,-0.417755126953125,-0.8909759521484375,-0.0154934721067547,0.0372906476259231,0.013644172810018
1768734164470,0.05828857421875,-0.423065185546875,-0.8924560546875,-0.0162412878125906,0.0286406986415386,0.0088195903226733
1768734164480,0.05908203125,-0.4245758056640625,-0.89141845703125,-0.0158535316586494,0.0258369240909814,0.0021121529862284
1768734164490,0.0535430908203125,-0.4232330322265625,-0.88555908203125,-0.0230382066220045,0.030572822317481,-0.0053132725879549
1768734164500,0.056732177734375,-0.42315673828125,-0.8889312744140625,-0.0252212006598711,0.0475358255207538,-0.0092709958553314
1768734164510,0.064453125,-0.4262542724609375,-0.8934478759765625,-0.0257181469351053,0.0555482134222984,-0.0076427394524216
1768734164520,0.0720062255859375,-0.42523193359375,-0.8948822021484375,-0.0170578137040138,0.0551069267094135,0.0018263958627358
1768734164530,0.0742034912109375,-0.4214324951171875,-0.899993896484375,-0.0137530965730547,0.0527103506028652,0.013513677753508
1768734164540,0.0752716064453125,-0.4214630126953125,-0.90081787109375,-0.0150330113247036,0.050837080925703,0.0237633865326643
1768734164550,0.06768798828125,-0.4297943115234375,-0.8952484130859375,-0.0263639632612466,0.0443714596331119,0.0193127114325761
1768734164560,0.0579376220703125,-0.4300079345703125,-0.8916778564453125,-0.0380483157932758,0.0328482277691364,0.0149011854082345
1768734164570,0.05615234375,-0.4228057861328125,-0.9033660888671876,-0.0383431278169155,0.0344621017575264,0.0126260463148355
1768734164580,0.0543212890625,-0.4203338623046875,-0.9193572998046876,-0.0193872805684804,0.0367668010294437,0.0064120930619537
1768734164590,0.0622100830078125,-0.427093505859375,-0.9194183349609376,-0.0053590792231261,0.0366070121526718,0.0074254255741834
1768734164601,0.07110595703125,-0.4258575439453125,-0.9282073974609376,0.0194498635828495,0.0500578396022319,0.0196826253086328
1768734164610,0.0780181884765625,-0.4338226318359375,-0.9233551025390624,0.036213930696249,0.0474346280097961,0.0349116437137126
1768734164621,0.0710601806640625,-0.4365997314453125,-0.909759521484375,0.0397042706608772,0.0319784395396709,0.0457155555486679
1768734164631,0.0586090087890625,-0.4366912841796875,-0.8947601318359375,0.0256976392120122,0.0262262783944606,0.049572080373764
1768734164641,0.0416412353515625,-0.4295654296875,-0.884490966796875,0.0104097640141844,0.0179843269288539,0.0376427173614501
1768734164651,0.0281219482421875,-0.422088623046875,-0.8820953369140625,-0.0029545109719038,0.0226704254746437,0.0143789388239383
1768734164661,0.0294647216796875,-0.4163360595703125,-0.8861083984375,-0.0110947294160723,0.0342575721442699,-0.004383030347526
1768734164671,0.032318115234375,-0.4184417724609375,-0.885711669921875,-0.0199457444250583,0.0291166063398122,-0.0188477244228124
1768734164681,0.0403289794921875,-0.4221038818359375,-0.889739990234375,-0.0340501107275486,0.0361007452011108,-0.0359183214604854
1768734164691,0.051361083984375,-0.4238433837890625,-0.89697265625,-0.0411128140985965,0.0370128788053989,-0.039328496903181
1768734164701,0.0610504150390625,-0.4208831787109375,-0.90966796875,-0.0355585254728794,0.045697446912527,-0.034858115017414
1768734164711,0.0648956298828125,-0.4164886474609375,-0.921173095703125,-0.0242653917521238,0.048050083220005,-0.0348088480532169
1768734164721,0.055389404296875,-0.4196319580078125,-0.9235076904296876,-0.0097338538616895,0.0405966937541961,-0.0467379428446292
1768734164731,0.0522613525390625,-0.4239044189453125,-0.920501708984375,-0.0030368026345968,0.0263011120259761,-0.0565503612160682
1768734164741,0.05743408203125,-0.426177978515625,-0.9192047119140624,0.0031707596499472,0.0246086735278368,-0.0666866153478622
1768734164751,0.0615234375,-0.4268798828125,-0.9184417724609376,0.0111272195354104,0.0087969535961747,-0.0757634714245796
1768734164761,0.0725250244140625,-0.4260101318359375,-0.9179840087890624,0.0217468403279781,0.0003581951605156,-0.07219909876585
1768734164771,0.0836029052734375,-0.42266845703125,-0.9204559326171876,0.0402944274246692,-0.0046592000871896,-0.0621501915156841
1768734164781,0.084930419921875,-0.4248046875,-0.9137115478515624,0.056028913706541,-0.018688466399908,-0.0547319538891315
1768734164791,0.08514404296875,-0.4273529052734375,-0.901947021484375,0.0567540936172008,-0.0108380001038312,-0.043177030980587
1768734164801,0.0791168212890625,-0.4345703125,-0.8899383544921875,0.0499406605958938,0.0019294602097943,-0.0387079790234565
1768734164812,0.0832672119140625,-0.4385528564453125,-0.8878936767578125,0.0466314181685447,0.0138625521212816,-0.0273570548743009
1768734164822,0.0994720458984375,-0.437347412109375,-0.889434814453125,0.0469243638217449,0.0182202830910682,-0.0059708072803914
1768734164832,0.1097564697265625,-0.4364776611328125,-0.8889617919921875,0.0410401113331317,0.0187337398529052,0.0209678653627634
1768734164842,0.110595703125,-0.433929443359375,-0.883331298828125,0.0288588125258684,0.01017726957798,0.0472452752292156
1768734164852,0.1013031005859375,-0.4354248046875,-0.87530517578125,0.0077058565802872,0.0046767769381403,0.0699516534805297
1768734164862,0.0930633544921875,-0.439453125,-0.867919921875,-0.0188953932374715,-0.0067002470605075,0.0840046256780624
1768734164872,0.0810546875,-0.433837890625,-0.8707733154296875,-0.0436657220125198,-0.0141507061198353,0.0883921831846237
1768734164882,0.0743255615234375,-0.426788330078125,-0.8861846923828125,-0.0519646629691123,-0.013554691337049,0.0887857973575592
1768734164892,0.0765533447265625,-0.4315338134765625,-0.8939666748046875,-0.0537551082670688,-0.0182378590106964,0.0917099490761756
1768734164902,0.0837249755859375,-0.43505859375,-0.8998260498046875,-0.0502530522644519,-0.0215702727437019,0.1024478152394294
1768734164912,0.082733154296875,-0.431304931640625,-0.91253662109375,-0.0335276015102863,-0.0211060848087072,0.1059168428182601
1768734164922,0.0740814208984375,-0.429351806640625,-0.914764404296875,-0.0155398109927773,-0.0200573317706584,0.1042302623391151
1768734164932,0.0645599365234375,-0.4286651611328125,-0.91021728515625,-0.0045255096629261,-0.0036458675749599,0.0951382368803024
1768734164942,0.059326171875,-0.430908203125,-0.90625,0.0058858525007963,0.0102795353159308,0.0920004993677139
1768734164952,0.061920166015625,-0.43109130859375,-0.9033050537109376,0.0133408391848206,0.0224637631326913,0.09610016644001
1768734164962,0.05633544921875,-0.4285430908203125,-0.896759033203125,0.0161499418318271,0.0210136715322732,0.093180276453495
1768734164972,0.0458526611328125,-0.4275360107421875,-0.8870849609375,0.0093199983239173,0.0228717606514692,0.0846624225378036
1768734164984,0.0340728759765625,-0.4245758056640625,-0.8824920654296875,-0.0137943755835294,0.0006865629111416,0.0406014882028102
1768734164992,0.0278778076171875,-0.4236602783203125,-0.877471923828125,-0.0137943755835294,0.0006865629111416,0.0406014882028102
1768734165002,0.0233001708984375,-0.4298858642578125,-0.870697021484375,-0.0354879535734653,-0.0042461440898478,0.0183600988239049
1768734165012,0.0175018310546875,-0.428375244140625,-0.87261962890625,-0.0560584738850593,-0.0130609404295682,-0.0126297753304243
1768734165023,0.0207366943359375,-0.4251708984375,-0.8819732666015625,-0.0669681131839752,-0.0202562697231769,-0.0388493947684764
1768734165032,0.0358428955078125,-0.428924560546875,-0.8925323486328125,-0.0678261816501617,-0.0319739133119583,-0.0562712624669075
1768734165043,0.051666259765625,-0.42803955078125,-0.9008636474609376,-0.0619371384382247,-0.0390113145112991,-0.0589261688292026
1768734165053,0.0608673095703125,-0.429718017578125,-0.9080657958984376,-0.0494290702044963,-0.0335907153785228,-0.0514381565153598
1768734165063,0.064300537109375,-0.434478759765625,-0.90960693359375,-0.0364642664790153,-0.0209590774029493,-0.0472537986934185
1768734165073,0.0684356689453125,-0.4329986572265625,-0.90966796875,-0.0242115966975688,-0.0123386913910508,-0.0361569374799728
1768734165083,0.0836334228515625,-0.427642822265625,-0.9199676513671876,-0.0041774343699216,-0.01446842122823,-0.0164127945899963
1768734165093,0.096832275390625,-0.43060302734375,-0.9239501953125,0.019269835203886,-0.0181385241448879,0.0110398679971694
1768734165103,0.0853118896484375,-0.4334564208984375,-0.9163055419921876,0.0365215241909027,-0.0323555432260036,0.0242446195334196
1768734165113,0.0677947998046875,-0.43365478515625,-0.9049530029296876,0.0440846383571624,-0.0323606021702289,0.0321387611329555
1768734165123,0.05902099609375,-0.433502197265625,-0.8956756591796875,0.0414547659456729,-0.0191574487835168,0.0339987128973007
1768734165133,0.0498504638671875,-0.4354705810546875,-0.8872222900390625,0.0360211171209812,-0.0078467382118105,0.0272899437695741
1768734165143,0.0489654541015625,-0.4373321533203125,-0.8852081298828125,0.0272257626056671,0.0044413534924387,0.0170338451862335
1768734165153,0.0548095703125,-0.4300384521484375,-0.8912506103515625,0.0226158294826746,0.0169744566082954,0.0090155992656946
1768734165163,0.0641326904296875,-0.4293670654296875,-0.8941650390625,0.0193792898207902,0.0221031717956066,0.006632070057094
1768734165173,0.0690460205078125,-0.43267822265625,-0.8895416259765625,0.0120779676362872,0.0256526321172714,0.0059359199367463
1768734165183,0.067626953125,-0.43017578125,-0.8850555419921875,0.0049241846427321,0.0282004792243242,0.0038152446504682
1768734165193,0.0680999755859375,-0.4273834228515625,-0.8804931640625,-0.007799866143614,0.0297866575419902,0.0050560114905238
1768734165203,0.0635833740234375,-0.428192138671875,-0.8740997314453125,-0.0191942006349563,0.0276265684515237,0.0036456012167036
1768734165213,0.057891845703125,-0.430389404296875,-0.8729095458984375,-0.0302021112293005,0.0345976576209068,0.0029960561078041
1768734165223,0.057373046875,-0.429901123046875,-0.8752899169921875,-0.0428545214235782,0.0443203262984752,0.0041524008847773
1768734165233,0.0651397705078125,-0.43389892578125,-0.8744049072265625,-0.0607775971293449,0.0485417023301124,0.00384400668554
1768734165244,0.068878173828125,-0.4355926513671875,-0.8781890869140625,-0.0717215910553932,0.042826559394598,0.0008287757518701
1768734165254,0.0655975341796875,-0.426361083984375,-0.8914642333984375,-0.0745847523212432,0.0417429208755493,0.0044101946987211
1768734165264,0.0591278076171875,-0.426177978515625,-0.9025726318359376,-0.0593831650912761,0.0369827859103679,-0.0078035946935415
1768734165274,0.064697265625,-0.4324951171875,-0.89654541015625,-0.0591104589402675,0.0275852885097265,-0.0047137951478362
1768734165284,0.0648651123046875,-0.424774169921875,-0.9066314697265624,-0.0482226572930812,0.0433024652302265,0.0052909022197127
1768734165294,0.0609588623046875,-0.428680419921875,-0.904541015625,-0.0407389067113399,0.0412172116339206,0.0016964336391538
1768734165304,0.05792236328125,-0.433013916015625,-0.8967132568359375,-0.0446979627013206,0.0325768515467643,-0.0057622818276286
1768734165314,0.0625,-0.434051513671875,-0.8958587646484375,-0.0453922487795352,0.0273506641387939,-0.0050831753760576
1768734165324,0.0665130615234375,-0.4354095458984375,-0.8985595703125,-0.0426989942789077,0.022833677008748,-0.0049689258448779
1768734165334,0.059844970703125,-0.4320526123046875,-0.89984130859375,-0.0344091057777404,0.0095833847299218,-0.0125466845929622
1768734165344,0.0538330078125,-0.422454833984375,-0.9055938720703124,-0.0240203812718391,0.0135094169527292,-0.0183228142559528
1768734165354,0.055511474609375,-0.424346923828125,-0.9034423828125,-0.019334016367793,0.0142058338969945,-0.0201137904077768
1768734165364,0.0583038330078125,-0.4252471923828125,-0.8969268798828125,-0.0252736657857894,0.0131666678935289,-0.0198831614106893
1768734165374,0.0662689208984375,-0.422943115234375,-0.897125244140625,-0.0320303700864315,0.0104097640141844,-0.0123338978737592
1768734165385,0.073150634765625,-0.427215576171875,-0.8927459716796875,-0.0363505519926548,0.004455734975636,-0.004365187138319
1768734165394,0.06787109375,-0.4270782470703125,-0.897308349609375,-0.037436056882143,0.011510981246829,-0.005608350969851
1768734165404,0.0626373291015625,-0.4293365478515625,-0.8888702392578125,-0.0461520478129386,0.0133879771456122,-0.0141405863687396
1768734165414,0.0606231689453125,-0.4320220947265625,-0.885345458984375,-0.0595362968742847,0.0216775983572006,-0.0258140210062265
1768734165424,0.0613555908203125,-0.4322662353515625,-0.8890228271484375,-0.0725117474794387,0.0283208545297384,-0.0356088615953922
1768734165434,0.066436767578125,-0.4277801513671875,-0.899810791015625,-0.0756321772933006,0.03174514696002,-0.0400131978094577
1768734165445,0.076019287109375,-0.4251251220703125,-0.91204833984375,-0.0664040595293045,0.030215959995985,-0.0353784970939159
1768734165455,0.0843048095703125,-0.421478271484375,-0.9210205078125,-0.0506820864975452,0.0186130981892347,-0.0266736894845962
1768734165464,0.0872039794921875,-0.4185028076171875,-0.926055908203125,-0.0285046119242906,0.0105927232652902,-0.0142098283395171
1768734165475,0.08624267578125,-0.414703369140625,-0.928741455078125,-0.0080294301733374,0.0109384013339877,-0.0018128136871382
1768734165485,0.0786590576171875,-0.41845703125,-0.9152679443359376,-0.0044139232486486,0.0145411258563399,0.0033390712924301
1768734165495,0.069000244140625,-0.4224395751953125,-0.897796630859375,-0.0072150360792875,0.0145592354238033,0.0037779603153467
1768734165505,0.0620269775390625,-0.4240264892578125,-0.8844757080078125,-0.0250286534428596,0.011885954067111,0.0006202502408996
1768734165515,0.0584869384765625,-0.4242706298828125,-0.880126953125,-0.043178629130125,0.0103455819189548,-0.0017443705582991
1768734165525,0.0611419677734375,-0.4204864501953125,-0.8791656494140625,-0.0561311803758144,0.0112252235412597,-0.0110803479328751
1768734165535,0.06561279296875,-0.41973876953125,-0.880584716796875,-0.0719064176082611,0.0066528427414596,-0.0139195444062352
1768734165545,0.06683349609375,-0.42181396484375,-0.884429931640625,-0.0843143463134765,0.0046402919106185,-0.0183846000581979
1768734165555,0.064239501953125,-0.416717529296875,-0.889617919921875,-0.0928274095058441,0.0038666436448693,-0.0274534616619348
1768734165565,0.061248779296875,-0.408050537109375,-0.901153564453125,-0.0931834727525711,0.0022306637838482,-0.0346684977412223
1768734165575,0.0655059814453125,-0.40570068359375,-0.912322998046875,-0.0884635522961616,-0.0005129248020239,-0.0301594994962215
1768734165585,0.07196044921875,-0.4084320068359375,-0.923004150390625,-0.075085163116455,0.0040320260450243,-0.0220536366105079
1768734165595,0.0733642578125,-0.40875244140625,-0.9230194091796876,-0.0620106384158134,0.0048043425194919,-0.0134766604751348
1768734165605,0.0704803466796875,-0.405029296875,-0.92254638671875,-0.0499505139887332,0.0043590618297457,-0.002707635750994
1768734165615,0.07232666015625,-0.407135009765625,-0.9195709228515624,-0.0423770174384117,-0.0043867588974535,-0.0010490191634744
1768734165625,0.06689453125,-0.4094696044921875,-0.9145050048828124,-0.0399844348430633,-0.0115618472918868,-0.0034408040810376
1768734165635,0.0645294189453125,-0.407867431640625,-0.9131317138671876,-0.0346922017633914,-0.0141722783446311,-0.008821721188724
1768734165645,0.0653228759765625,-0.408843994140625,-0.9129638671875,-0.0337827317416667,-0.0141107589006423,-0.0135501632466912
1768734165655,0.069488525390625,-0.4115142822265625,-0.9126739501953124,-0.0306063778698444,-0.0094736628234386,-0.0168034806847572
1768734165665,0.07415771484375,-0.41192626953125,-0.91046142578125,-0.0294931773096323,-0.0094006918370723,-0.0096158757805824
1768734165676,0.0760498046875,-0.4101104736328125,-0.9041748046875,-0.0334053598344326,-0.0112675679847598,-0.0083985449746251
1768734165686,0.0771942138671875,-0.40966796875,-0.9032745361328124,-0.0389247611165046,-0.013432185165584,-0.0080829598009586
1768734165696,0.0737152099609375,-0.408416748046875,-0.9036407470703124,-0.0384360738098621,-0.0117772975936532,-0.0063873254694044
1768734165706,0.0713653564453125,-0.4088287353515625,-0.9058380126953124,-0.0390925407409668,-0.0106848683208227,-0.0015997608425095
1768734165716,0.067169189453125,-0.405853271484375,-0.90521240234375,-0.0383926630020141,-0.0108377337455749,-0.0005680522299371
1768734165726,0.060394287109375,-0.40106201171875,-0.907012939453125,-0.0458348654210567,-0.0146202212199568,-0.0073447320610284
1768734165736,0.0559844970703125,-0.397796630859375,-0.9126739501953124,-0.0438015423715114,-0.019626697525382,-0.0169262532144784
1768734165746,0.0667266845703125,-0.394775390625,-0.9217071533203124,-0.035645879805088,-0.0240763071924448,-0.0191681012511253
1768734165756,0.0676727294921875,-0.39349365234375,-0.9232025146484376,-0.0249194651842117,-0.0201950166374444,-0.0162364933639764
1768734165766,0.0693817138671875,-0.3999176025390625,-0.916168212890625,-0.0215787943452596,-0.007521566003561,-0.0143275400623679
1768734165776,0.0682373046875,-0.405517578125,-0.9050445556640624,-0.0240105278789997,-0.0122769065201282,-0.0180423837155103
1768734165786,0.0668792724609375,-0.4076995849609375,-0.8944854736328125,-0.0412526316940784,-0.0093642072752118,-0.0242257118225097
1768734165796,0.0689544677734375,-0.4047393798828125,-0.893646240234375,-0.0561631359159946,0.0045326999388635,-0.02472984790802
1768734165806,0.0775909423828125,-0.4021148681640625,-0.899627685546875,-0.0652857944369316,0.0120196444913744,-0.0150034502148628
1768734165816,0.085723876953125,-0.3994140625,-0.9080657958984376,-0.0616191551089286,0.0119171133264899,-0.0020463729742914
1768734165826,0.0818634033203125,-0.3966522216796875,-0.9119873046875,-0.0590555965900421,0.0033635725267231,0.0010599381057545
1768734165836,0.075775146484375,-0.3958282470703125,-0.9120635986328124,-0.0587578564882278,0.0031441280152648,-0.0028988507110625
1768734165846,0.0765380859375,-0.3957977294921875,-0.9141082763671876,-0.0592422857880592,0.0126825058832764,0.0004295678809285
1768734165856,0.075103759765625,-0.39935302734375,-0.9144439697265624,-0.0608460381627082,0.0214451048523187,0.0003126551164314
1768734165867,0.07464599609375,-0.4029541015625,-0.9152984619140624,-0.0593850314617157,0.0311776269227266,0.0013006879016757
1768734165876,0.07305908203125,-0.3969573974609375,-0.922882080078125,-0.0492913834750652,0.0374882519245147,0.0057524279691278
1768734165887,0.0766143798828125,-0.392303466796875,-0.9311065673828124,-0.0333390496671199,0.0398986786603927,0.009467271156609
1768734165897,0.08056640625,-0.39501953125,-0.9320831298828124,-0.0160609912127256,0.0344005823135376,0.0174040235579013
1768734165907,0.080657958984375,-0.4009552001953125,-0.9222259521484376,-0.0112734269350767,0.026077140122652,0.0233330186456441
1768734165917,0.0753631591796875,-0.400177001953125,-0.9157562255859376,-0.0094369109719991,0.0263786111027002,0.0219210106879472
1768734165927,0.0621490478515625,-0.390045166015625,-0.9174957275390624,-0.0046546729281544,0.0420153588056564,0.0162732452154159
1768734165937,0.0469512939453125,-0.3838348388671875,-0.9257965087890624,0.0167803112417459,0.0616617649793624,-0.0017233315156772
1768734165947,0.05169677734375,-0.3973541259765625,-0.9233856201171876,0.0276508033275604,0.0705916136503219,-0.0107306744903326
1768734165957,0.0619354248046875,-0.400634765625,-0.922607421875,0.0472471415996551,0.0764215365052223,-0.0152641739696264
1768734165967,0.073272705078125,-0.40447998046875,-0.9309539794921876,0.0601051487028598,0.0730867236852645,-0.0137389814481139
1768734165977,0.077301025390625,-0.41094970703125,-0.9192047119140624,0.0639526173472404,0.0572648867964744,-0.0157022643834352
1768734165987,0.0751190185546875,-0.4077911376953125,-0.909759521484375,0.0601022206246852,0.0503577142953872,-0.011290737427771
1768734165997,0.07183837890625,-0.4053955078125,-0.9085693359375,0.0603783875703811,0.0540714897215366,-0.0127922277897596
1768734166007,0.0671844482421875,-0.4011383056640625,-0.9047088623046876,0.0640237256884574,0.053849384188652,-0.0170804504305124
1768734166017,0.0603485107421875,-0.3947601318359375,-0.901824951171875,0.0689665526151657,0.0526070185005664,-0.0271125771105289
1768734166027,0.054290771484375,-0.399627685546875,-0.8822021484375,0.0519321747124195,0.039838757365942,-0.0350309535861015
1768734166037,0.0575714111328125,-0.41064453125,-0.86566162109375,0.0161366257816553,0.0304681602865457,-0.0456670857965946
1768734166047,0.0652923583984375,-0.411346435546875,-0.8678741455078125,-0.0192783568054437,0.021155884489417,-0.0500887334346771
1768734166057,0.0832061767578125,-0.409149169921875,-0.87762451171875,-0.0467086508870124,0.0182759426534175,-0.0426270887255668
1768734166067,0.0979156494140625,-0.41436767578125,-0.89349365234375,-0.0591954141855239,0.0196951422840356,-0.0268116407096385
1768734166077,0.100738525390625,-0.411041259765625,-0.9069061279296876,-0.0582750253379344,0.0139277996495366,-0.0132180675864219
1768734166087,0.0992279052734375,-0.4069061279296875,-0.919525146484375,-0.0468226335942745,0.0153469983488321,-0.0014109427575021
1768734166098,0.091888427734375,-0.405548095703125,-0.927642822265625,-0.028349082916975,0.0200322978198528,0.0047854343429207
1768734166108,0.0900421142578125,-0.4016265869140625,-0.9305419921875,-0.0092249233275651,0.0286201927810907,0.0182072333991527
1768734166118,0.088775634765625,-0.3994903564453125,-0.93048095703125,0.0115397432819008,0.0290377773344516,0.0343553088605403
1768734166128,0.0843048095703125,-0.4010009765625,-0.9213409423828124,0.0254118833690881,0.0260795373469591,0.0396494083106517
1768734166138,0.0848236083984375,-0.4065093994140625,-0.9076385498046876,0.0295014325529336,0.0165888294577598,0.0459666922688484
1768734166148,0.0837554931640625,-0.4113616943359375,-0.8978424072265625,0.0210690665990114,0.0160996075719594,0.0493513047695159
1768734166158,0.0847625732421875,-0.4129638671875,-0.8875885009765625,0.0102843288332223,0.0141248740255832,0.053624078631401
1768734166168,0.0821075439453125,-0.416534423828125,-0.8798370361328125,-0.0094635430723428,0.0072379391640424,0.0550824254751205
1768734166178,0.0777740478515625,-0.4191741943359375,-0.8726806640625,-0.0333856530487537,-0.0019419770687818,0.0460274145007133
1768734166188,0.071929931640625,-0.4193267822265625,-0.87158203125,-0.0607040934264659,-0.01325055770576,0.04287875816226
1768734166198,0.0635833740234375,-0.41461181640625,-0.8766632080078125,-0.0796953588724136,-0.0216419119387865,0.034363567829132
1768734166208,0.061370849609375,-0.406829833984375,-0.8905181884765625,-0.0905168503522872,-0.0112553173676133,0.027705930173397
1768734166218,0.0756988525390625,-0.4068756103515625,-0.9093475341796876,-0.0881287902593612,-0.0100694121792912,0.0314383506774902
1768734166228,0.080780029296875,-0.40667724609375,-0.91876220703125,-0.0779960006475448,-0.016872989013791,0.0303128976374864
1768734166238,0.0714569091796875,-0.4032440185546875,-0.9208221435546876,-0.0707838907837867,-0.0158218406140804,0.0262864641845226
1768734166248,0.067138671875,-0.402069091796875,-0.9238739013671876,-0.061117947101593,-0.0049891658127307,0.0231822840869426
1768734166258,0.0731964111328125,-0.401763916015625,-0.9306640625,-0.0506192333996295,0.0060893176123499,0.0268393363803625
1768734166268,0.076080322265625,-0.401641845703125,-0.93145751953125,-0.0423719584941864,0.0099279982969164,0.0308122411370277
1768734166278,0.07159423828125,-0.3980712890625,-0.9290008544921876,-0.0334319919347763,0.0090225236490368,0.0243135951459407
1768734166289,0.06829833984375,-0.3992919921875,-0.9253997802734376,-0.0278691817075014,0.0060379188507795,0.0186977870762348
1768734166298,0.071746826171875,-0.403167724609375,-0.920989990234375,-0.0181023050099611,0.005657619331032,0.0158708412200212
1768734166309,0.072479248046875,-0.4057464599609375,-0.9153900146484376,-0.0117586553096771,0.0055215316824615,0.0163629949092865
1768734166319,0.075103759765625,-0.4078826904296875,-0.911407470703125,-0.0116521287709474,0.012827381491661,0.015255119651556
1768734166329,0.0762481689453125,-0.40557861328125,-0.909423828125,-0.0138052944093942,0.0178935136646032,0.0109533155336976
1768734166339,0.0772857666015625,-0.4005279541015625,-0.9117431640625,-0.0112704979255795,0.0159840267151594,0.0099437106400728
1768734166350,0.07989501953125,-0.3984375,-0.912750244140625,-0.0101823303848505,0.0115738315507769,0.012051336467266
1768734166359,0.0844268798828125,-0.396881103515625,-0.9096832275390624,-0.011208445765078,-0.0010932276491075,0.0199255049228668
1768734166369,0.077667236328125,-0.398529052734375,-0.90277099609375,-0.0180314648896455,-0.0117176426574587,0.0187976565212011
1768734166379,0.07733154296875,-0.3960418701171875,-0.896697998046875,-0.030197849497199,-0.0142053011804819,0.020461332052946
1768734166389,0.0833282470703125,-0.39544677734375,-0.8984375,-0.0338501073420047,-0.0158767011016607,0.03121118247509
1768734166399,0.08770751953125,-0.3956451416015625,-0.8991546630859375,-0.0361436232924461,-0.0186083056032657,0.0410081520676612
1768734166409,0.0811767578125,-0.39678955078125,-0.898406982421875,-0.0334104225039482,-0.0191159043461084,0.0414212085306644
1768734166419,0.077484130859375,-0.397796630859375,-0.901824951171875,-0.0331861823797225,-0.0143176866695284,0.0427655726671218
1768734166429,0.071197509765625,-0.4009552001953125,-0.9037322998046876,-0.031870312988758,-0.0084171872586011,0.0395942814648151
1768734166439,0.064910888671875,-0.4022064208984375,-0.9061737060546876,-0.0296063609421253,-0.009933590888977,0.0363777130842208
1768734166449,0.0617218017578125,-0.399566650390625,-0.9095458984375,-0.030383737757802,-0.011430287733674,0.0314924120903015
1768734166459,0.05731201171875,-0.393707275390625,-0.91473388671875,-0.0279615931212902,-0.0162532720714807,0.0181976463645696
1768734166469,0.054168701171875,-0.39361572265625,-0.9150238037109376,-0.0252217333763837,-0.0177845899015665,0.0085796397179365
1768734166479,0.0538482666015625,-0.3915557861328125,-0.918548583984375,-0.0172788556665182,-0.0129355061799287,0.0026631611399352
1768734166489,0.0571746826171875,-0.3912200927734375,-0.9221954345703124,-0.007782822009176,-0.0071881380863487,-0.0037353497464209
1768734166499,0.06414794921875,-0.3936309814453125,-0.919342041015625,0.0010370349045842,-0.0006873618694953,-0.0021726067643612
1768734166510,0.0711517333984375,-0.394805908203125,-0.9165802001953124,0.0043713124468922,0.0044264402240514,0.0019861855544149
1768734166520,0.07989501953125,-0.3963775634765625,-0.9159088134765624,0.0090534156188368,0.0005443501286208,0.004325239919126
1768734166530,0.08697509765625,-0.3989410400390625,-0.915863037109375,0.0123794376850128,0.0002356897603021,0.0129267172887921
1768734166540,0.0862884521484375,-0.3972930908203125,-0.915924072265625,0.0143128931522369,-0.0052086105570197,0.0169904343783855
1768734166550,0.0806732177734375,-0.397552490234375,-0.910675048828125,0.0113940685987472,-0.0105162905529141,0.0233945380896329
1768734166560,0.0691070556640625,-0.3975372314453125,-0.9039154052734376,0.0029880667570978,-0.0110190948471426,0.0227135680615901
1768734166570,0.0589447021484375,-0.3998565673828125,-0.893280029296875,-0.0140124885365366,-0.0163139924407005,0.0089282477274537
1768734166580,0.055908203125,-0.4019775390625,-0.8896026611328125,-0.0332383811473846,-0.0075279572047293,-0.00515215145424
1768734166590,0.06036376953125,-0.3949127197265625,-0.90386962890625,-0.0365457609295845,0.0060597565025091,-0.0105120297521352
1768734166600,0.0672607421875,-0.387237548828125,-0.922393798828125,-0.0208323113620281,0.0102981775999069,-0.0104433195665478
1768734166610,0.073944091796875,-0.396820068359375,-0.9243316650390624,-0.0122622586786746,0.0067583038471639,-0.0061337924562394
1768734166620,0.0806732177734375,-0.4008331298828125,-0.919708251953125,-0.0078968051820993,0.0083218459039926,0.0024248082190752
1768734166630,0.0777587890625,-0.4066009521484375,-0.9161224365234376,-0.0109533155336976,0.0031483890488743,0.0078869517892599
1768734166640,0.0717315673828125,-0.401824951171875,-0.9068756103515624,-0.0201308336108922,0.0073726950213313,0.006075735669583
1768734166650,0.0723419189453125,-0.401092529296875,-0.9090576171875,-0.021469872444868,0.0118337562307715,0.0162130575627088
1768734166660,0.0752105712890625,-0.4076385498046875,-0.9039154052734376,-0.0248049478977918,0.0131323132663965,0.0168274492025375
1768734166670,0.0697021484375,-0.4054718017578125,-0.9017791748046876,-0.0369939692318439,0.0163030736148357,0.0111533189192414
1768734166680,0.0564422607421875,-0.390106201171875,-0.9171905517578124,-0.02861406840384,0.0242302380502223,-0.0032333438284695
1768734166690,0.04681396484375,-0.3830108642578125,-0.9282684326171876,-0.0098654134199023,0.0244318395853042,-0.0191308166831731
1768734166700,0.055572509765625,-0.38531494140625,-0.927764892578125,-0.0016732640797272,0.0198658499866724,-0.0254358518868684
1768734166710,0.0724945068359375,-0.39337158203125,-0.92193603515625,0.00082771043526,0.0114617124199867,-0.0215447060763835
1768734166721,0.0807952880859375,-0.4000396728515625,-0.9142608642578124,0.0013190637109801,0.0025851305108517,-0.0183856654912233
1768734166731,0.08148193359375,-0.40252685546875,-0.9094390869140624,-0.0041260356083512,-0.0012460930738598,-0.0124372281134128
1768734166741,0.0813751220703125,-0.4035491943359375,-0.904937744140625,-0.0090041477233171,0.0039073899388313,-0.0076563218608498
1768734166751,0.0747528076171875,-0.403228759765625,-0.902587890625,-0.0153917390853166,0.0052749230526387,-0.0056893108412623
1768734166761,0.0693359375,-0.401763916015625,-0.9068756103515624,-0.0158900171518325,0.0093383742496371,-0.0088954903185367
1768734166771,0.067291259765625,-0.3979339599609375,-0.9122161865234376,-0.0116678411141037,0.0092622078955173,-0.0095753958448767
1768734166781,0.0639190673828125,-0.39520263671875,-0.914794921875,-0.0063353939913213,0.0127647975459694,-0.0129871712997555
1768734166791,0.0635223388671875,-0.395904541015625,-0.917388916015625,-0.0009683253592811,0.0197348222136497,-0.0116601176559925
1768734166801,0.066375732421875,-0.3970947265625,-0.9236907958984376,0.0093319825828075,0.0315155833959579,-0.0092555498704314
1768734166811,0.0626983642578125,-0.4021148681640625,-0.9196929931640624,0.0123216472566127,0.034767035394907,-0.0128657314926385
1768734166821,0.0645751953125,-0.4005279541015625,-0.9241485595703124,0.0197020657360553,0.0345822125673294,-0.0153182363137602
1768734166831,0.0717926025390625,-0.4007568359375,-0.925384521484375,0.0199004709720611,0.0315512679517269,-0.0195553246885538
1768734166841,0.0693817138671875,-0.4017181396484375,-0.91912841796875,0.0222786739468574,0.017749436199665,-0.0282875634729862
1768734166851,0.0695343017578125,-0.3970794677734375,-0.92138671875,0.023134347051382,0.0172737948596477,-0.0354336239397525
1768734166861,0.0771636962890625,-0.3920440673828125,-0.931182861328125,0.0364951603114604,0.0233378130942583,-0.0302311386913061
1768734166871,0.08642578125,-0.3930206298828125,-0.9335479736328124,0.0511675812304019,0.0236691106110811,-0.0177608877420425
1768734166881,0.083953857421875,-0.39324951171875,-0.9283447265625,0.0601051487028598,0.0238091927021741,-0.0156213035807013
1768734166891,0.0735931396484375,-0.383392333984375,-0.9242706298828124,0.0675060749053955,0.018443988636136,-0.0213207341730594
1768734166901,0.0687713623046875,-0.379425048828125,-0.92218017578125,0.0777491256594657,0.0117927435785532,-0.0277466755360364
1768734166911,0.075469970703125,-0.3842315673828125,-0.9146728515625,0.0839790552854538,0.0184730160981416,-0.0300188846886158
1768734166922,0.086578369140625,-0.3936767578125,-0.90081787109375,0.0791004076600074,0.0225415285676717,-0.021416874602437
1768734166932,0.0967254638671875,-0.3974456787109375,-0.890350341796875,0.0661209598183631,0.0266438610851764,-0.0093226619064807
1768734166942,0.0982208251953125,-0.3999786376953125,-0.878173828125,0.0489044263958931,0.025320803746581,-0.0050975563935935
1768734166952,0.1052703857421875,-0.399505615234375,-0.87615966796875,0.0276942122727632,0.0160990748554468,0.0069596390239894
1768734166962,0.1091766357421875,-0.4076385498046875,-0.875,0.0052917008288204,0.0093543529510498,0.0240390226244926
1768734166972,0.105499267578125,-0.4131927490234375,-0.87115478515625,-0.0252249296754598,0.0174437053501606,0.0358735769987106
1768734166982,0.095855712890625,-0.4131011962890625,-0.8789215087890625,-0.0487025566399097,0.0202128607779741,0.0482873730361461
1768734166992,0.087677001953125,-0.4106903076171875,-0.88922119140625,-0.0619416646659374,0.0186075065284967,0.0513167157769203
1768734167002,0.0799102783203125,-0.410125732421875,-0.9051666259765624,-0.0638703256845474,0.0190599765628576,0.0540746860206127
1768734167012,0.069183349609375,-0.41070556640625,-0.9130859375,-0.0594824999570846,0.0249753911048173,0.0543037168681621
1768734167022,0.0566864013671875,-0.4038238525390625,-0.923370361328125,-0.0484141372144222,0.026827884837985,0.0435866266489028
1768734167032,0.0538330078125,-0.4032135009765625,-0.9321746826171876,-0.0346192307770252,0.0255173444747924,0.0306532494723796
1768734167042,0.0621185302734375,-0.40087890625,-0.9340057373046876,-0.0239913519471883,0.0203116629272699,0.0243247803300619
1768734167052,0.0659332275390625,-0.399749755859375,-0.9368743896484376,-0.0081183798611164,0.0194671750068664,0.0186415947973728
1768734167062,0.069244384765625,-0.4031982421875,-0.934539794921875,0.0061686797998845,0.0162514075636863,0.0117703732103109
1768734167072,0.07080078125,-0.4055938720703125,-0.931121826171875,0.0226113032549619,0.0153270242735743,0.0076374132186174
1768734167082,0.0720977783203125,-0.40338134765625,-0.930755615234375,0.0403420962393283,0.0129930302500724,0.0043031354434788
1768734167092,0.06988525390625,-0.4048919677734375,-0.9232635498046876,0.0504743605852127,0.0060507017187774,-0.0018066884949803
1768734167102,0.0630035400390625,-0.4047088623046875,-0.9164886474609376,0.0512352250516414,0.0011161308502778,-0.00968165602535
1768734167112,0.0617218017578125,-0.402252197265625,-0.9150543212890624,0.0508674420416355,0.0048227184452116,-0.0188232231885194
1768734167122,0.0674285888671875,-0.4032440185546875,-0.908355712890625,0.0498764812946319,0.0041851578280329,-0.0220166184008121
1768734167133,0.0815582275390625,-0.406036376953125,-0.9069671630859376,0.0477395579218864,0.0067167584784328,-0.0168788488954305
1768734167143,0.0843048095703125,-0.406005859375,-0.903045654296875,0.0480644628405571,0.0018066884949803,-0.0126771796494722
1768734167153,0.0814361572265625,-0.4062652587890625,-0.8979034423828125,0.045765358954668,0.0002958771947305,-0.0082685826346278
1768734167163,0.071807861328125,-0.403900146484375,-0.8932647705078125,0.0375993065536022,-0.0022951122373342,-0.0130534842610359
1768734167173,0.068756103515625,-0.399200439453125,-0.8966217041015625,0.0309672374278306,-0.0006338323582895,-0.0213079508394002
1768734167183,0.072296142578125,-0.40191650390625,-0.8980865478515625,0.032803751528263,-0.0055127432569861,-0.0190666355192661
1768734167193,0.081207275390625,-0.4015045166015625,-0.8988189697265625,0.028276378288865,-0.0059910472482442,-0.0128263160586357
1768734167203,0.082061767578125,-0.3978118896484375,-0.898040771484375,0.0217827931046485,-0.0067657604813575,-0.0110212257131934
1768734167213,0.0753021240234375,-0.40118408203125,-0.889984130859375,0.0037465349305421,-0.0085250446572899,-0.01558268815279
1768734167223,0.077392578125,-0.4041595458984375,-0.886810302734375,-0.0175712704658508,-0.0037223002873361,-0.0172447673976421
1768734167233,0.0822906494140625,-0.40557861328125,-0.8931884765625,-0.0259072314947843,-0.0033984598703682,-0.0191273558884859
1768734167243,0.08612060546875,-0.402801513671875,-0.9063873291015624,-0.0252488981932401,0.0017156084068119,-0.0143131595104932
1768734167253,0.084930419921875,-0.3920135498046875,-0.9250946044921876,-0.0005121259018778,0.0105381282046437,-0.0099218729883432
1768734167263,0.0802764892578125,-0.3917694091796875,-0.931915283203125,0.0218270011246204,0.0140007706359028,-0.0070856064558029
1768734167273,0.0820465087890625,-0.39697265625,-0.926971435546875,0.0380858667194843,0.0212560202926397,0.0028929917607456
1768734167284,0.0894317626953125,-0.4114227294921875,-0.9155426025390624,0.0382584407925605,0.0113163040950894,0.0164005439728498
1768734167293,0.0830535888671875,-0.410491943359375,-0.9039306640625,0.0336509048938751,0.015074823051691,0.0128742530941963
1768734167303,0.0727081298828125,-0.4104461669921875,-0.8981781005859375,0.0259200148284435,0.0156921446323394,0.005502357147634
1768734167313,0.0750274658203125,-0.4133453369140625,-0.8925933837890625,0.0224219523370265,0.0219348594546318,0.003188336500898
1768734167323,0.0760040283203125,-0.406463623046875,-0.89691162109375,0.0290564186871051,0.0207697264850139,0.0001131843455368
1768734167333,0.0672149658203125,-0.399078369140625,-0.8975067138671875,0.0336109586060047,0.0157976057380437,-0.0088960230350494
1768734167343,0.0574493408203125,-0.39971923828125,-0.89166259765625,0.0224067717790603,0.0138468397781252,-0.018956646323204
1768734167354,0.058197021484375,-0.4001617431640625,-0.890350341796875,0.0081838937476277,0.0135387117043137,-0.0242113303393125
1768734167364,0.0686492919921875,-0.405853271484375,-0.891998291015625,-0.0096113486215472,0.0118974056094884,-0.0267043150961399
1768734167374,0.0801849365234375,-0.409149169921875,-0.8968505859375,-0.0199577286839485,0.0075559206306934,-0.0243862997740507
1768734167384,0.0959625244140625,-0.4113006591796875,-0.9068603515625,-0.019522301852703,0.011330684646964,-0.0102180168032646
1768734167394,0.1026611328125,-0.4137115478515625,-0.9095916748046876,-0.0148537810891866,0.0147115681320428,-0.0002705771767068
1768734167404,0.092193603515625,-0.4168853759765625,-0.907257080078125,-0.0108196241781115,0.024441160261631,0.0050501525402069
1768734167414,0.0829010009765625,-0.4170379638671875,-0.9113616943359376,-0.0028583707753568,0.0332335866987705,0.0050581418909132
1768734167424,0.0794525146484375,-0.4112091064453125,-0.920196533203125,0.0116183068603277,0.0420779436826705,0.0063819992356002
1768734167434,0.078155517578125,-0.4116668701171875,-0.9256744384765624,0.02602094784379,0.0371313877403736,0.0096220010891556
1768734167444,0.0756683349609375,-0.4074859619140625,-0.929473876953125,0.0391452722251415,0.0272180382162332,0.0068946578539907
1768734167454,0.0705718994140625,-0.4047698974609375,-0.9237060546875,0.0433442778885364,0.0123144565150141,0.0006916229031048
1768734167464,0.06488037109375,-0.4091796875,-0.9076080322265624,0.0391263626515865,0.0033087113406509,-0.0049958238378167
1768734167474,0.0670928955078125,-0.410125732421875,-0.898193359375,0.0325592756271362,0.0139552298933267,-0.011085407808423
1768734167484,0.0710296630859375,-0.415069580078125,-0.8851318359375,0.0258238743990659,0.0285842400044202,-0.0136353848502039
1768734167494,0.0674591064453125,-0.4220123291015625,-0.8763427734375,0.0165499486029148,0.0488575547933578,-0.0128907645121216
1768734167504,0.0703582763671875,-0.4219818115234375,-0.87274169921875,0.0032799490727484,0.080055683851242,-0.0095988316461443
1768734167514,0.0743560791015625,-0.4142303466796875,-0.8858642578125,-0.000311057199724,0.0986645221710205,-0.0065841330215334
1768734167525,0.079559326171875,-0.40673828125,-0.900482177734375,-0.002944657113403,0.0885301306843757,-0.0095500955358147
1768734167534,0.09967041015625,-0.4052734375,-0.910614013671875,-0.0099394498392939,0.0685905143618583,-0.0020423782989382
1768734167544,0.110565185546875,-0.4020538330078125,-0.9204559326171876,-0.0079609872773289,0.037068273872137,0.003728159237653
1768734167555,0.103851318359375,-0.3979949951171875,-0.9267425537109376,0.0018847191240638,0.0141373910009861,0.0007566040731035
1768734167565,0.0928192138671875,-0.4014129638671875,-0.9217987060546876,0.0169270522892475,0.0116752982139587,-0.0028897961601614
1768734167575,0.0876312255859375,-0.409698486328125,-0.9119720458984376,0.0276675801724195,0.0255477037280797,0.0063079632818698
1768734167585,0.0851593017578125,-0.4096527099609375,-0.910186767578125,0.0339031070470809,0.0421570390462875,0.0135099496692419
1768734167595,0.0849761962890625,-0.40606689453125,-0.9096527099609376,0.0391660444438457,0.0428981967270374,0.0208943635225296
1768734167605,0.0884552001953125,-0.3993988037109375,-0.91204833984375,0.0367287211120128,0.0384722910821437,0.0234778951853513
1768734167615,0.0870819091796875,-0.3983001708984375,-0.9082794189453124,0.0299531053751707,0.0279381573200225,0.0197135172784328
1768734167625,0.0915679931640625,-0.4027862548828125,-0.906829833984375,0.0224115662276744,0.0250555519014596,0.0200541354715824
1768734167635,0.0941009521484375,-0.4079437255859375,-0.9049072265625,0.0155829545110464,0.0230312831699848,0.0134929055348038
1768734167645,0.093048095703125,-0.4149627685546875,-0.8991851806640625,0.0099485041573643,0.0244009476155042,0.0096153430640697
1768734167655,0.0949554443359375,-0.41949462890625,-0.8954010009765625,0.0047276434488594,0.0344945937395095,0.0123109947890043
1768734167665,0.0944061279296875,-0.4219818115234375,-0.8950958251953125,0.0026141589041799,0.052698366343975,0.0206613354384899
1768734167675,0.0877685546875,-0.4215240478515625,-0.8905792236328125,-0.0101548992097377,0.0717761889100074,0.0252584852278232
1768734167685,0.0820465087890625,-0.419342041015625,-0.8932037353515625,-0.0139935798943042,0.084359623491764,0.0313443392515182
1768734167695,0.0956268310546875,-0.4123077392578125,-0.9107208251953124,-0.0061636199243366,0.0945430174469947,0.0370333865284919
1768734167705,0.107330322265625,-0.411376953125,-0.92120361328125,0.0122047346085309,0.0812993869185447,0.0473177134990692
1768734167715,0.1060791015625,-0.41790771484375,-0.9202117919921876,0.0263522453606128,0.0713956207036972,0.0552760399878025
1768734167725,0.102203369140625,-0.42041015625,-0.9202728271484376,0.0411988347768783,0.0780564546585083,0.0639193281531333
1768734167736,0.093414306640625,-0.424346923828125,-0.917510986328125,0.0562688633799552,0.0908404216170311,0.064745970070362
1768734167745,0.0826263427734375,-0.4293975830078125,-0.914794921875,0.067906878888607,0.1132946014404296,0.0596622638404369
1768734167756,0.0731964111328125,-0.425994873046875,-0.9189605712890624,0.0860254317522049,0.1431246697902679,0.0559772476553916
1768734167765,0.073333740234375,-0.421966552734375,-0.92523193359375,0.1109888330101966,0.1690308302640915,0.0502061769366264
1768734167776,0.0797271728515625,-0.4172515869140625,-0.9329986572265624,0.1329948008060455,0.1709379255771637,0.0489872507750988
1768734167786,0.0828704833984375,-0.4008941650390625,-0.9447784423828124,0.1614461541175842,0.158339038491249,0.0435866266489028
1768734167796,0.0833892822265625,-0.39923095703125,-0.9427337646484376,0.1751318722963333,0.1224252507090568,0.0334636829793453
1768734167806,0.0734710693359375,-0.3983001708984375,-0.930999755859375,0.1765241622924804,0.0920692086219787,0.0089910980314016
1768734167816,0.0716400146484375,-0.4014129638671875,-0.915618896484375,0.1707722693681717,0.0734957903623581,-0.0132135404273867
1768734167826,0.087310791015625,-0.40911865234375,-0.90325927734375,0.1680276244878769,0.0701561868190765,-0.0263415928930044
1768734167836,0.1112823486328125,-0.4194183349609375,-0.890899658203125,0.1653844267129898,0.0638969540596008,-0.0195745006203651
1768734167846,0.1260223388671875,-0.427459716796875,-0.8730010986328125,0.1528342813253402,0.0568710044026374,-0.0025750105269253
1768734167856,0.128936767578125,-0.432586669921875,-0.8542327880859375,0.1300000697374344,0.0503518544137477,0.0059676114469766
1768734167866,0.126251220703125,-0.4380035400390625,-0.8354339599609375,0.0899165719747543,0.0443096756935119,0.0152513906359672
1768734167876,0.125213623046875,-0.4466552734375,-0.825836181640625,0.0439554750919342,0.0329329147934913,0.0248733926564455
1768734167886,0.1175689697265625,-0.4500732421875,-0.827301025390625,0.0054626758210361,0.0246350392699241,0.0341313369572162
1768734167896,0.1031646728515625,-0.4456634521484375,-0.835479736328125,-0.0241237115114927,0.0361207202076911,0.0365244559943676
1768734167906,0.0925750732421875,-0.4413299560546875,-0.8521881103515625,-0.0361896939575672,0.046104110777378,0.0317747071385383
1768734167916,0.1017608642578125,-0.4408416748046875,-0.8647308349609375,-0.0478966869413852,0.0401889644563198,0.0361068733036518
1768734167926,0.1129302978515625,-0.4325714111328125,-0.885040283203125,-0.0600481554865837,0.0267003197222948,0.04256397113204
1768734167936,0.1203155517578125,-0.43890380859375,-0.8903045654296875,-0.0775645673274993,-0.0053297844715416,0.0499933920800685
1768734167946,0.116912841796875,-0.4333953857421875,-0.90936279296875,-0.0743413418531417,-0.0018777948571369,0.0599562786519527
1768734167956,0.114044189453125,-0.42425537109375,-0.937652587890625,-0.039233423769474,0.0033358754590153,0.0787880197167396
1768734167966,0.1085357666015625,-0.4220733642578125,-0.94232177734375,0.0064376592636108,0.0020397149492055,0.0832589343190193
1768734167977,0.09893798828125,-0.413970947265625,-0.942535400390625,0.0470601879060268,-0.0056192697957158,0.0687082260847091
1768734167987,0.08062744140625,-0.40838623046875,-0.9276275634765624,0.07005525380373,-0.0199718438088893,0.0486391745507717
1768734167997,0.0653228759765625,-0.409820556640625,-0.9085540771484376,0.0804698094725608,-0.0292977020144462,0.0236035957932472
1768734168007,0.059478759765625,-0.419189453125,-0.886688232421875,0.0755874365568161,-0.0234731007367372,-0.0026841999497264
1768734168017,0.06927490234375,-0.427276611328125,-0.8658447265625,0.0548323541879653,-0.0150862745940685,-0.0257897861301898
1768734168027,0.088531494140625,-0.4349822998046875,-0.8554534912109375,0.0292990319430828,-0.0051404335536062,-0.0348743610084056
1768734168037,0.1062469482421875,-0.4410247802734375,-0.8548583984375,0.0037079192698001,0.0047217844985425,-0.0354535989463329
1768734168047,0.1074981689453125,-0.4393157958984375,-0.8620452880859375,-0.0141501734033226,0.011021758429706,-0.0281264428049325
1768734168057,0.100494384765625,-0.4339447021484375,-0.870391845703125,-0.029203426092863,0.0134689370170235,-0.0289813168346881
1768734168067,0.090240478515625,-0.4291839599609375,-0.8792877197265625,-0.0418712832033634,0.0224453881382942,-0.0419274754822254
1768734168077,0.09039306640625,-0.4291534423828125,-0.8906707763671875,-0.0459925271570682,0.029314212501049,-0.0494887232780456
1768734168087,0.098114013671875,-0.4246826171875,-0.9101104736328124,-0.0398153215646743,0.0289482939988374,-0.0495124235749244
1768734168097,0.10345458984375,-0.41778564453125,-0.9222869873046876,-0.0267264191061258,0.0215391144156456,-0.0449682734906673
1768734168107,0.1009674072265625,-0.4178619384765625,-0.926361083984375,-0.0157978720963001,0.0109999207779765,-0.0498940572142601
1768734168117,0.1049957275390625,-0.4194793701171875,-0.9276123046875,0.0034226945135742,0.0037715686485171,-0.0456138253211975
1768734168127,0.1241912841796875,-0.42279052734375,-0.92559814453125,0.0222496446222066,0.0016346483025699,-0.02851446531713
1768734168137,0.14605712890625,-0.4287109375,-0.9217376708984376,0.0461235530674457,0.0037358824629336,0.0015137407463043
1768734168147,0.16204833984375,-0.4303741455078125,-0.9111328125,0.0629893541336059,0.0044440170750021,0.041990328580141
1768734168157,0.1651153564453125,-0.43585205078125,-0.8945465087890625,0.0702589824795723,0.0136742666363716,0.0883825942873954
1768734168167,0.1587066650390625,-0.44091796875,-0.8803253173828125,0.0702224969863891,0.0216661468148231,0.1250495314598083
1768734168178,0.1467437744140625,-0.43878173828125,-0.8698577880859375,0.0571943148970603,0.0140636209398508,0.1433217376470565
1768734168188,0.1246795654296875,-0.4376220703125,-0.85943603515625,0.0364626683294773,0.0031712921336293,0.1540692001581192
1768734168198,0.1096954345703125,-0.44415283203125,-0.85205078125,0.0080051962286233,-0.002869555959478,0.1565999984741211
1768734168208,0.0921783447265625,-0.437835693359375,-0.8556060791015625,-0.0122127244248986,0.0032189628109335,0.1590074896812439
1768734168218,0.06805419921875,-0.4298095703125,-0.866943359375,-0.0241324994713068,-0.001008006511256,0.1417803019285202
1768734168228,0.0483856201171875,-0.427947998046875,-0.863922119140625,-0.0463027842342853,-0.0145539091899991,0.1092468649148941
1768734168238,0.038543701171875,-0.4262847900390625,-0.8686981201171875,-0.0655340030789375,-0.0115946047008037,0.0703404769301414
1768734168248,0.04583740234375,-0.423004150390625,-0.888885498046875,-0.0621121078729629,0.0058925100602209,0.0433496050536632
1768734168258,0.06939697265625,-0.4200439453125,-0.9128570556640624,-0.0420696884393692,0.017724934965372,0.0270281545817852
1768734168268,0.0863800048828125,-0.42529296875,-0.9278717041015624,-0.0128825092688202,0.0253034923225641,0.01678909920156
1768734168278,0.09820556640625,-0.431854248046875,-0.9352264404296876,0.0182615611702203,0.0285469554364681,0.0176178757101297
1768734168288,0.1001434326171875,-0.4338531494140625,-0.9336395263671876,0.0434388220310211,0.0264100357890129,0.0228613726794719
1768734168298,0.0968170166015625,-0.435089111328125,-0.92767333984375,0.0642077475786209,0.0268633048981428,0.0273629147559404
1768734168308,0.0887451171875,-0.43701171875,-0.9207000732421876,0.0885615572333335,0.0299949161708354,0.0226978547871112
1768734168318,0.0844268798828125,-0.4388580322265625,-0.9109039306640624,0.1005567014217376,0.0270830169320106,0.0180016364902257
1768734168328,0.08782958984375,-0.4387969970703125,-0.9013214111328124,0.1048904657363891,0.0090217245742678,0.0125107318162918
1768734168338,0.0949554443359375,-0.442108154296875,-0.890472412109375,0.0996666699647903,-0.0083527388051152,0.0113248256966471
1768734168348,0.0965576171875,-0.444732666015625,-0.877105712890625,0.0889762118458747,-0.0146993175148963,0.0126715870574116
1768734168358,0.0964508056640625,-0.4470672607421875,-0.8659210205078125,0.0779371410608291,-0.0195534620434045,0.0171939004212617
1768734168368,0.1008453369140625,-0.4518585205078125,-0.854400634765625,0.0575575679540634,-0.0140692135319113,0.0215385816991329
1768734168378,0.095458984375,-0.449676513671875,-0.8475189208984375,0.0341332033276557,-0.0119581259787082,0.0194709040224552
1768734168388,0.0917205810546875,-0.444915771484375,-0.853302001953125,0.0126047413796186,-0.0118204401805996,0.020665330812335
1768734168399,0.099029541015625,-0.4439544677734375,-0.864044189453125,-0.004136954434216,-0.0166993513703346,0.026127740740776
1768734168409,0.1010589599609375,-0.4456024169921875,-0.8734893798828125,-0.0089343730360269,-0.0229588449001312,0.0288084782660007
1768734168419,0.104705810546875,-0.4486236572265625,-0.883087158203125,-0.0107165602967143,-0.0231457985937595,0.0348237603902816
1768734168429,0.1040496826171875,-0.4498138427734375,-0.8876800537109375,-0.006524478085339,-0.0192195009440183,0.0379804037511348
1768734168439,0.0942230224609375,-0.4477691650390625,-0.8945159912109375,0.0001994707708945,-0.0154814878478646,0.0312343519181013
1768734168449,0.0870361328125,-0.4466094970703125,-0.8992767333984375,0.0093170693144202,-0.0126249818131327,0.0247157327830791
1768734168459,0.088287353515625,-0.44610595703125,-0.898712158203125,0.0198815632611513,-0.0095263933762907,0.0153355468064546
1768734168469,0.0843505859375,-0.446014404296875,-0.89532470703125,0.0265626348555088,-0.0105522433295845,0.0056459014303982
1768734168479,0.0789337158203125,-0.447021484375,-0.8871002197265625,0.0237234383821487,-0.0092576807364821,-0.002379800658673
1768734168489,0.078094482421875,-0.4474639892578125,-0.8805389404296875,0.0190589129924774,-0.0046711843460798,-0.0088041443377733
1768734168499,0.0819091796875,-0.445404052734375,-0.8785400390625,0.0150279514491558,-0.0030120352748781,-0.0147629668936133
1768734168509,0.08843994140625,-0.444000244140625,-0.8744049072265625,0.0058219362981617,-0.0104750115424394,-0.0141802672296762
1768734168519,0.0927734375,-0.4412384033203125,-0.8707275390625,-0.0032101743854582,-0.0086302394047379,-0.01136424113065
1768734168529,0.098541259765625,-0.44390869140625,-0.8642120361328125,-0.0196338891983032,-0.0054320497438311,-0.0118097877129912
1768734168539,0.0988922119140625,-0.4485321044921875,-0.8545074462890625,-0.0438257791101932,-0.010144779458642,-0.0109482547268271
1768734168549,0.097076416015625,-0.4435272216796875,-0.85784912109375,-0.0606894455850124,-0.009329586289823,-0.0146130314096808
1768734168559,0.090606689453125,-0.436065673828125,-0.8635406494140625,-0.0707479417324066,-0.0084352968260645,-0.0239695142954587
1768734168569,0.083343505859375,-0.4441680908203125,-0.85986328125,-0.0868398249149322,-0.0125325694680213,-0.0300782732665538
1768734168579,0.0880279541015625,-0.44305419921875,-0.8640289306640625,-0.1017455384135246,-0.0125703867524862,-0.0321989506483078
1768734168589,0.0913543701171875,-0.4499053955078125,-0.8608551025390625,-0.1261321008205413,-0.0222536399960517,-0.0295014325529336
1768734168599,0.0896148681640625,-0.4499664306640625,-0.86370849609375,-0.1488299518823623,-0.0241644587367773,-0.0336676836013793
1768734168610,0.09466552734375,-0.4453887939453125,-0.878570556640625,-0.1554377973079681,-0.0198045969009399,-0.031983233988285
1768734168620,0.10235595703125,-0.443389892578125,-0.8946380615234375,-0.1469431072473526,-0.0133669376373291,-0.0260475799441337
1768734168630,0.09466552734375,-0.43096923828125,-0.9145355224609376,-0.1175564602017402,-0.0117836883291602,-0.0225969217717647
1768734168640,0.0839385986328125,-0.4169464111328125,-0.927276611328125,-0.0842182114720344,0.0034373418893665,-0.0213444363325834
1768734168650,0.0804443359375,-0.41455078125,-0.927764892578125,-0.0521742552518844,-0.0001203748834086,-0.0234403442591428
1768734168660,0.0882720947265625,-0.4183197021484375,-0.91973876953125,-0.0383971892297267,-0.012997823767364,-0.0191691666841506
1768734168670,0.09210205078125,-0.4227447509765625,-0.90838623046875,-0.0357673168182373,-0.0193129777908325,-0.0214589536190032
1768734168680,0.0940093994140625,-0.423370361328125,-0.9002838134765625,-0.0407732613384723,-0.0266494546085596,-0.023953003808856
1768734168690,0.0982666015625,-0.4298248291015625,-0.89312744140625,-0.0448907762765884,-0.0302612334489822,-0.0219404529780149
1768734168700,0.097930908203125,-0.4337158203125,-0.8924102783203125,-0.0492564961314201,-0.0215023625642061,-0.0228413995355367
1768734168710,0.0923919677734375,-0.4336090087890625,-0.8941192626953125,-0.0477121286094188,-0.0209819804877042,-0.0299879927188158
1768734168720,0.0896453857421875,-0.43243408203125,-0.893402099609375,-0.0496426522731781,-0.0156719032675027,-0.0401964224874973
1768734168730,0.091094970703125,-0.4312286376953125,-0.897369384765625,-0.0505835488438606,-0.008926915936172,-0.0449419096112251
1768734168740,0.0936126708984375,-0.4290924072265625,-0.90374755859375,-0.0420603677630424,-0.0009398295660503,-0.041819617152214
1768734168750,0.1004791259765625,-0.4273681640625,-0.910491943359375,-0.0285746529698371,-0.0010586065473034,-0.0304820090532302
1768734168760,0.1125335693359375,-0.427825927734375,-0.9160919189453124,-0.0111527862027287,-0.0039683762006461,-0.0201950166374444
1768734168770,0.1158599853515625,-0.4267120361328125,-0.9146575927734376,0.0075330175459384,-0.0076613817363977,-0.0010631339391693
1768734168781,0.1070098876953125,-0.4302978515625,-0.9031219482421876,0.0164037402719259,-0.0137206055223941,0.0034985947422683
1768734168790,0.0959930419921875,-0.43212890625,-0.890228271484375,0.0135403098538517,-0.0233692377805709,-0.000438888935605
1768734168800,0.0897369384765625,-0.4367218017578125,-0.8773651123046875,-0.0002926813904196,-0.0251423716545104,-0.0007795072160661
1768734168810,0.0916900634765625,-0.437744140625,-0.8789825439453125,-0.0140284672379493,-0.0171978957951068,0.0011147991754114
1768734168821,0.091461181640625,-0.43463134765625,-0.88128662109375,-0.0270646400749683,-0.0104542383924126,0.000868723145686
1768734168831,0.091217041015625,-0.43035888671875,-0.8865203857421875,-0.0403295792639255,-0.0125733157619833,-0.0066033080220222
1768734168841,0.0948944091796875,-0.4278717041015625,-0.89581298828125,-0.0388259589672088,-0.0203207172453403,-0.0059335227124392
1768734168851,0.1068115234375,-0.429656982421875,-0.9037933349609376,-0.0321795083582401,-0.0261881947517395,0.0053465622477233
1768734168861,0.1061248779296875,-0.424163818359375,-0.91259765625,-0.0171709973365068,-0.0205878335982561,0.0033294840250164
1768734168871,0.095123291015625,-0.4203948974609375,-0.9138031005859376,-0.003312173532322,-0.0183883290737867,0.0032392027787864
1768734168881,0.0975189208984375,-0.4248199462890625,-0.91357421875,0.0091210603713989,-0.0128353713080286,0.0118603873997926
1768734168891,0.1002960205078125,-0.423980712890625,-0.910797119140625,0.0187963247299194,-0.0166357010602951,0.0163696520030498
1768734168901,0.0975189208984375,-0.4232177734375,-0.9044342041015624,0.0230376739054918,-0.0269634407013654,0.0184573046863079
1768734168911,0.0890045166015625,-0.42376708984375,-0.891754150390625,0.015082280151546,-0.0328207984566688,0.0160964112728834
1768734168921,0.08148193359375,-0.426177978515625,-0.8833770751953125,0.0036967338528484,-0.0297416504472494,0.010454504750669
1768734168931,0.0809478759765625,-0.4281005859375,-0.8809356689453125,-0.0075591164641082,-0.0230509899556636,0.0044743767939507
1768734168941,0.0900115966796875,-0.428466796875,-0.8812408447265625,-0.0158876199275255,-0.02127998881042,0.0056560216471552
1768734168951,0.10101318359375,-0.4282989501953125,-0.89410400390625,-0.0182029716670513,-0.0211276561021804,0.0086675239726901
1768734168961,0.10711669921875,-0.4275054931640625,-0.899505615234375,-0.0157776307314634,-0.0256899166852235,0.016325443983078
1768734168971,0.110198974609375,-0.4274749755859375,-0.9049072265625,-0.0090454267337918,-0.0299674868583679,0.0206040777266025
1768734168981,0.10809326171875,-0.4286041259765625,-0.904327392578125,-0.001930525409989,-0.0367231257259845,0.0284244511276483
1768734168991,0.0955810546875,-0.4321746826171875,-0.9008331298828124,0.0036996633280068,-0.0333512984216213,0.0373577587306499
1768734169001,0.0802764892578125,-0.43548583984375,-0.8907012939453125,-0.0015614113071933,-0.0244305077940225,0.035846147686243
1768734169011,0.071258544921875,-0.432159423828125,-0.885284423828125,-0.0080371536314487,-0.0244049411267042,0.0301107633858919
1768734169021,0.0716552734375,-0.425994873046875,-0.8923797607421875,-0.0151539193466305,-0.0375905185937881,0.0133150061592459
1768734169032,0.0739288330078125,-0.4232177734375,-0.8937835693359375,-0.0222147572785615,-0.0515878275036811,0.0050237872637808
1768734169042,0.07373046875,-0.4243316650390625,-0.893341064453125,-0.0250981617718935,-0.0600518845021724,-0.0028493159916251
1768734169052,0.0667724609375,-0.4240264892578125,-0.8931884765625,-0.0242395587265491,-0.0571908503770828,-0.0144180878996849
1768734169062,0.0657958984375,-0.4273834228515625,-0.8913116455078125,-0.0296393856406211,-0.0420198887586593,-0.0268553160130977
1768734169072,0.0668792724609375,-0.4276885986328125,-0.892913818359375,-0.0384448617696762,-0.0275013986974954,-0.0404590107500553
1768734169082,0.083404541015625,-0.427764892578125,-0.902801513671875,-0.0293807927519083,-0.0200059320777654,-0.0362863689661026
1768734169092,0.098480224609375,-0.4298095703125,-0.9123382568359376,-0.0117719704285264,-0.0267442632466554,-0.024493359029293
1768734169102,0.0955963134765625,-0.428741455078125,-0.9097442626953124,0.0015100123127922,-0.0317747071385383,-0.0152971968054771
1768734169112,0.083404541015625,-0.4273223876953125,-0.902008056640625,0.0094403736293315,-0.0362299084663391,-0.018956646323204
1768734169122,0.07196044921875,-0.4284515380859375,-0.89300537109375,0.0074898740276694,-0.0334042944014072,-0.0289450995624065
1768734169132,0.063262939453125,-0.43072509765625,-0.8943634033203125,0.0101647535338997,-0.0288359094411134,-0.041382860392332
1768734169142,0.06866455078125,-0.4288177490234375,-0.8980255126953125,0.0095761949196457,-0.0322743169963359,-0.0460476540029048
1768734169152,0.0676116943359375,-0.4280548095703125,-0.89361572265625,0.0040948763489723,-0.0346969924867153,-0.0542768202722072
1768734169162,0.0665435791015625,-0.4250335693359375,-0.8936614990234375,0.0005222458858042,-0.0337395891547203,-0.0615477822721004
1768734169172,0.0774688720703125,-0.4221343994140625,-0.8998260498046875,0.0023169501218944,-0.0319534055888652,-0.0585802234709262
1768734169182,0.0905303955078125,-0.425506591796875,-0.8997344970703125,0.003785949666053,-0.0448271259665489,-0.0524509586393833
1768734169192,0.0916900634765625,-0.4290771484375,-0.8937530517578125,-0.0054368432611227,-0.049867957830429,-0.0496759451925754
1768734169202,0.0904388427734375,-0.427978515625,-0.8909454345703125,-0.014461763203144,-0.0431261658668518,-0.0408864468336105
1768734169212,0.0850830078125,-0.41961669921875,-0.8975982666015625,-0.0133309857919812,-0.0297863911837339,-0.0332397110760211
1768734169222,0.08184814453125,-0.421600341796875,-0.899749755859375,-0.0036858150269836,-0.022107433527708,-0.032570194453001
1768734169232,0.0900726318359375,-0.43017578125,-0.8885040283203125,-0.0109610380604863,-0.0359097979962825,-0.0247775185853242
1768734169243,0.089080810546875,-0.431060791015625,-0.8904266357421875,-0.0174221340566873,-0.0338932536542415,-0.021893847733736
1768734169253,0.08258056640625,-0.433319091796875,-0.8802642822265625,-0.0351340174674987,-0.0261048376560211,-0.0241743121296167
1768734169263,0.0833282470703125,-0.4357757568359375,-0.8834228515625,-0.043003924190998,-0.014420217834413,-0.0202117953449487
1768734169273,0.0928802490234375,-0.43658447265625,-0.887786865234375,-0.0467659085988998,-0.0105815380811691,-0.0078347539529204
1768734169283,0.0818328857421875,-0.429290771484375,-0.890411376953125,-0.0514717139303684,-0.0111170997843146,-0.017822939902544
1768734169293,0.0627288818359375,-0.413330078125,-0.89154052734375,-0.0497353337705135,-0.0040373522788286,-0.0395063981413841
1768734169303,0.0554046630859375,-0.4121551513671875,-0.8923492431640625,-0.0466322153806686,0.0080869551748037,-0.0463920012116432
1768734169313,0.06951904296875,-0.422943115234375,-0.8906402587890625,-0.0468956045806407,0.0190908703953027,-0.0419889949262142
1768734169323,0.0869140625,-0.4231719970703125,-0.89642333984375,-0.0502682290971279,0.0077740335837006,-0.0371827892959117
1768734169333,0.0996246337890625,-0.4251251220703125,-0.899566650390625,-0.0566094815731048,-0.006008624099195,-0.0258936490863561
1768734169343,0.1028594970703125,-0.42816162109375,-0.89752197265625,-0.0618327409029006,-0.010333864018321,-0.0140913175418972
1768734169353,0.0923614501953125,-0.4276580810546875,-0.8955841064453125,-0.0631962791085243,-0.0094624776393175,-0.0076555227860808
1768734169363,0.084625244140625,-0.4288330078125,-0.897003173828125,-0.0652762055397033,-0.0001496696495451,-0.000826378876809
1768734169373,0.079742431640625,-0.4297637939453125,-0.898284912109375,-0.0649648830294609,0.007710117381066,0.0003597930481191
1768734169383,0.0773468017578125,-0.4250640869140625,-0.90582275390625,-0.0613741464912891,0.0021182782948017,-0.001914812834002
1768734169393,0.0790557861328125,-0.421295166015625,-0.9152679443359376,-0.054888017475605,0.0005038700764998,-0.0020298613235354
1768734169403,0.07806396484375,-0.422515869140625,-0.9184417724609376,-0.0415767394006252,0.0077079869806766,-0.0051947617903351
1768734169413,0.07275390625,-0.421661376953125,-0.9164276123046876,-0.0301208849996328,0.0100148171186447,-0.0078850872814655
1768734169423,0.08209228515625,-0.42144775390625,-0.9180145263671876,-0.0145935900509357,0.0102885905653238,-0.0023228090722113
1768734169433,0.08892822265625,-0.4192657470703125,-0.922088623046875,0.0030772825703024,0.0055513591505587,0.0034221620298922
1768734169443,0.083709716796875,-0.4200439453125,-0.914031982421875,0.0143938530236482,-0.0027161580510437,0.0028921929188072
1768734169454,0.0742950439453125,-0.423553466796875,-0.9001007080078125,0.0124476151540875,0.0010205233702436,-0.002068477217108
1768734169464,0.0736236572265625,-0.424896240234375,-0.8922271728515625,0.0060088904574513,0.0046810382045805,-0.0025395904667675
1768734169474,0.0734405517578125,-0.4248199462890625,-0.88873291015625,0.0025137576740235,0.0055918390862643,-0.0070832096971571
1768734169484,0.075439453125,-0.4209442138671875,-0.8934783935546875,-0.005493835080415,-0.0015848471084609,-0.0132508240640163
1768734169494,0.072906494140625,-0.4188079833984375,-0.8877716064453125,-0.0183446519076824,-0.0114135090261697,-0.0164106655865907
1768734169504,0.0802001953125,-0.41845703125,-0.8902740478515625,-0.0271370783448219,-0.0154798896983265,-0.0202562697231769
1768734169514,0.0808868408203125,-0.4185028076171875,-0.892730712890625,-0.0303547102957963,-0.0146734844893217,-0.0185944568365812
1768734169524,0.0806732177734375,-0.4178009033203125,-0.8925018310546875,-0.034241858869791,0.001039165421389,-0.0158585924655199
1768734169534,0.0821380615234375,-0.417144775390625,-0.8931121826171875,-0.0352842211723327,0.0028096348978579,-0.0125320367515087
1768734169544,0.0839996337890625,-0.41827392578125,-0.8953704833984375,-0.0342013798654079,0.0070275492034852,-0.0125445537269115
1768734169554,0.08221435546875,-0.41705322265625,-0.8984375,-0.0342961885035038,0.0034842137247323,-0.0193936713039875
1768734169564,0.08209228515625,-0.4189605712890625,-0.8975982666015625,-0.0368488281965255,0.0027105652261525,-0.0178628861904144
1768734169574,0.0817108154296875,-0.4190216064453125,-0.9007720947265624,-0.036209937185049,0.0039707729592919,-0.0183971170336008
1768734169584,0.07879638671875,-0.4183807373046875,-0.899383544921875,-0.0363934263586998,-0.0028762139845639,-0.0185294765979051
1768734169594,0.0754852294921875,-0.415435791015625,-0.8995361328125,-0.0397854968905448,-0.0070943948812782,-0.0233055893331766
1768734169604,0.0825042724609375,-0.415740966796875,-0.905059814453125,-0.0387002564966678,-0.0034988611005246,-0.0239873584359884
1768734169614,0.0873870849609375,-0.420806884765625,-0.907135009765625,-0.0348386727273464,0.0014471617760136,-0.0216879844665527
1768734169624,0.087005615234375,-0.4225311279296875,-0.9060821533203124,-0.0342013798654079,0.0166325066238641,-0.0158138498663902
1768734169635,0.0883026123046875,-0.42169189453125,-0.9091949462890624,-0.0280590653419494,0.027762921527028,-0.0069540459662675
1768734169644,0.0900421142578125,-0.41888427734375,-0.91217041015625,-0.016979781910777,0.0226957257837057,0.0003102582704741
1768734169654,0.09210205078125,-0.41546630859375,-0.914459228515625,-0.0089753856882452,0.0171885732561349,0.0043372241780161
1768734169665,0.0871124267578125,-0.4140625,-0.909027099609375,-0.006147907115519,0.0157547276467084,0.0026533072814345
1768734169675,0.08294677734375,-0.416656494140625,-0.8999176025390625,-0.0084829665720462,0.0231340806931257,0.0005435511702671
1768734169685,0.08123779296875,-0.41705322265625,-0.8929901123046875,-0.017716946080327,0.022588400170207,0.0052754557691514
1768734169695,0.07855224609375,-0.4165802001953125,-0.889923095703125,-0.0266798138618469,0.0271027237176895,-0.0001866875973064
1768734169705,0.078704833984375,-0.414398193359375,-0.8906707763671875,-0.0349177718162536,0.0289046186953783,0.0019206717843189
1768734169715,0.079193115234375,-0.4141693115234375,-0.8921966552734375,-0.0404563471674919,0.0196373499929904,-0.0062373895198106
1768734169725,0.079986572265625,-0.4136810302734375,-0.8977813720703125,-0.0438585355877876,0.012599148787558,-0.0170588791370391
1768734169735,0.0876922607421875,-0.414398193359375,-0.90484619140625,-0.0428268276154994,0.0180082954466342,-0.0161432828754186
1768734169745,0.0914154052734375,-0.413330078125,-0.91021728515625,-0.0374014340341091,0.0216016992926597,-0.0130596095696091
1768734169755,0.09124755859375,-0.412445068359375,-0.9134521484375,-0.028029503300786,0.0184770114719867,-0.0118217719718813
1768734169765,0.0860748291015625,-0.41217041015625,-0.91162109375,-0.0227029155939817,0.0168239865452051,-0.0085053378716111
1768734169775,0.082489013671875,-0.4128875732421875,-0.91021728515625,-0.0203167237341403,0.0156953390687704,-0.0088139977306127
1768734169785,0.081695556640625,-0.4129486083984375,-0.9092864990234376,-0.0135272601619362,0.0152015900239348,-0.012997024692595
1768734169795,0.08203125,-0.412994384765625,-0.90802001953125,-0.0106742158532142,0.0135333854705095,-0.0122968796640634
1768734169805,0.0884857177734375,-0.4119720458984375,-0.9073486328125,-0.0068496502935886,0.0170674007385969,-0.0062248725444078
1768734169815,0.0920257568359375,-0.410675048828125,-0.905242919921875,-0.0064086308702826,0.0067569720558822,-0.0061540324240922
1768734169826,0.0897064208984375,-0.41046142578125,-0.9007720947265624,-0.007890679873526,-0.0023920512758195,-0.0083484770730137
1768734169835,0.088653564453125,-0.4078826904296875,-0.9011688232421876,-0.0085463505238294,0.000186953911907,-0.0026272083632647
1768734169846,0.08758544921875,-0.4130706787109375,-0.8964996337890625,-0.0173425041139125,0.00336943147704,-0.0037502634804695
1768734169855,0.0826263427734375,-0.4149322509765625,-0.8873748779296875,-0.0317182466387748,0.0037641117814928,-0.0092169344425201
1768734169865,0.0835113525390625,-0.4094390869140625,-0.89398193359375,-0.0380131639540195,0.0074999942444264,-0.0137373832985758
1768734169876,0.0881500244140625,-0.4023590087890625,-0.9121551513671876,-0.0284516140818595,0.0129208583384752,-0.016246348619461
1768734169886,0.087890625,-0.40692138671875,-0.91607666015625,-0.0201609283685684,0.0029880667570978,-0.0175779275596141
1768734169896,0.0961761474609375,-0.414306640625,-0.9066009521484376,-0.0155406100675463,0.0016077503096312,-0.0065646921284496
1768734169906,0.090667724609375,-0.4091033935546875,-0.914825439453125,-0.0087876329198479,0.0027712853625416,-0.0024349282030016
1768734169916,0.08612060546875,-0.4145660400390625,-0.908172607421875,-0.0092915026471018,-0.0025339976418763,-0.0096382461488246
1768734169926,0.08935546875,-0.416595458984375,-0.9038238525390624,-0.0116699719801545,-0.0044267061166465,-0.0090576773509383
1768734169936,0.0982818603515625,-0.4159088134765625,-0.9064788818359376,-0.0074062510393559,0.0057423077523708,0.0015177355380728
1768734169946,0.0901031494140625,-0.4118194580078125,-0.9072723388671876,-0.0025803367607295,0.0090789822861552,0.0001533980830572
1768734169956,0.078216552734375,-0.400665283203125,-0.9106292724609376,0.0046235141344368,0.019283415749669,-0.0047327033244073
1768734169966,0.076446533203125,-0.3994598388671875,-0.9131317138671876,0.0190581139177083,0.0155507298186421,-0.0091596757993102
1768734169976,0.086212158203125,-0.405517578125,-0.9098663330078124,0.0227119699120521,0.0034163030795753,-0.0154386106878519
1768734169986,0.09600830078125,-0.40948486328125,-0.905609130859375,0.0186722204089164,-0.0076874806545674,-0.0094662057235836
1768734169996,0.1080169677734375,-0.411529541015625,-0.9029693603515624,0.0165890958160161,-0.0038352182600647,0.0071135694161057
1768734170006,0.104827880859375,-0.414703369140625,-0.898284912109375,0.0106169581413269,-0.0083740437403321,0.0133746610954403
1768734170016,0.0933685302734375,-0.413787841796875,-0.891021728515625,-0.004596616141498,-0.0069535137154161,0.0114678377285599
1768734170026,0.0907745361328125,-0.4126129150390625,-0.89117431640625,-0.0165464859455823,0.0008966863388195,0.0104132257401943
1768734170036,0.08984375,-0.4133758544921875,-0.893707275390625,-0.0212134104222059,-0.0020016317721456,0.012066782452166
1768734170046,0.0901641845703125,-0.41064453125,-0.9075775146484376,-0.0172812528908252,-0.000964596925769,0.0067585702054202
1768734170056,0.094451904296875,-0.4095306396484375,-0.9169464111328124,-0.0111357420682907,-0.0036852823104709,0.0100475745275616
1768734170067,0.0965423583984375,-0.41009521484375,-0.9245758056640624,0.0046171224676072,0.0022096247412264,0.0169579442590475
1768734170076,0.1000518798828125,-0.4088287353515625,-0.9312896728515624,0.0250816512852907,0.0109743541106581,0.0284188576042652
1768734170087,0.0944366455078125,-0.4121551513671875,-0.9270172119140624,0.0407985635101795,0.0176927112042903,0.0322559401392936
1768734170097,0.0841064453125,-0.41241455078125,-0.9183502197265624,0.0501073747873306,0.0101644871756434,0.0292803905904293
1768734170107,0.087432861328125,-0.413299560546875,-0.9160003662109376,0.0628599226474762,0.0025065671652555,0.0275037959218025
1768734170117,0.0946197509765625,-0.41815185546875,-0.907928466796875,0.0682261884212493,-0.0063617592677474,0.0312980003654956
1768734170127,0.09210205078125,-0.4233551025390625,-0.8894805908203125,0.0581983253359794,-0.0036762275267392,0.0394669808447361
1768734170137,0.085662841796875,-0.4196929931640625,-0.87939453125,0.0395258367061615,0.0048538772389292,0.0430041924118995
1768734170147,0.0717010498046875,-0.416717529296875,-0.871917724609375,0.0159779004752635,0.0014173343079164,0.0320090651512146
1768734170157,0.0649566650390625,-0.413848876953125,-0.8713836669921875,-0.0086422236636281,-0.0006924218614585,0.0190687663853168
1768734170167,0.073883056640625,-0.415496826171875,-0.8813934326171875,-0.0222192853689193,0.0053289853967726,0.0110630374401807
1768734170177,0.082183837890625,-0.4130859375,-0.8954315185546875,-0.0256262682378292,0.0092206625267863,0.0060778660699725
1768734170187,0.0849151611328125,-0.4099273681640625,-0.907073974609375,-0.0210890397429466,0.0017084177816286,0.0061542987823486
1768734170197,0.09466552734375,-0.4088897705078125,-0.9195404052734376,-0.0078539280220866,-0.003361441893503,0.011005513370037
1768734170207,0.0960693359375,-0.4112548828125,-0.9203033447265624,0.0099285310134291,-0.009640909731388,0.0208568125963211
1768734170217,0.08599853515625,-0.415740966796875,-0.91156005859375,0.0159826949238777,-0.0037547908723354,0.0203031413257122
1768734170227,0.073272705078125,-0.4175262451171875,-0.904022216796875,0.0150125054642558,0.0005259743193164,0.020446952432394
1768734170237,0.078948974609375,-0.4165802001953125,-0.902862548828125,0.0152820171788334,-6.924218723725062e-06,0.0145698878914117
1768734170247,0.0823516845703125,-0.4215240478515625,-0.9010467529296876,0.0130617395043373,-0.0131229925900697,0.0133938360959291
1768734170257,0.081573486328125,-0.4220428466796875,-0.895782470703125,0.006033391226083,-0.0144431218504905,0.0129112713038921
1768734170267,0.0767822265625,-0.42041015625,-0.89202880859375,-0.0020114856306463,-0.0156652461737394,0.0078677767887711
1768734170278,0.0750732421875,-0.420989990234375,-0.89422607421875,-0.0062688146717846,-0.0105674229562282,0.0015398397808894
1768734170287,0.0836029052734375,-0.4207611083984375,-0.9004669189453125,-0.0056549562141299,-0.0057114153169095,-0.0015334481140598
1768734170298,0.088134765625,-0.418914794921875,-0.9080963134765624,0.0006665892433375,-0.0092909699305891,0.0015251922886818
1768734170308,0.088958740234375,-0.41510009765625,-0.9119110107421876,0.0101154847070574,-0.0156655125319957,0.0030740867368876
1768734170318,0.092010498046875,-0.419097900390625,-0.9132080078125,0.0182056352496147,-0.0154415406286716,0.00453722756356
1768734170328,0.0892791748046875,-0.4217681884765625,-0.9040985107421876,0.0198839586228132,-0.015123825520277,0.0104944529011845
1768734170338,0.0890350341796875,-0.4202728271484375,-0.903900146484375,0.0230262223631143,-0.005675462540239,0.0211401730775833
1768734170348,0.08575439453125,-0.4213104248046875,-0.8991241455078125,0.0231141075491905,-0.0024570324458181,0.0267567783594131
1768734170358,0.07720947265625,-0.418609619140625,-0.8948211669921875,0.019520703703165,0.0009579390170983,0.0231436677277088
1768734170368,0.077392578125,-0.418670654296875,-0.8935089111328125,0.011069961823523,0.0100552970543503,0.0232904087752103
1768734170378,0.0762176513671875,-0.4206695556640625,-0.8886566162109375,0.0031217574141919,0.0125432219356298,0.0180058982223272
1768734170388,0.072174072265625,-0.4168701171875,-0.8935394287109375,-0.0025334651581943,0.008732771500945,0.0071804150938987
1768734170398,0.077301025390625,-0.41754150390625,-0.898406982421875,-0.0042448122985661,-0.0021981731988489,0.0059183426201343
1768734170408,0.082305908203125,-0.4215545654296875,-0.90057373046875,-0.0014540859265252,-0.0033571808598935,0.0083479443565011
1768734170418,0.0791473388671875,-0.4207611083984375,-0.902252197265625,-0.0013638047967106,-0.0114617124199867,0.0067716194316744
1768734170428,0.0785064697265625,-0.4216461181640625,-0.9051055908203124,0.0046506780199706,-0.0086302394047379,0.0080153159797191
1768734170438,0.0820770263671875,-0.4208984375,-0.90936279296875,0.011053716763854,-0.0052339104004204,0.0141440480947494
1768734170448,0.0761566162109375,-0.4180145263671875,-0.9080657958984376,0.0182522404938936,-0.0051287156529724,0.0107162939384579
1768734170458,0.0775299072265625,-0.4187774658203125,-0.9052276611328124,0.0203886292874813,-0.0045225801877677,0.0110020507127046
1768734170469,0.0769500732421875,-0.4222259521484375,-0.9006805419921875,0.0207082070410251,-0.0005422196118161,0.0120390858501195
1768734170478,0.0730133056640625,-0.4188385009765625,-0.89556884765625,0.0168191939592361,-0.0069516492076218,0.0101580955088138
1768734170489,0.0722808837890625,-0.416534423828125,-0.8927154541015625,0.0123940855264663,-0.0022895196452736,0.0065915901213884
1768734170498,0.07025146484375,-0.420654296875,-0.88665771484375,0.0035116442013531,-0.0040139164775609,0.0009542105835862
1768734170509,0.068084716796875,-0.4249420166015625,-0.8800201416015625,-0.0153712332248687,-0.0014266553334891,-0.008894957602024
1768734170519,0.0712127685546875,-0.423858642578125,-0.8798828125,-0.036573190242052,-0.0244938917458057,-0.017372066155076
1768734170529,0.0802764892578125,-0.4158782958984375,-0.8999786376953125,-0.0357164517045021,-0.0321289077401161,-0.0178487710654735
1768734170539,0.0870513916015625,-0.4118194580078125,-0.92108154296875,-0.0163717828691005,-0.0217987727373838,-0.0137307262048125
1768734170549,0.075653076171875,-0.413726806640625,-0.924468994140625,0.0065854648128151,-0.0206629335880279,-0.0181345287710428
1768734170559,0.074249267578125,-0.4175872802734375,-0.9114227294921876,0.0122883580625057,-0.0120036657899618,-0.0227386020123958
1768734170569,0.0789947509765625,-0.4208221435546875,-0.9140167236328124,0.0196996685117483,-0.0041313618421554,-0.019008845090866
1768734170579,0.0899810791015625,-0.4250640869140625,-0.908782958984375,0.0235561914741992,-0.0102169513702392,-0.0131112746894359
1768734170589,0.0970916748046875,-0.4224090576171875,-0.91363525390625,0.0320503450930118,-0.0036008600145578,-0.0043521379120647
1768734170599,0.100677490234375,-0.428802490234375,-0.908843994140625,0.0381322056055069,0.0066978503018617,0.0104379933327436
1768734170609,0.08966064453125,-0.42132568359375,-0.9109344482421876,0.0497542396187782,0.0087543427944183,0.0081796329468488
1768734170619,0.0694122314453125,-0.4074554443359375,-0.9106903076171876,0.0551958791911602,0.0099293300881981,-0.002518018707633
1768734170629,0.0603485107421875,-0.4049835205078125,-0.903228759765625,0.0593224465847015,0.0004356931603979,-0.0083516733720898
1768734170639,0.0601806640625,-0.4127655029296875,-0.8965301513671875,0.0562395714223384,-0.0055750613100826,-0.0162077322602272
1768734170649,0.0722198486328125,-0.4178009033203125,-0.892059326171875,0.0437139235436916,-0.0003022687742486,-0.0177624858915805
1768734170659,0.08160400390625,-0.425140380859375,-0.8824920654296875,0.0247767195105552,-0.0026730147656053,-0.0197995379567146
1768734170669,0.086883544921875,-0.423248291015625,-0.8856964111328125,0.0086169242858886,-0.0037326866295188,-0.0190796852111816
1768734170679,0.0903778076171875,-0.4271697998046875,-0.888885498046875,-0.0001552622852614,0.0006117281154729,-0.0119384182617068
1768734170690,0.088531494140625,-0.4283599853515625,-0.8946533203125,-0.0025883263442665,0.0158623196184635,-0.0046884948387742
1768734170699,0.083160400390625,-0.423431396484375,-0.902191162109375,0.003738012863323,0.018444787710905,-0.0050261840224266
1768734170709,0.0779266357421875,-0.4196014404296875,-0.9050750732421876,0.0050059440545737,0.0114172380417585,-0.0046964846551418
1768734170720,0.07879638671875,-0.42169189453125,-0.90753173828125,0.0085729816928505,0.0205574724823236,-0.0043811663053929
1768734170730,0.075531005859375,-0.4238433837890625,-0.9051055908203124,0.0158287640661001,0.0266992542892694,-0.0042789010331034
1768734170740,0.069610595703125,-0.4183502197265625,-0.904296875,0.0187787469476461,0.0200168509036302,-0.0070792147889733
1768734170750,0.075164794921875,-0.4139862060546875,-0.9111785888671876,0.0342328064143657,0.0028895298019051,-0.0146015798673033
1768734170760,0.0889892578125,-0.422088623046875,-0.9083709716796876,0.0430433414876461,-0.0023292007390409,-0.0097154779359698
1768734170770,0.084320068359375,-0.4320068359375,-0.89361572265625,0.0421509146690368,0.001710015698336,-0.0064605623483657
1768734170780,0.0701751708984375,-0.4314117431640625,-0.8823394775390625,0.0282473508268594,0.0033577135764062,-0.0094209322705864
1768734170790,0.073944091796875,-0.4256134033203125,-0.8789215087890625,0.0128042120486497,-0.006245378870517,-0.0046562706120312
1768734170800,0.08062744140625,-0.4240570068359375,-0.8839874267578125,0.0057252636179327,0.0003936151915695,-0.0065010422840714
1768734170810,0.0741729736328125,-0.4254608154296875,-0.8862457275390625,-0.0033518546260893,0.0058003650046885,-0.016088156029582
1768734170820,0.0822906494140625,-0.42742919921875,-0.887298583984375,-0.0089492863044142,0.0075695025734603,-0.0169225241988897
1768734170830,0.093475341796875,-0.427093505859375,-0.8915252685546875,-0.0083588641136884,0.0071311462670564,-0.0093301180750131
1768734170840,0.0878448486328125,-0.4181671142578125,-0.8995819091796875,-0.0068400627933442,0.0141480434685945,-0.0104148238897323
1768734170850,0.076812744140625,-0.4161224365234375,-0.90692138671875,0.0047007454559206,0.0145560391247272,-0.0109256180003285
1768734170860,0.083770751953125,-0.419036865234375,-0.91082763671875,0.0193132441490888,0.004195543937385,-0.008758071810007
1768734170870,0.0871734619140625,-0.4201812744140625,-0.9119415283203124,0.0286713261157274,0.004398210439831,-0.005037635564804
1768734170880,0.082305908203125,-0.4205474853515625,-0.907684326171875,0.0285442937165498,0.0093631418421864,-0.0035337484441697
1768734170890,0.080230712890625,-0.4212493896484375,-0.9033966064453124,0.0340980477631092,0.0202709175646305,-0.0069782808423042
1768734170900,0.079437255859375,-0.4240875244140625,-0.902557373046875,0.0359039381146431,0.0253234654664993,-0.0098313251510262
1768734170910,0.0774078369140625,-0.4251251220703125,-0.8982391357421875,0.0354834236204624,0.024449948221445,-0.0195366833359003
1768734170921,0.07977294921875,-0.4321441650390625,-0.8924560546875,0.031824242323637,0.0287488233298063,-0.0277823619544506
1768734170931,0.0875396728515625,-0.4420318603515625,-0.8930206298828125,0.0284761153161525,0.0251114778220653,-0.026176743209362
1768734170941,0.0950469970703125,-0.4433746337890625,-0.8984832763671875,0.0301395263522863,0.0335771329700946,-0.0267519857734441
1768734170951,0.0964202880859375,-0.4429779052734375,-0.9095001220703124,0.0399711169302463,0.043422307819128,-0.0280662551522254
1768734170961,0.092132568359375,-0.4363250732421875,-0.91351318359375,0.0542509891092777,0.0570108219981193,-0.024817731231451
1768734170971,0.0905609130859375,-0.427001953125,-0.9173736572265624,0.0721335783600807,0.0619456581771373,-0.0293285939842462
1768734170981,0.0821075439453125,-0.4249725341796875,-0.9118499755859376,0.0860485956072807,0.0577993839979171,-0.0360101982951164
1768734170991,0.07855224609375,-0.42510986328125,-0.9009552001953124,0.0869940221309661,0.0638343766331672,-0.0448383130133152
1768734171001,0.08367919921875,-0.4255828857421875,-0.8956451416015625,0.0856163650751113,0.0727788656949997,-0.0440657287836074
1768734171011,0.0980377197265625,-0.4308624267578125,-0.8943634033203125,0.0849820002913475,0.076161079108715,-0.0322772450745105
1768734171021,0.1056060791015625,-0.4326934814453125,-0.88372802734375,0.0792460888624191,0.0709498077630996,-0.0165808405727148
1768734171031,0.1022796630859375,-0.4332122802734375,-0.871185302734375,0.0651419833302497,0.0593067333102226,-0.0124968830496072
1768734171041,0.0946502685546875,-0.4361724853515625,-0.8621673583984375,0.0464793518185615,0.0557506121695041,-0.0143933203071355
1768734171051,0.091644287109375,-0.44036865234375,-0.8526611328125,0.0238613914698362,0.0544794872403144,-0.0164154581725597
1768734171061,0.095916748046875,-0.444793701171875,-0.8505706787109375,0.0038392129354178,0.0575282722711563,-0.009746104478836
1768734171071,0.10504150390625,-0.444305419921875,-0.85699462890625,-0.0108305430039763,0.0626351535320282,0.0064339307136833
1768734171081,0.109283447265625,-0.443939208984375,-0.867095947265625,-0.0189286842942237,0.063311330974102,0.0171089451760053
1768734171091,0.1110382080078125,-0.4432525634765625,-0.875823974609375,-0.022857379168272,0.0662850141525268,0.0340581014752388
1768734171101,0.1038360595703125,-0.4440460205078125,-0.878448486328125,-0.0258712787181139,0.0673273727297782,0.0404563471674919
1768734171111,0.0956878662109375,-0.4446258544921875,-0.8809661865234375,-0.0273924749344587,0.0626135766506195,0.0431075245141983
1768734171121,0.0886383056640625,-0.4417724609375,-0.8877716064453125,-0.0221319328993558,0.0594252422451972,0.0436566658318042
1768734171131,0.085723876953125,-0.43841552734375,-0.89501953125,-0.0125940889120101,0.0499262809753418,0.0438537411391735
1768734171142,0.0843963623046875,-0.436767578125,-0.8935089111328125,-0.008651278913021,0.0506333485245704,0.0460346043109893
1768734171152,0.0791778564453125,-0.4350433349609375,-0.89190673828125,-0.0073860110715031,0.0484013557434082,0.0450151450932025
1768734171162,0.078033447265625,-0.43109130859375,-0.89166259765625,-0.0097029609605669,0.0445211306214332,0.0358048677444458
1768734171172,0.0814056396484375,-0.4312896728515625,-0.8842926025390625,-0.0191766247153282,0.0353225693106651,0.0301640275865793
1768734171182,0.0935516357421875,-0.43768310546875,-0.8800811767578125,-0.028970930725336,0.0393005348742008,0.0272513274103403
1768734171192,0.105804443359375,-0.4374237060546875,-0.8836212158203125,-0.0281671900302171,0.0450042262673378,0.0287901032716035
1768734171202,0.1135406494140625,-0.426605224609375,-0.891693115234375,-0.0231692343950271,0.0519175268709659,0.0316524691879749
1768734171212,0.1114501953125,-0.4247894287109375,-0.900604248046875,-0.0048789111897349,0.0593189820647239,0.0217236708849668
