timestamp_ms,acc_x,acc_y,acc_z,gyro_x,gyro_y,gyro_z
1769241122934,-0.129425048828125,-0.1020660400390625,-0.979522705078125,0.0137046268209815,0.0069135660305619,0.0038778288289904
1769241122941,-0.13165283203125,-0.099884033203125,-0.9781646728515624,0.0159395523369312,0.0095729986205697,0.0029164277948439
1769241122951,-0.13714599609375,-0.0974273681640625,-0.98052978515625,0.0120057966560125,0.0039926110766828,0.0074440678581595
1769241122961,-0.1371002197265625,-0.105377197265625,-0.98388671875,0.0074597806669771,-0.0051470915786921,0.0118257664144039
1769241122971,-0.133758544921875,-0.1138458251953125,-0.983367919921875,-0.005959621630609,0.0182221475988626,0.0135680064558982
1769241122981,-0.132171630859375,-0.0863800048828125,-0.9755096435546876,-0.0123666543513536,0.00981215108186,0.0092574143782258
1769241122991,-0.1425628662109375,-0.091400146484375,-0.9766998291015624,-0.0111687649041414,0.01678510569036,0.0086478162556886
1769241123001,-0.137176513671875,-0.0918731689453125,-0.97894287109375,-0.0016871124971657,0.0144969169050455,0.0046445527113974
1769241123011,-0.1390533447265625,-0.098175048828125,-0.9807281494140624,-0.0019510318525135,0.0118966065347194,0.0011337077012285
1769241123021,-0.141326904296875,-0.099945068359375,-0.977874755859375,-0.0073718959465622,0.0140862576663494,-0.002127865795046
1769241123031,-0.1399993896484375,-0.0973663330078125,-0.9786529541015624,-0.0014530207263305,0.0085293063893914,-0.0035947347059845
1769241123041,-0.13946533203125,-0.0937042236328125,-0.9882354736328124,0.0060911821201443,-0.0089950924739241,-0.0032274848781526
1769241123051,-0.1395111083984375,-0.0897216796875,-0.9898529052734376,0.0049228533171117,-0.0263679586350917,-0.005249623209238
1769241123061,-0.138641357421875,-0.09246826171875,-0.983123779296875,-0.0097327884286642,-0.0193854160606861,-0.0054158042185008
1769241123071,-0.1368560791015625,-0.09613037109375,-0.973602294921875,-0.0279738437384367,-0.0108912633731961,-0.0075266258791089
1769241123081,-0.1386260986328125,-0.100860595703125,-0.9674530029296876,-0.0390909425914287,-0.0060818609781563,-0.0057710702531039
1769241123092,-0.1390838623046875,-0.101593017578125,-0.9727630615234376,-0.0460079722106456,0.0008380967774428,-0.0081844264641404
1769241123102,-0.136749267578125,-0.10107421875,-0.9848480224609376,-0.0456790700554847,-0.0020351877901703,-0.0102233430370688
1769241123112,-0.1374969482421875,-0.100616455078125,-0.9942779541015624,-0.040224652737379,-0.0090076094493269,-0.0062280683778226
1769241123122,-0.1379547119140625,-0.0968170166015625,-1.0021209716796875,-0.039137814193964,-0.0116571886464953,-0.001741973683238
1769241123132,-0.1340789794921875,-0.0937652587890625,-1.0016021728515625,-0.0321627296507358,-0.0126036759465932,-0.0008205199264921
1769241123142,-0.1318817138671875,-0.0928497314453125,-1.0000152587890625,-0.0184575710445642,-0.0157243683934211,0.0033862092532217
1769241123152,-0.1307220458984375,-0.0929718017578125,-0.999969482421875,0.0034807515330612,-0.0092821819707751,0.0096022933721542
1769241123162,-0.1331939697265625,-0.0933990478515625,-1.004425048828125,0.0236225053668022,-0.007302121259272,0.0163635276257991
1769241123172,-0.129119873046875,-0.094390869140625,-1.0028533935546875,0.0458545722067356,-7.989483492565341e-07,0.0191081799566745
1769241123182,-0.129486083984375,-0.0980987548828125,-1.0014190673828125,0.0658328086137771,-0.0062464443035423,0.0237697772681713
1769241123192,-0.1316375732421875,-0.0975341796875,-0.997833251953125,0.0745144486427307,-0.0070816115476191,0.0220184829086065
1769241123202,-0.1378936767578125,-0.095977783203125,-0.9908447265625,0.0736734196543693,-0.0018567559309303,0.0226099714636802
1769241123212,-0.1378173828125,-0.095428466796875,-0.98565673828125,0.073447585105896,-0.0007779093575663,0.0161464791744947
1769241123222,-0.140716552734375,-0.0960693359375,-0.9833221435546876,0.0705314204096794,-0.0044671865180134,0.0146918604150414
1769241123232,-0.1426239013671875,-0.095306396484375,-0.9786224365234376,0.0586598515510559,0.0035198999103158,0.0088033452630043
1769241123242,-0.1414031982421875,-0.0942230224609375,-0.969482421875,0.0446082130074501,0.0071580442599952,0.004889297299087
1769241123252,-0.1414794921875,-0.0924072265625,-0.9693603515625,0.0350562557578086,0.008297611027956,-0.0007496798643842
1769241123262,-0.140899658203125,-0.097930908203125,-0.9689483642578124,0.0275671798735857,0.0177483707666397,-0.0064264740794897
1769241123272,-0.1418304443359375,-0.100433349609375,-0.9720458984375,0.0223353989422321,0.0090835094451904,-0.0083604613319039
1769241123282,-0.14166259765625,-0.0995941162109375,-0.975341796875,0.0157747026532888,0.0069319419562816,-0.0092401038855314
1769241123292,-0.1356201171875,-0.100372314453125,-0.97528076171875,-0.0007890945998951,0.0181845966726541,-0.0105828698724508
1769241123302,-0.1365509033203125,-0.0975799560546875,-0.9715423583984376,-0.0074051856063306,0.0102901877835392,-0.0110169649124145
1769241123312,-0.1358795166015625,-0.09716796875,-0.970458984375,-0.0190613083541393,0.0185545086860656,-0.008476841263473
1769241123323,-0.136993408203125,-0.1062469482421875,-0.973419189453125,-0.0429317541420459,0.0213979668915271,-0.0030599720776081
1769241123333,-0.131927490234375,-0.1135711669921875,-0.9754638671875,-0.0450039617717266,0.0222280733287334,-0.0021209414117038
1769241123343,-0.12774658203125,-0.092742919921875,-0.981964111328125,-0.0332506299018859,0.0050285807810723,-0.0092092109844088
1769241123353,-0.137908935546875,-0.07977294921875,-0.9874267578125,-0.0261485129594802,-0.0006889597862027,-0.018173411488533
1769241123363,-0.1417388916015625,-0.0948638916015625,-0.9929656982421876,-0.0162122584879398,-0.0016724651213735,-0.0232970658689737
1769241123373,-0.1385955810546875,-0.0945281982421875,-0.984619140625,-0.0273629147559404,-0.0109269497916102,-0.0256321262568235
1769241123383,-0.1369171142578125,-0.1118316650390625,-0.9785308837890624,-0.0395679138600826,0.0275956746190786,-0.0262174885720014
1769241123393,-0.1319122314453125,-0.1055755615234375,-0.9756317138671876,-0.0380320698022842,0.0343893989920616,-0.0236669797450304
1769241123403,-0.12615966796875,-0.0924530029296875,-0.97509765625,-0.0393500700592994,0.0275378841906785,-0.0214826557785272
1769241123413,-0.1253662109375,-0.095550537109375,-0.986602783203125,-0.020479442551732,0.0321675240993499,-0.0174735318869352
1769241123423,-0.1265106201171875,-0.0867156982421875,-0.993408203125,0.0052946303039789,0.0124904913827776,-0.0167992208153009
1769241123433,-0.135162353515625,-0.0863189697265625,-0.9966888427734376,0.0242816377431154,0.0115834195166826,-0.01361168269068
1769241123443,-0.1363525390625,-0.08758544921875,-0.998870849609375,0.0245953574776649,0.006981476675719,-0.0115791577845811
1769241123453,-0.13604736328125,-0.0902862548828125,-0.9897308349609376,0.0212504267692565,0.0122569324448704,-0.0116428071632981
1769241123463,-0.13568115234375,-0.0958709716796875,-0.9859771728515624,0.014896391890943,0.0195254981517791,-0.0098635498434305
1769241123474,-0.13775634765625,-0.1044158935546875,-0.986968994140625,0.0051074102520942,0.0171867106109857,-0.0068821408785879
1769241123483,-0.1339874267578125,-0.107177734375,-0.9869842529296876,-0.0033089776989072,0.0154154412448406,-0.0045249769464135
1769241123493,-0.127227783203125,-0.1064910888671875,-0.98419189453125,-0.0108033791184425,0.0186924617737531,-0.0003262372338213
1769241123504,-0.1245880126953125,-0.10198974609375,-0.9842681884765624,-0.0124026071280241,0.0270353462547063,0.00154649768956
1769241123513,-0.126800537109375,-0.101104736328125,-0.9867401123046876,-0.0097447726875543,0.0317728444933891,0.0024322650860995
1769241123523,-0.1315765380859375,-0.094573974609375,-0.98858642578125,-0.0012546151410788,0.0305861383676528,0.0027081684675067
1769241123534,-0.1360931396484375,-0.09088134765625,-0.994659423828125,0.0067985174246132,0.0245737861841917,0.0059212720952928
1769241123544,-0.1349334716796875,-0.0961761474609375,-0.999664306640625,0.0138524323701858,0.0208368394523859,0.0064975805580616
1769241123554,-0.138336181640625,-0.09368896484375,-0.9972686767578124,0.0200773049145936,0.0065806708298623,0.0099969739094376
1769241123564,-0.135894775390625,-0.09478759765625,-0.99273681640625,0.0266044456511735,0.0065465825609862,0.0066832029260694
1769241123574,-0.133056640625,-0.10076904296875,-0.987884521484375,0.0251524914056062,0.0120473420247435,0.0053178002126514
1769241123584,-0.13494873046875,-0.100006103515625,-0.9812774658203124,0.0244315732270479,0.0069098374806344,0.0019819245208054
1769241123594,-0.1309967041015625,-0.1054840087890625,-0.980377197265625,0.0327811166644096,0.0046464172191917,0.0063489759340882
1769241123604,-0.1265869140625,-0.101348876953125,-0.9792327880859376,0.0337390564382076,0.0011241203173995,0.0078254323452711
1769241123614,-0.1295013427734375,-0.099639892578125,-0.9766845703125,0.0262308046221733,-0.0117943417280912,0.0089093390852212
1769241123624,-0.1299896240234375,-0.11419677734375,-0.9779052734375,0.0137230027467012,0.0051561463624238,0.0106822056695818
1769241123634,-0.1280975341796875,-0.114349365234375,-0.9813079833984376,0.0026863305829465,0.0125048728659749,0.0086222505196928
1769241123644,-0.13433837890625,-0.093231201171875,-0.9753265380859376,-0.0011824434623122,0.0038394792936742,0.0073615098372101
1769241123654,-0.1343994140625,-0.098541259765625,-0.9794769287109376,0.0068975873291492,0.0123424204066395,0.0088669946417212
1769241123665,-0.130035400390625,-0.0978546142578125,-0.9860992431640624,0.0232139769941568,0.00164450192824,0.0065092984586954
1769241123674,-0.1378936767578125,-0.1003875732421875,-0.9841461181640624,0.0302614998072385,-0.0097969705238938,0.0093972301110625
1769241123684,-0.1360626220703125,-0.103179931640625,-0.9788360595703124,0.0273352172225713,0.0022596921771764,0.0121658528223633
1769241123694,-0.135955810546875,-0.10003662109375,-0.9761505126953124,0.0209817141294479,0.0060866544954478,0.0098057594150304
1769241123704,-0.1385345458984375,-0.093170166015625,-0.973785400390625,0.0165251810103654,-0.0014618091518059,0.0106720849871635
1769241123714,-0.1325531005859375,-0.1006622314453125,-0.9785308837890624,0.0076587186194956,-0.0063761402852833,0.011782357469201
1769241123724,-0.12860107421875,-0.1038055419921875,-0.978668212890625,-0.0112758241593837,-0.0107591710984706,0.0134686706587672
1769241123734,-0.1270599365234375,-0.1042633056640625,-0.968902587890625,-0.0351771637797355,-0.0049841059371829,0.0107794106006622
1769241123744,-0.130859375,-0.10870361328125,-0.965850830078125,-0.0502775497734546,0.0030365362763404,0.0097839208319783
1769241123755,-0.1356964111328125,-0.10943603515625,-0.96881103515625,-0.0645233318209648,0.0073559172451496,0.0057785268872976
1769241123765,-0.139801025390625,-0.1067657470703125,-0.9753570556640624,-0.0659659653902053,-0.0031625037081539,0.0038147119339555
1769241123775,-0.136627197265625,-0.1053619384765625,-0.9879302978515624,-0.0684411078691482,-0.0072621740400791,0.0007347661303356
1769241123785,-0.1355743408203125,-0.098358154296875,-0.9933013916015624,-0.0651124268770217,-0.0142630916088819,-0.0050432281568646
1769241123795,-0.1361541748046875,-0.0958099365234375,-0.997314453125,-0.0591890215873718,-0.0193060543388128,-0.0028194885235279
1769241123805,-0.1330108642578125,-0.0935516357421875,-0.9991302490234376,-0.0493606254458427,-0.0086853671818971,-6.0986389144090936e-05
1769241123815,-0.127716064453125,-0.0941162109375,-0.99700927734375,-0.0348900742828846,-0.004815527703613,0.001096157124266
1769241123825,-0.126312255859375,-0.09893798828125,-0.9980316162109376,-0.0145429903641343,-0.0006543386843986,0.002732136985287
1769241123835,-0.127044677734375,-0.1005706787109375,-0.99908447265625,0.005012335255742,-0.0002972087822854,0.0084701841697096
1769241123845,-0.1273040771484375,-0.10015869140625,-1.0002593994140625,0.023340743035078,0.0001613875647308,0.0135759962722659
1769241123855,-0.1276397705078125,-0.1021728515625,-1.0019073486328125,0.0399631299078464,-0.0090821785852313,0.0189606416970491
1769241123865,-0.1279449462890625,-0.1037750244140625,-0.9978179931640624,0.0544840134680271,-0.0138167459517717,0.022595589980483
1769241123875,-0.12835693359375,-0.1046142578125,-0.9927215576171876,0.057219348847866,-0.0054959654808044,0.0229726936668157
1769241123885,-0.133941650390625,-0.10174560546875,-0.9858551025390624,0.0498317368328571,-0.0017558221006765,0.0238294322043657
1769241123895,-0.134979248046875,-0.1017303466796875,-0.9764251708984376,0.0357553325593471,0.0081210434436798,0.020102871581912
1769241123905,-0.1366424560546875,-0.102203369140625,-0.97332763671875,0.0280369613319635,0.0112031195312738,0.0161805674433708
1769241123915,-0.1386871337890625,-0.1026153564453125,-0.974517822265625,0.020697820931673,0.0132601456716656,0.0132409706711769
1769241123925,-0.13897705078125,-0.103759765625,-0.97503662109375,0.011488078162074,0.018388595432043,0.0077423420734703
1769241123935,-0.140380859375,-0.103302001953125,-0.9748077392578124,0.0085631283000111,0.0161656532436609,0.0075492626056075
1769241123945,-0.13677978515625,-0.1019134521484375,-0.9805908203125,0.0076230322010815,0.0118521321564912,0.0030687605030834
1769241123955,-0.1350250244140625,-0.0998992919921875,-0.9787750244140624,0.0030061763245612,0.0039057920221239,0.0024016385432332
1769241123965,-0.1373748779296875,-0.097076416015625,-0.976837158203125,-0.0079189091920852,-0.0059292619116604,0.0050823767669498
1769241123975,-0.1345062255859375,-0.1093597412109375,-0.9761810302734376,-0.0207233875989913,-0.0095245288684964,0.0050070090219378
1769241123987,-0.1337432861328125,-0.12103271484375,-0.9808502197265624,-0.0243141278624534,0.0043556001037359,0.004898618441075
1769241123996,-0.1357574462890625,-0.0939483642578125,-0.9775848388671876,-0.0291941035538911,0.0148045122623443,-0.0036357475910335
1769241124006,-0.1440582275390625,-0.07635498046875,-0.97418212890625,-0.0308029204607009,0.0078134480863809,-0.0120555972680449
1769241124016,-0.144195556640625,-0.0997772216796875,-0.9878082275390624,-0.0163408908993005,0.0183598324656486,-0.0164173226803541
1769241124026,-0.137115478515625,-0.1027374267578125,-0.99237060546875,-0.0151280863210558,-0.0090470248833298,-0.0182650238275527
1769241124036,-0.1392822265625,-0.1130218505859375,-0.9874114990234376,-0.0173883121460676,-0.0038794267456978,-0.0155097171664237
1769241124046,-0.1309967041015625,-0.112091064453125,-0.9841766357421876,-0.0145991826429963,0.0059284628368914,-0.0176700744777917
1769241124056,-0.126556396484375,-0.1002655029296875,-0.9766998291015624,-0.0172133408486843,0.0074997278861701,-0.0173813868314027
1769241124066,-0.125946044921875,-0.0941009521484375,-0.9756927490234376,-0.0112300179898738,0.0210221949964761,-0.0192629098892211
1769241124076,-0.130859375,-0.0912322998046875,-0.978668212890625,0.0085876295343041,0.0094145406037569,-0.0165837705135345
1769241124086,-0.1334686279296875,-0.0959320068359375,-0.9857940673828124,0.022814767435193,0.0060485713183879,-0.012622850947082
1769241124096,-0.13140869140625,-0.0953826904296875,-0.990447998046875,0.031213579699397,-0.0042602587491273,-0.0126124648377299
1769241124106,-0.1374969482421875,-0.096221923828125,-0.99072265625,0.025130920112133,-0.008648082613945,-0.0096590192988514
1769241124116,-0.1367950439453125,-0.0955657958984375,-0.9845123291015624,0.0128337731584906,-0.0066938553936779,-0.0092931007966399
1769241124126,-0.1374664306640625,-0.1058807373046875,-0.9802398681640624,-0.0025883263442665,-0.0002372876479057,-0.0054072821512818
1769241124136,-0.13525390625,-0.107330322265625,-0.977020263671875,-0.012246279977262,-0.0004428836982697,-0.0052416333928704
1769241124146,-0.1296234130859375,-0.10931396484375,-0.9788665771484376,-0.0203018095344305,-0.0024096281267702,0.0002932140196207
1769241124156,-0.1252593994140625,-0.1085357666015625,-0.980560302734375,-0.0221705492585897,0.0127152623608708,-0.000113716974738
1769241124166,-0.1277618408203125,-0.1005859375,-0.983856201171875,-0.0188407991081476,0.0083008063957095,0.0018010957865044
1769241124176,-0.133392333984375,-0.096221923828125,-0.9873199462890624,-0.0082153193652629,0.0113842142745852,-0.0003067961661145
1769241124186,-0.1356353759765625,-0.097137451171875,-0.99444580078125,-0.0030360035598278,0.0036253612488508,-0.0013052152935415
1769241124196,-0.1363983154296875,-0.095489501953125,-0.9930267333984376,0.0005352954030968,-0.0025734126102179,-0.003458114573732
1769241124207,-0.141998291015625,-0.0975494384765625,-0.9924468994140624,0.0031763522420078,-0.0024359934031963,-0.0022594258189201
1769241124217,-0.1384735107421875,-0.0986785888671875,-0.991058349609375,0.0110257528722286,-0.0073362099938094,-0.0039545278996229
1769241124227,-0.135040283203125,-0.1022796630859375,-0.9912261962890624,0.0223178230226039,-0.0051779840141534,-0.0051787830889225
1769241124237,-0.132904052734375,-0.10498046875,-0.989410400390625,0.0331654101610183,-0.0081460773944854,-0.0057271276600658
1769241124247,-0.131256103515625,-0.1054534912109375,-0.9847869873046876,0.0343132317066192,0.0031220237724483,-0.007407050114125
1769241124257,-0.1333770751953125,-0.1018524169921875,-0.980865478515625,0.033597107976675,-0.0031417310237884,-0.0076254289597272
1769241124267,-0.1342620849609375,-0.09881591796875,-0.9800872802734376,0.0251295883208513,-0.0107831396162509,-0.0055028898641467
1769241124277,-0.1338653564453125,-0.107177734375,-0.98187255859375,0.0159555301070213,-0.0131906364113092,-0.0041196439415216
1769241124287,-0.1314697265625,-0.1180267333984375,-0.9832305908203124,0.0099423788487911,-0.0008266451768577,-0.0050562773831188
1769241124297,-0.1312713623046875,-0.0967559814453125,-0.978118896484375,0.0072384718805551,-0.0054829157888889,-0.0055276569910347
1769241124307,-0.1363372802734375,-0.0962677001953125,-0.9798126220703124,0.0090062776580452,0.0111959287896752,-0.0040951427072286
1769241124317,-0.13372802734375,-0.0964202880859375,-0.9839630126953124,0.0211364440619945,0.0014341122005134,-0.0080621875822544
1769241124327,-0.139129638671875,-0.0986785888671875,-0.9802093505859376,0.019898073747754,-0.0136542934924364,-0.0044362936168909
1769241124337,-0.1354827880859375,-0.1047821044921875,-0.97607421875,0.0042213764972984,-0.0046498794108629,-0.0020892499014735
1769241124347,-0.1312713623046875,-0.098876953125,-0.970062255859375,-0.008525843732059,0.0069628343917429,-0.002870887517929
1769241124357,-0.134124755859375,-0.0940399169921875,-0.968841552734375,-0.0122630577534437,-0.0014234596164897,0.0021571605466306
1769241124367,-0.1333160400390625,-0.09979248046875,-0.9777069091796876,-0.0160274356603622,0.0049606701359152,0.0049015479162335
1769241124377,-0.1329498291015625,-0.10107421875,-0.980621337890625,-0.0253005623817443,0.003556917887181,0.0073415362276136
1769241124387,-0.131805419921875,-0.102020263671875,-0.9783172607421876,-0.0375574938952922,0.0061748051084578,0.010522948578
1769241124398,-0.131256103515625,-0.10552978515625,-0.9792633056640624,-0.0411524958908557,0.0093040196225047,0.0125165907666087
1769241124407,-0.12982177734375,-0.109161376953125,-0.9868621826171876,-0.0369793213903903,0.0042482744902372,0.0157065242528915
1769241124417,-0.1281280517578125,-0.108551025390625,-0.9920806884765624,-0.0321592688560485,-0.0013970943400636,0.0172935035079717
1769241124428,-0.13067626953125,-0.107025146484375,-0.9928131103515624,-0.0270382761955261,-0.0028354676906019,0.0195609182119369
1769241124438,-0.1302642822265625,-0.1053009033203125,-0.9938812255859376,-0.0231047868728637,0.0054224622435867,0.0198264345526695
1769241124448,-0.131256103515625,-0.1053619384765625,-0.995330810546875,-0.0103471800684928,0.0052195293828845,0.0176485013216733
1769241124458,-0.1335296630859375,-0.102630615234375,-0.9964141845703124,0.002469282830134,0.0081423483788967,0.0183262769132852
1769241124468,-0.1339111328125,-0.101043701171875,-0.997283935546875,0.0193859487771987,0.0029470541048794,0.0142750758677721
1769241124478,-0.137298583984375,-0.097076416015625,-0.99700927734375,0.0301560387015342,-0.0007989483419805,0.0090877711772918
1769241124488,-0.1383209228515625,-0.0927734375,-0.9899444580078124,0.0373545624315738,-0.0082230428233742,-0.0002300971100339
1769241124498,-0.1397247314453125,-0.09942626953125,-0.9860076904296876,0.0389553867280483,-0.0050506847910583,0.0009062737226486
1769241124508,-0.138885498046875,-0.10247802734375,-0.9827117919921876,0.0413098894059658,-0.0108182933181524,-0.0028636970091611
1769241124518,-0.1385955810546875,-0.1047821044921875,-0.9788665771484376,0.0389985330402851,-0.0133901070803403,-0.00949337054044
1769241124528,-0.1401214599609375,-0.103759765625,-0.9775390625,0.0296407155692577,-0.003386475611478,-0.0136942407116293
1769241124538,-0.140228271484375,-0.102935791015625,-0.9765167236328124,0.0193582512438297,-0.0093892402946949,-0.0166380982846021
1769241124548,-0.1400299072265625,-0.103973388671875,-0.9727020263671876,0.0104683535173535,-0.008559932000935,-0.0190610419958829
1769241124558,-0.1370697021484375,-0.1003265380859375,-0.9732818603515624,0.0042131207883358,-0.0083910878747701,-0.0210586804896593
1769241124568,-0.1359710693359375,-0.105987548828125,-0.9769287109375,0.0005643238546326,-0.0150290168821811,-0.0190274864435195
1769241124578,-0.13507080078125,-0.1087493896484375,-0.97760009765625,-0.0006506102508865,-0.0239306334406137,-0.0168724562972784
1769241124588,-0.1327362060546875,-0.1099395751953125,-0.9770050048828124,-0.0032280175946652,-0.0247780513018369,-0.0141352601349353
1769241124598,-0.1359405517578125,-0.1048126220703125,-0.976348876953125,-0.0064847972244024,-0.0122574651613831,-0.0110949957743287
1769241124608,-0.1330413818359375,-0.1023101806640625,-0.9759368896484376,-0.0157011989504098,-0.0003289003798272,-0.007219829596579
1769241124618,-0.1325836181640625,-0.10748291015625,-0.974578857421875,-0.0300511103123426,-0.0092526208609342,-0.0018964370246976
1769241124628,-0.1295166015625,-0.1229248046875,-0.980804443359375,-0.0398289039731025,-0.0052317800000309,0.0072533856146037
1769241124639,-0.12371826171875,-0.1143341064453125,-0.9826202392578124,-0.0374009013175964,-0.0034804851748049,0.0057697384618222
1769241124648,-0.133087158203125,-0.081939697265625,-0.9758758544921876,-0.0392944104969501,-0.0090278498828411,-0.0056435046717524
1769241124659,-0.145355224609375,-0.095184326171875,-0.9795074462890624,-0.0319118611514568,0.0162391569465398,-0.0089889671653509
1769241124669,-0.142486572265625,-0.1011810302734375,-0.985870361328125,-0.0248440969735384,-0.0105240140110254,-0.0130782509222626
1769241124679,-0.1459503173828125,-0.1081085205078125,-0.9830169677734376,-0.0328258574008941,-0.0006423544255085,-0.0107282781973481
1769241124689,-0.14105224609375,-0.1190643310546875,-0.9838104248046876,-0.0371204689145088,0.0071694958023726,-0.0087631316855549
1769241124699,-0.13385009765625,-0.113861083984375,-0.97808837890625,-0.0436095297336578,-0.0062959790229797,-0.005111405160278
1769241124709,-0.1285400390625,-0.1007537841796875,-0.9744415283203124,-0.0404440946877002,0.0133592151105403,-0.0056022256612777
1769241124719,-0.1294097900390625,-0.09136962890625,-0.9817962646484376,-0.0202647913247346,0.003442401997745,-0.0039358856156468
1769241124729,-0.13519287109375,-0.09429931640625,-0.9898681640625,0.0010101370280608,-0.0037004624027758,-0.0054195327684283
1769241124739,-0.1392974853515625,-0.09765625,-0.993621826171875,0.0131006222218275,-0.0085958847776055,-0.0057223341427743
1769241124749,-0.142852783203125,-0.10107421875,-0.993865966796875,0.0085314363241195,-0.0058605521917343,-0.0049476204439997
1769241124759,-0.1422882080078125,-0.0988311767578125,-0.9909820556640624,0.0055249938741326,-0.0066520436666905,-0.0024490428622812
1769241124769,-0.142852783203125,-0.1050872802734375,-0.99322509765625,-6.79106087773107e-05,-0.0180346611887216,0.0010327738709747
1769241124779,-0.1357421875,-0.11419677734375,-0.991729736328125,-0.0117527963593602,-0.0175283942371606,0.0044828988611698
1769241124789,-0.1363067626953125,-0.1162872314453125,-0.9827728271484376,-0.0215524304658174,-0.0105280084535479,0.006483731791377
1769241124799,-0.1334991455078125,-0.1132659912109375,-0.973602294921875,-0.0326298475265502,0.0016309198690578,0.0062464443035423
1769241124809,-0.1328277587890625,-0.1108856201171875,-0.9722442626953124,-0.0317805670201778,0.0013558153295889,0.002389121800661
1769241124819,-0.1366119384765625,-0.1043548583984375,-0.9810333251953124,-0.0261357296258211,-0.0006878945278003,0.0006250438746064
1769241124829,-0.141326904296875,-0.09954833984375,-0.9914398193359376,-0.0150931989774107,-0.0054062171839177,-0.0034858114086091
1769241124839,-0.144073486328125,-0.0953826904296875,-0.997314453125,-0.0131509555503726,-0.0052112736739218,-0.0122369583696126
1769241124849,-0.1479644775390625,-0.0894775390625,-0.9969482421875,-0.0073282201774418,-0.0048181908205151,-0.015877766534686
1769241124859,-0.1470794677734375,-0.0935211181640625,-1.000457763671875,0.0009949569357559,-0.0054000918753445,-0.0152497924864292
1769241124869,-0.1397857666015625,-0.0980224609375,-0.998992919921875,0.0132076805457472,-0.0070730894804,-0.0163390263915061
1769241124879,-0.137847900390625,-0.1007232666015625,-0.993896484375,0.025057416409254,-0.0126617327332496,-0.0121035343036055
1769241124890,-0.1293487548828125,-0.1050262451171875,-0.9886932373046876,0.0307485908269882,-0.0095990980044007,-0.0113077815622091
1769241124900,-0.1282501220703125,-0.1050567626953125,-0.9814300537109376,0.0273711699992418,-0.0055814529769122,-0.0075497953221201
1769241124910,-0.12939453125,-0.10272216796875,-0.973419189453125,0.0199204441159963,-0.0021667478140443,-0.0033159018494188
1769241124920,-0.133056640625,-0.108978271484375,-0.9736328125,0.0118819596245884,-0.0015563513152301,0.0037904770579189
1769241124930,-0.1323089599609375,-0.118194580078125,-0.97772216796875,0.0018951054662466,0.0004511394945438,0.0067804078571498
1769241124940,-0.12811279296875,-0.109039306640625,-0.9756927490234376,-0.0128774493932724,-0.0008641957538202,0.0065681543201208
1769241124950,-0.1392059326171875,-0.0933074951171875,-0.9685821533203124,-0.0210690665990114,0.0070864050649106,0.0039888825267553
1769241124960,-0.143524169921875,-0.090576171875,-0.9737396240234376,-0.0167624689638614,0.0078283622860908,0.0024447818286716
1769241124970,-0.14178466796875,-0.093597412109375,-0.9816741943359376,-0.010962369851768,-0.0073295519687235,0.0015909724170342
1769241124980,-0.1414337158203125,-0.104248046875,-0.9839935302734376,-0.0167155973613262,-0.0030890004709362,0.0033204292412847
1769241124990,-0.1368255615234375,-0.0977325439453125,-0.9789886474609376,-0.0213774610310792,0.0016152071766555,0.0001917476038215
1769241125000,-0.139862060546875,-0.0940704345703125,-0.975555419921875,-0.0276025999337434,0.0016330503858625,0.0025052356068044
1769241125010,-0.137847900390625,-0.092926025390625,-0.976318359375,-0.0287325792014598,0.0057218014262616,0.0042357575148344
1769241125020,-0.135589599609375,-0.1035919189453125,-0.9806365966796876,-0.0273740999400615,0.0084526073187589,0.004105529282242
1769241125030,-0.1374053955078125,-0.1057891845703125,-0.9827423095703124,-0.0249213278293609,0.0004258394474163,0.0057795923203229
1769241125040,-0.1376495361328125,-0.1020660400390625,-0.983489990234375,-0.0311427395790815,0.0033795514609664,0.003124420531094
1769241125050,-0.13671875,-0.1053619384765625,-0.9845733642578124,-0.038294393569231,0.0115229655057191,0.0052344431169331
1769241125060,-0.136322021484375,-0.103790283203125,-0.9852447509765624,-0.0440588034689426,0.0061590927653014,0.0069745522923767
1769241125071,-0.137725830078125,-0.1017608642578125,-0.983123779296875,-0.0496666207909584,0.0099575594067573,0.0063031697645783
1769241125080,-0.1410980224609375,-0.0997314453125,-0.9843292236328124,-0.0489664785563945,0.0069633671082556,0.0079098548740148
1769241125091,-0.13824462890625,-0.1001434326171875,-0.9914093017578124,-0.0410939082503318,0.0057156761176884,0.0062312642112374
1769241125101,-0.1383514404296875,-0.0998992919921875,-0.9963226318359376,-0.0286058112978935,0.0003398193512111,0.0057750646956264
1769241125111,-0.139312744140625,-0.09893798828125,-0.9981689453125,-0.0114103136584162,0.0002748382103163,0.0046557383611798
1769241125121,-0.1396026611328125,-0.097625732421875,-0.996734619140625,-0.0007898935582488,0.0014194648247212,0.0047468184493482
1769241125131,-0.14068603515625,-0.0963287353515625,-0.992645263671875,0.0048168594948947,0.0053207296878099,0.0034192325547337
1769241125141,-0.1401519775390625,-0.095703125,-0.987030029296875,0.008593488484621,0.0067657604813575,0.0044866274110972
1769241125151,-0.1380157470703125,-0.09912109375,-0.9881744384765624,0.012140286155045,0.0030961909797042,0.0016330503858625
1769241125161,-0.13897705078125,-0.1001129150390625,-0.9894256591796876,0.0171174686402082,-0.0015925703337416,0.0040674461051821
1769241125171,-0.1387939453125,-0.09735107421875,-0.9889373779296876,0.01700428314507,-0.0015006912872195,0.0019326560432091
1769241125181,-0.1391448974609375,-0.0987701416015625,-0.9847869873046876,0.0103154880926013,0.0070384684950113,0.0026114957872778
1769241125191,-0.140472412109375,-0.10211181640625,-0.98046875,0.0100872553884983,0.0067726848646998,-0.0002308960683876
1769241125201,-0.1402435302734375,-0.1015167236328125,-0.978271484375,0.0118753015995025,0.0072296834550797,0.0015353123890236
1769241125211,-0.1392974853515625,-0.0975189208984375,-0.98077392578125,0.011535482481122,0.0087945563718676,5.592638444795739e-06
1769241125221,-0.138275146484375,-0.0980377197265625,-0.982574462890625,0.0126758478581905,0.0010050770360976,0.0031068436801433
1769241125231,-0.135772705078125,-0.1027374267578125,-0.9842529296875,0.0168245192617177,-0.0039286953397095,0.0015640745405107
1769241125241,-0.1358642578125,-0.1029815673828125,-0.982696533203125,0.0115985991433262,0.0020301276817917,0.0012016182299703
1769241125251,-0.13800048828125,-0.0999603271484375,-0.976318359375,0.003361441893503,0.0081063956022262,0.0025600967928767
1769241125261,-0.1392059326171875,-0.0962371826171875,-0.970977783203125,-0.0091455616056919,0.0062576294876635,0.0006985471700318
1769241125271,-0.1413421630859375,-0.0966796875,-0.9698333740234376,-0.0187835413962602,0.0027502465527504,0.0017523600254207
1769241125281,-0.141357421875,-0.107177734375,-0.9759979248046876,-0.0372373834252357,-0.0034559841733425,0.0045172539539635
1769241125291,-0.138153076171875,-0.1178741455078125,-0.982025146484375,-0.0472047962248325,0.0023507722653448,0.010554639622569
1769241125301,-0.13165283203125,-0.1006927490234375,-0.9813385009765624,-0.0453656166791915,-0.0048219193704426,0.0017496967921033
1769241125311,-0.1428680419921875,-0.081817626953125,-0.974945068359375,-0.0468005277216434,-0.0072408686392009,-0.0059095541946589
1769241125322,-0.145904541015625,-0.0915374755859375,-0.9801483154296876,-0.0269573144614696,0.0022727416362613,-0.0132361771538853
1769241125332,-0.142974853515625,-0.0796661376953125,-0.981658935546875,-0.0293408446013927,-0.0126316389068961,-0.0192645080387592
1769241125342,-0.1534576416015625,-0.0994720458984375,-0.985443115234375,-0.0305632352828979,-0.0007699198904447,-0.0157733708620071
1769241125352,-0.1421356201171875,-0.1207122802734375,-0.9913787841796876,-0.0346352085471153,-0.0070802802219986,-0.0128715904429554
1769241125362,-0.1325836181640625,-0.111785888671875,-0.9828033447265624,-0.0404504872858524,0.0014223942998796,-0.0121682491153478
1769241125372,-0.1319580078125,-0.0885772705078125,-0.977813720703125,-0.0305099729448556,0.0126060731709003,-0.0145464520901441
1769241125382,-0.1342926025390625,-0.0787200927734375,-0.979248046875,-0.011315238662064,0.0099644837900996,-0.0189332105219364
1769241125392,-0.1383056640625,-0.0877227783203125,-0.989227294921875,0.0084760431200265,0.0021670141723006,-0.0169792491942644
1769241125402,-0.1402130126953125,-0.092376708984375,-0.992645263671875,0.016813600435853,-0.0105487806722521,-0.017641045153141
1769241125412,-0.141845703125,-0.0938720703125,-0.9906463623046876,0.0118755679577589,-0.0054967645555734,-0.0154793569818139
1769241125422,-0.1425323486328125,-0.09930419921875,-0.9868621826171876,0.0014783206861466,-0.0108843389898538,-0.0107445232570171
1769241125432,-0.139892578125,-0.103240966796875,-0.980926513671875,-0.0122382901608943,-0.0035968653392046,-0.0042488072067499
1769241125442,-0.134552001953125,-0.109161376953125,-0.9798431396484376,-0.0234821569174528,-0.0024170849937945,0.0026423884555697
1769241125452,-0.13250732421875,-0.1078948974609375,-0.978851318359375,-0.0301443208009004,-0.0035364115610718,0.0039593214169144
1769241125462,-0.13262939453125,-0.10186767578125,-0.9801788330078124,-0.035205390304327,-0.0024999093730002,0.0044983453117311
1769241125472,-0.1332855224609375,-0.1008453369140625,-0.98248291015625,-0.0343670286238193,0.0040860879234969,0.0052685313858091
1769241125482,-0.138824462890625,-0.0995330810546875,-0.9895477294921876,-0.0287253875285387,0.003572630463168,0.0031760858837515
1769241125492,-0.1464080810546875,-0.095367431640625,-0.99237060546875,-0.0205305758863687,-0.0022519689518958,-0.0007275756215676
1769241125502,-0.1477508544921875,-0.093658447265625,-0.9962310791015624,-0.0140524357557296,0.0017406421247869,-0.0043396209366619
1769241125512,-0.1468048095703125,-0.095123291015625,-0.998626708984375,-0.0049694585613906,-0.0013504889793694,-0.0072448635473847
1769241125522,-0.1456298828125,-0.0961456298828125,-0.9944000244140624,0.000539822736755,4.713794987765141e-05,-0.0101873902603983
1769241125532,-0.144134521484375,-0.0963897705078125,-0.992767333984375,0.0035446672700345,0.0024346618447452,-0.0175899118185043
1769241125543,-0.1425933837890625,-0.0964202880859375,-0.9851837158203124,0.0066360649652779,-0.0015211976133286,-0.0151334125548601
1769241125553,-0.134307861328125,-0.0971221923828125,-0.981964111328125,0.0128841064870357,-0.0008349010022357,-0.0168000198900699
1769241125563,-0.13507080078125,-0.1005401611328125,-0.987152099609375,0.0148782823234796,-0.0005984122981317,-0.0151603110134601
1769241125573,-0.1386260986328125,-0.0997161865234375,-0.98760986328125,0.0205731857568025,-0.0075082499533891,-0.0096315881237387
1769241125583,-0.1357574462890625,-0.1000823974609375,-0.9867095947265624,0.0195028614252805,-0.0044746431522071,-0.0069250175729393
1769241125593,-0.137237548828125,-0.1101531982421875,-0.983245849609375,0.0168570112437009,0.0064784055575728,-0.0042173820547759
1769241125603,-0.1339569091796875,-0.0965728759765625,-0.9768524169921876,0.0181502420455217,0.014215687289834,-0.0062821307219564
1769241125613,-0.139404296875,-0.08929443359375,-0.97796630859375,0.019915385171771,0.0116811571642756,-0.0093567501753568
1769241125623,-0.1409912109375,-0.0969390869140625,-0.9837799072265624,0.0214432403445243,0.0022570290602743,-0.0078792283311486
1769241125633,-0.1389617919921875,-0.0973052978515625,-0.9859161376953124,0.0216496344655752,-0.0041872882284224,-0.0097839208319783
1769241125643,-0.140777587890625,-0.095947265625,-0.9831390380859376,0.0181441158056259,-0.0056467005051672,-0.0105498461052775
1769241125653,-0.1407928466796875,-0.0909423828125,-0.97674560546875,0.0078677767887711,0.0013816480059176,-0.0130819799378514
1769241125663,-0.1403350830078125,-0.0938720703125,-0.973968505859375,0.0018255969043821,0.0047358991578221,-0.0148180946707725
1769241125673,-0.1395416259765625,-0.0969085693359375,-0.9767303466796876,0.0025286714080721,-0.0014735270524397,-0.0123951509594917
1769241125683,-0.136871337890625,-0.1020050048828125,-0.9821014404296876,-0.0014431669842451,-0.0027004452422261,-0.0122638568282127
1769241125693,-0.1376495361328125,-0.1015167236328125,-0.9789886474609376,-0.0139805302023887,0.0010844392236322,-0.0067268786951899
1769241125703,-0.1368865966796875,-0.1006927490234375,-0.9727020263671876,-0.0253772623836994,0.0056443037465214,-0.0091197285801172
1769241125713,-0.1357421875,-0.10162353515625,-0.9748382568359376,-0.0296617560088634,0.0095498291775584,-0.0026304041966795
1769241125723,-0.13311767578125,-0.103363037109375,-0.981964111328125,-0.0323699228465557,0.0091082770377397,-0.0001800296886358
1769241125733,-0.1366119384765625,-0.1031951904296875,-0.9859619140625,-0.0330391749739646,0.0028751487843692,0.0038972699549049
1769241125743,-0.13665771484375,-0.0982818603515625,-0.9871063232421876,-0.0322950892150402,0.0034112429711967,0.0037566549144685
1769241125753,-0.1395416259765625,-0.0995635986328125,-0.9901580810546876,-0.0282042063772678,0.0007062703371047,0.0049689258448779
1769241125764,-0.1376953125,-0.098297119140625,-0.994140625,-0.0208509527146816,-0.0022256036754697,0.0058853197842836
1769241125774,-0.13897705078125,-0.097015380859375,-0.996002197265625,-0.0092560825869441,2.3968450477696024e-05,0.0050522829405963
1769241125784,-0.13946533203125,-0.0943450927734375,-0.9947509765625,8.335694292327389e-05,0.0014783206861466,0.0062653529457747
1769241125794,-0.1381988525390625,-0.092742919921875,-0.9915008544921876,0.0084235789254307,-0.0035593148786574,0.004113252274692
1769241125804,-0.1392822265625,-0.0980072021484375,-0.986053466796875,0.0059670787304639,0.0084709823131561,0.0047553405165672
1769241125814,-0.1393280029296875,-0.09967041015625,-0.9820098876953124,0.0034634410403668,0.0042767701670527,0.0060195429250597
1769241125824,-0.1392364501953125,-0.10162353515625,-0.9805908203125,0.0006503439508378,0.0100867226719856,0.0014042848488315
1769241125834,-0.140594482421875,-0.1015472412109375,-0.978973388671875,-0.0007512777228839,0.0085825687274336,0.0005438174703158
1769241125844,-0.1424713134765625,-0.1004180908203125,-0.9818267822265624,-0.0043361587449908,0.0027334685437381,-0.0023363912478089
1769241125854,-0.141143798828125,-0.0975341796875,-0.980926513671875,-0.0062565645202994,0.0055779907852411,-0.0045766420662403
1769241125864,-0.1415252685546875,-0.100372314453125,-0.982757568359375,-0.0090158656239509,0.0053590792231261,-0.0072477930225431
1769241125874,-0.142791748046875,-0.099090576171875,-0.984100341796875,-0.008551144041121,0.0070752198807895,-0.0095596825703978
1769241125884,-0.1444854736328125,-0.0954742431640625,-0.9857940673828124,-0.0090313116088509,0.0064898570999503,-0.0108340056613087
1769241125894,-0.1434478759765625,-0.09429931640625,-0.985076904296875,-0.0090970918536186,0.0117629161104559,-0.0124486796557903
1769241125904,-0.140960693359375,-0.0949859619140625,-0.985565185546875,-0.0096715353429317,0.0126787768676877,-0.0118952756747603
1769241125914,-0.1382293701171875,-0.0988616943359375,-0.982757568359375,-0.0059092883020639,0.0086560724303126,-0.0111005883663892
1769241125924,-0.13671875,-0.1034088134765625,-0.98321533203125,-0.0039497343823313,0.0074435351416468,-0.0118979383260011
1769241125934,-0.1382904052734375,-0.1018524169921875,-0.98443603515625,0.0009736517095007,0.0072714951820671,-0.0090638026595115
1769241125944,-0.1391143798828125,-0.09796142578125,-0.9842987060546876,-0.0001640507252886,0.0010596717474982,-0.0068477862514555
1769241125954,-0.14111328125,-0.098297119140625,-0.9834442138671876,-0.0069692260585725,-0.0029627666808664,-0.0057116816751658
1769241125964,-0.1358795166015625,-0.11376953125,-0.9855499267578124,-0.0232501942664384,0.0012636699248105,0.0005579322460107
1769241125975,-0.130889892578125,-0.114776611328125,-0.98406982421875,-0.0266156308352947,0.008128766901791,-0.0021766014397144
1769241125985,-0.1372833251953125,-0.0784912109375,-0.974090576171875,-0.033572606742382,0.0089002838358283,-0.010964767076075
1769241125995,-0.1436920166015625,-0.085296630859375,-0.97515869140625,-0.0268931332975626,0.0274752993136644,-0.0164213180541992
1769241126005,-0.1402587890625,-0.0837554931640625,-0.9818878173828124,-0.0122156534343957,0.0180839281529188,-0.0282236486673355
1769241126015,-0.1501617431640625,-0.0756072998046875,-0.9801788330078124,-0.0164809729903936,0.0039699743501842,-0.0291557554155588
1769241126025,-0.1466064453125,-0.1071929931640625,-0.985565185546875,-0.018469288945198,0.025778068229556,-0.0213702693581581
1769241126035,-0.135009765625,-0.1205902099609375,-0.9883270263671876,-0.0268688984215259,0.0192788895219564,-0.0185023117810487
1769241126045,-0.1331329345703125,-0.1053009033203125,-0.98114013671875,-0.0228856075555086,0.0321499481797218,-0.0191907379776239
1769241126055,-0.1349945068359375,-0.079437255859375,-0.9821929931640624,-0.0036053874064236,0.0259498413652181,-0.0199516043066978
1769241126065,-0.134429931640625,-0.0811614990234375,-0.993682861328125,0.0206639990210533,0.0125911589711904,-0.0156423430889844
1769241126075,-0.134368896484375,-0.089630126953125,-0.9966888427734376,0.0279054008424282,0.0142862610518932,-0.0141477771103382
1769241126085,-0.138916015625,-0.09521484375,-0.988555908203125,0.0205116663128137,0.0188386682420969,-0.0124039389193058
1769241126095,-0.142669677734375,-0.0971221923828125,-0.97882080078125,0.0103162871673703,0.0239375568926334,-0.008860869333148
1769241126105,-0.1414947509765625,-0.1035919189453125,-0.98126220703125,0.0045548044145107,0.0189025849103927,-0.0046232477761805
1769241126115,-0.1374969482421875,-0.1033172607421875,-0.9877166748046876,0.0035867453552782,0.0120100574567914,0.0013859090395271
1769241126125,-0.134033203125,-0.1021728515625,-0.991302490234375,0.0058483015745878,0.0066206185147166,0.0079173119738698
1769241126135,-0.129547119140625,-0.101593017578125,-0.99053955078125,0.0052586779929697,0.0049670618027448,0.0119338911026716
1769241126145,-0.128509521484375,-0.100250244140625,-0.984405517578125,0.0048767803236842,0.0060685449279844,0.0128228543326258
1769241126155,-0.1327972412109375,-0.099639892578125,-0.9836883544921876,0.0054605454206466,0.0029321403708308,0.013160808943212
1769241126165,-0.1377716064453125,-0.098480224609375,-0.984588623046875,0.0031702269334346,0.0066211512312293,0.0084757767617702
1769241126175,-0.143798828125,-0.0954437255859375,-0.9833984375,-0.0018849853659048,0.012262525036931,0.0041958102956414
1769241126185,-0.1451568603515625,-0.0926361083984375,-0.98187255859375,-0.0061798654496669,0.0160380881279706,0.0002202434261562
1769241126195,-0.1457366943359375,-0.091644287109375,-0.9820556640625,-0.0041638524271547,0.0132095450535416,-0.0078632496297359
1769241126206,-0.1446075439453125,-0.0930023193359375,-0.9884490966796876,0.0024980450980365,0.0052189966663718,-0.0064083645120263
1769241126215,-0.1375579833984375,-0.0969085693359375,-0.9944915771484376,0.0094765927642583,-0.0032570459879934,-0.0071471254341304
1769241126226,-0.1349945068359375,-0.097198486328125,-0.991912841796875,0.0127091370522975,-0.0040059266611933,-0.0053393715061247
1769241126236,-0.133941650390625,-0.099090576171875,-0.98431396484375,0.0119394836947321,-0.0006245112745091,-0.0027699538040906
1769241126246,-0.1313018798828125,-0.104339599609375,-0.9792633056640624,0.0137530965730547,-0.0042629218660295,-0.0014397049089893
1769241126256,-0.132843017578125,-0.10400390625,-0.976165771484375,0.0164761785417795,-0.0056325858458876,0.0025939189363271
1769241126266,-0.1348724365234375,-0.1146087646484375,-0.980224609375,0.0116971358656883,0.0002918824611697,0.0163962841033935
1769241126276,-0.1209259033203125,-0.103424072265625,-0.980224609375,0.0041928808204829,0.0081218425184488,0.0112563828006386
1769241126286,-0.1346435546875,-0.089691162109375,-0.97454833984375,-0.0041380198672413,-2.583266177680343e-05,0.0105730155482888
1769241126296,-0.1413421630859375,-0.095550537109375,-0.9755401611328124,-0.0081673823297023,0.0036653084680438,0.0045382929965853
1769241126306,-0.1381072998046875,-0.1027374267578125,-0.979949951171875,-0.0081167826429009,-0.0087223853915929,0.0009566074586473
1769241126316,-0.1406707763671875,-0.0998382568359375,-0.9815216064453124,-0.0102984439581632,-0.0059545617550611,-0.0018727348651736
1769241126326,-0.1412200927734375,-0.0936126708984375,-0.9787139892578124,-0.0167675279080867,-0.0165629982948303,-0.0102537022903561
1769241126336,-0.1409149169921875,-0.0935516357421875,-0.9762725830078124,-0.0277698449790477,-0.0067737502977252,-0.016087356954813
1769241126346,-0.141021728515625,-0.09552001953125,-0.9764251708984376,-0.0372144803404808,0.0022873890120536,-0.0196085888892412
1769241126356,-0.13885498046875,-0.098968505859375,-0.9788055419921876,-0.0413343906402587,-0.0008719189208932,-0.0190940666943788
1769241126366,-0.134979248046875,-0.098358154296875,-0.9845733642578124,-0.0458961203694343,0.0094318510964512,-0.0187111031264066
1769241126376,-0.1349334716796875,-0.10137939453125,-0.9850311279296876,-0.0491009652614593,0.023184947669506,-0.0208701286464929
1769241126386,-0.1357421875,-0.0999298095703125,-0.986846923828125,-0.0486900396645069,0.0254158768802881,-0.021442973986268
1769241126396,-0.1360931396484375,-0.1033935546875,-0.989654541015625,-0.0453850589692592,0.0231162384152412,-0.0210815835744142
1769241126406,-0.1343231201171875,-0.102813720703125,-0.99462890625,-0.0377931855618953,0.0148356715217232,-0.0191292203962802
1769241126416,-0.134002685546875,-0.09954833984375,-0.99658203125,-0.0303352680057287,0.0085631283000111,-0.0142393894493579
1769241126427,-0.1305389404296875,-0.1027984619140625,-0.997528076171875,-0.0180450472980737,0.0114838164299726,-0.0141091607511043
1769241126437,-0.1311492919921875,-0.1031646728515625,-0.997894287109375,-0.0088819088414311,0.0141648212447762,-0.0085380943492054
1769241126447,-0.1309051513671875,-0.0993499755859375,-0.9938812255859376,-0.0010596717474982,0.0143440514802932,-0.0109115038067102
1769241126457,-0.1350555419921875,-0.0966796875,-0.9919281005859376,0.0065290057100355,0.0120159164071083,-0.0121370898559689
1769241126467,-0.1382598876953125,-0.0926513671875,-0.990447998046875,0.0132345790043473,0.0112270880490541,-0.0115863485261797
1769241126477,-0.135162353515625,-0.0930938720703125,-0.9888763427734376,0.0148300789296627,0.0148021159693598,-0.0123599972575902
1769241126487,-0.1339874267578125,-0.0932159423828125,-0.98687744140625,0.0149259520694613,0.0204930249601602,-0.0138803953304886
1769241126497,-0.132537841796875,-0.0970916748046875,-0.983551025390625,0.0143118277192115,0.0229820143431425,-0.0133296540006995
1769241126507,-0.132659912109375,-0.1016082763671875,-0.98358154296875,0.0167800448834896,0.0196567922830581,-0.0147736193612217
1769241126517,-0.1352386474609375,-0.1006927490234375,-0.982696533203125,0.0186101701110601,0.0167496856302022,-0.0161102600395679
1769241126527,-0.134033203125,-0.0999755859375,-0.9824066162109376,0.0137885166332125,0.0196653138846158,-0.0152737610042095
1769241126537,-0.1372222900390625,-0.097137451171875,-0.98016357421875,0.00980069860816,0.021473066881299,-0.0160426162183284
1769241126547,-0.1360015869140625,-0.0939483642578125,-0.9800262451171876,0.0083402218297123,0.0177909806370735,-0.0158625859767198
1769241126557,-0.1351776123046875,-0.098297119140625,-0.984375,0.0114734303206205,0.0236842911690473,-0.0161408875137567
1769241126567,-0.1337890625,-0.1003570556640625,-0.98590087890625,0.015001586638391,0.0174772609025239,-0.0142170190811157
1769241126577,-0.1339111328125,-0.0995941162109375,-0.98162841796875,0.0176620837301015,0.0133123435080051,-0.0142034366726875
1769241126587,-0.1352081298828125,-0.0998687744140625,-0.980682373046875,0.0158583261072635,0.0148117030039429,-0.0155635131523013
1769241126597,-0.1363677978515625,-0.096282958984375,-0.9813385009765624,0.0104739461094141,0.015451394021511,-0.0186866018921136
1769241126607,-0.1402435302734375,-0.0943450927734375,-0.977508544921875,0.0028333370573818,0.0114193679764866,-0.0246068090200424
1769241126617,-0.1400909423828125,-0.0936279296875,-0.981689453125,-0.0029260150622576,0.0027007116004824,-0.0216693431138992
1769241126627,-0.1333465576171875,-0.096527099609375,-0.9864654541015624,-0.0039324234239757,-0.004972388036549,-0.0162940192967653
1769241126637,-0.1292724609375,-0.095672607421875,-0.9880218505859376,-0.0038216360844671,-0.0091791171580553,-0.0139224734157323
1769241126647,-0.1282958984375,-0.093902587890625,-0.9844970703125,-0.0039601204916834,-0.0038466698024421,-0.004161455668509
1769241126658,-0.126007080078125,-0.0988311767578125,-0.9812774658203124,-0.0098038949072361,0.0041002025827765,-0.0017611484508961
1769241126668,-0.1267547607421875,-0.11285400390625,-0.978179931640625,-0.0225921273231506,-0.0054458980448544,0.0114372111856937
1769241126678,-0.12176513671875,-0.118072509765625,-0.9786224365234376,-0.0253743324428796,0.0047617321833968,0.0175140127539634
1769241126688,-0.121856689453125,-0.0948486328125,-0.9810333251953124,-0.0272848848253488,-0.0055558867752552,0.0113099124282598
1769241126698,-0.1368408203125,-0.0821990966796875,-0.977508544921875,-0.0360911600291729,0.0040578586049377,0.0076744314283132
1769241126708,-0.131988525390625,-0.0935211181640625,-0.9812469482421876,-0.0307227578014135,0.0121030015870928,0.0050821104086935
1769241126718,-0.135162353515625,-0.088104248046875,-0.977752685546875,-0.0341675579547882,-0.001340635237284,0.0022378542926162
1769241126728,-0.1392059326171875,-0.0964813232421875,-0.9769439697265624,-0.035396073013544,0.0106105664744973,0.0061905179172754
1769241126738,-0.132049560546875,-0.109619140625,-0.983062744140625,-0.0375497713685035,0.0122691830620169,0.0129608055576682
1769241126748,-0.1231231689453125,-0.1079864501953125,-0.9821319580078124,-0.0404784493148326,0.0199441462755203,0.0125357657670974
1769241126758,-0.1248931884765625,-0.0876312255859375,-0.9807281494140624,-0.0266454592347145,0.0278534684330225,0.0054922369308769
1769241126768,-0.1312103271484375,-0.076171875,-0.9824066162109376,-0.0115197692066431,0.0183044392615556,0.0020636834669858
1769241126778,-0.1357574462890625,-0.0855560302734375,-0.9886932373046876,-0.0059223375283181,0.0051406999118626,0.0005581985460594
1769241126788,-0.1386871337890625,-0.0963287353515625,-0.989044189453125,-0.0150793502107262,-0.0009123989730142,0.0014530207263305
1769241126798,-0.138336181640625,-0.096649169921875,-0.9802398681640624,-0.0286814458668231,0.0016210661269724,0.001782453735359
1769241126808,-0.1376800537109375,-0.0989837646484375,-0.972198486328125,-0.0459198206663131,0.0079591227695345,0.0031989889685064
1769241126818,-0.134307861328125,-0.1045989990234375,-0.975738525390625,-0.0560861714184284,0.0081974761560559,0.0061846589669585
1769241126828,-0.1309814453125,-0.1050567626953125,-0.98187255859375,-0.0609190091490745,0.0123687852174043,0.0111927334219217
1769241126838,-0.128173828125,-0.1011505126953125,-0.989654541015625,-0.0615866668522357,0.011512579396367,0.0121551994234323
1769241126848,-0.126983642578125,-0.0972137451171875,-0.9918212890625,-0.0604151412844657,0.0150263532996177,0.0098009649664163
1769241126858,-0.131500244140625,-0.09088134765625,-0.9929351806640624,-0.058508850634098,0.0184101667255163,0.0072603095322847
1769241126868,-0.138824462890625,-0.0852508544921875,-0.9956207275390624,-0.0514330975711345,0.0181297361850738,0.0008319715270772
1769241126879,-0.1397857666015625,-0.08197021484375,-1.0013427734375,-0.0434489399194717,0.0179848596453666,-0.0039316248148679
1769241126889,-0.1421356201171875,-0.0842742919921875,-1.0040130615234375,-0.0269466619938612,0.0159294307231903,-0.0072456621564924
1769241126899,-0.1425933837890625,-0.0855865478515625,-1.004547119140625,-0.006867759861052,0.0109272161498665,-0.0098262652754783
1769241126909,-0.137481689453125,-0.0886383056640625,-1.0053863525390625,0.0127341710031032,0.003345729317516,-0.0085431542247533
1769241126919,-0.1312408447265625,-0.0920867919921875,-1.003692626953125,0.0310676377266645,-0.0042876894585788,-0.0110486559569835
1769241126929,-0.1271820068359375,-0.091522216796875,-0.99505615234375,0.0365950278937816,-0.0016998957144096,-0.0103397229686379
1769241126939,-0.1259002685546875,-0.0930633544921875,-0.9883575439453124,0.0339262746274471,0.001309742568992,-0.0085109304636716
1769241126949,-0.12567138671875,-0.0964508056640625,-0.980621337890625,0.0300955846905708,0.0015598133904859,-0.0069745522923767
1769241126959,-0.128082275390625,-0.0992279052734375,-0.9786529541015624,0.0208059456199407,0.0016024239594116,-0.0018735338235273
1769241126969,-0.130462646484375,-0.105438232421875,-0.9769134521484376,0.0083269057795405,0.015361113473773,-0.0015081481542438
1769241126979,-0.1295318603515625,-0.09173583984375,-0.9755401611328124,0.0031300131231546,0.015008776448667,-0.004438956733793
1769241126989,-0.1366119384765625,-0.080657958984375,-0.9779205322265624,0.0078283622860908,0.0124241793528199,-0.0037204360123723
1769241127000,-0.13580322265625,-0.0806121826171875,-0.98516845703125,0.0151443313807249,0.0001970739249372,-0.0047353669069707
1769241127009,-0.13153076171875,-0.089630126953125,-0.9866790771484376,0.0123346969485282,-0.0141568314284086,-0.0022343921009451
1769241127020,-0.130950927734375,-0.09814453125,-0.9774017333984376,0.0031449268572032,-0.0008088020258583,-0.0005440838285721
1769241127029,-0.130523681640625,-0.0959014892578125,-0.9709320068359376,-0.0047542750835418,-0.0003320961841382,-0.0027209515683352
1769241127039,-0.1323394775390625,-0.093414306640625,-0.97119140625,-0.0094068171456456,0.0060938452370464,-0.0031454595737159
1769241127049,-0.13427734375,-0.09112548828125,-0.97442626953125,-0.0161755084991455,0.0104888603091239,-0.00290257926099
1769241127059,-0.1360015869140625,-0.0919036865234375,-0.982208251953125,-0.0198032651096582,0.0063210129737854,-0.0027222833596169
1769241127069,-0.133697509765625,-0.091705322265625,-0.98651123046875,-0.0253759305924177,-0.006679474376142,-0.0023558323737233
1769241127079,-0.1352691650390625,-0.0911712646484375,-0.985443115234375,-0.0353308245539665,-0.0117586553096771,-0.0049313753843307
1769241127090,-0.1342315673828125,-0.0910797119140625,-0.982269287109375,-0.0489446409046649,-0.0003968109958805,-0.0071457936428487
1769241127100,-0.1320953369140625,-0.0944366455078125,-0.978424072265625,-0.0593954175710678,0.0079516666010022,-0.0071849422529339
1769241127110,-0.132110595703125,-0.0971527099609375,-0.9794158935546876,-0.0587205700576305,0.0046466835774481,-0.005771336145699
1769241127120,-0.1333160400390625,-0.094085693359375,-0.9901123046875,-0.0508725009858608,0.0023656859993934,-0.0056597497314214
1769241127130,-0.130828857421875,-0.0911865234375,-1.0002593994140625,-0.0346839427947998,-0.004031759686768,-0.0035329493694007
1769241127140,-0.1304473876953125,-0.0920562744140625,-1.00537109375,-0.0158015992492437,-0.0117573235183954,-0.0001925465476233
1769241127150,-0.127685546875,-0.087677001953125,-1.0068511962890625,-0.0005906891310587,-0.0212413724511861,0.0036509274505078
1769241127160,-0.1247711181640625,-0.08966064453125,-1.0005950927734375,0.0101945810019969,-0.0210850443691015,0.0076131783425807
1769241127170,-0.125335693359375,-0.0910186767578125,-0.9923248291015624,0.0139589589089155,-0.0059292619116604,0.0153456665575504
1769241127180,-0.1207275390625,-0.0938568115234375,-0.9849700927734376,0.0126201873645186,0.0147280795499682,0.0086648603901267
1769241127190,-0.131805419921875,-0.0943450927734375,-0.9822845458984376,0.017675133422017,0.0121722435578703,0.0102217448875308
1769241127200,-0.1315460205078125,-0.09112548828125,-0.9861907958984376,0.0199998077005147,0.0097769973799586,0.008845423348248
1769241127210,-0.133331298828125,-0.0912322998046875,-0.98712158203125,0.019007246941328,0.0035342811606824,0.0059657469391822
1769241127220,-0.134368896484375,-0.091644287109375,-0.9860382080078124,0.0150561807677149,0.0028722193092107,0.0024738102219998
1769241127230,-0.1347503662109375,-0.0911712646484375,-0.981719970703125,0.0105655584484338,-0.0076267607510089,0.0019952403381466
1769241127240,-0.1335601806640625,-0.091461181640625,-0.978485107421875,-0.000557665945962,0.0061761368997395,0.0024746092967689
1769241127250,-0.1336212158203125,-0.089691162109375,-0.973785400390625,-0.0148479221388697,0.0151437986642122,-0.0027249464765191
1769241127260,-0.1352996826171875,-0.0911407470703125,-0.973297119140625,-0.0169126708060503,0.01106090657413,-0.00542086455971
1769241127270,-0.1353302001953125,-0.0879364013671875,-0.9774322509765624,-0.0154852159321308,0.018925754353404,-0.0080589912831783
1769241127280,-0.1314697265625,-0.0877685546875,-0.983001708984375,-0.0145049067214131,0.012638296931982,-0.0093948328867554
1769241127291,-0.1327972412109375,-0.0894927978515625,-0.9861907958984376,-0.0141829308122396,0.0061718756332993,-0.0112177673727273
1769241127300,-0.133087158203125,-0.0904693603515625,-0.9835662841796876,-0.0140609573572874,0.0103652896359562,-0.0170937664806842
1769241127310,-0.1360015869140625,-0.0972900390625,-0.98193359375,-0.0189563799649477,0.0129671972244977,-0.0087884319946169
1769241127321,-0.129547119140625,-0.0922698974609375,-0.977142333984375,-0.0172804538160562,0.0121919512748718,-0.0084470147266983
1769241127331,-0.131072998046875,-0.0907135009765625,-0.9818572998046876,-0.0166325066238641,0.010161024518311,-0.00739187002182
1769241127341,-0.1352996826171875,-0.0859222412109375,-0.9846954345703124,-0.0143256764858961,-0.004628840368241,-0.0029782131314277
1769241127351,-0.131072998046875,-0.09442138671875,-0.9862518310546876,-0.0233263615518808,-0.0149251539260149,0.0057702711783349
1769241127361,-0.1243743896484375,-0.1102294921875,-0.9930877685546876,-0.0219660196453332,-0.011862251907587,0.012654541991651
1769241127371,-0.1210174560546875,-0.0874481201171875,-0.9865570068359376,-0.0182839315384626,-0.0205510817468166,0.0106995161622762
1769241127381,-0.132598876953125,-0.071197509765625,-0.9780731201171876,-0.0218544322997331,-0.0147214215248823,0.0050008837133646
1769241127391,-0.1360015869140625,-0.0958709716796875,-0.9837188720703124,-0.0182831324636936,-0.003663710784167,0.002231728984043
1769241127401,-0.1328582763671875,-0.092926025390625,-0.97998046875,-0.029428195208311,-0.0235564578324556,0.0012197277974337
1769241127411,-0.13665771484375,-0.0964813232421875,-0.973907470703125,-0.0416728779673576,0.0006697850185446,0.0041196439415216
1769241127421,-0.1311798095703125,-0.102203369140625,-0.9760894775390624,-0.0400227829813957,0.0036479979753494,0.0069607039913535
1769241127431,-0.127349853515625,-0.0933685302734375,-0.978973388671875,-0.0439711846411228,-0.0074595143087208,0.0060597565025091
1769241127441,-0.1275177001953125,-0.0783538818359375,-0.9842071533203124,-0.0337880589067935,0.0085586011409759,0.0035465315449982
1769241127451,-0.1318817138671875,-0.0711669921875,-0.9892120361328124,-0.0135565549135208,-0.0014988270122557,0.0048914281651377
1769241127461,-0.1349029541015625,-0.08135986328125,-0.995849609375,0.0073564499616622,-0.0075090490281581,0.0052719935774803
1769241127471,-0.1355133056640625,-0.0897674560546875,-0.99615478515625,0.0156793612986803,-0.0117490673437714,0.0056110140867531
1769241127481,-0.136505126953125,-0.091888427734375,-0.9907684326171876,0.0126601355150341,-0.011315238662064,0.0027164241764694
1769241127491,-0.1421661376953125,-0.088226318359375,-0.9844512939453124,0.0019518306944519,-0.0090480893850326,-0.0003475425182841
1769241127501,-0.14361572265625,-0.0895233154296875,-0.98321533203125,-0.0107075050473213,-0.0082824304699897,0.0001707086194073
1769241127511,-0.1367034912109375,-0.095458984375,-0.9842376708984376,-0.0262161567807197,-0.0011193265672773,-0.0022703448776155
1769241127521,-0.1331939697265625,-0.0965423583984375,-0.9836273193359376,-0.0349137745797634,8.122641156660393e-05,1.8642127770363004e-06
1769241127532,-0.1296234130859375,-0.0933380126953125,-0.9856414794921876,-0.0325965583324432,0.0145959872752428,-0.0006407565670087
1769241127542,-0.126556396484375,-0.08880615234375,-0.9930877685546876,-0.0202613286674022,0.0036016590893268,0.0018937737913802
1769241127552,-0.1284942626953125,-0.08837890625,-0.999481201171875,-0.0051010185852646,-0.002568885218352,0.0015451660146936
1769241127562,-0.13262939453125,-0.084442138671875,-0.9991455078125,0.000311589858029,-0.0018463695887476,-0.0011121360585093
1769241127572,-0.13873291015625,-0.0843658447265625,-0.9914398193359376,0.0036501286085695,0.0021739383228123,-0.0026690200902521
1769241127582,-0.1397552490234375,-0.085113525390625,-0.98858642578125,0.005567604675889,0.0087852356955409,-0.0038703719619661
1769241127592,-0.136077880859375,-0.0858612060546875,-0.99090576171875,0.0107698235660791,0.0024911209475249,-0.0044163200072944
1769241127602,-0.1320343017578125,-0.0894622802734375,-0.992645263671875,0.0218376535922288,-0.0070411316119134,-0.003761715022847
1769241127612,-0.132598876953125,-0.0874481201171875,-0.989776611328125,0.0270167030394077,-0.0121360253542661,-0.0036892769858241
1769241127622,-0.1324462890625,-0.084808349609375,-0.98333740234375,0.0236624516546726,-0.0037870150990784,-0.0054690674878656
1769241127632,-0.134796142578125,-0.087310791015625,-0.97723388671875,0.0130889043211936,-0.0002364887041039,-0.0044421525672078
1769241127642,-0.134063720703125,-0.0980682373046875,-0.9721527099609376,-0.0064312675967812,-0.0002221076283603,0.0032487902790308
1769241127652,-0.1319427490234375,-0.11688232421875,-0.9715118408203124,-0.0232571195811033,0.0244712550193071,0.0066866646520793
1769241127662,-0.12689208984375,-0.0916900634765625,-0.9713287353515624,-0.0302391294389963,0.0146244829520583,0.0064927865751087
1769241127672,-0.134124755859375,-0.0824432373046875,-0.977630615234375,-0.022726884111762,0.0035811527632176,0.0108065754175186
1769241127682,-0.12847900390625,-0.086273193359375,-0.9909515380859376,-0.0068208882585167,-0.0054240599274635,0.011043063364923
1769241127692,-0.1316375732421875,-0.0844879150390625,-0.992156982421875,-0.0011267834343016,-0.0160178486257791,0.0128284469246864
1769241127702,-0.13494873046875,-0.0836334228515625,-0.9781036376953124,-0.0130209932103753,-0.0058549595996737,0.0148196928203105
1769241127712,-0.1308746337890625,-0.0908050537109375,-0.970733642578125,-0.0290537551045417,0.0128966234624385,0.0157757680863142
1769241127722,-0.1340789794921875,-0.0867462158203125,-0.967071533203125,-0.0366051495075225,0.0114222979173064,0.0182967148721218
1769241127732,-0.1358795166015625,-0.0836334228515625,-0.9723052978515624,-0.042672362178564,0.0111216269433498,0.0225130319595336
1769241127743,-0.132354736328125,-0.0890655517578125,-0.9824371337890624,-0.044899296015501,0.0009693906176835,0.0231260918080806
1769241127752,-0.1311492919921875,-0.0908355712890625,-0.9868621826171876,-0.0446961000561714,-0.0102936504408717,0.0205090027302503
1769241127763,-0.1351470947265625,-0.0891265869140625,-0.9888916015625,-0.0464319474995136,-0.01368491910398,0.0182104296982288
1769241127773,-0.141876220703125,-0.0845489501953125,-0.9890289306640624,-0.0520685277879238,-0.0164772439748048,0.0144175551831722
1769241127783,-0.1396484375,-0.083984375,-0.985992431640625,-0.0547418072819709,-0.0099285310134291,0.0081316959112882
1769241127793,-0.137115478515625,-0.088287353515625,-0.9881439208984376,-0.0543316826224327,-0.0055183358490467,0.006230198778212
1769241127803,-0.138824462890625,-0.0863189697265625,-0.9879913330078124,-0.0507934056222438,-0.0053457631729543,0.0020586235914379
1769241127813,-0.13775634765625,-0.0835723876953125,-0.9918670654296876,-0.0441400296986103,-0.0007392935222014,7.243797881528735e-05
1769241127823,-0.135101318359375,-0.0855255126953125,-0.9969329833984376,-0.0326807163655757,-0.0051707937382161,-0.0031111047137528
1769241127833,-0.1359405517578125,-0.0869293212890625,-0.997467041015625,-0.0261229462921619,-0.0062166168354451,-0.0110814133659005
1769241127843,-0.140625,-0.084075927734375,-0.99365234375,-0.0164239797741174,0.0008982842555269,-0.0108406636863946
1769241127853,-0.1407470703125,-0.08502197265625,-0.9939422607421876,-0.0030597057193517,0.002641323255375,-0.0154463341459631
1769241127863,-0.1402435302734375,-0.0846405029296875,-0.9992218017578124,0.0089210569858551,-0.0020141487475484,-0.0167161300778388
1769241127873,-0.1380615234375,-0.082275390625,-0.9994964599609376,0.0187369361519813,0.00103064335417,-0.0181398559361696
1769241127883,-0.138092041015625,-0.08526611328125,-0.99517822265625,0.0267213582992553,-0.0081032002344727,-0.0184442549943923
1769241127893,-0.1365509033203125,-0.0883941650390625,-0.9900054931640624,0.0299445837736129,-0.0045425537973642,-0.0161992106586694
1769241127903,-0.1349334716796875,-0.086029052734375,-0.985443115234375,0.0313890799880027,-0.0023840616922825,-0.0122127244248986
1769241127913,-0.1328887939453125,-0.0841827392578125,-0.9843292236328124,0.0305387340486049,0.002796585438773,-0.0125384284183382
1769241127923,-0.1313934326171875,-0.0883331298828125,-0.9829559326171876,0.0277663841843605,0.0040048616938292,-0.0106784766539931
1769241127933,-0.1323699951171875,-0.0869598388671875,-0.984039306640625,0.0298662856221199,0.001276186783798,-0.0100925816223025
1769241127943,-0.138458251953125,-0.0853424072265625,-0.983062744140625,0.0295091569423675,-0.0004404868523124,-0.0108944596722722
1769241127954,-0.1394805908203125,-0.08343505859375,-0.982574462890625,0.0244784448295831,0.0021145499777048,-0.0153328832238912
1769241127963,-0.1414337158203125,-0.0833892822265625,-0.979583740234375,0.017077786847949,-0.0011757856700569,-0.019250126555562
1769241127973,-0.1404876708984375,-0.08782958984375,-0.9759368896484376,0.0040922132320702,0.0082866922020912,-0.0178559627383947
1769241127984,-0.134857177734375,-0.0887451171875,-0.972991943359375,-0.0098044276237487,0.0106718186289072,-0.0188341420143842
1769241127994,-0.136993408203125,-0.0880126953125,-0.971160888671875,-0.0161382239311933,0.0088432924821972,-0.0186463892459869
1769241128004,-0.1358795166015625,-0.0802001953125,-0.97607421875,-0.0195183083415031,0.0016479641199111,-0.0156335551291704
1769241128014,-0.13372802734375,-0.085693359375,-0.9826812744140624,-0.0336093604564666,-0.00473323604092,-0.0107170930132269
1769241128024,-0.1328887939453125,-0.097198486328125,-0.9835205078125,-0.0422103032469749,0.0042549325153231,-0.0078512653708457
1769241128034,-0.127593994140625,-0.088623046875,-0.984619140625,-0.0338623598217964,0.0042645200155675,-0.0098614189773797
1769241128044,-0.1351776123046875,-0.061859130859375,-0.98040771484375,-0.0282604005187749,-0.006729541812092,-0.0189225580543279
1769241128054,-0.14337158203125,-0.0736846923828125,-0.9923553466796876,-0.0154045224189758,0.0057186055928468,-0.0207478888332843
1769241128064,-0.1345977783203125,-0.087554931640625,-0.99920654296875,-0.0078038610517978,-0.0108627676963806,-0.0236304942518472
1769241128074,-0.1386871337890625,-0.0937652587890625,-0.9884185791015624,-0.013989052735269,-0.0144910579547286,-0.0196525305509567
1769241128084,-0.1328582763671875,-0.0973968505859375,-0.9842681884765624,-0.014052702113986,0.0019273296929895,-0.0118217719718813
1769241128094,-0.124481201171875,-0.08984375,-0.9793853759765624,-0.0203063376247882,0.0009123989730142,-0.012556804344058
1769241128104,-0.12774658203125,-0.078033447265625,-0.973968505859375,-0.0191851463168859,0.0128675950691103,-0.010913367383182
1769241128114,-0.1313629150390625,-0.066558837890625,-0.975433349609375,-0.0060022324323654,0.0099469069391489,-0.0123248435556888
1769241128125,-0.13427734375,-0.0686798095703125,-0.9799041748046876,0.0020823257509618,0.007162039168179,-0.0118806278333067
1769241128134,-0.1384124755859375,-0.0766754150390625,-0.98309326171875,0.001220260397531,0.0042948797345161,-0.0076997312717139
1769241128144,-0.135955810546875,-0.080963134765625,-0.9857330322265624,-0.0042661176994442,0.0115131111815571,-0.004693288821727
1769241128154,-0.1371612548828125,-0.0789794921875,-0.9857635498046876,-0.0103562343865633,0.0083029372617602,-0.0014889733865857
1769241128164,-0.136688232421875,-0.0835723876953125,-0.987213134765625,-0.0114015247672796,0.0012996225850656,0.0035444011446088
1769241128174,-0.13323974609375,-0.0898590087890625,-0.9891510009765624,-0.0149294147267937,0.0040408144704997,0.0091642038896679
1769241128184,-0.1295623779296875,-0.0950927734375,-0.989715576171875,-0.0172492936253547,-0.0011472897604107,0.0097884489223361
1769241128195,-0.127593994140625,-0.0936431884765625,-0.9865875244140624,-0.0206743851304054,0.0039627836085855,0.0132348453626036
1769241128205,-0.12664794921875,-0.0875396728515625,-0.98919677734375,-0.0154473995789885,0.0048410943709313,0.0164753794670104
1769241128215,-0.1260528564453125,-0.0864410400390625,-0.9925384521484376,-0.0059393816627562,0.0061758705414831,0.0159243717789649
1769241128225,-0.1309356689453125,-0.08355712890625,-0.9954986572265624,0.0018208032706752,0.0049239182844758,0.0122747756540775
1769241128235,-0.140625,-0.0787506103515625,-0.9929351806640624,0.0029643645975738,0.0072957295924425,0.0114686368033289
1769241128245,-0.1412811279296875,-0.076019287109375,-0.9910736083984376,0.0056573529727756,0.0050128679722547,0.0099423788487911
1769241128255,-0.1399078369140625,-0.0810699462890625,-0.9925994873046876,0.0103000421077013,0.0055007589980959,0.0079743033275008
1769241128265,-0.139129638671875,-0.0797119140625,-0.9932861328125,0.0183678213506937,-0.0056778592988848,0.008142614737153
1769241128275,-0.1336212158203125,-0.0811614990234375,-0.9914398193359376,0.0247237216681242,0.0003097256412729,0.005470132920891
1769241128285,-0.1321258544921875,-0.0838470458984375,-0.988189697265625,0.0240872260183095,-0.0036772927269339,0.001939846551977
1769241128295,-0.1336212158203125,-0.07916259765625,-0.982513427734375,0.0195571891963481,-0.00646588858217,0.0020477045327425
1769241128305,-0.1338653564453125,-0.081390380859375,-0.9796905517578124,0.010432400740683,-0.0129895685240626,0.0053114085458219
1769241128315,-0.1305999755859375,-0.1051788330078125,-0.984375,0.000216514992644,0.0022298647090792,0.0094635430723428
1769241128325,-0.1279449462890625,-0.0969085693359375,-0.981353759765625,-0.010472347959876,0.0137115512043237,0.0065857311710715
1769241128335,-0.135650634765625,-0.0750274658203125,-0.9756622314453124,-0.0125381620600819,0.0098718050867319,0.0028706213925033
1769241128345,-0.1403350830078125,-0.082550048828125,-0.9802093505859376,-0.0082800341770052,0.0132625419646501,-0.0005701828049495
1769241128355,-0.1390838623046875,-0.08123779296875,-0.9860687255859376,0.0020511667244136,0.0078592542558908,-0.0022298647090792
1769241128365,-0.141387939453125,-0.0820159912109375,-0.9850311279296876,0.0062144864350557,-0.0003624562232289,-0.0026690200902521
1769241128375,-0.13543701171875,-0.08526611328125,-0.988006591796875,0.0081314295530319,0.000205596035812,-0.0035284222103655
1769241128385,-0.13433837890625,-0.0792694091796875,-0.9896392822265624,0.0116036590188741,-0.0100052300840616,-0.0040341564454138
1769241128395,-0.135772705078125,-0.08056640625,-0.9901123046875,0.013832458294928,-0.0085127940401434,-0.002493784064427
1769241128405,-0.134063720703125,-0.0843353271484375,-0.98638916015625,0.0094385091215372,-0.0082259718328714,0.0011526161106303
1769241128415,-0.1324310302734375,-0.0879669189453125,-0.98272705078125,-0.0011190603254362,-0.0003331614425405,0.0039065908640623
1769241128426,-0.1337432861328125,-0.08807373046875,-0.9783172607421876,-0.015074823051691,0.0031180288642644,0.0042714439332485
1769241128436,-0.134796142578125,-0.088531494140625,-0.9761505126953124,-0.0264846049249172,0.0002628540096338,0.0061521683819592
1769241128446,-0.1327667236328125,-0.0864715576171875,-0.9813995361328124,-0.0313022620975971,-0.0021979068405926,0.0056693372316658
1769241128456,-0.1349029541015625,-0.08929443359375,-0.98583984375,-0.0295805297791957,-0.0055380435660481,0.0047369645908474
1769241128466,-0.135406494140625,-0.089935302734375,-0.9907379150390624,-0.0262427888810634,-0.0029087045695632,0.000768588273786
1769241128476,-0.1383514404296875,-0.088775634765625,-0.9923248291015624,-0.0221820008009672,-0.0015251922886818,0.0025555694010108
1769241128486,-0.1361846923828125,-0.087005615234375,-0.991455078125,-0.0180439818650484,0.0015230617718771,0.0036261600907891
1769241128496,-0.1334686279296875,-0.0874481201171875,-0.9918365478515624,-0.0112563828006386,-0.0005928196478635,0.0045726476237177
1769241128506,-0.1307830810546875,-0.0854644775390625,-0.9915008544921876,-0.0042573292739689,-0.0038637141697108,0.0060701430775225
1769241128516,-0.13067626953125,-0.0810699462890625,-0.9887237548828124,0.0005161206354387,-0.0037318875547498,0.0047537423670291
1769241128526,-0.13336181640625,-0.082366943359375,-0.985198974609375,0.0055018244311213,-0.0050091398879885,0.0051870387978851
1769241128536,-0.134765625,-0.085174560546875,-0.98638916015625,0.0052517536096274,-0.0052608083933591,0.0024889903143048
1769241128546,-0.1383819580078125,-0.08447265625,-0.981353759765625,0.000972852751147,-0.0015507587231695,0.0020359866321086
1769241128556,-0.138671875,-0.085784912109375,-0.9778900146484376,0.0010996191995218,0.0011989551130682,0.0018841864075511
1769241128566,-0.1381683349609375,-0.0892181396484375,-0.9844818115234376,0.003401655703783,-0.0015387744642794,0.0021632856223732
1769241128576,-0.13848876953125,-0.086578369140625,-0.98870849609375,0.0058445734903216,-0.0029989855829626,0.0041553303599357
1769241128586,-0.1364288330078125,-0.085693359375,-0.9867706298828124,0.0020999026019126,-0.0050514838658273,0.0026628947816789
1769241128596,-0.135467529296875,-0.0837554931640625,-0.9825286865234376,-0.0037087181117385,0.0002663161139935,-0.0001299622672377
1769241128606,-0.1365814208984375,-0.0809173583984375,-0.9793243408203124,-0.0103178853169083,0.0031585090328007,-0.0015933692920953
1769241128616,-0.138275146484375,-0.08270263671875,-0.9808807373046876,-0.008184160105884,0.0076075857505202,-0.0040711741894483
1769241128626,-0.1393280029296875,-0.087249755859375,-0.985595703125,-0.0050126016139984,-0.0021478394046425,-0.0032000544015318
1769241128636,-0.1371612548828125,-0.08990478515625,-0.989593505859375,-0.003892742563039,-0.0077900122851133,-0.0025686188600957
1769241128646,-0.1370086669921875,-0.0897674560546875,-0.98614501953125,-0.0013984258985146,-0.0026365295052528,-0.0023100259713828
1769241128657,-0.13714599609375,-0.08477783203125,-0.983062744140625,0.0011195929255336,-0.0017441042000427,-0.0021225393284112
1769241128667,-0.13763427734375,-0.0848541259765625,-0.9854736328125,0.0012921657180413,-0.0059550944715738,0.0011962919961661
1769241128677,-0.1327362060546875,-0.0964508056640625,-0.9888763427734376,-0.0088781798258423,-0.012745888903737,0.0068152956664562
1769241128687,-0.13043212890625,-0.1011810302734375,-0.989410400390625,-0.0088816424831748,-0.0037321539130061,0.0099967075511813
1769241128697,-0.131805419921875,-0.0748138427734375,-0.9818267822265624,-0.010628143325448,-0.0099114868789911,-0.001717206207104
1769241128707,-0.144378662109375,-0.0594940185546875,-0.979766845703125,-0.0127674601972103,-0.0042826291173696,-0.0078025292605161
1769241128717,-0.1409454345703125,-0.081207275390625,-0.9892578125,0.0010894992155954,-0.0045721149072051,-0.0109834084287285
1769241128727,-0.138671875,-0.08447265625,-0.9841461181640624,-0.002511627273634,-0.0190511886030435,-0.0141440480947494
1769241128737,-0.1446380615234375,-0.0994415283203125,-0.9745941162109376,-0.0149975912645459,0.0066073024645447,-0.0104859303683042
1769241128747,-0.13580322265625,-0.1041717529296875,-0.9736785888671876,-0.0245958901941776,0.0084611289203166,-0.0084448838606476
1769241128757,-0.1330718994140625,-0.09478759765625,-0.973907470703125,-0.0206267144531011,0.0056032910943031,-0.0105557050555944
1769241128767,-0.1311492919921875,-0.0736846923828125,-0.983551025390625,-0.0010815097484737,-0.0015448997728526,-0.0111991250887513
1769241128777,-0.135009765625,-0.0685882568359375,-0.9906463623046876,0.0170602090656757,-0.0204903613775968,-0.0128018148243427
1769241128787,-0.1424407958984375,-0.0733489990234375,-0.98858642578125,0.0184583701193332,-0.017239972949028,-0.0137813258916139
1769241128797,-0.1451263427734375,-0.07720947265625,-0.9791717529296876,-0.0005656554130837,-0.006066414527595,-0.014578410424292
1769241128807,-0.1443634033203125,-0.0864410400390625,-0.9678192138671876,-0.017566742375493,0.002094842493534,-0.0136215360835194
1769241128817,-0.1425933837890625,-0.0876007080078125,-0.97137451171875,-0.0269911382347345,0.0021534319967031,-0.0103343967348337
1769241128827,-0.1410675048828125,-0.0890350341796875,-0.9791412353515624,-0.0330911092460155,-0.0088736526668071,-0.0010857707820832
1769241128837,-0.13470458984375,-0.0927886962890625,-0.987335205078125,-0.0420534424483776,-0.0125163244083523,0.00360565376468
1769241128847,-0.1284332275390625,-0.0938568115234375,-0.9884490966796876,-0.0489912442862987,-0.0145051730796694,0.0070062442682683
1769241128858,-0.1285858154296875,-0.0927886962890625,-0.981475830078125,-0.0541010536253452,-0.0073543190956115,0.0100262686610221
1769241128867,-0.133758544921875,-0.0892333984375,-0.9829864501953124,-0.0522802472114563,-0.0054512242786586,0.0068595041520893
1769241128878,-0.1393585205078125,-0.083984375,-0.98773193359375,-0.0503859408199787,-0.0060877199284732,0.0040187099948525
1769241128888,-0.1436614990234375,-0.08056640625,-0.991729736328125,-0.0448241978883743,-0.0077956048771739,0.0017427726415917
1769241128898,-0.144500732421875,-0.0778350830078125,-0.994964599609375,-0.0406097434461116,-0.0173686034977436,-0.0021497036796063
1769241128908,-0.1459503173828125,-0.078948974609375,-0.9927978515625,-0.0339137576520442,-0.0147541789337992,-0.0022141521330922
1769241128918,-0.1440887451171875,-0.08111572265625,-0.9915313720703124,-0.0318394228816032,-0.0106358667835593,-0.0058863847516477
1769241128928,-0.14410400390625,-0.08050537109375,-0.9889068603515624,-0.0258470438420772,-0.0057843858376145,-0.0075460667721927
1769241128938,-0.14288330078125,-0.0807952880859375,-0.9896087646484376,-0.0122489426285028,-0.0124827688559889,-0.0147491190582513
1769241128948,-0.14398193359375,-0.0828399658203125,-0.9922943115234376,-0.0072896042838692,-0.0100427800789475,-0.0111799500882625
1769241128958,-0.13702392578125,-0.0735626220703125,-0.9867706298828124,-0.0055606802925467,-0.0115373460575938,-0.0123749105259776
1769241128968,-0.139251708984375,-0.0850677490234375,-0.9880523681640624,-0.0079825585708022,-0.020511133596301,-0.011861452832818
1769241128978,-0.139312744140625,-0.1017913818359375,-0.99029541015625,-0.0026557042729109,-0.0116643793880939,-0.0105852661654353
1769241128988,-0.1338958740234375,-0.0800628662109375,-0.986907958984375,0.003433879930526,-0.0185055080801248,-0.0168487541377544
1769241128998,-0.14508056640625,-0.077911376953125,-0.9860076904296876,0.005224322900176,-0.0079580582678318,-0.017460748553276
1769241129008,-0.144195556640625,-0.0792236328125,-0.9878997802734376,0.0114499945193529,0.002242381684482,-0.022113824263215
1769241129018,-0.1457061767578125,-0.074951171875,-0.9857330322265624,0.0133144734427332,-0.007139136083424,-0.0223910585045814
1769241129028,-0.1431884765625,-0.082489013671875,-0.9865264892578124,0.0123077984899282,-0.0026929883752018,-0.0221396572887897
1769241129038,-0.1401519775390625,-0.08453369140625,-0.9878387451171876,0.0156838875263929,-0.0089013492688536,-0.0245522148907184
1769241129048,-0.141510009765625,-0.07598876953125,-0.984710693359375,0.0163922887295484,-0.0154647100716829,-0.0274774301797151
1769241129058,-0.14508056640625,-0.074432373046875,-0.986419677734375,0.0185454543679952,-0.0196690429002046,-0.0224006474018096
1769241129068,-0.14007568359375,-0.079315185546875,-0.9878692626953124,0.0102049671113491,-0.0207422971725463,-0.0216301940381526
1769241129078,-0.1376800537109375,-0.0845184326171875,-0.9785919189453124,-0.0045721149072051,-0.0124188531190156,-0.0186146963387727
1769241129088,-0.1386871337890625,-0.085906982421875,-0.9703826904296876,-0.0172839146107435,-0.0032178976107388,-0.01259755063802
1769241129099,-0.1384735107421875,-0.08648681640625,-0.9731292724609376,-0.0276934131979942,-0.0041731735691428,-0.0108851380646228
1769241129109,-0.1374053955078125,-0.0851287841796875,-0.97857666015625,-0.0335513018071651,-0.002436526119709,-0.008044078014791
1769241129119,-0.1379241943359375,-0.084564208984375,-0.9826507568359376,-0.0389663092792034,0.0004261057765688,-0.0071236896328628
1769241129129,-0.1404266357421875,-0.0849609375,-0.987457275390625,-0.03987817466259,-0.0090326434001326,-0.0047422908246517
1769241129139,-0.1415557861328125,-0.0830078125,-0.9918060302734376,-0.0393932126462459,-0.0057529606856405,-0.0031710257753729
1769241129149,-0.14306640625,-0.0815277099609375,-0.9912109375,-0.0408869795501232,-0.0012138688471168,-0.0017994979862123
1769241129159,-0.14288330078125,-0.0782928466796875,-0.989898681640625,-0.032463401556015,-0.0005067995516583,-0.0014996259706094
1769241129169,-0.1403961181640625,-0.0765228271484375,-0.9925994873046876,-0.0185955222696065,-0.0005344964447431,-0.0002729740226641
1769241129179,-0.1377410888671875,-0.0784454345703125,-0.9964447021484376,-0.0041175135411322,-0.0054688011296093,0.0002380866062594
1769241129189,-0.1370697021484375,-0.0788726806640625,-0.993377685546875,0.0059305932372808,-0.0036626453511416,0.0039361519739031
1769241129199,-0.1375579833984375,-0.0787353515625,-0.9890289306640624,0.0061146179214119,-0.0026692864485085,0.0064949174411594
1769241129209,-0.1378936767578125,-0.080963134765625,-0.9853973388671876,0.0052456283010542,-0.0013717942638322,0.0059284628368914
1769241129219,-0.1394805908203125,-0.0836944580078125,-0.98382568359375,0.0044016726315021,0.00895940605551,0.0066136941313743
1769241129229,-0.1415252685546875,-0.08319091796875,-0.9818115234375,-0.0022530341520905,0.0137275299057364,0.0042727757245302
1769241129239,-0.1448516845703125,-0.079010009765625,-0.9791412353515624,-0.0048181908205151,0.0137914456427097,0.0055801211856305
1769241129249,-0.143310546875,-0.0810089111328125,-0.983062744140625,-0.0043918187730014,0.0179015025496482,0.0026455842889845
1769241129259,-0.144256591796875,-0.08184814453125,-0.9859771728515624,0.0007496798643842,0.0049734534695744,0.0025896579027175
1769241129269,-0.1443634033203125,-0.0786590576171875,-0.9884796142578124,0.0032213595695793,0.0041806302033364,-0.0016226640436798
1769241129279,-0.145751953125,-0.0793304443359375,-0.9879608154296876,0.0070235547609627,-0.0062597598880529,-0.001538241864182
1769241129289,-0.146087646484375,-0.08245849609375,-0.988922119140625,0.0067718857899308,-0.0081894863396883,-0.001669535646215
1769241129299,-0.141082763671875,-0.0838623046875,-0.985595703125,0.0044690505601465,-0.0069865365512669,-0.0038850193377584
1769241129310,-0.14190673828125,-0.08172607421875,-0.97967529296875,0.0031672974582761,-0.0045502767898142,-0.0016130766598507
1769241129320,-0.142242431640625,-0.0794219970703125,-0.9800567626953124,-0.0010298443958163,0.0065614962950348,-0.0020727382507175
1769241129330,-0.1429443359375,-0.0844879150390625,-0.97967529296875,-0.01640853472054,-0.0004090615548193,0.0011523497523739
1769241129340,-0.14093017578125,-0.0974578857421875,-0.9828338623046876,-0.0310636442154645,0.0021728731226176,0.0090816458687186
1769241129350,-0.1327056884765625,-0.0871734619140625,-0.9822540283203124,-0.0302130300551652,0.0111333448439836,0.0072227590717375
1769241129360,-0.140716552734375,-0.0625762939453125,-0.978515625,-0.0307605750858783,-0.0044573326595127,-0.003606985323131
1769241129370,-0.1475677490234375,-0.079681396484375,-0.9864959716796876,-0.0141597613692283,0.0061777345836162,-0.0078073227778077
1769241129380,-0.1448516845703125,-0.0695648193359375,-0.9903564453125,-0.0045984801836311,-0.0121685154736042,-0.0165590029209852
1769241129390,-0.156951904296875,-0.0722808837890625,-0.9805908203125,-0.0159704443067312,-0.0156250316649675,-0.0177419781684875
1769241129400,-0.14947509765625,-0.0937957763671875,-0.9824371337890624,-0.0267796833068132,-0.0047225835733115,-0.015369901433587
1769241129410,-0.13934326171875,-0.0942840576171875,-0.978118896484375,-0.0451006330549716,-0.0022775353863835,-0.0117983361706137
1769241129420,-0.1365966796875,-0.078094482421875,-0.9759674072265624,-0.0425538532435894,0.0173134766519069,-0.0150327449664473
1769241129430,-0.137359619140625,-0.057342529296875,-0.9797821044921876,-0.0224219523370265,0.0065681543201208,-0.0163398254662752
1769241129440,-0.139068603515625,-0.06439208984375,-0.990936279296875,-0.0022178804501891,0.0078784292563796,-0.016012255102396
1769241129450,-0.1409454345703125,-0.0719757080078125,-0.9931488037109376,0.0074592479504644,-0.0053345779888331,-0.0139014348387718
1769241129460,-0.141937255859375,-0.0806732177734375,-0.9882659912109376,0.0046560047194361,0.0044573326595127,-0.0118835577741265
1769241129470,-0.14569091796875,-0.0804595947265625,-0.9825439453125,-0.0038621162530034,0.0110790161415934,-0.0116262957453727
1769241129480,-0.1461334228515625,-0.0833892822265625,-0.980926513671875,-0.007938084192574,0.0071884044446051,-0.0053372411057353
1769241129490,-0.142913818359375,-0.086212158203125,-0.987457275390625,-0.0132321817800402,0.0014807175612077,0.0020146814640611
1769241129500,-0.1360626220703125,-0.0832977294921875,-0.99127197265625,-0.0153576508164405,-0.0076185050420463,0.0099423788487911
1769241129510,-0.1308746337890625,-0.08270263671875,-0.9856719970703124,-0.0227892026305198,-0.0073966635391116,0.0129264509305357
1769241129520,-0.13336181640625,-0.0815277099609375,-0.9820404052734376,-0.0272252298891544,-0.0040860879234969,0.0154905430972576
1769241129530,-0.1387786865234375,-0.082977294921875,-0.9813079833984376,-0.0338679514825344,0.0095165399834513,0.0144521761685609
1769241129541,-0.1450653076171875,-0.078125,-0.9810791015625,-0.0360815711319446,0.0141618913039565,0.0086427563801407
1769241129551,-0.15087890625,-0.0743560791015625,-0.984466552734375,-0.039015308022499,0.017020795494318,0.0024788703303784
1769241129561,-0.1540374755859375,-0.07049560546875,-0.9885406494140624,-0.0430571883916854,0.0195401459932327,-0.0034045851789414
1769241129571,-0.153717041015625,-0.0691986083984375,-0.9925537109375,-0.0320953503251075,0.0001163801352959,-0.0074145067483186
1769241129581,-0.14788818359375,-0.0733184814453125,-0.999237060546875,-0.0157691091299057,-0.0084635261446237,-0.011421232484281
1769241129591,-0.1419830322265625,-0.0767974853515625,-1.0020294189453125,-0.0017928400775417,-0.0193257611244916,-0.011895009316504
1769241129601,-0.140625,-0.0787200927734375,-0.9953765869140624,0.0100390519946813,-0.0250984281301498,-0.01201724819839
1769241129611,-0.13922119140625,-0.0797576904296875,-0.986968994140625,0.0099865878000855,-0.0141211450099945,-0.0108044445514678
1769241129621,-0.1402587890625,-0.0815887451171875,-0.9822235107421876,0.0079242354258894,-0.008086422458291,-0.0077508641406893
1769241129631,-0.1433563232421875,-0.0869598388671875,-0.9804229736328124,0.0016990967560559,-0.006466687656939,-0.0068744178861379
1769241129641,-0.139678955078125,-0.083282470703125,-0.9814300537109376,-0.0021534319967031,0.0031473238486796,-0.0090134683996438
1769241129651,-0.140869140625,-0.0689239501953125,-0.9824371337890624,0.0033819482196122,-0.0030192257836461,-0.0108316084370017
1769241129661,-0.144805908203125,-0.0704193115234375,-0.9900054931640624,0.0064368601888418,0.0014306501252576,-0.0111165670678019
1769241129671,-0.14178466796875,-0.0772247314453125,-0.9892425537109376,0.0082749743014574,0.0011422297684475,-0.0158327594399452
1769241129681,-0.145477294921875,-0.082061767578125,-0.9844512939453124,0.0111035173758864,-0.0097194723784923,-0.0174373127520084
1769241129691,-0.1451416015625,-0.075592041015625,-0.9807891845703124,0.0085119949653744,-0.0072043831460177,-0.0224200878292322
1769241129701,-0.1467132568359375,-0.0749664306640625,-0.97918701171875,0.0077801588922739,-0.0085093323141336,-0.0261687524616718
1769241129711,-0.14764404296875,-0.0728302001953125,-0.982177734375,0.0010189254535362,-0.0113179022446274,-0.0281296391040086
1769241129721,-0.1475372314453125,-0.070159912109375,-0.982391357421875,-0.002895921235904,-0.0125727830454707,-0.0245458222925663
1769241129731,-0.1419677734375,-0.0762939453125,-0.984832763671875,-0.0051894355565309,-0.0097327884286642,-0.0241093300282955
1769241129742,-0.1391754150390625,-0.0821380615234375,-0.9841461181640624,-0.0074571170844137,-0.0076254289597272,-0.0199393536895513
1769241129752,-0.1403350830078125,-0.0821685791015625,-0.9825897216796876,-0.0075101139955222,-0.0035132421180605,-0.0186256151646375
1769241129762,-0.1381378173828125,-0.083099365234375,-0.98736572265625,-0.0055316518992185,-0.0013675332302227,-0.0163787063211202
1769241129772,-0.1389923095703125,-0.0829010009765625,-0.9944610595703124,0.0038016624748706,0.0093476949259638,-0.0166695248335599
1769241129782,-0.141876220703125,-0.0802154541015625,-1.0023345947265625,0.0081982752308249,-0.0126106003299355,-0.012581305578351
1769241129792,-0.14422607421875,-0.080230712890625,-0.997833251953125,0.0009230516152456,-0.0144306048750877,-0.0144958524033427
1769241129802,-0.142730712890625,-0.0794677734375,-0.98345947265625,-0.0201678518205881,0.0073687005788087,-0.0145911928266286
1769241129812,-0.1400299072265625,-0.06982421875,-0.972808837890625,-0.0346804820001125,0.0131341777741909,-0.0103487772867083
1769241129822,-0.1351470947265625,-0.0716094970703125,-0.9738616943359376,-0.0320135913789272,0.0157536622136831,-0.0047793090343475
1769241129832,-0.1309051513671875,-0.081390380859375,-0.9856414794921876,-0.0161728449165821,0.0121490741148591,0.0008245146600529
1769241129842,-0.1311187744140625,-0.08148193359375,-0.993316650390625,-0.0013270531781017,-0.0048440238460898,0.0045276400633156
1769241129852,-0.1409759521484375,-0.078125,-0.990447998046875,0.003131611039862,-0.0063772057183086,0.0086598005145788
1769241129862,-0.1431732177734375,-0.0796966552734375,-0.9862823486328124,0.002355566015467,-0.0020410467404872,0.0087471529841423
1769241129872,-0.1456298828125,-0.0811767578125,-0.9827423095703124,-0.0053974287584424,-0.0011653993278741,0.0080901505425572
1769241129882,-0.1481475830078125,-0.076202392578125,-0.9806060791015624,-0.0113834161311388,0.0096070868894457,0.0084475465118885
1769241129892,-0.1448211669921875,-0.077423095703125,-0.9838714599609376,-0.0143600311130285,0.0210067480802536,0.0108614359050989
1769241129902,-0.1420135498046875,-0.076171875,-0.98944091796875,-0.0113693010061979,0.0183648932725191,0.0097658112645149
1769241129912,-0.140380859375,-0.076171875,-0.9958343505859376,-0.0005408879951573,-0.0034213629551231,0.0109072420746088
1769241129922,-0.1424713134765625,-0.0803680419921875,-0.9940338134765624,0.0018716695485636,0.0017619474092498,0.0121930167078971
1769241129932,-0.141387939453125,-0.0792236328125,-0.9842987060546876,-0.0062435148283839,0.0084009412676095,0.0103216134011745
1769241129943,-0.1468353271484375,-0.080810546875,-0.9758453369140624,-0.0152932023629546,0.0151323471218347,0.0080073261633515
1769241129952,-0.1481475830078125,-0.08209228515625,-0.972686767578125,-0.0207225885242223,0.0235213041305542,0.0100294649600982
1769241129962,-0.1446380615234375,-0.0850830078125,-0.9777984619140624,-0.018637865781784,0.0184056386351585,0.0096076196059584
1769241129973,-0.1435394287109375,-0.0814361572265625,-0.984954833984375,-0.0096571547910571,0.0125392274931073,0.0074920048937201
1769241129983,-0.1461639404296875,-0.073974609375,-0.989471435546875,-0.0081633878871798,-0.0008311725687235,0.0057409764267504
1769241129993,-0.1487274169921875,-0.0775146484375,-0.9871673583984376,-0.0206291116774082,-0.0123184518888592,0.0108577078208327
1769241130003,-0.1413726806640625,-0.0948028564453125,-0.986663818359375,-0.0247181300073862,0.0037646444980055,0.0153509927913546
1769241130013,-0.137664794921875,-0.0790863037109375,-0.9881439208984376,-0.0176178757101297,-0.0030948594212532,0.0079681780189275
1769241130023,-0.1454010009765625,-0.0595703125,-0.981475830078125,-0.014183996245265,-0.0103016393259167,0.0033808830194175
1769241130033,-0.145294189453125,-0.08111572265625,-0.9857940673828124,-0.0023180153220891,0.0107786115258932,-0.0007416903390549
1769241130043,-0.14501953125,-0.06463623046875,-0.981903076171875,-0.0017718010349199,-0.0088278464972972,-0.0129440277814865
1769241130053,-0.1580657958984375,-0.0675811767578125,-0.9727630615234376,-0.0153161054477095,-0.0034802188165485,-0.0105985822156071
1769241130063,-0.1501922607421875,-0.09417724609375,-0.981048583984375,-0.0289730615913867,0.0072653698734939,-0.004716990981251
1769241130073,-0.14007568359375,-0.0933685302734375,-0.9808502197265624,-0.0439693219959735,-0.0031007183715701,-0.0026599653065204
1769241130083,-0.136474609375,-0.0773773193359375,-0.977630615234375,-0.0348639748990535,0.021548168733716,-0.002699912758544
1769241130093,-0.136566162109375,-0.0577850341796875,-0.9825592041015624,-0.0122137889266014,0.006304767448455,-0.0050709252245724
1769241130103,-0.1432037353515625,-0.0643157958984375,-0.9886474609375,0.0068911956623196,-0.002076999284327,-0.0053441654890775
1769241130113,-0.1459197998046875,-0.0711669921875,-0.988494873046875,0.0086305057629942,-0.0049974215216934,-0.0085455514490604
1769241130123,-0.14990234375,-0.076263427734375,-0.98724365234375,0.005520200356841,-0.0057777278125286,-0.0081641869619488
1769241130133,-0.147125244140625,-0.07916259765625,-0.98358154296875,-0.0047614658251404,0.0025798040442168,-0.0076701701618731
1769241130143,-0.147674560546875,-0.0812835693359375,-0.9817352294921876,-0.0128649324178695,0.0012735236668959,-0.00183278741315
1769241130153,-0.1419219970703125,-0.080657958984375,-0.986907958984375,-0.0144511107355356,-0.0087479511275887,0.0081868236884474
1769241130163,-0.1354827880859375,-0.0837554931640625,-0.988739013671875,-0.0150710949674248,-0.0053108758293092,0.0125195197761058
1769241130173,-0.1356201171875,-0.0839385986328125,-0.98797607421875,-0.0190155021846294,-0.0051622712053358,0.0163744464516639
1769241130183,-0.1365966796875,-0.07928466796875,-0.9806365966796876,-0.0221878606826066,-0.000974716967903,0.0149682965129613
1769241130194,-0.1396942138671875,-0.079681396484375,-0.9814453125,-0.0250662043690681,0.0078770974650979,0.0098462393507361
1769241130203,-0.1471405029296875,-0.0760040283203125,-0.9863739013671876,-0.0233916081488132,0.007432616315782,0.0050608050078153
1769241130214,-0.1542205810546875,-0.0709381103515625,-0.991455078125,-0.0186213552951812,0.0013960290234535,0.001514539704658
1769241130224,-0.1529693603515625,-0.068450927734375,-0.99365234375,-0.0150314141064882,-0.0073774890042841,-0.0054890410974621
1769241130234,-0.15106201171875,-0.06988525390625,-0.994842529296875,-0.0092451637610793,-0.0084552699699997,-0.0091058807447552
1769241130244,-0.1464691162109375,-0.073486328125,-0.9936065673828124,-0.0008484831196255,-0.011731756851077,-0.0107676927000284
1769241130254,-0.1439971923828125,-0.0767822265625,-0.9899139404296876,0.0007099987124092,-0.0033031187485903,-0.0124273747205734
1769241130264,-0.142181396484375,-0.0765838623046875,-0.98687744140625,0.0011720572365447,-0.001578721916303,-0.012395417317748
1769241130274,-0.139495849609375,-0.0777587890625,-0.9820098876953124,-0.0005568669876083,-0.0035787557717412,-0.0117685087025165
1769241130284,-0.1423492431640625,-0.079864501953125,-0.9785308837890624,-0.0067545752972364,-0.0043611926957964,-0.0078041274100542
1769241130294,-0.1443023681640625,-0.085662841796875,-0.9750518798828124,-0.0148127684369683,0.0067774783819913,-0.0058413776569068
1769241130304,-0.1406402587890625,-0.076263427734375,-0.9758758544921876,-0.017649034038186,0.0038322887849062,-0.0063079632818698
1769241130314,-0.144561767578125,-0.0629730224609375,-0.9787139892578124,-0.015850868076086,-0.0039670448750257,-0.0085988147184252
1769241130324,-0.1450347900390625,-0.06768798828125,-0.983154296875,-0.011863050982356,-0.0047172573395073,-0.0078435419127345
1769241130334,-0.14190673828125,-0.0785980224609375,-0.9889068603515624,-0.008019576780498,-0.0030924626626074,-0.006098638754338
1769241130344,-0.1444091796875,-0.079864501953125,-0.987060546875,-0.0060949102044105,-0.0043747746385633,-0.0066661583259701
1769241130354,-0.1478271484375,-0.0743560791015625,-0.983428955078125,-0.0064171529375016,-0.0073143718764185,-0.0081737739965319
1769241130364,-0.1476898193359375,-0.0714263916015625,-0.9816436767578124,-0.0069817430339753,-0.0028040423057973,-0.0091689974069595
1769241130374,-0.1469268798828125,-0.07110595703125,-0.988311767578125,-0.0081311631947755,-0.0034285534638911,-0.0080874878913164
1769241130384,-0.144805908203125,-0.0708465576171875,-0.989501953125,-0.0137096866965293,-0.0039819586090743,-0.0038266961928457
1769241130394,-0.142822265625,-0.0694580078125,-0.9834136962890624,-0.0266390666365623,0.0062499064952135,-0.0025659557431936
1769241130404,-0.1420135498046875,-0.071075439453125,-0.978424072265625,-0.0326088108122348,0.0079487366601824,0.0004338289436418
1769241130414,-0.1396026611328125,-0.07550048828125,-0.980560302734375,-0.0360645279288291,0.0050994209013879,0.0002543318842072
1769241130425,-0.1411895751953125,-0.076263427734375,-0.98175048828125,-0.0385553799569606,-0.0005885586142539,0.0020754013676196
1769241130435,-0.1419830322265625,-0.0775604248046875,-0.9852752685546876,-0.0448857173323631,0.0045569348149001,0.0032517197541892
1769241130445,-0.1427154541015625,-0.07305908203125,-0.9866943359375,-0.0448851846158504,0.0005331648280844,0.005100485868752
1769241130455,-0.1437530517578125,-0.07470703125,-0.991607666015625,-0.0395186468958854,0.0006133259739726,0.0054142065346241
1769241130465,-0.1454925537109375,-0.0738677978515625,-0.9955291748046876,-0.0283027440309524,-0.0008178567513823,0.0065263425931334
1769241130475,-0.1449432373046875,-0.06951904296875,-1.0021209716796875,-0.0143994456157088,-0.0058219362981617,0.0075346152298152
1769241130485,-0.143524169921875,-0.0673675537109375,-1.002044677734375,-0.0029696908313781,-0.0034930021502077,0.006686398293823
1769241130495,-0.1450042724609375,-0.068267822265625,-0.997467041015625,0.0036077843979001,-0.0058112838305532,0.0065092984586954
1769241130505,-0.14605712890625,-0.0668487548828125,-0.9916534423828124,0.0122326975688338,0.0003526025393512,0.0052786516025662
1769241130515,-0.1434326171875,-0.0671234130859375,-0.9900360107421876,0.0186935272067785,0.0095442365854978,0.0072890720330178
1769241130525,-0.1417388916015625,-0.074798583984375,-0.9921112060546876,0.0253479667007923,0.010874219238758,0.009958891198039
1769241130535,-0.141021728515625,-0.0755767822265625,-0.99017333984375,0.0309877432882785,0.0120457438752055,0.0133150061592459
1769241130545,-0.1403045654296875,-0.074615478515625,-0.99017333984375,0.0347153693437576,0.0097088199108839,0.0138122187927365
1769241130555,-0.142364501953125,-0.0750579833984375,-0.989959716796875,0.0407112091779708,-0.0015821839915588,0.0162287708371877
1769241130565,-0.1447601318359375,-0.0746917724609375,-0.9864044189453124,0.0347489267587661,0.0017768610268831,0.0161715131253004
1769241130575,-0.1456298828125,-0.07354736328125,-0.97857666015625,0.0199867580085992,0.0104648917913436,0.0126835713163018
1769241130585,-0.14898681640625,-0.0721435546875,-0.969146728515625,3.5420041967881843e-05,0.0267048478126525,0.0070121032185852
1769241130595,-0.1516876220703125,-0.071380615234375,-0.966888427734375,-0.0106438556686043,0.0336724743247032,0.0021459751296788
1769241130605,-0.1515045166015625,-0.074462890625,-0.97833251953125,-0.0091578122228384,0.0276079252362251,-0.0004213120846543
1769241130615,-0.149322509765625,-0.0775299072265625,-0.990447998046875,-0.0006753776688128,0.0077940071932971,0.0010255833622068
1769241130625,-0.1459197998046875,-0.0756378173828125,-0.99481201171875,0.0046549392864108,-0.0043105925433337,0.0003997404710389
1769241130635,-0.1448211669921875,-0.072418212890625,-0.9921722412109376,0.0071969265118241,-0.0098867192864418,0.0014421016676351
1769241130646,-0.14422607421875,-0.071319580078125,-0.98345947265625,0.0002972087822854,-0.0093729952350258,0.0021528995130211
1769241130656,-0.1434173583984375,-0.0827789306640625,-0.9785919189453124,-0.0169318448752164,-0.0058206049725413,0.0086893616244196
1769241130666,-0.1384124755859375,-0.09552001953125,-0.9774932861328124,-0.0209593437612056,0.0082126557826995,0.012114985845983
1769241130676,-0.137725830078125,-0.0704803466796875,-0.9758453369140624,-0.0174618139863014,0.0052653355523943,0.0054296529851853
1769241130686,-0.1504974365234375,-0.0593719482421875,-0.9767913818359376,-0.0163605976849794,0.0009856359101831,0.0012218583142384
1769241130696,-0.15057373046875,-0.076263427734375,-0.9897918701171876,-0.001382180606015,0.0027608990203589,-0.0057534934021532
1769241130706,-0.149749755859375,-0.0557098388671875,-0.989013671875,-0.0017971011111512,-0.0201148558408021,-0.0174181386828422
1769241130716,-0.159423828125,-0.0640411376953125,-0.9788055419921876,-0.0224163588136434,-0.0013592774048447,-0.0144769437611103
1769241130726,-0.14923095703125,-0.08624267578125,-0.9798431396484376,-0.0398805700242519,0.0187973901629447,-0.0141011718660593
1769241130736,-0.14239501953125,-0.085906982421875,-0.97308349609375,-0.0536563023924827,0.0177467726171016,-0.013653228059411
1769241130746,-0.140411376953125,-0.071197509765625,-0.97802734375,-0.03892582654953,0.0236403476446867,-0.01424977555871
1769241130756,-0.139678955078125,-0.0531005859375,-0.9909515380859376,-0.0112814167514443,0.0036482643336057,-0.0132111432030797
1769241130766,-0.142822265625,-0.05621337890625,-0.9971160888671876,0.0074107781983911,-0.0055372444912791,-0.013472931459546
1769241130776,-0.1424407958984375,-0.06951904296875,-0.992462158203125,0.0121828969568014,0.0005611280212178,-0.009090700186789
1769241130786,-0.1434478759765625,-0.0755462646484375,-0.98638916015625,0.0077980021014809,0.0091279847547411,-0.006098638754338
1769241130796,-0.14666748046875,-0.07843017578125,-0.9795684814453124,0.0011153318919241,0.0119306957349181,-0.0004500742070376
1769241130806,-0.143280029296875,-0.08233642578125,-0.98236083984375,-0.0060906494036316,0.0093921702355146,0.0042834281921386
1769241130816,-0.1429901123046875,-0.0825958251953125,-0.9862823486328124,-0.0101647535338997,0.0055633434094488,0.0140162166208028
1769241130826,-0.139007568359375,-0.078125,-0.9874267578125,-0.0110404007136821,0.0036900760605931,0.0195420105010271
1769241130836,-0.137664794921875,-0.076385498046875,-0.989410400390625,-0.0131434984505176,0.0030967236962169,0.0171118751168251
1769241130846,-0.1392059326171875,-0.07501220703125,-0.9898223876953124,-0.0119160478934645,-0.0006748450105078,0.0181845966726541
1769241130857,-0.1427001953125,-0.0704345703125,-0.9864044189453124,-0.0105735482648015,-0.0004940163926221,0.013203153386712
1769241130867,-0.1490936279296875,-0.071441650390625,-0.9903564453125,-0.0053372411057353,0.0029270802624523,0.0067061060108244
1769241130877,-0.155914306640625,-0.0691375732421875,-0.993316650390625,0.0016895093722268,0.0036389431916177,0.0012434299569576
1769241130887,-0.15692138671875,-0.0667572021484375,-0.997283935546875,0.004063184838742,0.0048552090302109,-0.0047681233845651
1769241130897,-0.1576385498046875,-0.0679473876953125,-0.99505615234375,0.0047159255482256,0.0050136670470237,-0.0073569826781749
1769241130907,-0.1518707275390625,-0.070709228515625,-0.992279052734375,0.0081743067130446,0.0027363980188965,-0.0135973012074828
1769241130917,-0.1450042724609375,-0.074615478515625,-0.9897613525390624,0.0160764381289482,0.0148756187409162,-0.0214198045432567
1769241130927,-0.14727783203125,-0.079071044921875,-0.9907073974609376,0.0154314208775758,-0.0115898102521896,-0.0101317297667264
1769241130937,-0.134521484375,-0.068023681640625,-0.982025146484375,0.017054084688425,-0.0110124377533793,-0.0103021720424294
1769241130947,-0.134796142578125,-0.082550048828125,-0.9832763671875,0.0122774392366409,-0.0090294480323791,-0.0058509646914899
1769241130957,-0.138153076171875,-0.0935211181640625,-0.9786224365234376,0.0014098774408921,0.012302472256124,-0.0027707528788596
1769241130967,-0.1377410888671875,-0.0666961669921875,-0.9719085693359376,-0.0024668860714882,0.0239564646035432,-0.0081514036282897
1769241130977,-0.150115966796875,-0.0668792724609375,-0.9772186279296876,-0.0015377091476693,0.0241679195314645,-0.0078789619728922
1769241130987,-0.14703369140625,-0.06842041015625,-0.987640380859375,0.0030541131272912,0.0081628551706671,-0.0091482242569327
1769241130997,-0.145263671875,-0.075836181640625,-0.9906158447265624,0.0023284016642719,0.0057929079048335,-0.0094283893704414
1769241131007,-0.143829345703125,-0.0719146728515625,-0.98516845703125,-0.0025531724095344,0.0025174862239509,-0.0114774256944656
1769241131017,-0.146728515625,-0.07354736328125,-0.979583740234375,-0.0010916297324001,-0.0014053500490263,-0.0113993948325514
1769241131027,-0.1450653076171875,-0.0714569091796875,-0.978546142578125,-0.0027989821974188,-0.0006364954751916,-0.0108465226367115
1769241131037,-0.1422271728515625,-0.0707550048828125,-0.9815216064453124,-0.0082225101068615,0.0002551308425609,-0.0099772661924362
1769241131047,-0.143951416015625,-0.0706939697265625,-0.980560302734375,-0.0191907379776239,0.0080185113474726,-0.0101066958159208
1769241131057,-0.1413726806640625,-0.0708160400390625,-0.979888916015625,-0.0276843588799238,0.012181831523776,-0.0070262178778648
1769241131068,-0.1408843994140625,-0.0757293701171875,-0.9826812744140624,-0.0280763749033212,0.0057279267348349,-0.0041438788175582
1769241131077,-0.13934326171875,-0.076507568359375,-0.985443115234375,-0.0281504113227128,0.0099916476756334,-0.0015353123890236
1769241131088,-0.1410675048828125,-0.0758514404296875,-0.9854888916015624,-0.0310058519244194,0.0186226870864629,-0.0015957661671563
1769241131098,-0.1427154541015625,-0.074005126953125,-0.985809326171875,-0.0297954455018043,0.0171182658523321,-0.0002013349730987
1769241131108,-0.1424407958984375,-0.074493408203125,-0.9879302978515624,-0.0244262479245662,0.0196575913578271,0.002256762702018
1769241131118,-0.14227294921875,-0.07330322265625,-0.993377685546875,-0.0156327560544013,0.0153837502002716,0.0027462516445666
1769241131128,-0.142242431640625,-0.0718994140625,-0.9964599609375,-0.0100941797718405,0.0113764917477965,0.0021542310714721
1769241131138,-0.1450653076171875,-0.0695953369140625,-0.9948883056640624,-0.0093684680759906,0.0071151675656437,-0.0001763012696756
1769241131148,-0.143768310546875,-0.0693359375,-0.990509033203125,-0.0068909293040633,0.0075561869889497,-0.0015084143960848
1769241131158,-0.1414947509765625,-0.072265625,-0.9886322021484376,0.0014370416756719,0.0084358286112546,-0.0007933556917123
1769241131168,-0.141998291015625,-0.0735321044921875,-0.9898223876953124,0.0081047983840107,0.0042384206317365,-0.0001006674865493
1769241131178,-0.1422119140625,-0.0731048583984375,-0.9907989501953124,0.0163206495344638,0.0063212793320417,0.0014341122005134
1769241131188,-0.1406707763671875,-0.073883056640625,-0.990081787109375,0.0182639583945274,0.0124982148408889,0.0014367754338309
1769241131198,-0.141510009765625,-0.0728912353515625,-0.98907470703125,0.020128970965743,0.0132180675864219,0.0044759749434888
1769241131208,-0.1416168212890625,-0.0738983154296875,-0.9860076904296876,0.0135693382471799,0.0172761920839548,0.0025214808993041
1769241131218,-0.1427001953125,-0.075897216796875,-0.9803466796875,0.0078347539529204,0.0177036300301551,0.0019536949694156
1769241131228,-0.1450653076171875,-0.0775146484375,-0.97650146484375,0.0070440610870718,0.0191278886049985,0.0007627293234691
1769241131238,-0.1469268798828125,-0.0751800537109375,-0.9813690185546876,0.0061210095882415,0.006499710958451,-0.0005970807396806
1769241131248,-0.1449127197265625,-0.0672454833984375,-0.983551025390625,-0.0001888181141111,-0.0037161749787628,-0.0038203045260161
1769241131258,-0.14398193359375,-0.06573486328125,-0.9819793701171876,-0.0104105630889534,0.0126241827383637,-0.0078067905269563
1769241131268,-0.143035888671875,-0.0675811767578125,-0.980194091796875,-0.0178327932953834,0.0125251123681664,-0.0098145473748445
1769241131278,-0.1430816650390625,-0.0741729736328125,-0.979766845703125,-0.0215625502169132,0.0207095388323068,-0.0120135191828012
1769241131288,-0.1444854736328125,-0.0772857666015625,-0.9810791015625,-0.0244960226118564,0.0215630829334259,-0.0080581931397318
1769241131298,-0.1419525146484375,-0.0774383544921875,-0.9827423095703124,-0.0203928891569376,0.0179997738450765,-0.0060448427684605
1769241131309,-0.1434173583984375,-0.073974609375,-0.9879150390625,-0.003573429537937,0.0027566379867494,-0.0037888791412115
1769241131319,-0.1412353515625,-0.07098388671875,-0.9949798583984376,0.0041252365335822,-0.0117360185831785,0.0007206514128483
1769241131329,-0.14019775390625,-0.0806427001953125,-0.9959869384765624,-0.0056911753490567,-0.0145829375833272,0.0052746566943824
1769241131339,-0.1384124755859375,-0.0855865478515625,-0.9929962158203124,-0.0055819856934249,-0.0009539442835375,0.0063247410580515
1769241131349,-0.1390380859375,-0.0558319091796875,-0.982147216796875,-0.0034226945135742,-0.0020487697329372,-0.0023331954143941
1769241131359,-0.148651123046875,-0.0536041259765625,-0.979278564453125,-0.0070991883985698,0.014804245904088,-0.0065452507697045
1769241131369,-0.1442108154296875,-0.078277587890625,-0.9905548095703124,0.0031265511643141,0.0131648043170571,-0.0106031093746423
1769241131379,-0.1406097412109375,-0.0699310302734375,-0.9839019775390624,0.0004178499802947,-0.0014460964594036,-0.0154519267380237
1769241131389,-0.1461944580078125,-0.0763092041015625,-0.9800262451171876,-0.0046520098112523,0.0180871244519948,-0.0133403064683079
1769241131399,-0.138397216796875,-0.0828399658203125,-0.980865478515625,-0.0019483686191961,0.0093202646821737,-0.0111455954611301
1769241131409,-0.1351776123046875,-0.0821380615234375,-0.9832763671875,-0.0048741172067821,0.0055178035981953,-0.0085002770647406
1769241131419,-0.1366119384765625,-0.064971923828125,-0.9832763671875,0.00464508542791,0.0192772913724184,-0.0123860957100987
1769241131429,-0.1447296142578125,-0.0478973388671875,-0.9824676513671876,0.0206006169319152,0.0051167313940823,-0.0127924941480159
1769241131439,-0.1483306884765625,-0.0618133544921875,-0.986083984375,0.0282340347766876,0.004750014282763,-0.0117338877171278
1769241131449,-0.1480255126953125,-0.0699310302734375,-0.9879150390625,0.0194583870470523,0.002036252990365,-0.0108814099803566
1769241131459,-0.1486358642578125,-0.0737762451171875,-0.9788818359375,0.0039454731158912,0.011624963954091,-0.0102140214294195
1769241131469,-0.146240234375,-0.0749664306640625,-0.973602294921875,-0.0118537303060293,0.0140947801992297,-0.0089538134634494
1769241131479,-0.143096923828125,-0.0787506103515625,-0.9754486083984376,-0.0245697908103466,0.0107365334406495,-0.0067226174287498
1769241131489,-0.1370697021484375,-0.085479736328125,-0.9822540283203124,-0.0320527404546737,0.004807804711163,-0.0034005902707576
1769241131499,-0.132354736328125,-0.0808258056640625,-0.9862060546875,-0.0337784700095653,0.0024314660113304,0.0010197244118899
1769241131509,-0.1320343017578125,-0.0787200927734375,-0.9888153076171876,-0.030229540541768,-0.0016753945965319,0.0048237834125757
1769241131520,-0.1346282958984375,-0.0750732421875,-0.9940948486328124,-0.0285155307501554,0.0004383563064038,0.0045500108972191
1769241131530,-0.1416473388671875,-0.067779541015625,-0.993316650390625,-0.0228416658937931,0.0038123151753097,0.0008737831376492
1769241131540,-0.145599365234375,-0.064727783203125,-0.9939422607421876,-0.0139930471777915,0.0100678140297532,-0.0035028557758778
1769241131550,-0.1479949951171875,-0.06939697265625,-0.9967498779296876,-0.0022234732750803,0.0088105360046029,-0.0019694075454026
1769241131560,-0.14599609375,-0.071136474609375,-1.000579833984375,0.0049492185935378,0.0044147223234176,-0.0019672771450132
1769241131570,-0.142303466796875,-0.0756072998046875,-0.9958953857421876,0.0122955488041043,-0.0026980484835803,-0.0010668623726814
1769241131580,-0.13739013671875,-0.0760955810546875,-0.99078369140625,0.0144295394420623,-0.004128432366997,-0.0036655748263001
1769241131590,-0.136993408203125,-0.075958251953125,-0.984649658203125,0.0169283840805292,0.0009456885163672,-0.0047960868105292
1769241131600,-0.13812255859375,-0.072998046875,-0.979461669921875,0.010563694871962,-0.0001552622852614,-0.005119128152728
1769241131610,-0.141815185546875,-0.07562255859375,-0.9752960205078124,-0.0021640846971422,-0.0013819142477586,-0.0008080030675046
1769241131620,-0.1386566162109375,-0.092681884765625,-0.9755401611328124,-0.0111298831179738,0.0047284425236284,0.0003028014034498
1769241131630,-0.1341094970703125,-0.0767669677734375,-0.97796630859375,-0.012426309287548,0.0040706414729356,-0.0024090954102575
1769241131640,-0.141998291015625,-0.061492919921875,-0.9743499755859376,-0.0152969304472208,-0.0025483788922429,-0.0058107511140406
1769241131650,-0.14349365234375,-0.0712890625,-0.98199462890625,-0.0169869735836982,0.005256547126919,-0.0065854648128151
1769241131660,-0.144378662109375,-0.0706024169921875,-0.97967529296875,-0.0135791916400194,0.0053375074639916,-0.0099796634167432
1769241131670,-0.1466522216796875,-0.071990966796875,-0.97698974609375,-0.0216589570045471,0.0016578177455812,-0.0120145846158266
1769241131680,-0.1445159912109375,-0.074920654296875,-0.975738525390625,-0.0290841162204742,-0.0006439523422159,-0.0147565752267837
1769241131690,-0.1414794921875,-0.069091796875,-0.9774322509765624,-0.0318735092878341,0.0044828988611698,-0.0121501395478844
1769241131700,-0.139434814453125,-0.0659637451171875,-0.98297119140625,-0.0343571752309799,-0.0058847870677709,-0.0079410141333937
1769241131710,-0.1383819580078125,-0.0737152099609375,-0.984375,-0.0375002361834049,-0.0080683128908276,-0.0071934643201529
1769241131720,-0.138580322265625,-0.076507568359375,-0.9808807373046876,-0.0470372848212718,-0.005200354848057,-0.005036836490035
1769241131730,-0.14080810546875,-0.0742340087890625,-0.978240966796875,-0.0517697222530841,-0.0118143148720264,-0.0036381443496793
1769241131740,-0.1411590576171875,-0.073699951171875,-0.9818115234375,-0.052089300006628,-0.0143887931481003,-0.000924649531953
1769241131751,-0.139862060546875,-0.0762176513671875,-0.9880523681640624,-0.0523377731442451,-0.016088156029582,-0.0040237698704004
1769241131761,-0.1438446044921875,-0.0746917724609375,-0.990447998046875,-0.0504053831100463,-0.0222291387617588,-0.0057348511181771
1769241131771,-0.1434173583984375,-0.0688629150390625,-0.9918060302734376,-0.051789429038763,-0.01967010833323,-0.0055396412499248
1769241131781,-0.1413421630859375,-0.0675048828125,-0.993896484375,-0.0461571104824543,-0.0187353380024433,-0.0077391462400555
1769241131791,-0.140716552734375,-0.0687103271484375,-0.9962005615234376,-0.0379396602511405,-0.017505757510662,-0.0083783045411109
1769241131801,-0.1415863037109375,-0.0704193115234375,-0.99884033203125,-0.025380989536643,-0.0072579127736389,-0.0050261840224266
1769241131811,-0.141937255859375,-0.0676727294921875,-1.0042724609375,-0.0133144734427332,0.0007659250986762,-0.0047031426802277
1769241131821,-0.14373779296875,-0.067138671875,-1.0041046142578125,-0.0001989381271414,-0.0011669971281662,-0.0039350870065391
1769241131831,-0.1421661376953125,-0.06842041015625,-1.0000762939453125,0.0071015851572155,0.0016807209467515,-0.0023979102261364
1769241131841,-0.1405181884765625,-0.069305419921875,-0.9971923828125,0.0102238757535815,0.011315238662064,0.0020903151016682
1769241131851,-0.138427734375,-0.0690155029296875,-0.99261474609375,0.0165342353284358,0.0087127974256873,0.0028530445415526
1769241131861,-0.1399383544921875,-0.070220947265625,-0.9894256591796876,0.0256864540278911,0.0064083645120263,0.0073870760388672
1769241131871,-0.1372833251953125,-0.0728302001953125,-0.99481201171875,0.0368142053484916,0.0081295650452375,0.0071639032103121
1769241131881,-0.1406707763671875,-0.0709686279296875,-0.993194580078125,0.0397183857858181,0.0095524927601218,0.0052429651841521
1769241131891,-0.144287109375,-0.0650634765625,-0.9855804443359376,0.0376693494617939,0.0144633613526821,0.0027084348257631
1769241131901,-0.1458282470703125,-0.066131591796875,-0.981048583984375,0.033585924655199,0.0130841098725795,-0.0052213934250175
1769241131911,-0.1490631103515625,-0.0671539306640625,-0.9771575927734376,0.0305081084370613,0.0056395097635686,-0.0088174603879451
1769241131922,-0.1464691162109375,-0.069122314453125,-0.9785308837890624,0.0253927074372768,0.0039297603070735,-0.0129557456821203
1769241131931,-0.14459228515625,-0.0711517333984375,-0.978546142578125,0.0178743377327919,0.0020034960471093,-0.0125394938513636
1769241131941,-0.1436767578125,-0.0674285888671875,-0.97808837890625,0.0095359804108738,0.008070177398622,-0.0135078188031911
1769241131951,-0.1407318115234375,-0.068572998046875,-0.9771575927734376,-8.548746700398624e-05,0.0101493066176772,-0.0116651784628629
1769241131962,-0.141387939453125,-0.076934814453125,-0.9774017333984376,-0.0192735623568296,0.0082243736833333,-0.008282165043056
1769241131972,-0.136322021484375,-0.0861663818359375,-0.9820098876953124,-0.0268196295946836,0.0180972442030906,-0.0056227319873869
1769241131982,-0.135345458984375,-0.0637664794921875,-0.9804534912109376,-0.0210719965398311,0.0060914484784007,-0.0132058169692754
1769241131992,-0.146881103515625,-0.0383758544921875,-0.9752655029296876,-0.0246046781539917,-0.0014178669080138,-0.0176508985459804
1769241132002,-0.1479034423828125,-0.0641021728515625,-0.9849700927734376,-0.0228525847196578,-0.0002514024090487,-0.0164498127996921
1769241132012,-0.140716552734375,-0.083892822265625,-0.9874114990234376,-0.0251937694847583,-0.0080504696816205,-0.0146066397428512
1769241132022,-0.138824462890625,-0.08502197265625,-0.9795074462890624,-0.0272886119782924,0.0058269966393709,-0.0055223307572305
1769241132032,-0.1340789794921875,-0.0781097412109375,-0.9783935546875,-0.0220626909285783,0.0151328798383474,-0.0063870591111481
1769241132042,-0.1312408447265625,-0.0664215087890625,-0.979736328125,-0.0190943330526351,0.0010373012628406,-0.0038626487366855
1769241132052,-0.1324920654296875,-0.064453125,-0.984619140625,-0.0139818619936704,0.0097642140462994,-0.0003531351685523
1769241132062,-0.1350555419921875,-0.0566558837890625,-0.98760986328125,0.0010716560063883,0.0058802594430744,0.0009720537927933
1769241132072,-0.143096923828125,-0.0560455322265625,-0.9836883544921876,0.0068192901089787,0.0025592977181077,0.0027763454709202
1769241132082,-0.1464691162109375,-0.0619049072265625,-0.9833984375,0.0069473884068429,-0.0030929953791201,0.0038690404035151
1769241132092,-0.1490631103515625,-0.067138671875,-0.9864044189453124,0.001121457084082,-0.0019044264918193,0.0021957762073725
1769241132102,-0.149169921875,-0.0672149658203125,-0.98284912109375,-0.0112001905217766,0.0009097357979044,-0.0008218514849431
1769241132112,-0.148834228515625,-0.069122314453125,-0.9818267822265624,-0.026634806767106,0.0007432882557623,0.0016295883106067
1769241132122,-0.142578125,-0.072509765625,-0.98651123046875,-0.0407354459166526,0.0046336338855326,0.0024194817524403
1769241132132,-0.1368560791015625,-0.0750885009765625,-0.9851531982421876,-0.0531327277421951,0.0129107385873794,0.0073609771206974
1769241132142,-0.13330078125,-0.0727996826171875,-0.9857635498046876,-0.0528821237385273,0.0123458821326494,0.0114792892709374
1769241132152,-0.13067626953125,-0.07281494140625,-0.9903411865234376,-0.0439477488398551,0.016012255102396,0.0149139687418937
1769241132162,-0.13385009765625,-0.071075439453125,-0.9948272705078124,-0.0260403882712125,0.0071417992003262,0.0182173531502485
1769241132172,-0.1383209228515625,-0.0675201416015625,-0.9999542236328124,-0.0079996036365628,-0.0018953717080876,0.0178258679807186
1769241132183,-0.1426849365234375,-0.06610107421875,-1.0015716552734375,0.0047153928317129,0.0033137712161988,0.0183230806142091
1769241132193,-0.1468048095703125,-0.06390380859375,-1.0020904541015625,0.0156727023422718,-0.0018176074372604,0.0183683540672063
1769241132203,-0.147674560546875,-0.0673065185546875,-1.00238037109375,0.0280630588531494,-0.0020381172653287,0.0137512320652604
1769241132213,-0.1469573974609375,-0.06842041015625,-0.998260498046875,0.0370616130530834,-0.0082920184358954,0.0120111228898167
1769241132223,-0.1428985595703125,-0.06732177734375,-0.9908447265625,0.0371124818921089,0.0067444555461406,0.0084001421928405
1769241132233,-0.1428375244140625,-0.0657196044921875,-0.9806671142578124,0.0379047729074955,0.0149792153388261,0.0050837080925703
