timestamp_ms,acc_x,acc_y,acc_z,gyro_x,gyro_y,gyro_z
1768733896575,-0.2627716064453125,-0.93218994140625,0.2097625732421875,-0.0364365689456462,0.0029609024059027,-0.0233034584671258
1768733896585,-0.2610321044921875,-0.9276123046875,0.205352783203125,-0.0368435010313987,0.0062650865875184,-0.0272561218589544
1768733896595,-0.251708984375,-0.9372406005859376,0.211456298828125,-0.0449576191604137,-0.0046096653677523,-0.0235388819128274
1768733896605,-0.252685546875,-0.9468841552734376,0.215667724609375,-0.0590747706592083,-0.0129352398216724,-0.0208408329635858
1768733896616,-0.2624053955078125,-0.94964599609375,0.2112579345703125,-0.0661731585860252,-0.0247548818588256,-0.0225039776414632
1768733896625,-0.26226806640625,-0.9507598876953124,0.2015533447265625,-0.0643046870827674,-0.0253008287400007,-0.0217734724283218
1768733896635,-0.2545166015625,-0.9492034912109376,0.1920318603515625,-0.0552435480058193,-0.0286034159362316,-0.0188368037343025
1768733896645,-0.25750732421875,-0.9470367431640624,0.1895904541015625,-0.0453823953866958,-0.0165416914969682,-0.0174101497977972
1768733896655,-0.2598114013671875,-0.945098876953125,0.1876678466796875,-0.0366285853087902,0.0038898130878806,-0.0121317636221647
1768733896665,-0.260894775390625,-0.9421844482421876,0.1838531494140625,-0.0226203575730323,0.0185116324573755,-0.0103365266695618
1768733896675,-0.254669189453125,-0.9419097900390624,0.1814422607421875,-0.0063351276330649,0.0162964146584272,-0.0040658479556441
1768733896685,-0.2581939697265625,-0.940948486328125,0.18084716796875,0.0085817705839872,0.027059581130743,-7.403588097076863e-05
1768733896695,-0.2642059326171875,-0.940887451171875,0.184783935546875,0.022007031366229,0.0361984856426715,-0.0017688715597614
1768733896705,-0.255828857421875,-0.945220947265625,0.1905364990234375,0.0345944613218307,0.0330583527684211,0.0030858046375215
1768733896715,-0.2533416748046875,-0.94647216796875,0.1989898681640625,0.0386328808963298,0.0200176499783992,0.0045641255564987
1768733896725,-0.2555084228515625,-0.94537353515625,0.2069549560546875,0.0335904508829116,0.0186690259724855,0.0045710494741797
1768733896735,-0.2565155029296875,-0.945770263671875,0.21728515625,0.0234842877835035,0.0187672954052686,0.0041476069018244
1768733896745,-0.25909423828125,-0.9456939697265624,0.2250823974609375,0.00696523161605,0.0104068340733647,0.0010197244118899
1768733896756,-0.259521484375,-0.9449615478515624,0.223907470703125,-0.0120675815269351,0.0081769693642854,-0.0037595843896269
1768733896766,-0.257293701171875,-0.9456787109375,0.223052978515625,-0.0295528322458267,0.0045452169142663,-0.0064347297884523
1768733896776,-0.2561798095703125,-0.945709228515625,0.218902587890625,-0.048218660056591,0.0067276773042976,-0.0043960800394415
1768733896786,-0.25543212890625,-0.9448699951171876,0.212921142578125,-0.0606995671987533,0.0120209762826561,-0.0024817998055368
1768733896796,-0.2619171142578125,-0.940277099609375,0.2045745849609375,-0.0716363713145256,0.011257448233664,-0.004071706905961
1768733896806,-0.2625274658203125,-0.9420928955078124,0.1981201171875,-0.0732126981019973,0.0002532666258048,-0.0048014130443334
1768733896816,-0.2574615478515625,-0.9468536376953124,0.189300537109375,-0.0656807422637939,-0.0105426553636789,-0.0019952403381466
1768733896826,-0.2647857666015625,-0.9440765380859376,0.188262939453125,-0.0567548908293247,-0.0229801498353481,-0.0088169276714324
1768733896836,-0.266265869140625,-0.9393157958984376,0.1775970458984375,-0.0415445119142532,-0.013855361379683,-0.0175470355898141
1768733896846,-0.2582550048828125,-0.939971923828125,0.176116943359375,-0.027731230482459,-0.0093133402988314,-0.0095024248585104
1768733896856,-0.2541351318359375,-0.9448394775390624,0.1818389892578125,-0.0190266873687505,0.0030216225422918,-0.0104268081486225
1768733896866,-0.2520904541015625,-0.9451141357421876,0.183197021484375,-0.0106579707935452,0.0153043875470757,-0.0038488004356622
1768733896876,-0.24969482421875,-0.9462432861328124,0.181915283203125,-0.0020865867845714,0.019791280850768,-0.0007243797881528
1768733896886,-0.2461700439453125,-0.944244384765625,0.1854095458984375,0.0039976709522306,0.0196131151169538,0.001334776286967
1768733896896,-0.2489013671875,-0.94525146484375,0.1921539306640625,0.0063449810259044,0.0108015146106481,0.0071481904014945
1768733896906,-0.2581939697265625,-0.944610595703125,0.19244384765625,0.0144393928349018,0.008804677054286,0.0087002804502844
1768733896916,-0.260955810546875,-0.9458160400390624,0.195465087890625,0.0159888193011283,0.0104305362328886,0.003899933071807
1768733896926,-0.25665283203125,-0.948699951171875,0.1998443603515625,0.0125504126772284,0.0174154751002788,0.0043689156882464
1768733896937,-0.2530670166015625,-0.9486541748046876,0.2046356201171875,0.0083335638046264,0.0098427766934037,0.0056714676320552
1768733896946,-0.2647552490234375,-0.944915771484375,0.2074432373046875,0.0019001654582098,-0.0091210603713989,0.0010833739070221
1768733896957,-0.2689056396484375,-0.9438629150390624,0.2039947509765625,-0.0011960256379097,2.0506340661086145e-05,-0.0030442595016211
1768733896966,-0.25958251953125,-0.9446868896484376,0.2028656005859375,-0.001129446667619,0.0028660940006375,-0.0026783409994095
1768733896977,-0.254791259765625,-0.944244384765625,0.20037841796875,-0.0024314660113304,0.0069977222010493,-0.002697782125324
1768733896987,-0.2541046142578125,-0.9435577392578124,0.201629638671875,-0.001326254219748,0.0019547601696103,-0.0027318706270307
1768733896997,-0.250091552734375,-0.9447174072265624,0.2016143798828125,-0.0002615224220789,-0.0048115332610905,0.0021142836194485
1768733897007,-0.2589111328125,-0.9420623779296876,0.20538330078125,-0.0017180051654577,-0.0074912058189511,-0.0043468116782605
1768733897017,-0.25823974609375,-0.942840576171875,0.2068023681640625,-0.0055827847681939,-0.0005334311863407,-0.0055281897075474
1768733897027,-0.25567626953125,-0.94146728515625,0.2070770263671875,-0.009728261269629,0.0014285196084529,-0.0005235774442553
1768733897037,-0.2626495361328125,-0.9402008056640624,0.2116546630859375,-0.0191790200769901,-0.00041385521763,-0.0031752870418131
1768733897047,-0.2656402587890625,-0.9412078857421876,0.2103424072265625,-0.0237138513475656,-0.0021739383228123,-0.0049524144269526
1768733897057,-0.26214599609375,-0.9404296875,0.205596923828125,-0.0250177346169948,0.0144540406763553,-0.0047809067182242
1768733897067,-0.259735107421875,-0.94140625,0.1986541748046875,-0.0268111079931259,0.0166199896484613,-0.0043398872949182
1768733897077,-0.2537841796875,-0.9412994384765624,0.1946258544921875,-0.0272270943969488,0.0152796199545264,-0.0053084790706634
1768733897088,-0.2527618408203125,-0.9398345947265624,0.1937408447265625,-0.024474449455738,0.0071761538274586,-0.0038626487366855
1768733897097,-0.2625732421875,-0.94110107421875,0.1896820068359375,-0.0117320232093334,0.005371063016355,-0.004235225263983
1768733897107,-0.26287841796875,-0.9399871826171876,0.1863250732421875,-0.002722815843299,0.0112816831097006,-0.0066698868758976
1768733897117,-0.2549896240234375,-0.9410247802734376,0.18902587890625,0.0032748891972005,0.0113815516233444,-0.0035872780717909
1768733897127,-0.2606658935546875,-0.94415283203125,0.19036865234375,0.0080941449850797,0.0124667892232537,-0.0041191112250089
1768733897139,-0.267303466796875,-0.9458160400390624,0.194183349609375,0.0052442969754338,0.0030847394373267,-0.0101498393341898
1768733897147,-0.2595977783203125,-0.9474029541015624,0.196533203125,0.0005928196478635,0.0002881540276575,-0.0101905856281518
1768733897158,-0.2540435791015625,-0.95147705078125,0.1983642578125,-0.005895972251892,-0.0027561055030673,-0.0066680228337645
1768733897168,-0.2539215087890625,-0.950836181640625,0.1978912353515625,-0.0088422270491719,-0.0020136160310357,-0.0059172776527702
1768733897178,-0.2583465576171875,-0.9511260986328124,0.1978302001953125,-0.0095018921419978,-0.0024074974935501,-0.0048296428285539
1768733897188,-0.26513671875,-0.9475250244140624,0.1957550048828125,-0.0148183610290288,-0.0001472728035878,-0.0111866081133484
1768733897198,-0.266448974609375,-0.9371337890625,0.192657470703125,-0.0193212330341339,0.0097394464537501,-0.0148404650390148
1768733897208,-0.277008056640625,-0.92620849609375,0.18096923828125,-0.005364139098674,0.0098425103351473,-0.0375452451407909
1768733897218,-0.26373291015625,-0.9345245361328124,0.1785430908203125,0.0126654617488384,-0.0022945795208215,-0.0309818834066391
1768733897228,-0.2484283447265625,-0.9545440673828124,0.18658447265625,0.0218911841511726,0.00178378529381,-0.0127794444561004
1768733897238,-0.2447509765625,-0.960296630859375,0.1924591064453125,0.0214269943535327,0.0102819325402379,-0.0117629161104559
1768733897248,-0.2481842041015625,-0.957244873046875,0.1920928955078125,0.027171166613698,0.021606758236885,-0.0109269497916102
1768733897258,-0.232513427734375,-0.9541473388671876,0.194610595703125,0.0377990454435348,0.0152591140940785,0.0036530580837279
1768733897268,-0.2360076904296875,-0.945037841796875,0.198089599609375,0.0480780452489852,0.0082752406597137,0.0163358300924301
1768733897278,-0.2669677734375,-0.931732177734375,0.2030487060546875,0.0496024414896965,0.0146247493103146,0.003196858568117
1768733897289,-0.274749755859375,-0.9284515380859376,0.21197509765625,0.0397319644689559,0.0145065048709511,-0.0087868338450789
1768733897298,-0.2613372802734375,-0.936553955078125,0.222137451171875,0.0150873400270938,0.0119208414107561,-0.0111101754009723
1768733897308,-0.255035400390625,-0.94525146484375,0.226043701171875,-0.0143421879038214,0.0188525170087814,-0.01263989508152
1768733897318,-0.25323486328125,-0.947723388671875,0.21722412109375,-0.0309408716857433,0.0152071826159954,-0.0110198939219117
1768733897328,-0.2521209716796875,-0.94586181640625,0.20379638671875,-0.0318684503436088,0.0073801521211862,-0.0041385521180927
1768733897338,-0.248809814453125,-0.9427947998046876,0.1910552978515625,-0.0245175939053297,-0.0035958001390099,0.0040109870024025
1768733897348,-0.2522125244140625,-0.94097900390625,0.187255859375,-0.0186346713453531,-0.0031806132756173,0.0042512039653956
1768733897358,-0.25750732421875,-0.9410400390625,0.1867218017578125,-0.0107554420828819,-0.0003797667741309,0.0030376014765352
1768733897368,-0.256561279296875,-0.943817138671875,0.1849822998046875,0.0002980077115353,0.0011110707418993,0.0013124058023095
1768733897379,-0.257293701171875,-0.94268798828125,0.186279296875,0.0111322794109582,0.0029294772539287,0.0024341291282325
1768733897389,-0.2568817138671875,-0.9442138671875,0.1888885498046875,0.0200240425765514,0.0112910037860274,0.0051857070066034
1768733897399,-0.255401611328125,-0.9473419189453124,0.1937103271484375,0.0262087006121873,0.0181377250701189,0.006230997852981
1768733897409,-0.2544097900390625,-0.9461212158203124,0.1996307373046875,0.0334378518164157,0.0115453358739614,0.0094438353553414
1768733897419,-0.254241943359375,-0.9461517333984376,0.20294189453125,0.0346610397100448,0.0090355733409523,0.0149190286174416
1768733897429,-0.26031494140625,-0.9466094970703124,0.2087860107421875,0.0296937134116888,0.0134039558470249,0.012050537392497
1768733897439,-0.2578125,-0.9495086669921876,0.2146453857421875,0.0191183015704154,0.0152244931086897,0.0067258132621645
1768733897449,-0.256195068359375,-0.94891357421875,0.2169342041015625,0.0051500210538506,0.0082544675096869,0.0059745353646576
1768733897459,-0.2583160400390625,-0.946533203125,0.218597412109375,-0.008961004205048,0.007374026812613,0.001669535646215
1768733897469,-0.255096435546875,-0.947418212890625,0.2159271240234375,-0.0220608264207839,0.0153054529801011,0.002838663291186
1768733897479,-0.2497406005859375,-0.9484100341796876,0.2117462158203125,-0.0310074500739574,0.0124542731791734,0.0108648985624313
1768733897489,-0.249267578125,-0.9462738037109376,0.2040863037109375,-0.0375622883439064,0.0164356976747512,0.0140700126066803
1768733897499,-0.260223388671875,-0.9405364990234376,0.1940765380859375,-0.0378978475928306,0.0195537284016609,0.0064741447567939
1768733897509,-0.25970458984375,-0.94189453125,0.187591552734375,-0.0318218469619751,0.0252867136150598,0.0095136100426316
1768733897519,-0.2581787109375,-0.9440460205078124,0.17877197265625,-0.0118731707334518,0.016816796734929,0.0101221427321434
1768733897529,-0.261444091796875,-0.938018798828125,0.1692047119140625,0.0126297753304243,0.011143198236823,0.0060240705497562
1768733897539,-0.2584228515625,-0.9389801025390624,0.165496826171875,0.0376440472900867,0.018637066707015,0.0094885770231485
1768733897549,-0.2536163330078125,-0.9417572021484376,0.172637939453125,0.0566616803407669,0.0132652055472135,0.0189470592886209
1768733897559,-0.2559814453125,-0.9406585693359376,0.1788330078125,0.0721045508980751,0.0023819312918931,0.0173632781952619
1768733897569,-0.257965087890625,-0.941741943359375,0.1905364990234375,0.0776164978742599,0.007348726503551,0.017427459359169
1768733897580,-0.2623291015625,-0.942413330078125,0.2007598876953125,0.0757331103086471,0.018632274121046,0.0166777800768613
1768733897591,-0.2602996826171875,-0.945953369140625,0.2094573974609375,0.0665713027119636,0.0129291145130991,0.0131917018443346
1768733897599,-0.25787353515625,-0.9454803466796876,0.217559814453125,0.0513739734888076,0.008502940647304,0.0098497010767459
1768733897610,-0.26422119140625,-0.94512939453125,0.2219696044921875,0.0418406575918197,0.0022823291365057,0.0062219430692493
1768733897620,-0.2654876708984375,-0.9459991455078124,0.2240142822265625,0.027091272175312,0.0027577031869441,0.0021803299896419
1768733897630,-0.2566680908203125,-0.9430694580078124,0.2211456298828125,0.009108543395996,0.0054043526761233,0.0059644156135618
1768733897640,-0.2550811767578125,-0.9424591064453124,0.2166748046875,0.0007395598222501,0.0058080879971385,0.0075111794285476
1768733897650,-0.2532501220703125,-0.942718505859375,0.2101287841796875,-0.0105607649311423,0.0119360219687223,0.0120872892439365
1768733897660,-0.256103515625,-0.942535400390625,0.2056121826171875,-0.0079836240038275,0.0110246874392032,0.0085825687274336
1768733897670,-0.261505126953125,-0.941619873046875,0.205902099609375,-0.0087271789088845,0.0034700988326221,0.0084283724427223
1768733897680,-0.263916015625,-0.943389892578125,0.206329345703125,-0.0072227590717375,-0.000580835447181,0.005845904815942
1768733897690,-0.269927978515625,-0.940460205078125,0.20599365234375,-0.0059348545037209,0.0068970546126365,-0.0007504787645302
1768733897700,-0.2624969482421875,-0.935577392578125,0.19500732421875,0.0023667511995881,0.0131243243813514,0.000875114754308
1768733897710,-0.2557373046875,-0.9340667724609376,0.1909027099609375,0.0175398457795381,0.009557818993926,0.00013102752564
1768733897720,-0.25579833984375,-0.9321441650390624,0.18853759765625,0.0320290401577949,0.0044480115175247,-0.0001280980504816
1768733897730,-0.2603912353515625,-0.9340667724609376,0.194732666015625,0.0444929003715515,-0.0008135957177728,-0.0006679208017885
1768733897740,-0.2597808837890625,-0.9355010986328124,0.200531005859375,0.0502756871283054,0.0100028328597545,0.0037633129395544
1768733897750,-0.260467529296875,-0.9386138916015624,0.21246337890625,0.0465182326734066,0.0185963213443756,0.0032482575625181
1768733897760,-0.2642669677734375,-0.9400177001953124,0.2193756103515625,0.0372307263314724,0.0190149694681167,-0.0030637003947049
1768733897770,-0.26409912109375,-0.9400634765625,0.2210693359375,0.0287879724055528,0.0193502623587846,-0.0066581689752638
1768733897780,-0.2602386474609375,-0.94195556640625,0.2214508056640625,0.0253567546606063,0.0116886142641305,-0.0080105224624276
1768733897790,-0.261444091796875,-0.9422454833984376,0.220062255859375,0.018182199448347,-0.0053273872472345,-0.010855576954782
1768733897800,-0.2650299072265625,-0.94085693359375,0.2179107666015625,0.0108028464019298,0.0012634035665541,-0.0129277827218174
1768733897811,-0.2588348388671875,-0.941558837890625,0.21246337890625,0.0035214978270232,0.0024634238798171,-0.0127269802615046
1768733897821,-0.2552947998046875,-0.9451446533203124,0.215728759765625,-0.0016050871927291,-0.0035465315449982,-0.0139837265014648
1768733897831,-0.256439208984375,-0.947906494140625,0.215057373046875,-0.010253170505166,0.0015355786308646,-0.0072925337590277
1768733897841,-0.2602996826171875,-0.9492645263671876,0.2170562744140625,-0.0260662212967872,0.0101410513743758,-0.0073942667804658
1768733897851,-0.2587432861328125,-0.9486083984375,0.215362548828125,-0.0374003686010837,0.0090137347579002,-0.0085998801514506
1768733897861,-0.2525634765625,-0.9476470947265624,0.20684814453125,-0.0375266037881374,0.003852528752759,-0.0002729740226641
1768733897871,-0.2544097900390625,-0.9465484619140624,0.19927978515625,-0.0363814420998096,0.0076230322010815,-5.406216951087117e-05
1768733897881,-0.256256103515625,-0.94793701171875,0.1947784423828125,-0.0313089191913604,-0.0024186829105019,-0.0002335592289455
1768733897891,-0.2568817138671875,-0.9420013427734376,0.1881866455078125,-0.0220368597656488,-0.0089996205642819,0.0015531554818153
1768733897901,-0.272796630859375,-0.927642822265625,0.1819305419921875,-0.0056632119230926,-0.0126598691567778,-0.0182935204356908
1768733897911,-0.2712554931640625,-0.9351348876953124,0.1862640380859375,0.004432032816112,-0.0219606924802064,-0.0263764802366495
1768733897921,-0.24664306640625,-0.9481201171875,0.199920654296875,0.009449427947402,-0.0204197876155376,-0.0052480250597
1768733897931,-0.2517547607421875,-0.9629364013671876,0.21002197265625,-0.0021827267482876,-0.0213071536272764,-0.0009044095058925
1768733897941,-0.263946533203125,-0.9516448974609376,0.20831298828125,-0.008723184466362,-0.0087652616202831,-0.0097375819459557
1768733897952,-0.2516021728515625,-0.9484405517578124,0.1990814208984375,0.0028242822736501,-0.0024277376942336,-0.0029760824982076
1768733897961,-0.23809814453125,-0.9461212158203124,0.19976806640625,0.0093066822737455,-0.0006245112745091,0.0082693817093968
1768733897973,-0.26324462890625,-0.9326171875,0.203765869140625,0.0150916008278727,0.009098956361413,-0.0077804252505302
1768733897981,-0.2696533203125,-0.924591064453125,0.2040863037109375,0.0150916008278727,0.009098956361413,-0.0077804252505302
1768733897991,-0.2536773681640625,-0.9319000244140624,0.2064361572265625,0.014747254550457,0.0038986015133559,0.0012785836588591
1768733898001,-0.2596282958984375,-0.941619873046875,0.2200164794921875,-0.0010373012628406,-0.0073439329862594,-0.0045180525630712
1768733898011,-0.259063720703125,-0.9495697021484376,0.219940185546875,-0.0146654956042766,-0.0043228431604802,-0.0059143481776118
1768733898021,-0.2554168701171875,-0.948516845703125,0.212738037109375,-0.0136652123183012,-0.004546548705548,-0.0029571740888059
1768733898031,-0.258331298828125,-0.9461517333984376,0.2089691162109375,-0.0131309824064373,-0.012679043225944,-0.0063463128171861
1768733898042,-0.2585601806640625,-0.941802978515625,0.2095489501953125,-0.013023923151195,-0.0153201008215546,-0.0060155480168759
1768733898051,-0.257537841796875,-0.942657470703125,0.207977294921875,-0.0114172380417585,-0.0065359300933778,-0.0057231332175433
1768733898062,-0.2644805908203125,-0.9436492919921876,0.2111358642578125,-0.0196115188300609,0.0024032364599406,-0.0050871702842414
1768733898072,-0.2606048583984375,-0.9423370361328124,0.2099761962890625,-0.0234757643193006,0.0101050985977053,-0.0041460092179477
1768733898082,-0.25982666015625,-0.942169189453125,0.205902099609375,-0.025038506835699,0.0124356308951973,-0.0043750409968197
1768733898092,-0.2633209228515625,-0.9443359375,0.2046051025390625,-0.0212629437446594,0.0223239473998546,-0.0055937035940587
1768733898102,-0.2600860595703125,-0.944091796875,0.1982421875,-0.0159310288727283,0.0250403713434934,-0.0044456147588789
1768733898112,-0.259185791015625,-0.94287109375,0.1957244873046875,-0.0065716160461306,0.0330982990562915,-0.0026754115242511
1768733898122,-0.255828857421875,-0.94708251953125,0.2003326416015625,-0.0026072347536683,0.0371598862111568,0.0048307077959179
1768733898132,-0.2618408203125,-0.948089599609375,0.2107086181640625,-0.0066677564755082,0.0270206984132528,0.0034562505315989
1768733898142,-0.2602386474609375,-0.9471282958984376,0.21380615234375,-0.0219087600708007,0.0264582391828298,0.0015512913232669
1768733898152,-0.258392333984375,-0.9459686279296876,0.21429443359375,-0.0291680060327053,0.0216650813817977,0.0047358991578221
1768733898162,-0.265045166015625,-0.945953369140625,0.214752197265625,-0.038249384611845,0.0268017873167991,0.0005733785801567
1768733898172,-0.2567901611328125,-0.9483642578125,0.210052490234375,-0.0401442237198352,0.0146471196785569,0.0003568635729607
1768733898182,-0.2509002685546875,-0.9455108642578124,0.20709228515625,-0.0437477454543113,0.0039161783643066,0.0036607813090085
1768733898192,-0.2637176513671875,-0.9392547607421876,0.1997833251953125,-0.0489025600254535,0.0106632970273494,-0.0064706825651228
1768733898202,-0.2548828125,-0.9423828125,0.19842529296875,-0.0471424795687198,0.017543040215969,-0.0030027141328901
1768733898212,-0.2325897216796875,-0.9396514892578124,0.18865966796875,-0.0355702452361583,0.0105141596868634,0.0155339520424604
1768733898222,-0.246063232421875,-0.933868408203125,0.1833953857421875,-0.0156298261135816,0.0041713090613484,0.0202195178717374
1768733898232,-0.25714111328125,-0.9322967529296876,0.184478759765625,0.000524376402609,0.0116441389545798,0.0202338993549346
1768733898242,-0.257598876953125,-0.936065673828125,0.191619873046875,0.0095551554113626,0.0154258282855153,0.0211689341813325
1768733898253,-0.26300048828125,-0.938629150390625,0.19781494140625,0.0135919749736785,0.02055374532938,0.0182671546936035
1768733898263,-0.2666473388671875,-0.9414215087890624,0.203887939453125,0.0156167764216661,0.0122883580625057,0.0076922746375203
1768733898273,-0.2659149169921875,-0.94244384765625,0.2061767578125,0.0125070037320256,0.008436094969511,0.0007392935222014
1768733898283,-0.26287841796875,-0.94097900390625,0.20770263671875,0.0140234073624014,0.0037350833881646,-0.0058291270397603
1768733898293,-0.2603912353515625,-0.9452667236328124,0.2097320556640625,0.0114851482212543,0.0109700933098793,-0.0078448737040162
1768733898303,-0.2597198486328125,-0.943939208984375,0.2089385986328125,0.0135432388633489,0.0132614765316247,-0.0031843415927141
1768733898313,-0.2587127685546875,-0.94085693359375,0.2068939208984375,0.0141871916130185,-0.0028671592008322,0.0009731190511956
1768733898323,-0.2593994140625,-0.9443817138671876,0.210662841796875,0.0069154305383563,0.0017222663154825,-0.0002604571636766
1768733898333,-0.2683258056640625,-0.942962646484375,0.216461181640625,-0.0045097968541085,0.00720358453691,-0.0074693677015602
1768733898343,-0.269744873046875,-0.9427032470703124,0.2168121337890625,-0.01716567017138,0.0123871611431241,-0.0162362270057201
1768733898353,-0.26336669921875,-0.9435577392578124,0.212677001953125,-0.0271333493292331,0.0213239304721355,-0.013266802765429
1768733898363,-0.26025390625,-0.9429931640625,0.206695556640625,-0.0307722929865121,0.0323451571166515,-0.0121408188715577
1768733898373,-0.2585296630859375,-0.9447174072265624,0.2041168212890625,-0.0298503078520298,0.0300114285200834,-0.011248392984271
1768733898383,-0.2548675537109375,-0.9441986083984376,0.203369140625,-0.0340269431471824,0.0190645046532154,-0.0159858912229537
1768733898393,-0.25714111328125,-0.94329833984375,0.1990814208984375,-0.031344074755907,0.0109716905280947,-0.0148023813962936
1768733898403,-0.2581787109375,-0.9436492919921876,0.1970977783203125,-0.0277839601039886,0.0140356579795479,-0.0097136134281754
1768733898413,-0.260833740234375,-0.944427490234375,0.198211669921875,-0.0272633116692304,0.0141080953180789,-0.0081548653542995
1768733898423,-0.2647705078125,-0.9427490234375,0.2002105712890625,-0.0272846184670925,0.0135773280635476,-0.0120737068355083
1768733898433,-0.266845703125,-0.9416046142578124,0.1979522705078125,-0.0262912586331367,0.0099306609481573,-0.0152543205767869
1768733898443,-0.2602691650390625,-0.94036865234375,0.19921875,-0.023503728210926,0.0041505363769829,-0.0174785926938056
1768733898453,-0.253143310546875,-0.9334716796875,0.1884307861328125,-0.0114382766187191,0.010072873905301,-0.0172642078250646
1768733898464,-0.2520294189453125,-0.9311065673828124,0.184967041015625,0.0042216428555548,0.0063732108101248,-0.0170567482709884
1768733898474,-0.243804931640625,-0.94073486328125,0.19537353515625,0.0041049965657293,0.0052661346271634,-0.0149845425039529
1768733898484,-0.2469329833984375,-0.9480133056640624,0.206329345703125,-0.002225870033726,0.0046884948387742,-0.0043201800435781
1768733898494,-0.2586669921875,-0.9472503662109376,0.2100372314453125,-0.0058810585178434,-0.0063380571082234,-0.0049292449839413
1768733898504,-0.2653961181640625,-0.9476318359375,0.211395263671875,-0.0176381152123212,-0.010349310003221,-0.0117999343201518
1768733898514,-0.261016845703125,-0.9473876953125,0.2100372314453125,-0.0303555093705654,0.0006868292111903,-0.0101338606327772
1768733898524,-0.2558746337890625,-0.94915771484375,0.2035980224609375,-0.0330271907150745,0.0020136160310357,-0.0097506316378712
1768733898534,-0.2574462890625,-0.9468841552734376,0.20001220703125,-0.0385503210127353,0.0038855520542711,-0.0100571615621447
1768733898544,-0.25244140625,-0.9485321044921876,0.1959228515625,-0.037222471088171,0.0069734873250126,-0.0094283893704414
1768733898554,-0.2534637451171875,-0.9478912353515624,0.193695068359375,-0.0298058316111564,-0.0010828413069248,-0.0038008634001016
1768733898564,-0.2574005126953125,-0.947021484375,0.1905517578125,-0.0210498906672,-0.0162423532456159,-0.0077119818888604
1768733898574,-0.254486083984375,-0.94000244140625,0.18780517578125,-0.0109509183093905,-0.0093085467815399,-0.0036826191935688
1768733898584,-0.2593231201171875,-0.9291534423828124,0.1818389892578125,0.0026967169251292,0.0030075078830122,0.0009600695921108
1768733898594,-0.279571533203125,-0.92596435546875,0.1761016845703125,0.0263623651117086,-0.0009193231817334,-0.022080535069108
1768733898604,-0.2519989013671875,-0.9370269775390624,0.188140869140625,0.0346370711922645,-0.015066834166646,-0.0127639984712004
1768733898614,-0.2397613525390625,-0.95501708984375,0.20257568359375,0.0339656881988048,-0.001817074837163,0.0040831584483385
1768733898624,-0.2600860595703125,-0.956146240234375,0.21844482421875,0.0222656242549419,0.0008415589109063,-0.0076043899171054
1768733898634,-0.26007080078125,-0.9514617919921876,0.21856689453125,0.01190219912678,0.0013680658303201,-0.0113573167473077
1768733898644,-0.24365234375,-0.9461212158203124,0.223388671875,0.0004367584188003,0.0045081991702318,-0.0013587448047474
1768733898655,-0.2542877197265625,-0.9367828369140624,0.2237548828125,-0.0114888772368431,0.0134407076984643,0.0020000338554382
1768733898664,-0.2763214111328125,-0.9266510009765624,0.224853515625,-0.0292945057153701,0.0117187080904841,-0.0150684313848614
1768733898675,-0.272735595703125,-0.929718017578125,0.222320556640625,-0.0451504327356815,0.0016924388473853,-0.0266241542994976
1768733898685,-0.25408935546875,-0.9413909912109376,0.21392822265625,-0.0582883395254612,-0.0094318510964512,-0.0226278137415647
1768733898695,-0.2537841796875,-0.94586181640625,0.20391845703125,-0.0617797449231147,-0.0213889125734567,-0.0217636190354824
1768733898705,-0.256256103515625,-0.948455810546875,0.1926422119140625,-0.0551114566624164,-0.0196437425911426,-0.0188724901527166
1768733898715,-0.251983642578125,-0.9510345458984376,0.1863555908203125,-0.0456710830330848,-0.0174269266426563,-0.0185707546770572
1768733898725,-0.246246337890625,-0.9501800537109376,0.180633544921875,-0.0348088480532169,-0.0153009258210659,-0.0084294378757476
1768733898735,-0.2502288818359375,-0.9470672607421876,0.17535400390625,-0.0192365441471338,-0.0153219643980264,-0.0038541266694664
1768733898745,-0.258514404296875,-0.9452667236328124,0.1782379150390625,-0.009532518684864,-0.0126625318080186,-0.0092582134529948
1768733898755,-0.25811767578125,-0.947998046875,0.1822052001953125,-0.0011968245962634,-0.0106550408527255,-0.0104861967265605
1768733898765,-0.2522735595703125,-0.946044921875,0.1835784912109375,0.0067186225205659,-0.0126963537186384,-0.0047859665937721
1768733898775,-0.2557373046875,-0.94561767578125,0.1893463134765625,0.0148633681237697,-0.0233410093933343,-0.0085346326231956
1768733898785,-0.255218505859375,-0.9454803466796876,0.194427490234375,0.0144604323431849,-0.0205992851406335,-0.0087191890925168
1768733898795,-0.2512359619140625,-0.9480133056640624,0.2002105712890625,0.0150063801556825,-0.0103407884016633,-0.0018745990237221
1768733898806,-0.2435150146484375,-0.9478759765625,0.200439453125,0.013252155855298,0.0030405309516936,0.0058693406172096
1768733898815,-0.2479248046875,-0.9459686279296876,0.199127197265625,0.0136103508993983,0.0172239933162927,0.0153099801391363
1768733898825,-0.25238037109375,-0.9470672607421876,0.20123291015625,0.0111863417550921,0.0076129124499857,0.0179845932871103
1768733898835,-0.25445556640625,-0.94720458984375,0.20416259765625,0.005003813188523,-0.0077953389845788,0.0153387421742081
1768733898845,-0.2574615478515625,-0.9464569091796876,0.204376220703125,0.0007872303831391,-0.006885603070259,0.0108939269557595
1768733898855,-0.2569580078125,-0.9474029541015624,0.2044219970703125,-0.0005025385180488,0.0039521311409771,0.011616175994277
1768733898865,-0.2497100830078125,-0.9490509033203124,0.2038726806640625,-0.0043532028794288,0.0088158622384071,0.0140353916212916
1768733898876,-0.2556304931640625,-0.943878173828125,0.2022857666015625,-0.0095682051032781,0.005803560372442,0.0086795082315802
1768733898885,-0.2551116943359375,-0.9442138671875,0.1993560791015625,-0.0135461688041687,0.0057481667026877,0.0101993745192885
1768733898895,-0.2494354248046875,-0.9423828125,0.1962738037109375,-0.0056648100726306,0.0069457902573049,0.0148159638047218
1768733898906,-0.2587127685546875,-0.9376678466796876,0.194580078125,0.0017046893481165,0.0047361655160784,0.007669371087104
1768733898916,-0.2677459716796875,-0.93707275390625,0.1989898681640625,0.0045281727798283,0.0052474923431873,-0.0012958941515535
1768733898926,-0.2640228271484375,-0.94049072265625,0.2074127197265625,-0.0003153182624373,0.0090470248833298,0.000818655709736
1768733898936,-0.2598876953125,-0.94500732421875,0.2138824462890625,-0.0091072116047143,0.017446368932724,0.0005206479690968
1768733898946,-0.2557373046875,-0.9414825439453124,0.2053375244140625,-0.014355769380927,0.0203630626201629,0.0066206185147166
1768733898956,-0.255340576171875,-0.940643310546875,0.2008819580078125,-0.0177286639809608,0.0241615287959575,0.006311425473541
1768733898966,-0.2557525634765625,-0.9427642822265624,0.2005462646484375,-0.0139768021181225,0.008313057012856,0.0035606464371085
1768733898976,-0.2567596435546875,-0.94329833984375,0.200164794921875,-0.0128345722332596,-0.0046586678363382,0.0006037385901436
1768733898986,-0.2606353759765625,-0.94317626953125,0.19757080078125,-0.011216701939702,-0.004046939779073,-0.0049795787781476
1768733898996,-0.2535552978515625,-0.9450531005859376,0.1959686279296875,-0.0054789213463664,-0.005715409759432,-0.0018200043123215
1768733899006,-0.2555084228515625,-0.9460296630859376,0.1946258544921875,-0.0013576794881373,-0.0050163301639258,-0.0030394657514989
1768733899016,-0.254241943359375,-0.947113037109375,0.1951141357421875,-0.0006711165769957,-0.0013254552613943,-0.0016679377295076
1768733899026,-0.2457733154296875,-0.9482421875,0.1972198486328125,0.005192897748202,0.0105173559859395,0.0077157104387879
1768733899036,-0.25323486328125,-0.946380615234375,0.20037841796875,0.005003813188523,0.0029923277907073,0.0066275424323976
1768733899046,-0.2597198486328125,-0.94293212890625,0.2052764892578125,0.0010982876410707,0.0066640279255807,0.0010394317796453
1768733899056,-0.256256103515625,-0.9438934326171876,0.2070770263671875,-0.0036187032237648,0.0108185596764087,-0.0023813985753804
1768733899066,-0.255340576171875,-0.9428253173828124,0.20672607421875,-0.0046900929883122,0.0082632564008235,0.0054722633212804
1768733899076,-0.2597808837890625,-0.9427490234375,0.2070465087890625,-0.0099477050825953,0.0090206591412425,0.0031201594974845
1768733899086,-0.256561279296875,-0.9428863525390624,0.2053070068359375,-0.0141379227861762,0.0109783485531806,0.0047529437579214
1768733899096,-0.2535552978515625,-0.943359375,0.1996612548828125,-0.01799151673913,-0.0016351809026673,0.0081820301711559
1768733899106,-0.2606658935546875,-0.941925048828125,0.193939208984375,-0.0158412810415029,0.005038434639573,0.0055084824562072
1768733899116,-0.2617645263671875,-0.94549560546875,0.19390869140625,-0.0104201501235365,-0.000373907823814,0.0037766287568956
1768733899127,-0.2606658935546875,-0.94512939453125,0.1962890625,-0.0172982960939407,-0.0051857070066034,-0.0014498248929157
1768733899137,-0.2648468017578125,-0.9431304931640624,0.197235107421875,-0.0189987253397703,-0.0031380027066916,-0.0050506847910583
1768733899147,-0.263153076171875,-0.9452056884765624,0.19757080078125,-0.0204389616847038,-0.0023182816803455,-0.0067492490634322
1768733899157,-0.2580108642578125,-0.9454803466796876,0.1947479248046875,-0.0198368206620216,-0.0047361655160784,-0.0067220847122371
1768733899167,-0.258880615234375,-0.944244384765625,0.1924285888671875,-0.0178362540900707,-0.0048117996193468,-0.0078384820371866
1768733899177,-0.2561798095703125,-0.9451446533203124,0.1889801025390625,-0.0179774016141891,0.0130865070968866,-0.0116816898807883
1768733899187,-0.2464599609375,-0.9451904296875,0.18487548828125,-0.007570035289973,0.0163512770086526,0.0050893006846308
1768733899197,-0.2507476806640625,-0.9473419189453124,0.180328369140625,0.0098995026201009,0.0096949711441993,0.0106110991910099
1768733899207,-0.2533416748046875,-0.94903564453125,0.1835784912109375,0.0194490645080804,0.0029148298781365,0.0062088938429951
1768733899217,-0.250732421875,-0.948486328125,0.1910858154296875,0.0203747805207967,0.0089463572949171,0.011518970131874
1768733899227,-0.2476043701171875,-0.946075439453125,0.193206787109375,0.0244243834167718,0.0205380320549011,0.0205526798963546
1768733899237,-0.254150390625,-0.942718505859375,0.1976776123046875,0.0270193666219711,0.0085058705881237,0.0207750536501407
1768733899247,-0.2705535888671875,-0.942657470703125,0.205718994140625,0.0246952269226312,-0.0115269599482417,0.0059481700882315
1768733899257,-0.2722930908203125,-0.9397735595703124,0.2075042724609375,0.0168367698788642,-0.0094856470823287,-0.0056376457214355
1768733899267,-0.263885498046875,-0.9301300048828124,0.204376220703125,0.0080291647464036,0.0051593417301774,-0.0065385932102799
1768733899277,-0.2756500244140625,-0.9248504638671876,0.1954498291015625,0.0105479815974831,0.0081876227632164,-0.0240587312728166
1768733899287,-0.2589111328125,-0.93695068359375,0.2013702392578125,0.006075735669583,-0.0054576159454882,-0.0178762022405862
1768733899297,-0.2446746826171875,-0.9528961181640624,0.204254150390625,0.0036309538409113,0.0019603527616709,-0.0002862898109015
1768733899308,-0.256805419921875,-0.9542694091796876,0.20526123046875,-0.0001339570007985,0.0185851361602544,-0.003508981084451
1768733899317,-0.26214599609375,-0.9506072998046876,0.198516845703125,0.0123749105259776,0.0224171578884124,-0.0014684670604765
1768733899327,-0.2504425048828125,-0.946929931640625,0.200103759765625,0.0215388480573892,0.0069945263676345,0.008166316896677
1768733899338,-0.26025390625,-0.94091796875,0.2060089111328125,0.0228685643523931,0.0095703359693288,0.0026831347495317
1768733899348,-0.2734222412109375,-0.9320831298828124,0.2035675048828125,0.0243527442216873,0.013316604308784,-0.0051497546955943
1768733899358,-0.260467529296875,-0.9337158203125,0.2071990966796875,0.0212096814066171,0.0022956449538469,-0.0093066822737455
1768733899368,-0.246246337890625,-0.9451904296875,0.213470458984375,0.0053023537620902,-0.0078765647485852,-0.0055958339944481
1768733899378,-0.2524261474609375,-0.94952392578125,0.215545654296875,-0.0056435046717524,-0.0069026472046971,-0.0045646582730114
1768733899388,-0.258575439453125,-0.9471588134765624,0.2140655517578125,-0.0148452585563063,-0.0028826056513935,-0.0097495662048459
1768733899398,-0.2512054443359375,-0.945587158203125,0.2115325927734375,-0.0197366867214441,-0.0081673823297023,-0.003288471372798
1768733899408,-0.25665283203125,-0.9408111572265624,0.2013702392578125,-0.0163105297833681,-0.0097977695986628,-0.0025489113759249
1768733899418,-0.259002685546875,-0.9395599365234376,0.1956939697265625,-0.0093580819666385,-0.0094571514055132,-0.0023302659392356
1768733899428,-0.254608154296875,-0.94061279296875,0.19281005859375,-0.0036634444259107,-0.0030381341930478,-0.0032671659719198
1768733899438,-0.2503662109375,-0.94244384765625,0.190338134765625,0.0071519189514219,0.0055739963427186,0.0042919502593576
1768733899448,-0.254058837890625,-0.9442138671875,0.19287109375,0.0164207853376865,0.0121267037466168,0.0060589578934013
1768733899458,-0.2612457275390625,-0.94415283203125,0.1989898681640625,0.0179707445204257,0.0140977092087268,-0.0013901700731366
1768733899468,-0.2582855224609375,-0.943267822265625,0.202850341796875,0.0200512055307626,0.009197493083775,0.0018455706303939
1768733899478,-0.2611236572265625,-0.94659423828125,0.20989990234375,0.0124151241034269,0.010947722941637,-0.001972337020561
1768733899490,-0.26068115234375,-0.948516845703125,0.21453857421875,-0.0143525740131735,-0.0053407032974064,-0.0056163403205573
1768733899498,-0.251495361328125,-0.9474334716796876,0.212860107421875,-0.0143525740131735,-0.0053407032974064,-0.0056163403205573
1768733899508,-0.2508697509765625,-0.9458770751953124,0.2081756591796875,-0.0224264785647392,-0.0065630939789116,-0.0026098978705704
1768733899519,-0.2524261474609375,-0.948638916015625,0.2061767578125,-0.0263871327042579,-0.0100161489099264,-0.0030509172938764
1768733899528,-0.2542266845703125,-0.950042724609375,0.2059173583984375,-0.0354754365980625,-0.0082579301670193,-0.0017816547770053
1768733899538,-0.2496337890625,-0.9525604248046876,0.2012786865234375,-0.0347156375646591,-0.0002335592289455,0.0024466461036354
1768733899549,-0.2528076171875,-0.9534912109375,0.1941375732421875,-0.03206392750144,0.0039388150908052,0.0028834044933319
1768733899559,-0.25592041015625,-0.9496917724609376,0.1890106201171875,-0.0290170032531023,0.0075061195529997,-0.0004338289436418
1768733899569,-0.2490081787109375,-0.947235107421875,0.182830810546875,-0.0184969846159219,0.0093437004834413,0.0091431643813848
1768733899579,-0.2452392578125,-0.9448089599609376,0.176605224609375,0.0005992112564854,0.0089583415538072,0.0129525503143668
1768733899589,-0.2515869140625,-0.9395751953125,0.1772003173828125,0.02114949375391,0.0030927290208637,0.0082496739923954
1768733899599,-0.2577362060546875,-0.93798828125,0.183929443359375,0.0334770008921623,-0.0059897154569625,0.0073066488839685
1768733899609,-0.2574920654296875,-0.94091796875,0.195281982421875,0.0346671678125858,0.0028511802665889,0.003784618107602
1768733899619,-0.258209228515625,-0.94305419921875,0.2056884765625,0.0285568106919527,0.0007528756395913,-0.0009736517095007
1768733899629,-0.255645751953125,-0.9410552978515624,0.2072906494140625,0.0220112930983304,-0.0039004657883197,-0.0019891150295734
1768733899639,-0.2538604736328125,-0.942291259765625,0.2071075439453125,0.02168745175004,-0.0003089266829192,-0.0002205097407568
1768733899649,-0.2516937255859375,-0.942962646484375,0.20654296875,0.0181766077876091,-0.0027856663800776,0.0068179587833583
1768733899659,-0.257537841796875,-0.94195556640625,0.2106475830078125,0.0122611932456493,-0.0100012347102165,0.0002580603177193
1768733899669,-0.26123046875,-0.9400482177734376,0.210968017578125,0.0067745489068329,-0.0066951867192983,-0.0017305220244452
1768733899679,-0.263092041015625,-0.9396820068359376,0.2122650146484375,0.0021148161031305,-0.0002990729990415,-0.0001382180635118
1768733899690,-0.2644805908203125,-0.9410552978515624,0.214263916015625,-0.0073372749611735,0.0010191916953772,-0.0034362766891717
1768733899699,-0.2613067626953125,-0.9449920654296876,0.2119598388671875,-0.0119160478934645,0.0007086671539582,0.0004857605672441
1768733899709,-0.2600250244140625,-0.9450225830078124,0.2059173583984375,-0.0127520142123103,0.0143467150628566,0.0044179176911711
1768733899719,-0.2584075927734375,-0.9449005126953124,0.2021636962890625,-0.0096960365772247,0.0256896503269672,0.0019014970166608
1768733899729,-0.2503662109375,-0.9454803466796876,0.198516845703125,-0.0045473473146557,0.020460532978177,0.0054024886339902
1768733899740,-0.250762939453125,-0.9425506591796876,0.1961822509765625,0.0028035095892846,0.0052062137983739,0.0132660046219825
1768733899750,-0.2620697021484375,-0.9423828125,0.1974334716796875,0.0085359634831547,0.0068792114034295,0.0066688214428722
1768733899760,-0.2586212158203125,-0.94195556640625,0.199188232421875,0.0103479782119393,0.0052605420351028,0.0031300131231546
1768733899770,-0.2576904296875,-0.9417572021484376,0.202484130859375,0.0082091940566897,0.0047508128918707,0.0065180868841707
1768733899780,-0.2634124755859375,-0.9425506591796876,0.203643798828125,0.0046538738533854,0.0158423464745283,0.003786748740822
1768733899790,-0.2613067626953125,-0.94439697265625,0.2061920166015625,0.0020836573094129,0.0158599223941564,0.0011837751371785
1768733899800,-0.256317138671875,-0.9430084228515624,0.204559326171875,0.0036756948102265,0.0033515882678329,0.0013028184184804
1768733899810,-0.2567901611328125,-0.94183349609375,0.200225830078125,0.0057633467949926,0.0042924829758703,0.0003078614245168
1768733899820,-0.2570648193359375,-0.9410858154296876,0.2005767822265625,0.0060650832019746,0.0043089943937957,-0.0012311793398112
1768733899830,-0.252899169921875,-0.9404754638671876,0.2028045654296875,0.0039505329914391,0.0038197718095034,0.0043971454724669
1768733899840,-0.2581634521484375,-0.941925048828125,0.2012176513671875,0.0084741786122322,0.0006205165409483,0.0022293322253972
1768733899850,-0.2611846923828125,-0.9455413818359376,0.20318603515625,0.0067860009148716,0.0040847565978765,-0.0014202637830749
1768733899860,-0.257049560546875,-0.9434967041015624,0.2071533203125,0.0019542276859283,0.0019880498293787,-0.0007651261985301
1768733899870,-0.260589599609375,-0.9419708251953124,0.2084808349609375,0.0004255731473676,-0.0112276207655668,-0.0019614181946963
1768733899880,-0.2615814208984375,-0.943572998046875,0.2068328857421875,-0.0045540053397417,-0.0100624877959489,-0.007414773106575
1768733899890,-0.2566375732421875,-0.94842529296875,0.2118988037109375,-0.0145634962245821,-0.0065652248449623,-0.009051552042365
1768733899900,-0.2533111572265625,-0.947723388671875,0.212677001953125,-0.0239724442362785,-0.0014386395923793,-0.0049870354123413
1768733899910,-0.2516632080078125,-0.9433135986328124,0.2065887451171875,-0.0238110572099685,-0.0040653152391314,0.0082307653501629
1768733899920,-0.2560272216796875,-0.9442596435546876,0.1967620849609375,-0.0155762964859604,-0.0020453077740967,0.0074565848335623
1768733899930,-0.2564239501953125,-0.9464569091796876,0.1940155029296875,-0.0124169886112213,0.001006941194646,-0.0011110707418993
1768733899940,-0.253570556640625,-0.9435882568359376,0.1898040771484375,-0.0014452975010499,0.0083679184317588,-0.000645816558972
1768733899951,-0.250457763671875,-0.939727783203125,0.184051513671875,0.0134588172659277,-0.0034469293896108,0.0052637378685176
1768733899960,-0.2698516845703125,-0.9245147705078124,0.181396484375,0.0342602357268333,-0.0074547203257679,-0.0158932134509086
1768733899971,-0.272216796875,-0.93170166015625,0.1815032958984375,0.0536304712295532,-0.0092361085116863,-0.0226051770150661
1768733899981,-0.2426910400390625,-0.950408935546875,0.2005615234375,0.0564419701695442,0.0011427623685449,0.002266083844006
1768733899991,-0.245941162109375,-0.95782470703125,0.2210540771484375,0.0428798235952854,0.001284442609176,0.003834685543552
1768733900001,-0.2650604248046875,-0.9497528076171876,0.2229461669921875,0.0328964293003082,-0.0059561599045991,-0.0054653389379382
1768733900011,-0.25103759765625,-0.9467620849609376,0.22314453125,0.0225886665284633,-0.0135032916441559,-0.0016154735349118
1768733900021,-0.256500244140625,-0.9376220703125,0.22723388671875,0.0062355254776775,-0.0048019457608461,-0.0035252263769507
1768733900031,-0.2722625732421875,-0.9267425537109376,0.2251129150390625,-0.0033997914288192,0.006539658177644,-0.0149145005270838
1768733900041,-0.2676544189453125,-0.924896240234375,0.221771240234375,-0.0147328730672597,0.0045161885209381,-0.0212459005415439
1768733900051,-0.25469970703125,-0.9337310791015624,0.217742919921875,-0.0295056942850351,-0.0005978796398267,-0.0113575831055641
1768733900061,-0.250823974609375,-0.9422454833984376,0.2061004638671875,-0.0332346521317958,0.0072022527456283,-0.0012631373247131
1768733900071,-0.2556610107421875,-0.9491424560546876,0.195068359375,-0.02567127533257,0.0099546294659376,-0.0031920648179948
1768733900081,-0.25482177734375,-0.949371337890625,0.1873931884765625,-0.0120622552931308,0.0112406704574823,-0.003051450010389
1768733900091,-0.25115966796875,-0.9453125,0.1828765869140625,0.0044093956239521,0.0087026776745915,0.0028229507151991
1768733900101,-0.2575225830078125,-0.94482421875,0.186859130859375,0.0180213451385498,0.0029925941489636,0.003826163476333
1768733900111,-0.26556396484375,-0.94677734375,0.1981964111328125,0.0203835684806108,-0.0038887478876858,-0.0022543659433722
1768733900121,-0.262054443359375,-0.94659423828125,0.2042236328125,0.0181912537664175,0.0031398669816553,-0.001881523290649
1768733900131,-0.25628662109375,-0.945159912109375,0.20697021484375,0.0182823352515697,0.0053910370916128,-0.000146473859786
1768733900141,-0.258514404296875,-0.9444427490234376,0.2088470458984375,0.0161763075739145,0.0012705941917374,-0.0021505025215446
1768733900151,-0.25640869140625,-0.9430389404296876,0.2147064208984375,0.0094638094305992,0.0025134913157671,-0.0026051041204482
1768733900161,-0.256103515625,-0.9447784423828124,0.2180023193359375,0.004939364735037,0.005951898638159,-0.0038623826112598
1768733900171,-0.2559661865234375,-0.9468841552734376,0.218994140625,-0.0049289786256849,0.0049998187460005,-0.0021294634789228
1768733900182,-0.2525787353515625,-0.9455108642578124,0.2196502685546875,-0.0126023441553115,-0.0007182545377872,-0.0024706146214157
1768733900192,-0.254547119140625,-0.9459991455078124,0.2166290283203125,-0.0170194637030363,-0.0050043459050357,-6.231796578504145e-05
1768733900202,-0.2525482177734375,-0.9455413818359376,0.2133941650390625,-0.022814767435193,-0.0062704128213226,-0.0013954964233562
1768733900212,-0.248809814453125,-0.944549560546875,0.2107696533203125,-0.026027338579297,-0.0040599890053272,0.005225921049714
1768733900222,-0.249755859375,-0.946380615234375,0.2057952880859375,-0.0283621326088905,-0.001881523290649,0.0088896313682198
1768733900232,-0.257049560546875,-0.9441986083984376,0.2069091796875,-0.0297139529138803,-0.004227768164128,0.0062967780977487
1768733900242,-0.2633056640625,-0.9425201416015624,0.2071380615234375,-0.0380203537642955,-0.0025763420853763,-0.0035185683518648
1768733900252,-0.2552337646484375,-0.946197509765625,0.2061920166015625,-0.0405785851180553,0.0018447716720402,0.0018487664638087
1768733900262,-0.24920654296875,-0.946533203125,0.1978912353515625,-0.0318247750401496,0.0026362631469964,0.0097919106483459
1768733900273,-0.2579193115234375,-0.9391632080078124,0.190399169921875,-0.0181395895779132,-0.0006764429272152,0.0127584058791399
1768733900282,-0.2644805908203125,-0.9350433349609376,0.185791015625,-0.0047540087252855,0.0027483822777867,0.0018844527658075
1768733900293,-0.26123046875,-0.9356689453125,0.1865692138671875,0.0073668360710144,0.0039177760481834,0.0043055326677858
1768733900302,-0.2540740966796875,-0.9379425048828124,0.1897430419921875,0.0183814037591218,0.0024335966445505,0.0100204097107052
1768733900312,-0.2571258544921875,-0.9426116943359376,0.1941986083984375,0.0256118867546319,-0.0016974988393485,0.0084672542288899
1768733900322,-0.25408935546875,-0.9427490234375,0.1953887939453125,0.0337624922394752,-0.0083972131833434,0.0034336135722696
1768733900332,-0.2548370361328125,-0.943359375,0.20263671875,0.0356599912047386,-0.0067583038471639,0.0063694822601974
1768733900342,-0.25750732421875,-0.9449005126953124,0.2086029052734375,0.034168355166912,0.0025806031189858,0.0023550332989543
1768733900352,-0.2581024169921875,-0.9456024169921876,0.2156829833984375,0.0268465280532836,-0.0023230754304677,-0.0015755260828882
1768733900362,-0.2600250244140625,-0.9436798095703124,0.2179107666015625,0.0157470051199197,-0.0034000577870756,-0.0036037894897162
1768733900372,-0.25885009765625,-0.94451904296875,0.221221923828125,0.0032349417451769,-0.0067439228296279,-0.0023246733471751
1768733900382,-0.254791259765625,-0.9463653564453124,0.22235107421875,-0.0054485611617565,-0.0153302205726504,-0.0012548814993351
1768733900393,-0.25738525390625,-0.943023681640625,0.217987060546875,-0.0180005710572004,-0.0160053316503763,-0.0032434638123959
1768733900403,-0.255859375,-0.94281005859375,0.21551513671875,-0.0217058286070823,-0.0055239289067685,0.0014120079576969
1768733900413,-0.2598114013671875,-0.9446563720703124,0.21319580078125,-0.0245841722935438,-0.0069881347008049,0.0020929782185703
1768733900424,-0.260589599609375,-0.9447021484375,0.2097930908203125,-0.0253445040434598,-0.0146348690614104,-0.002674879040569
1768733900433,-0.2561492919921875,-0.9442138671875,0.205718994140625,-0.0261051040142774,-0.011847604997456,0.001497761812061
1768733900443,-0.256500244140625,-0.9430694580078124,0.2019805908203125,-0.0217175465077161,0.0001584580895723,0.0034653050824999
1768733900453,-0.2591400146484375,-0.9420318603515624,0.1999053955078125,-0.0189939308911561,0.0064983791671693,0.0039329561404883
1768733900463,-0.2571868896484375,-0.9400634765625,0.2005462646484375,-0.0166604686528444,0.0038951393216848,0.0048402952961623
1768733900473,-0.257659912109375,-0.94189453125,0.201324462890625,-0.0144508443772792,0.0015749934827908,0.0040530646219849
1768733900483,-0.26104736328125,-0.94256591796875,0.203155517578125,-0.0109775494784116,0.0046738474629819,0.0042298985645174
1768733900493,-0.2569732666015625,-0.941192626953125,0.2038421630859375,-0.0095458347350358,0.0108939269557595,0.0024671524297446
1768733900503,-0.252044677734375,-0.942108154296875,0.2012786865234375,-0.0052863745950162,0.0033816818613559,0.0049588060937821
1768733900513,-0.25286865234375,-0.9405059814453124,0.2012786865234375,-0.0005374259199015,0.0011289139511063,0.0086616650223732
1768733900524,-0.2569122314453125,-0.93927001953125,0.20294189453125,0.0023859259672462,0.00524030206725,0.0094968322664499
1768733900533,-0.25579833984375,-0.941131591796875,0.2054901123046875,0.001015463261865,-0.0008628641953691,0.0062728095799684
1768733900543,-0.257049560546875,-0.9401702880859376,0.2080841064453125,-0.0012405004817992,-0.0039497343823313,0.004628041293472
1768733900553,-0.26220703125,-0.9414215087890624,0.2108306884765625,-0.0049489522352814,0.0034961977507919,0.0014271880500018
1768733900563,-0.2589569091796875,-0.9454345703125,0.213348388671875,-0.0093724625185132,0.0079556610435247,0.0037816886324435
1768733900573,-0.2582855224609375,-0.9436798095703124,0.213226318359375,-0.0145808067172765,0.0006705839768983,0.0057007623836398
1768733900583,-0.257293701171875,-0.9440460205078124,0.2104949951171875,-0.0196109861135482,0.0031276163645088,0.0065164887346327
1768733900593,-0.2581634521484375,-0.9428863525390624,0.209442138671875,-0.0220938511192798,-0.0041420143097639,0.0066147595643997
1768733900603,-0.261566162109375,-0.9430084228515624,0.20574951171875,-0.0212549548596143,-0.0090339751914143,-0.000557665945962
1768733900614,-0.2568817138671875,-0.945343017578125,0.2026824951171875,-0.0211995616555213,-0.0131099428981542,-0.0048647965304553
1768733900624,-0.2526702880859375,-0.9470367431640624,0.2000885009765625,-0.0177267994731664,-0.0162330325692892,-0.0029129656031727
1768733900634,-0.255828857421875,-0.9394378662109376,0.198699951171875,-0.0159430131316185,-0.0142849292606115,-0.0002620550512801
1768733900644,-0.275787353515625,-0.925140380859375,0.1919097900390625,0.0016082830261439,-0.0164564717561006,-0.0224989168345928
1768733900654,-0.26593017578125,-0.9269256591796876,0.1883544921875,0.0230544526129961,-0.0180881898850202,-0.0196959394961595
1768733900664,-0.2419281005859375,-0.9504547119140624,0.201934814453125,0.0260113608092069,-0.0278377570211887,0.0012258529895916
1768733900674,-0.249755859375,-0.958221435546875,0.21649169921875,0.0144388601183891,-0.0184583701193332,0.0005299690528772
1768733900684,-0.263916015625,-0.9531097412109376,0.2078094482421875,0.0208347085863351,-0.0130774527788162,-0.0063327308744192
1768733900694,-0.2455596923828125,-0.9509124755859376,0.2056427001953125,0.0276010017842054,-0.0137499002739787,0.0084350304678082
1768733900704,-0.25018310546875,-0.9365997314453124,0.2011871337890625,0.0432140491902828,-0.0169273186475038,0.0144348656758666
1768733900714,-0.26898193359375,-0.9228363037109376,0.1995849609375,0.05049379914999,-0.0159752387553453,0.0026988473255187
1768733900724,-0.2726287841796875,-0.9190216064453124,0.211029052734375,0.0404230579733848,-0.0099029643461108,-0.0070001189596951
1768733900734,-0.2628326416015625,-0.9290008544921876,0.21966552734375,0.0173747297376394,-0.0003829625493381,-0.0118960738182067
1768733900744,-0.2513275146484375,-0.943023681640625,0.221435546875,0.0016548882704228,0.0017915084026753,-0.0051785167306661
1768733900754,-0.2496795654296875,-0.9507293701171876,0.21728515625,-0.003287139814347,-0.0053468286059796,0.000406132050557
1768733900764,-0.255828857421875,-0.9510955810546876,0.2097015380859375,0.0051103397272527,-0.019459718838334,-0.0003137203748337
1768733900774,-0.2482757568359375,-0.9475555419921876,0.2014617919921875,0.0159299634397029,-0.0203039404004812,0.0053273872472345
1768733900784,-0.251556396484375,-0.943359375,0.2029571533203125,0.0133847808465361,-0.0236070584505796,0.0021539647132158
1768733900794,-0.260162353515625,-0.9431304931640624,0.2113494873046875,0.0057439059019088,-0.0115754297003149,0.0014668691437691
1768733900804,-0.26409912109375,-0.9439849853515624,0.220367431640625,-0.0106129627674818,-0.0024487765040248,-0.0035747610963881
1768733900815,-0.2690277099609375,-0.94476318359375,0.22613525390625,-0.0248017534613609,-0.0051287156529724,-0.008233961649239
1768733900824,-0.2605743408203125,-0.945465087890625,0.21527099609375,-0.0212504267692565,-0.0112571818754076,-0.0080928141251206
1768733900834,-0.2508544921875,-0.943603515625,0.2059478759765625,-0.0175763312727212,-0.0098755341023206,-0.0025047028902918
1768733900845,-0.249420166015625,-0.9441070556640624,0.2032928466796875,-0.0111887389793992,-0.0044256411492824,0.0028820729348808
1768733900855,-0.2547607421875,-0.9444122314453124,0.204132080078125,-0.0048866341821849,-0.0003800330741796,0.0049420278519392
1768733900865,-0.248565673828125,-0.948638916015625,0.207550048828125,-0.0022551647853106,0.0003155845915898,0.0111953960731625
1768733900875,-0.2462615966796875,-0.948028564453125,0.212066650390625,-0.005795837379992,-0.0001017327522276,0.0195902120321989
1768733900885,-0.26141357421875,-0.9449005126953124,0.215087890625,-0.0122806346043944,-0.0118888840079307,0.0124982148408889
1768733900895,-0.261749267578125,-0.943878173828125,0.2164764404296875,-0.0205220524221658,-0.0260861944407224,0.0070911990478634
1768733900905,-0.2560577392578125,-0.946319580078125,0.217803955078125,-0.0240451488643884,-0.0373795963823795,0.0045806369744241
1768733900915,-0.25555419921875,-0.9429168701171876,0.21337890625,-0.0257754046469926,-0.0542493909597396,0.0024969798978418
1768733900925,-0.2660369873046875,-0.9399261474609376,0.2155303955078125,-0.02817970700562,-0.071183368563652,-0.0105447862297296
1768733900935,-0.2603759765625,-0.9433135986328124,0.213348388671875,-0.035096202045679,-0.0704328864812851,-0.0136447055265307
1768733900945,-0.25030517578125,-0.944305419921875,0.20440673828125,-0.0249879080802202,-0.0660402700304985,-0.0058818575926125
1768733900955,-0.2549285888671875,-0.9368743896484376,0.1930084228515625,-0.0116246985271573,-0.0640322491526603,-0.0068845376372337
1768733900965,-0.259796142578125,-0.9304351806640624,0.183837890625,0.0142820002511143,-0.06508419662714,-0.0044733118265867
1768733900975,-0.254302978515625,-0.9290924072265624,0.1787261962890625,0.0423418655991554,-0.0567706041038036,0.0030618363525718
1768733900985,-0.2489776611328125,-0.9348907470703124,0.183349609375,0.0572571642696857,-0.0505776889622211,0.0103935189545154
1768733900995,-0.2483978271484375,-0.942138671875,0.192352294921875,0.0648863241076469,-0.0434460118412971,0.0104595655575394
1768733901005,-0.256256103515625,-0.94207763671875,0.202239990234375,0.0645491629838943,-0.0495558343827724,0.0070579093880951
1768733901015,-0.2591552734375,-0.9442596435546876,0.21124267578125,0.0541939958930015,-0.0265128333121538,0.0084574008360505
1768733901025,-0.2599029541015625,-0.9439544677734376,0.2210540771484375,0.0455224774777889,-0.0260438509285449,0.0027361316606402
1768733901036,-0.2604217529296875,-0.9435577392578124,0.2255401611328125,0.0411077551543712,-0.028724854812026,0.0025028388481587
1768733901046,-0.2533721923828125,-0.9434356689453124,0.2209014892578125,0.0450787954032421,-0.0365745238959789,0.0085668563842773
1768733901056,-0.2552337646484375,-0.942474365234375,0.218963623046875,0.0425935313105583,-0.0410654097795486,0.0054355119355022
1768733901066,-0.2563934326171875,-0.941436767578125,0.217376708984375,0.0316428802907466,-0.0351169742643833,0.0005816344055347
1768733901076,-0.25299072265625,-0.943450927734375,0.2180633544921875,0.0252534244209527,-0.0341473184525966,0.0014474280178546
1768733901086,-0.2480926513671875,-0.9425048828125,0.2162322998046875,0.0240435507148504,-0.027330158278346,0.0063372580334544
1768733901096,-0.2544403076171875,-0.9407501220703124,0.2207183837890625,0.0171752590686082,-0.0223260782659053,0.0076280920766294
1768733901106,-0.2617645263671875,-0.9405975341796876,0.222869873046875,0.0086835026741027,-0.0133048864081501,0.0047803740017116
1768733901116,-0.260986328125,-0.9416351318359376,0.2271728515625,0.0015302523970603,-0.0207529496401548,0.0014684670604765
1768733901126,-0.25592041015625,-0.9418487548828124,0.22674560546875,-0.0035230957437306,-0.020993698388338,6.924218723725062e-06
1768733901136,-0.2560882568359375,-0.9383392333984376,0.2245941162109375,-0.0113336145877838,-0.0134862475097179,0.0008735168376006
1768733901146,-0.257843017578125,-0.9391632080078124,0.2210845947265625,-0.0086795082315802,-0.0198480077087879,-0.0027997812721878
1768733901156,-0.2534027099609375,-0.940887451171875,0.2204437255859375,-0.0140194129198789,-0.0115818213671445,-0.0022554311435669
1768733901166,-0.256866455078125,-0.9396209716796876,0.2191162109375,-0.0120899518951773,-0.0079692434519529,0.0012319782981649
1768733901176,-0.2581024169921875,-0.938568115234375,0.2172698974609375,-0.014487862586975,-0.0128795793280005,-0.0031470574904233
1768733901186,-0.2534332275390625,-0.93798828125,0.209991455078125,-0.00164450192824,-0.02298947237432,0.0038764972705394
1768733901196,-0.2459564208984375,-0.938201904296875,0.1963958740234375,0.0203771777451038,-0.0383130349218845,0.010120278224349
1768733901206,-0.2529296875,-0.9382781982421876,0.1942901611328125,0.0375969111919403,-0.0408813878893852,0.0082928175106644
1768733901216,-0.251220703125,-0.9386138916015624,0.1920623779296875,0.0540792122483253,-0.032069519162178,0.0082379560917615
1768733901226,-0.257781982421875,-0.938385009765625,0.200927734375,0.0594374947249889,-0.0173808541148901,0.0041665155440568
1768733901237,-0.2662200927734375,-0.9390716552734376,0.21478271484375,0.0549652464687824,-0.0139499036595225,-0.0077809575013816
1768733901246,-0.2587738037109375,-0.940399169921875,0.23028564453125,0.0373526997864246,-0.007834487594664,-0.0083868270739912
1768733901257,-0.2603302001953125,-0.941802978515625,0.2384033203125,0.0163486134260892,0.0079601882025599,-0.0078842882066965
1768733901266,-0.254425048828125,-0.93951416015625,0.2350006103515625,0.0056717339903116,0.0216706749051809,-0.0019829897210001
1768733901277,-0.248504638671875,-0.9405517578125,0.23358154296875,0.002092711860314,0.0155139788985252,0.0103708822280168
1768733901287,-0.2464447021484375,-0.9423980712890624,0.229949951171875,-0.0069551113992929,0.0206253826618194,0.013267601840198
1768733901297,-0.2550506591796875,-0.9433135986328124,0.2279815673828125,-0.0189372058957815,0.0174801908433437,0.010366354137659
1768733901307,-0.2563018798828125,-0.944061279296875,0.22552490234375,-0.0261362623423337,0.0036021915730088,0.0033268209081143
1768733901317,-0.25579833984375,-0.9378814697265624,0.2196197509765625,-0.024378577247262,-0.0067354007624089,0.0005709817050956
1768733901327,-0.2627716064453125,-0.9254608154296876,0.2086944580078125,-0.0132058169692754,0.0041566616855561,-0.0108640994876623
1768733901337,-0.2679290771484375,-0.9234771728515624,0.204193115234375,-0.0005352954030968,0.010293916799128,-0.0155451372265815
1768733901347,-0.249786376953125,-0.939910888671875,0.217803955078125,-0.0008151935762725,0.008566590026021,-0.0060592242516577
1768733901357,-0.243377685546875,-0.95697021484375,0.2358551025390625,-0.0152407381683588,0.0015760586829856,0.0086217178031802
1768733901367,-0.26043701171875,-0.947174072265625,0.228759765625,-0.0207633357495069,0.0123887592926621,-0.0014863101532682
1768733901377,-0.2536468505859375,-0.9448089599609376,0.2265777587890625,-0.0222757440060377,0.0214578881859779,0.0013227921444922
1768733901387,-0.2491607666015625,-0.94012451171875,0.22833251953125,-0.0295142158865928,0.0230461973696947,0.0053835799917578
1768733901397,-0.27056884765625,-0.9296722412109376,0.22161865234375,-0.0275035295635461,0.0205052755773067,-0.0080257020890712
1768733901407,-0.2647552490234375,-0.9221649169921876,0.2083892822265625,-0.0131538854911923,0.0075620459392666,-0.0132417697459459
1768733901417,-0.2493743896484375,-0.9288177490234376,0.204376220703125,-0.0100260023027658,0.0093969637528061,-0.0087847029790282
1768733901427,-0.2494354248046875,-0.9401092529296876,0.2102203369140625,-0.0105234812945127,-0.003327886108309,-0.0078613851219415
1768733901437,-0.2550048828125,-0.9475555419921876,0.210418701171875,-0.0136521626263856,0.0077766967006027,-0.0134154073894023
1768733901447,-0.2510528564453125,-0.9467315673828124,0.2057952880859375,-0.0066272765398025,0.0214339196681976,-0.0028541097417473
1768733901458,-0.247406005859375,-0.9443817138671876,0.19671630859375,0.0228395350277423,0.0011488876771181,0.008209460414946
1768733901467,-0.252197265625,-0.9401092529296876,0.19354248046875,0.0381918586790561,-0.0066395266912877,0.0064672203734517
1768733901479,-0.26080322265625,-0.943115234375,0.197296142578125,0.0528594851493835,-0.006670952308923,0.0035169704351574
1768733901488,-0.2576141357421875,-0.94287109375,0.2035980224609375,0.0591096580028533,0.0114494618028402,0.0009038768475875
1768733901498,-0.2544708251953125,-0.9409942626953124,0.2108154296875,0.0637353062629699,0.0144231477752327,0.0021406488958746
1768733901508,-0.2500152587890625,-0.943084716796875,0.214111328125,0.0720006898045539,0.0165874995291233,0.0067862668074667
1768733901518,-0.2495574951171875,-0.9428558349609376,0.2267913818359375,0.0672328323125839,0.003188336500898,0.0092488918453454
1768733901528,-0.258514404296875,-0.9420166015625,0.2322235107421875,0.0568616837263107,0.0144883953034877,0.0085980156436562
1768733901538,-0.2632598876953125,-0.941253662109375,0.2451171875,0.0387149043381214,0.0150436637923121,0.0076043899171054
1768733901548,-0.2611846923828125,-0.942718505859375,0.247589111328125,0.023402526974678,0.0206861030310392,0.0084837656468153
1768733901558,-0.2581024169921875,-0.9420166015625,0.239654541015625,0.0134252617135643,0.0173656735569238,0.0094616785645484
1768733901568,-0.2511444091796875,-0.94207763671875,0.2292022705078125,0.0035587821621447,0.021198496222496,0.0064248759299516
1768733901578,-0.2473602294921875,-0.9432830810546876,0.231658935546875,-0.0040615871548652,0.0099532986059784,0.0088041443377733
1768733901588,-0.24951171875,-0.94281005859375,0.2357635498046875,-0.0178018994629383,0.0023252058308571,0.0088978875428438
1768733901598,-0.25750732421875,-0.942047119140625,0.23895263671875,-0.0321419574320316,-0.0010514160385355,0.0101362569257617
1768733901608,-0.255859375,-0.939697265625,0.23358154296875,-0.0406848452985286,0.0050432281568646,0.0078278295695781
1768733901618,-0.259368896484375,-0.940155029296875,0.2285919189453125,-0.053329799324274,0.0157094541937112,0.0044884914532303
1768733901628,-0.2587738037109375,-0.9410858154296876,0.2257080078125,-0.0600172653794288,0.0204791761934757,0.0048866341821849
1768733901638,-0.251220703125,-0.9428558349609376,0.2192535400390625,-0.0614654906094074,0.0318996086716651,0.0087135965004563
1768733901648,-0.2571258544921875,-0.9340972900390624,0.212005615234375,-0.0545002594590187,0.0453421808779239,0.0096568884328007
1768733901658,-0.2619171142578125,-0.9319915771484376,0.2111358642578125,-0.048095092177391,0.0587938092648983,0.0104377269744873
1768733901668,-0.2648468017578125,-0.9346771240234376,0.2153472900390625,-0.0490961745381355,0.0693676248192787,0.0100489053875207
1768733901678,-0.26007080078125,-0.9370269775390624,0.2161712646484375,-0.0477539412677288,0.0638823062181472,0.0081822965294122
1768733901689,-0.251708984375,-0.936981201171875,0.211395263671875,-0.0407303869724273,0.061001569032669,0.0103546362370252
1768733901699,-0.254302978515625,-0.9391632080078124,0.219024658203125,-0.0422659628093242,0.0479539446532726,0.0092377066612243
1768733901709,-0.25933837890625,-0.9400787353515624,0.2187957763671875,-0.0417069680988788,0.0361156612634658,0.0055899750441312
1768733901719,-0.257354736328125,-0.940032958984375,0.2179718017578125,-0.0368179343640804,0.0187659636139869,0.0056959688663482
1768733901729,-0.26123046875,-0.940032958984375,0.2199554443359375,-0.0421698242425918,0.0141144869849085,0.0004431499983184
1768733901739,-0.26123046875,-0.9379730224609376,0.215606689453125,-0.0356160514056682,0.0129205919802188,-0.001521463971585
1768733901749,-0.25628662109375,-0.941558837890625,0.2107391357421875,-0.0336658172309398,0.0068326061591506,-0.0034972631838172
1768733901759,-0.2591094970703125,-0.941619873046875,0.2147979736328125,-0.0370230004191398,0.0167057439684867,-0.0025574336759746
1768733901769,-0.257659912109375,-0.94091796875,0.2225341796875,-0.0521936975419521,0.0345513187348842,0.0026586337480694
1768733901779,-0.2611541748046875,-0.9417877197265624,0.2285614013671875,-0.0671332329511642,0.0456945188343524,0.0035449336282908
1768733901789,-0.2618560791015625,-0.9412689208984376,0.219757080078125,-0.0639512836933136,0.0156652461737394,4.367584188003093e-05
1768733901799,-0.2534027099609375,-0.9395599365234376,0.2078704833984375,-0.0513910204172134,-0.0219124890863895,-0.0007214503129944
1768733901809,-0.25848388671875,-0.939239501953125,0.20367431640625,-0.0388086475431919,-0.040110133588314,-0.0046711843460798
1768733901819,-0.258575439453125,-0.9413604736328124,0.201385498046875,-0.0272928737103939,-0.0434571951627731,-0.0045345644466578
1768733901829,-0.258941650390625,-0.942413330078125,0.205657958984375,-0.0238336939364671,-0.0329550206661224,-0.0087982853874564
1768733901839,-0.2600555419921875,-0.9415740966796876,0.2112884521484375,-0.0294649470597505,-0.0293000973761081,-0.010456102900207
1768733901849,-0.2593841552734375,-0.942413330078125,0.21331787109375,-0.0255951080471277,-0.0418537072837352,-0.0113133741542696
1768733901859,-0.25372314453125,-0.9400177001953124,0.205841064453125,-0.0247684624046087,-0.0268028527498245,-0.0058120829053223
1768733901869,-0.2512969970703125,-0.9389495849609376,0.2089385986328125,-0.0225585717707872,-0.0219031684100627,0.0005395564367063
1768733901879,-0.25323486328125,-0.9402618408203124,0.2110443115234375,-0.02693547680974,-0.0241141244769096,0.0063290023244917
1768733901890,-0.265411376953125,-0.9397430419921876,0.218048095703125,-0.0322607345879077,-0.0357856936752796,0.0024232103023678
1768733901899,-0.262969970703125,-0.93780517578125,0.2115020751953125,-0.0363297797739505,-0.0276896841824054,-0.0063737435266375
1768733901909,-0.2520599365234375,-0.9423675537109376,0.2114410400390625,-0.0424369387328624,-0.0215436406433582,-0.0032397354952991
1768733901920,-0.25347900390625,-0.9395751953125,0.207855224609375,-0.0360884964466095,-0.0064480453729629,0.0025350630749017
1768733901930,-0.2580718994140625,-0.93963623046875,0.2027587890625,-0.031098797917366,0.0147312758490443,-0.0029095034115016
1768733901940,-0.254974365234375,-0.9383697509765624,0.19696044921875,-0.0179672818630933,0.0092323804274201,0.000291083502816
1768733901950,-0.2545166015625,-0.939544677734375,0.19293212890625,-0.0008306399104185,-0.0089492863044142,0.0012825783342123
1768733901960,-0.2593536376953125,-0.9405364990234376,0.20135498046875,0.0004886900424025,0.0104228137060999,0.0042988746426999
1768733901970,-0.261688232421875,-0.940277099609375,0.2074127197265625,-0.0066520436666905,0.0408275909721851,0.0059340554289519
1768733901980,-0.261138916015625,-0.9444427490234376,0.2116546630859375,-0.0044256411492824,0.0202184524387121,0.0060930461622774
1768733901990,-0.2492523193359375,-0.9479522705078124,0.207122802734375,-0.0062184808775782,0.0174855161458253,0.0083828317001461
1768733902000,-0.2505950927734375,-0.94366455078125,0.20074462890625,0.0057777278125286,0.0058461711741983,0.0063252737745642
1768733902010,-0.2548065185546875,-0.9438323974609376,0.2005615234375,0.0119804963469505,0.0068246163427829,0.0066054384224116
1768733902020,-0.2602691650390625,-0.9407958984375,0.204986572265625,0.0186128318309783,0.0042663840577006,0.0027803401462733
1768733902030,-0.2643585205078125,-0.931304931640625,0.20318603515625,0.0278231091797351,0.0028168254066258,-0.0031454595737159
1768733902040,-0.2749176025390625,-0.9205780029296876,0.189453125,0.0527215339243412,-0.0072315474972128,-0.0178780667483806
1768733902050,-0.2578887939453125,-0.9300079345703124,0.1895599365234375,0.0624442026019096,-0.0048650624230504,-0.0092531535774469
1768733902060,-0.242950439453125,-0.9476318359375,0.1996002197265625,0.062898002564907,0.012328571639955,0.0035289546940475
1768733902070,-0.249908447265625,-0.9569091796875,0.217926025390625,0.0520996861159801,0.0371042266488075,0.003508981084451
1768733902080,-0.25750732421875,-0.955047607421875,0.224945068359375,0.0511095225811004,0.0438468158245086,0.0064512412063777
1768733902090,-0.25286865234375,-0.945831298828125,0.2290496826171875,0.0441413633525371,0.042798064649105,0.0114436028525233
1768733902100,-0.2557525634765625,-0.9391632080078124,0.2328643798828125,0.0322804413735866,0.0410198718309402,0.0067844027653336
1768733902111,-0.2759552001953125,-0.9276123046875,0.243408203125,0.0103280050680041,0.0305262170732021,-0.012877183035016
1768733902123,-0.274169921875,-0.9297637939453124,0.248382568359375,-0.0206413622945547,0.0232693701982498,-0.0265866033732891
1768733902131,-0.25897216796875,-0.9384307861328124,0.250091552734375,-0.0557455532252788,0.0093660708516836,-0.0275978054851293
1768733902141,-0.2525634765625,-0.946380615234375,0.2431488037109375,-0.0690770745277404,-0.0237412825226783,-0.0233279597014188
1768733902151,-0.257171630859375,-0.9464263916015624,0.2300262451171875,-0.086469642817974,-0.0244552753865718,-0.0267282836139202
1768733902161,-0.2587890625,-0.9452667236328124,0.215576171875,-0.090462788939476,-0.0169398356229066,-0.0290028899908065
1768733902171,-0.2498016357421875,-0.94488525390625,0.1986236572265625,-0.0755586698651313,-0.0188437290489673,-0.0181318651884794
1768733902181,-0.25115966796875,-0.9410400390625,0.185638427734375,-0.057976484298706,-0.0098342550918459,-0.0129038142040371
1768733902191,-0.2496185302734375,-0.942596435546875,0.1750946044921875,-0.0304977223277091,-0.0067969197407364,-0.0087689906358718
1768733902201,-0.2510986328125,-0.94256591796875,0.1759490966796875,-0.0111599760130047,0.005576126743108,-0.0001368864759569
1768733902211,-0.25689697265625,-0.9429473876953124,0.1845855712890625,-0.0038943404797464,0.0280790384858846,0.0014958975370973
1768733902221,-0.2639312744140625,-0.942413330078125,0.1955108642578125,-0.0008612662786617,0.0438015423715114,-0.0023046995047479
1768733902231,-0.2628021240234375,-0.94232177734375,0.1997222900390625,0.0077559240162372,0.0587527938187122,-0.005184375680983
1768733902241,-0.2548065185546875,-0.9445648193359376,0.204315185546875,0.0191129744052886,0.0403511524200439,0.0002900182444136
1768733902251,-0.2535400390625,-0.945098876953125,0.211212158203125,0.0227154325693845,0.0191390737891197,-0.000113716974738
1768733902261,-0.261260986328125,-0.9431304931640624,0.2180023193359375,0.0176407787948846,-0.0014674017438665,-0.0067548416554927
1768733902271,-0.2555694580078125,-0.9453887939453124,0.221893310546875,0.0099756689742207,-0.0030879352707415,-0.0088384989649057
1768733902281,-0.249908447265625,-0.9458770751953124,0.2191162109375,0.002069808775559,-0.0018104169284924,-0.0052682650275528
1768733902291,-0.2473907470703125,-0.945556640625,0.21685791015625,0.0027483822777867,0.0038490667939186,0.002723614918068
1768733902301,-0.2517547607421875,-0.9432373046875,0.210235595703125,0.0084744449704885,0.0051915659569203,0.0065569686703383
1768733902312,-0.2523193359375,-0.94305419921875,0.209075927734375,0.0024927188642323,0.0109913982450962,0.0054754591546952
1768733902321,-0.25592041015625,-0.9400787353515624,0.2118682861328125,-0.0038980687968432,0.0107330717146396,0.0021252024453133
1768733902331,-0.262908935546875,-0.940826416015625,0.215667724609375,-0.0144479153677821,0.0180796682834625,-0.0005528722540475
1768733902342,-0.25592041015625,-0.9426422119140624,0.21112060546875,-0.0028013791888952,-0.0119149824604392,0.0032535837963223
1768733902352,-0.2605133056640625,-0.9371795654296876,0.205291748046875,-0.0022940470371395,0.0021233384031802,-0.003580620046705
1768733902362,-0.2642974853515625,-0.9384307861328124,0.2062530517578125,0.0020327907986938,0.0150652360171079,-0.0062757390551269
1768733902372,-0.264739990234375,-0.940277099609375,0.212677001953125,-0.0061202105134725,0.0200613252818584,-0.0112041849642992
1768733902382,-0.2606964111328125,-0.941192626953125,0.2152557373046875,-0.0197811610996723,0.0214680079370737,-0.0169587433338165
1768733902392,-0.25732421875,-0.94097900390625,0.2112579345703125,-0.0165595356374979,0.0241340976208448,-0.0167928282171487
1768733902402,-0.2545318603515625,-0.9410858154296876,0.20904541015625,-0.0138268657028675,0.0268888715654611,-0.0126920929178595
1768733902412,-0.26373291015625,-0.9392852783203124,0.207794189453125,-0.0077026607468724,0.017779529094696,-0.02393489331007
1768733902422,-0.25933837890625,-0.9422454833984376,0.2064666748046875,-0.0114563861861824,0.0294582899659872,-0.0276225730776786
1768733902432,-0.2558135986328125,-0.9423828125,0.208770751953125,-0.009093097411096,0.027468642219901,-0.0261011086404323
1768733902442,-0.2607421875,-0.9420166015625,0.21124267578125,-0.0158724393695592,0.0432462729513645,-0.0280553363263607
1768733902452,-0.25592041015625,-0.94073486328125,0.2100982666015625,-0.0099469069391489,0.0547617822885513,-0.0218815971165895
1768733902462,-0.246978759765625,-0.9429931640625,0.20965576171875,-0.0082736425101757,0.0437855646014213,-0.0123011413961648
1768733902472,-0.2554779052734375,-0.941802978515625,0.215423583984375,-0.0138359209522604,0.0151390051469206,-0.0112308161333203
1768733902482,-0.2569732666015625,-0.9407501220703124,0.2121124267578125,-0.0180383883416652,0.0142942508682608,-0.0158985387533903
1768733902492,-0.254791259765625,-0.94366455078125,0.2126617431640625,-0.0234371498227119,0.0152700329199433,-0.0114571852609515
1768733902502,-0.252685546875,-0.947021484375,0.2134246826171875,-0.0268888715654611,0.0239332951605319,-0.0119400164112448
1768733902512,-0.251953125,-0.9455108642578124,0.2144012451171875,-0.0278619918972253,0.0189228244125843,-0.009264338761568
1768733902522,-0.247650146484375,-0.9436798095703124,0.2069549560546875,-0.0227351393550634,0.0139192780479788,-0.006115682888776
1768733902532,-0.2459869384765625,-0.942047119140625,0.201904296875,-0.0145637625828385,0.0148894675076007,-0.0016056197928264
1768733902542,-0.2518310546875,-0.94281005859375,0.2044525146484375,-0.0175976362079381,0.0192866120487451,0.0012908341595903
1768733902552,-0.2530364990234375,-0.9442291259765624,0.2051849365234375,-0.0217638853937387,0.0319837667047977,-0.0011566109023988
1768733902563,-0.252105712890625,-0.9415740966796876,0.207183837890625,-0.0196868851780891,0.0180240087211132,0.0015347796725109
1768733902573,-0.2593841552734375,-0.9416351318359376,0.2081756591796875,-0.0218088924884796,0.0146103678271174,-0.000794953550212
1768733902583,-0.26043701171875,-0.9441375732421876,0.209564208984375,-0.0177571587264537,0.0033262881916016,-0.0018703379901126
1768733902593,-0.256683349609375,-0.9436492919921876,0.209686279296875,-0.0206229873001575,0.0056520267389714,-0.0042370893061161
1768733902603,-0.2563018798828125,-0.9395751953125,0.2072296142578125,-0.0245873685926198,0.0096006952226161,-0.006009689066559
1768733902613,-0.254669189453125,-0.93804931640625,0.2066192626953125,-0.0236723069101572,0.0083751091733574,-0.0043769050389528
1768733902624,-0.2581787109375,-0.939239501953125,0.2086639404296875,-0.0261357296258211,0.0028964539524167,-0.0078089209273457
1768733902633,-0.2577362060546875,-0.9433746337890624,0.2077789306640625,-0.0266875363886356,0.0008181231096386,-0.0113194994628429
1768733902643,-0.25830078125,-0.9448394775390624,0.2093353271484375,-0.0253799241036176,-0.0100784664973616,-0.0164013430476188
1768733902653,-0.256072998046875,-0.9431610107421876,0.2075042724609375,-0.0240821670740842,-0.0029593044891953,-0.0147848045453429
1768733902663,-0.255859375,-0.9425506591796876,0.210235595703125,-0.0297099594026803,-0.0040125846862792,-0.0188903342932462
1768733902673,-0.2549591064453125,-0.947479248046875,0.21514892578125,-0.036604881286621,-0.0155523279681801,-0.0207140669226646
1768733902683,-0.2555694580078125,-0.9465179443359376,0.213104248046875,-0.0459328703582286,-0.0122691830620169,-0.0242254454642534
1768733902693,-0.2544403076171875,-0.9478302001953124,0.2093353271484375,-0.0474274381995201,-0.0126172583550214,-0.0269344113767147
1768733902703,-0.251617431640625,-0.9482421875,0.2076416015625,-0.0469344854354858,-0.0136063564568758,-0.017209080979228
1768733902713,-0.2518310546875,-0.946746826171875,0.203582763671875,-0.0457461811602115,0.0025758093688637,-0.0116398781538009
1768733902723,-0.2532196044921875,-0.9460906982421876,0.1956634521484375,-0.0351614505052566,0.0198464095592498,-0.0113815516233444
1768733902733,-0.252288818359375,-0.9434051513671876,0.1894378662109375,-0.0299709476530551,0.0253945719450712,-0.0085490131750702
1768733902744,-0.25323486328125,-0.9394683837890624,0.18780517578125,-0.0235332883894443,0.025049427524209,-0.0100268013775348
1768733902753,-0.2568206787109375,-0.925750732421875,0.18408203125,-0.013840714469552,0.0244020130485296,-0.0198256354779005
1768733902764,-0.261962890625,-0.9290618896484376,0.1846466064453125,0.0042946133762598,0.009664611890912,-0.0280715823173522
1768733902774,-0.2492523193359375,-0.93963623046875,0.1938934326171875,0.0081615233793854,0.0130260530859231,-0.0142452483996748
1768733902784,-0.2510223388671875,-0.954376220703125,0.207244873046875,0.002796585438773,0.0069612367078661,-0.0115381451323628
1768733902794,-0.2660675048828125,-0.9532318115234376,0.2148590087890625,-0.0035294874105602,0.0126604018732905,-0.0220658872276544
1768733902804,-0.2508697509765625,-0.9487457275390624,0.2144622802734375,-0.0017214673571288,0.0040642502717673,-0.0143805369734764
1768733902814,-0.2446136474609375,-0.9428558349609376,0.21649169921875,-0.0032700954470783,0.0126747824251651,-0.0006175870657898
1768733902824,-0.2616119384765625,-0.9321441650390624,0.22027587890625,-0.0076256953179836,0.0050149988383054,-0.0077247652225196
1768733902834,-0.27484130859375,-0.92681884765625,0.2205047607421875,-0.0265154968947172,0.0124396253377199,-0.0253354497253894
1768733902844,-0.2594757080078125,-0.9364776611328124,0.2225189208984375,-0.0471568591892719,0.017856229096651,-0.0246054772287607
1768733902854,-0.249237060546875,-0.948760986328125,0.2174224853515625,-0.0650873929262161,0.0265216212719678,-0.0220973119139671
1768733902864,-0.2419586181640625,-0.9535064697265624,0.204132080078125,-0.0690344646573066,0.0279304347932338,-0.0199950132519006
1768733902874,-0.238189697265625,-0.9520416259765624,0.190948486328125,-0.0617155618965625,0.0191068481653928,-0.0094022899866104
1768733902884,-0.2423553466796875,-0.950714111328125,0.1856231689453125,-0.0489856526255607,0.012621252797544,-0.003729490796104
1768733902894,-0.245819091796875,-0.9514007568359376,0.1849212646484375,-0.033046368509531,0.0024626250378787,0.0018293253378942
1768733902904,-0.2551422119140625,-0.9488372802734376,0.184661865234375,-0.024957813322544,0.0001640507252886,-0.0028277444653213
1768733902914,-0.2573394775390625,-0.94866943359375,0.1888427734375,-0.0206104703247547,-0.0090134683996438,-0.0068571069277822
1768733902924,-0.2529296875,-0.950164794921875,0.1859283447265625,-0.0171970967203378,0.0073457970283925,-0.0087002804502844
1768733902934,-0.2494659423828125,-0.94586181640625,0.1860504150390625,-0.0103676859289407,0.0111272195354104,-0.0108595723286271
1768733902944,-0.2464752197265625,-0.944915771484375,0.18756103515625,-0.0048133973032236,0.0170974936336278,-0.0069884010590612
1768733902954,-0.24493408203125,-0.94659423828125,0.1902618408203125,0.0012002866715192,0.0165110658854246,-0.0050482880324125
1768733902964,-0.2437286376953125,-0.9491119384765624,0.193145751953125,0.0050634681247174,0.0247002858668565,0.0018021611031144
1768733902974,-0.2401275634765625,-0.95098876953125,0.1960296630859375,0.0027667579706758,0.0272673070430755,0.0012223909143358
1768733902985,-0.238128662109375,-0.9518890380859376,0.198699951171875,0.0034013893455266,0.0179177485406398,0.0079798959195613
1768733902995,-0.24908447265625,-0.9524383544921876,0.2053985595703125,-0.0023249397054314,0.0089330412447452,0.0006628608098253
1768733903005,-0.252532958984375,-0.95233154296875,0.206573486328125,-0.010294715873897,0.0063460464589297,-0.0021710088476538
1768733903015,-0.2474822998046875,-0.9514923095703124,0.2040252685546875,-0.0172575507313013,0.0136431083083152,-0.0021166803780943
1768733903025,-0.2460479736328125,-0.950653076171875,0.2008514404296875,-0.0153965335339307,0.0082265045493841,-0.0028676919173449
1768733903035,-0.2493743896484375,-0.945343017578125,0.1980743408203125,-0.0114119118079543,0.0041934135369956,-0.0008383630774915
1768733903045,-0.25482177734375,-0.94488525390625,0.1932373046875,-0.0105932559818029,0.0103019056841731,-0.0027656927704811
1768733903055,-0.247711181640625,-0.945953369140625,0.1872406005859375,-0.0013233247445896,0.0158468727022409,0.0023094932548701
1768733903065,-0.25128173828125,-0.940521240234375,0.18402099609375,0.0125908926129341,0.009035306982696,-0.0004199804970994
1768733903075,-0.2590484619140625,-0.9364471435546876,0.1816253662109375,0.0285608042031526,0.0078081218525767,-0.0070547135546803
1768733903085,-0.2531890869140625,-0.938995361328125,0.18505859375,0.0386930666863918,0.0109107047319412,-0.0035507925786077
1768733903095,-0.2491455078125,-0.9425048828125,0.1953125,0.0406137406826019,0.0050221891142427,-0.0021196098532527
1768733903105,-0.252899169921875,-0.942779541015625,0.2049102783203125,0.040625724941492,-0.0053204633295536,0.0016935041639953
1768733903115,-0.258148193359375,-0.9450225830078124,0.21026611328125,0.0344445258378982,0.0118023306131362,0.00323121342808
1768733903125,-0.265106201171875,-0.9453887939453124,0.21820068359375,0.0231977310031652,0.0075077172368764,-0.0067979851737618
1768733903135,-0.2610931396484375,-0.9440460205078124,0.2203826904296875,0.0076350164599716,0.0027734159957617,-0.0171883087605237
1768733903145,-0.2562255859375,-0.9429931640625,0.215240478515625,-0.0038607846945524,0.006008624099195,-0.0160442143678665
1768733903155,-0.2496490478515625,-0.9421539306640624,0.209808349609375,-0.0057090185582637,0.010748784057796,-0.011690211482346
1768733903166,-0.24957275390625,-0.9435882568359376,0.2042999267578125,-0.0034384073223918,0.0087751159444451,-0.0091010862961411
1768733903176,-0.2448272705078125,-0.943695068359375,0.2017364501953125,-0.0060291304253041,0.0123725133016705,-0.0038370825350284
1768733903186,-0.2438812255859375,-0.947265625,0.1999359130859375,-0.0063327308744192,0.0022530341520905,0.0013078784104436
1768733903195,-0.2566986083984375,-0.948333740234375,0.2040557861328125,-0.0126116657629609,-0.0057425741106271,-0.0051204599440097
1768733903206,-0.2548065185546875,-0.9477081298828124,0.2022552490234375,-0.0167528819292783,-0.0015981629258021,-0.0061998390592634
1768733903216,-0.2516632080078125,-0.948760986328125,0.2014312744140625,-0.0123972808942198,0.0100944461300969,0.0034210965968668
1768733903226,-0.2553558349609375,-0.9488372802734376,0.2007293701171875,-0.0126801086589694,-0.0045662559568881,-0.0034226945135742
1768733903236,-0.2550048828125,-0.944305419921875,0.1983489990234375,-0.0140194129198789,-0.0087615335360169,-0.0055122110061347
1768733903246,-0.2458343505859375,-0.944854736328125,0.19244384765625,-0.0084960162639617,-0.0099194757640361,-0.0043279030360281
1768733903256,-0.2490081787109375,-0.942962646484375,0.1921234130859375,-0.0030389330349862,-0.0054983622394502,-0.0067319385707378
1768733903266,-0.2527923583984375,-0.94110107421875,0.1946258544921875,-0.0022282667923718,-5.645901546813547e-05,-0.0115152420476078
1768733903276,-0.2471466064453125,-0.9418792724609376,0.197235107421875,-0.002223739400506,0.0149395344778895,-0.0073391394689679
1768733903286,-0.2462310791015625,-0.9432525634765624,0.197845458984375,0.0026865969412028,0.0219207443296909,0.0014042848488315
1768733903296,-0.25323486328125,-0.9415283203125,0.198089599609375,0.0088017471134662,0.01985839381814,-0.0020485036075115
1768733903306,-0.2541046142578125,-0.9407958984375,0.1977386474609375,0.0124545386061072,0.0155776282772421,-0.0034445326309651
1768733903316,-0.254180908203125,-0.9434661865234376,0.2036895751953125,0.017186976969242,0.0030320088844746,-0.0052842441946268
1768733903326,-0.2524261474609375,-0.943328857421875,0.2076568603515625,0.0130987577140331,0.0062088938429951,-0.0094808535650372
1768733903336,-0.253509521484375,-0.942962646484375,0.211639404296875,0.0037332191132009,0.0137845212593674,-0.0132383070886135
1768733903346,-0.2534332275390625,-0.945281982421875,0.219329833984375,-0.0098720714449882,0.0107847368344664,-0.0144119625911116
1768733903356,-0.2529144287109375,-0.945526123046875,0.22119140625,-0.0243279766291379,0.0237055961042642,-0.0147741520777344
1768733903366,-0.2511138916015625,-0.9472198486328124,0.2163848876953125,-0.0360357649624347,0.0332809910178184,-0.0201838314533233
1768733903377,-0.2425537109375,-0.947723388671875,0.2112274169921875,-0.0460050404071807,0.0297168828547,-0.013644172810018
1768733903386,-0.24053955078125,-0.9448089599609376,0.2038726806640625,-0.0508163087069988,0.0311435386538505,-0.0037848844658583
1768733903396,-0.2501220703125,-0.9479522705078124,0.2005767822265625,-0.0487781912088394,0.006246177945286,-0.0075442027300596
1768733903407,-0.250030517578125,-0.952423095703125,0.1975860595703125,-0.0573085620999336,-7.190534688561456e-06,-0.0129882367327809
1768733903417,-0.2515716552734375,-0.9536285400390624,0.1978607177734375,-0.0598502829670906,-0.0060605555772781,-0.0112414695322513
1768733903427,-0.2604522705078125,-0.9535675048828124,0.1951446533203125,-0.0615198202431201,-0.0150258215144276,-0.0128478882834315
1768733903437,-0.2637481689453125,-0.949554443359375,0.187255859375,-0.0573884584009647,-0.0255178771913051,-0.018924156203866
1768733903447,-0.2532501220703125,-0.9445648193359376,0.173828125,-0.0448859818279743,-0.0186690259724855,-0.0127714555710554
1768733903457,-0.251068115234375,-0.9452056884765624,0.1692962646484375,-0.0305789485573768,-0.0049766493029892,-0.0089868372306227
1768733903467,-0.2511444091796875,-0.9450531005859376,0.1695556640625,-0.0153837502002716,0.0005478122038766,-0.0102166850119829
1768733903477,-0.2486114501953125,-0.936798095703125,0.1631011962890625,0.005461610853672,0.0138143487274646,-0.0046770432963967
1768733903487,-0.254150390625,-0.930206298828125,0.15673828125,0.0447719991207122,0.0099146822467446,-0.0151920020580291
1768733903497,-0.24041748046875,-0.93841552734375,0.1670379638671875,0.0749866291880607,0.0041508027352392,-0.0005217132274992
1768733903507,-0.2213287353515625,-0.956207275390625,0.188873291015625,0.0900886133313179,-0.0058277952484786,0.0238163825124502
1768733903517,-0.2403717041015625,-0.9588165283203124,0.2067108154296875,0.0883069559931755,-0.0021912488155066,0.0178266670554876
1768733903527,-0.2507171630859375,-0.9520111083984376,0.2099609375,0.0940921455621719,0.003523362101987,0.0114531908184289
1768733903537,-0.235748291015625,-0.9511871337890624,0.225067138671875,0.0873261168599128,-0.0078416774049401,0.0166900306940078
1768733903547,-0.250640869140625,-0.938568115234375,0.230224609375,0.0700177028775215,0.0131935663521289,0.0111429318785667
1768733903557,-0.264251708984375,-0.9308929443359376,0.234954833984375,0.048080176115036,0.0224919933825731,-0.0048307077959179
1768733903567,-0.258941650390625,-0.9331512451171876,0.2359466552734375,0.0170908365398645,0.0160095933824777,-0.0123557355254888
1768733903577,-0.251373291015625,-0.9435577392578124,0.2399749755859375,-0.0216610860079526,0.0135621475055813,-0.0142889246344566
1768733903587,-0.2498626708984375,-0.9524993896484376,0.2313079833984375,-0.043737094849348,0.0060874535702168,-0.0171566158533096
1768733903597,-0.25177001953125,-0.9525299072265624,0.212738037109375,-0.0516924895346164,-0.0042954124510288,-0.0191928688436746
1768733903608,-0.2442169189453125,-0.9505157470703124,0.1930999755859375,-0.0445205979049205,-0.0007038734620437,-0.0114206997677683
1768733903618,-0.2392578125,-0.95037841796875,0.1769256591796875,-0.020936707034707,-0.0095580853521823,-0.0047082025557756
1768733903627,-0.2405242919921875,-0.9490814208984376,0.16845703125,-0.0012213257141411,-0.0113304192200303,-0.0009885653853416
1768733903637,-0.2458038330078125,-0.94921875,0.1644439697265625,0.0240336973220109,-0.0226624347269535,-0.0007992146420292
1768733903648,-0.2444610595703125,-0.9518585205078124,0.162994384765625,0.0473845601081848,-0.0194517280906438,-0.0020426444243639
1768733903658,-0.2459869384765625,-0.9509735107421876,0.175506591796875,0.0580742210149765,-0.0139301968738436,-0.0006245112745091
1768733903668,-0.2479705810546875,-0.9506683349609376,0.1850433349609375,0.0690802708268165,-0.0041207089088857,0.0007499461644329
1768733903678,-0.245025634765625,-0.9483184814453124,0.1918487548828125,0.079613871872425,0.0070395334623754,0.0072459285147488
1768733903688,-0.254180908203125,-0.9451751708984376,0.2025909423828125,0.083895169198513,0.0089559443295001,0.0056214001961052
1768733903698,-0.249755859375,-0.9446258544921876,0.20574951171875,0.086631029844284,0.0129059450700879,0.0042275018058717
1768733903708,-0.2404327392578125,-0.943267822265625,0.2093353271484375,0.0830163210630416,0.0004535363405011,0.0085482141003012
1768733903718,-0.2451629638671875,-0.94256591796875,0.2193450927734375,0.0770590975880622,0.0035697009880095,0.0092251896858215
1768733903728,-0.243255615234375,-0.9431915283203124,0.2233123779296875,0.0640820488333702,0.0058821239508688,0.0163435526192188
1768733903738,-0.242218017578125,-0.94580078125,0.225799560546875,0.0523830465972423,-0.0020461066160351,0.0186365339905023
1768733903748,-0.246856689453125,-0.945281982421875,0.2252960205078125,0.040644098073244,-0.0001776328426785,0.0195715706795454
1768733903758,-0.2526092529296875,-0.9476165771484376,0.2328338623046875,0.0214592199772596,-0.0092480927705764,0.0123187182471156
1768733903768,-0.2578582763671875,-0.950042724609375,0.234710693359375,-0.0055774580687284,-0.0041950112208724,0.0029856697656214
1768733903778,-0.252288818359375,-0.95001220703125,0.2326507568359375,-0.0241844318807125,-0.002298840554431,0.0077415429987013
1768733903788,-0.252227783203125,-0.94927978515625,0.2260589599609375,-0.0315323583781719,-0.0136020947247743,0.008846222423017
1768733903798,-0.2587890625,-0.9398193359375,0.2179718017578125,-0.0393865555524826,-0.009067797102034,0.0008602010202594
1768733903808,-0.2600555419921875,-0.935302734375,0.209075927734375,-0.0367782525718212,-0.0091458279639482,-0.0038008634001016
1768733903818,-0.251251220703125,-0.93768310546875,0.20281982421875,-0.0369641445577144,0.0044914209283888,-0.0010527475969865
1768733903829,-0.2507476806640625,-0.93975830078125,0.2028961181640625,-0.0373513661324977,0.002658367389813,0.0016341155860573
1768733903838,-0.2519378662109375,-0.9412078857421876,0.1961669921875,-0.0292239319533109,-0.0065407236106693,-0.002404834376648
1768733903849,-0.248199462890625,-0.9419097900390624,0.1915740966796875,-0.0250899065285921,0.0019443739438429,-0.0026069683954119
1768733903859,-0.2485809326171875,-0.944732666015625,0.19354248046875,-0.0196735691279172,0.0070517840795218,-0.0036706349346786
1768733903869,-0.24761962890625,-0.948883056640625,0.1981048583984375,-0.0137491011992096,0.0041156490333378,-0.0006255765329115
1768733903879,-0.2438201904296875,-0.944580078125,0.19903564453125,-0.0026972496416419,0.0031372036319226,0.0045268409885466
1768733903889,-0.2546234130859375,-0.9424896240234376,0.1980743408203125,0.0101322624832391,0.00476785749197,0.0020506340079009
1768733903899,-0.2552490234375,-0.9456939697265624,0.2106781005859375,-0.0044746431522071,0.0127767818048596,-0.0018463695887476
1768733903909,-0.251251220703125,-0.9474639892578124,0.215057373046875,-0.0154876131564378,0.0096201365813612,-0.002364088082686
1768733903919,-0.2508697509765625,-0.944061279296875,0.2083282470703125,-0.0168913658708333,0.0059646819718182,-0.0056738648563623
1768733903929,-0.2486724853515625,-0.94378662109375,0.2075042724609375,-0.0124694528058171,0.0016703346045687,-0.003761715022847
1768733903939,-0.2476959228515625,-0.9445648193359376,0.2083282470703125,-0.0108688930049538,-0.0097258640453219,-0.0050663975998759
1768733903949,-0.2564697265625,-0.9460296630859376,0.2088470458984375,-0.0123030049726367,-0.0116542587056756,-0.0150955962017178
1768733903959,-0.249298095703125,-0.945770263671875,0.2093353271484375,-0.0101876566186547,-0.0099010998383164,-0.0095146754756569
1768733903969,-0.2473602294921875,-0.944366455078125,0.2059326171875,-0.0107093695551157,-0.0019757992122322,-0.0076600504107773
1768733903979,-0.2490692138671875,-0.9446563720703124,0.2071380615234375,-0.0158125180751085,-0.0009659285424277,-0.0067966533824801
1768733903989,-0.2445220947265625,-0.944061279296875,0.2058563232421875,-0.0122657213360071,-0.0080613885074853,-0.0032735576387494
1768733903999,-0.24615478515625,-0.941986083984375,0.2053375244140625,-0.0127682592719793,-0.0062901200726628,0.0028650285676121
1768733904009,-0.252197265625,-0.94366455078125,0.20562744140625,0.0016197345685213,-0.0162812359631061,0.0022564963437616
1768733904019,-0.24884033203125,-0.9446563720703124,0.2086944580078125,-0.0059625511057674,-0.003991013392806,-0.0025276062078773
1768733904029,-0.2489166259765625,-0.94647216796875,0.2143096923828125,-0.0114462664350867,-0.0092108091339468,-0.0064839981496334
1768733904039,-0.247406005859375,-0.9482879638671876,0.210723876953125,-0.0159595254808664,-0.0052746566943824,-0.005216599907726
1768733904050,-0.24346923828125,-0.9462738037109376,0.2061309814453125,-0.0137277962639927,-0.0040780985727906,-0.004275971557945
1768733904060,-0.2408905029296875,-0.9458770751953124,0.201812744140625,-0.0094731301069259,0.0021869877818971,-0.0018722022650763
1768733904070,-0.2381439208984375,-0.9450531005859376,0.2053375244140625,-0.0093652717769145,0.0151635063812136,0.0055747949518263
1768733904080,-0.2454071044921875,-0.94512939453125,0.2100067138671875,-0.0094323838129639,0.0176642145961523,0.0057281930930912
1768733904090,-0.2511444091796875,-0.9419708251953124,0.211761474609375,-0.0155283594503998,0.0212533567100763,-0.0009768474847078
1768733904100,-0.246368408203125,-0.9434051513671876,0.207427978515625,-0.0097490334883332,0.0060712085105478,0.0027827369049191
1768733904110,-0.2487945556640625,-0.9417724609375,0.202362060546875,-0.0061542987823486,-0.0038807583041489,0.0020516992080956
1768733904120,-0.2490081787109375,-0.94305419921875,0.2033233642578125,-0.0050051449798047,-0.0100494381040334,0.0005845638806931
1768733904130,-0.2506256103515625,-0.942779541015625,0.2069854736328125,-0.0130958287045359,-0.0078552598133683,-0.0003837615076918
1768733904140,-0.2550506591796875,-0.941986083984375,0.2071380615234375,-0.0196543950587511,0.0036597158759832,-0.005888249259442
1768733904150,-0.256866455078125,-0.942596435546875,0.20355224609375,-0.0186264142394065,0.0072904033586382,-0.0069913305342197
1768733904160,-0.252838134765625,-0.944976806640625,0.1962890625,-0.0046794405207037,0.001014131703414,-0.004504204262048
1768733904170,-0.2535247802734375,-0.947784423828125,0.1889190673828125,0.0029723541811108,-0.0004026699461974,-0.0036938043776899
1768733904180,-0.25054931640625,-0.9481964111328124,0.1861419677734375,0.014136591926217,0.0018761969404295,-0.0053039514459669
1768733904190,-0.2488555908203125,-0.9431610107421876,0.1870880126953125,0.0229226257652044,0.0081122545525431,0.0002476739755365
1768733904200,-0.259796142578125,-0.9304962158203124,0.1894073486328125,0.0318655222654342,0.0131754567846655,-0.0145895956084132
1768733904210,-0.261260986328125,-0.9308929443359376,0.1905517578125,0.0487683378159999,0.0129227228462696,-0.0154298227280378
1768733904220,-0.238433837890625,-0.9505462646484376,0.2100830078125,0.0481462255120277,-0.001832521171309,0.0067314058542251
1768733904230,-0.2431793212890625,-0.9593505859375,0.2266082763671875,0.0307491235435009,0.0050940946675837,0.0104888603091239
1768733904240,-0.2608795166015625,-0.9556884765625,0.2241363525390625,0.0194586534053087,0.0147493854165077,-0.0046482812613248
1768733904251,-0.2505340576171875,-0.9532470703125,0.2307281494140625,0.0032551817130297,0.0099977729842066,-0.0034655714407563
1768733904261,-0.24298095703125,-0.945281982421875,0.220977783203125,0.0121898204088211,-0.0022040321491658,0.0014250575331971
1768733904270,-0.2537994384765625,-0.9297637939453124,0.2103271484375,0.0160402189940214,0.0040868869982659,-0.006517554167658
1768733904281,-0.2631683349609375,-0.9238128662109376,0.21063232421875,0.0128324413672089,-0.0037497307639569,-0.0185358673334121
1768733904291,-0.251983642578125,-0.9333343505859376,0.2167205810546875,-0.0064283381216228,-0.001219195080921,-0.0229082442820072
1768733904301,-0.2436676025390625,-0.9428558349609376,0.2237548828125,-0.0242382269352674,-0.0005238438025116,-0.0172567516565322
1768733904311,-0.2457733154296875,-0.945709228515625,0.223114013671875,-0.0373947769403457,-0.0006245112745091,-0.0172050856053829
1768733904321,-0.242828369140625,-0.944793701171875,0.21685791015625,-0.0427029877901077,0.0018695390317589,-0.0117775639519095
1768733904331,-0.2411346435546875,-0.9462738037109376,0.21197509765625,-0.0421929918229579,0.0079450085759162,-0.0085069350898265
1768733904341,-0.2445526123046875,-0.9491424560546876,0.2074127197265625,-0.0399982817471027,-0.0052922335453331,-0.0106334695592522
1768733904351,-0.2397918701171875,-0.9517822265625,0.199188232421875,-0.0285815764218568,-0.0174940396100282,-0.0085141258314251
1768733904361,-0.24169921875,-0.9524688720703124,0.1990203857421875,-0.0220690835267305,-0.0137163447216153,-0.0060062273405492
1768733904371,-0.24688720703125,-0.953643798828125,0.2004547119140625,-0.0168066769838333,-0.0096142776310443,-0.0092976279556751
1768733904381,-0.25152587890625,-0.9524993896484376,0.20562744140625,-0.0148822767660021,-0.0132034197449684,-0.0096182720735669
1768733904391,-0.2476959228515625,-0.94696044921875,0.2047576904296875,-0.014854846522212,0.0008210525847971,-0.0080019999295473
1768733904401,-0.244659423828125,-0.9469451904296876,0.2060089111328125,-0.0152362110093235,0.0062645538710057,-0.0052562812343239
1768733904411,-0.245574951171875,-0.9468536376953124,0.2051239013671875,-0.0128369685262441,0.0024575649295002,-0.0029907298739999
1768733904421,-0.2462158203125,-0.945098876953125,0.203369140625,-0.0079319588840007,0.0002005360292969,-0.0031028490047901
1768733904431,-0.2428436279296875,-0.9427490234375,0.1996002197265625,-0.000949150591623,0.0049841059371829,-0.0013257216196507
1768733904441,-0.2432708740234375,-0.945343017578125,0.1967620849609375,0.0038613171782344,0.010734137147665,-0.0002205097407568
1768733904451,-0.2435150146484375,-0.9464111328125,0.1974334716796875,0.0120619889348745,0.0104664890095591,0.0048821070231497
1768733904461,-0.2452392578125,-0.9457244873046876,0.19677734375,0.0182511750608682,0.0103056346997618,0.0071196947246789
1768733904471,-0.2472381591796875,-0.9461517333984376,0.1976318359375,0.0221804026514291,0.0060709421522915,0.0073319487273693
1768733904481,-0.2529144287109375,-0.94403076171875,0.20208740234375,0.021385982632637,0.0097287939861416,0.002429868094623
1768733904492,-0.253631591796875,-0.945709228515625,0.2052764892578125,0.0191249586641788,0.0101298661902546,0.0003440804139245
1768733904502,-0.2459869384765625,-0.9485321044921876,0.2125396728515625,0.0134897101670503,0.0112281534820795,0.0055825184099376
1768733904512,-0.25244140625,-0.9430084228515624,0.2172088623046875,0.0043787695467472,0.0165342353284358,0.0033949976786971
1768733904522,-0.2569580078125,-0.9386749267578124,0.2181854248046875,-0.0043191146105527,0.0185292102396488,0.0022591594606637
1768733904532,-0.25836181640625,-0.93780517578125,0.2193450927734375,-0.0154729662463068,0.0138329910114407,-0.0089721893891692
1768733904542,-0.2511749267578125,-0.9400634765625,0.219451904296875,-0.0236257016658782,-0.0005267732776701,-0.0123237781226634
1768733904552,-0.246856689453125,-0.9418792724609376,0.2169647216796875,-0.0309262238442897,0.0017358483746647,-0.0089580751955509
1768733904562,-0.247344970703125,-0.94482421875,0.219390869140625,-0.0369375124573707,0.0012010856298729,-0.0120494719594717
1768733904572,-0.247711181640625,-0.946075439453125,0.2159423828125,-0.0449365824460983,0.0049793124198913,-0.0142481783404946
1768733904582,-0.244842529296875,-0.9464263916015624,0.214691162109375,-0.0481712557375431,0.0030605047941207,-0.0116310892626643
1768733904592,-0.2392730712890625,-0.94659423828125,0.2095184326171875,-0.0425988584756851,-0.000794154650066,-0.0037646444980055
1768733904602,-0.2411346435546875,-0.945831298828125,0.205841064453125,-0.0401151962578296,0.0044450820423662,-0.0007494135061278
1768733904612,-0.246734619140625,-0.9459228515625,0.208038330078125,-0.0363910309970378,-0.0123338978737592,0.005387841258198
1768733904622,-0.2501220703125,-0.9464111328125,0.2071380615234375,-0.0405626073479652,-0.0039236349985003,0.0036767602432519
1768733904632,-0.2451324462890625,-0.944549560546875,0.2038116455078125,-0.0437211170792579,0.0055188685655593,0.0040027312934398
1768733904642,-0.2443084716796875,-0.946014404296875,0.203033447265625,-0.0445035509765148,0.0124747790396213,0.0073564499616622
1768733904652,-0.2503509521484375,-0.947052001953125,0.202850341796875,-0.0435514710843563,0.0189446620643138,0.0085125276818871
1768733904662,-0.2490081787109375,-0.9470062255859376,0.19482421875,-0.0321787074208259,0.0189696960151195,0.0060789315029978
1768733904672,-0.2422637939453125,-0.9480743408203124,0.1929473876953125,-0.0243322364985942,0.0168815124779939,0.0082371570169925
1768733904682,-0.241058349609375,-0.9444580078125,0.1927032470703125,-0.0171195976436138,0.0004820321628358,0.010227870196104
1768733904693,-0.2483978271484375,-0.9433746337890624,0.1925048828125,-0.006705040577799,-0.003760915948078,0.0074509922415018
1768733904703,-0.2490692138671875,-0.943603515625,0.19366455078125,0.0007147924043238,0.0021883193403482,0.0061612231656908
1768733904713,-0.2474822998046875,-0.9421539306640624,0.19635009765625,0.0078960061073303,-0.0023648869246244,0.0081407511606812
1768733904723,-0.248382568359375,-0.9420623779296876,0.2003021240234375,0.0079599218443036,0.005307413637638,0.010471548885107
1768733904733,-0.254150390625,-0.942657470703125,0.20379638671875,0.0062080947682261,0.0069396649487316,0.0064938520081341
1768733904743,-0.2520904541015625,-0.94464111328125,0.2075653076171875,0.0006151901907287,0.0065814699046313,0.0038362834602594
1768733904753,-0.2485198974609375,-0.943450927734375,0.2071075439453125,-0.0033140375744551,0.0130739901214838,7.776429993100464e-05
1768733904763,-0.2505645751953125,-0.9448089599609376,0.2030792236328125,-0.0050299121066927,0.0136801255866885,-0.000794953550212
1768733904773,-0.2421722412109375,-0.9440765380859376,0.205474853515625,-0.007775364909321,0.0136164762079715,0.0056767943315207
1768733904783,-0.2432403564453125,-0.946441650390625,0.2082366943359375,-0.0052421661093831,-0.0026562367565929,0.0106566390022635
1768733904793,-0.248931884765625,-0.9451446533203124,0.2052154541015625,-0.0109000522643327,0.0057689393870532,0.0070336745120584
1768733904803,-0.247161865234375,-0.9446868896484376,0.2059478759765625,-0.0140050314366817,0.0011848403373733,0.0087317060679197
1768733904813,-0.250701904296875,-0.94317626953125,0.2028045654296875,-0.0134497620165348,0.0023198795970529,0.0069439262151718
1768733904823,-0.25286865234375,-0.9437713623046876,0.2021026611328125,-0.0116571886464953,0.0043758400715887,0.0074664382264018
1768733904833,-0.2508544921875,-0.94439697265625,0.204315185546875,-0.0117083210498094,0.004063184838742,0.0053420346230268
1768733904843,-0.2565460205078125,-0.9450531005859376,0.20220947265625,-0.0091980258002877,0.0028429245576262,0.005616073962301
1768733904853,-0.2552490234375,-0.9474029541015624,0.2001495361328125,-0.0114755611866712,0.0030077740084379,0.0006668555433861
1768733904863,-0.2453155517578125,-0.9468994140625,0.197967529296875,-0.0070270169526338,0.0022991069126874,-4.793690095539205e-05
1768733904873,-0.2435455322265625,-0.9474945068359376,0.1948394775390625,-0.0018322548130527,0.0087112002074718,0.0034610440488904
1768733904883,-0.24615478515625,-0.9485015869140624,0.20037841796875,-0.005085039883852,0.0059899818152189,0.004219246096909
1768733904893,-0.247589111328125,-0.9479217529296876,0.2024078369140625,-0.0019401127938181,0.005716208834201,0.0067093018442392
1768733904903,-0.2542572021484375,-0.935638427734375,0.1986083984375,0.0015864450251683,0.0060064936988055,0.0012932310346513
1768733904914,-0.26922607421875,-0.9270782470703124,0.19305419921875,0.0160934831947088,-0.0093628754839301,-0.0176202729344367
1768733904923,-0.25469970703125,-0.9351043701171876,0.2009124755859375,0.018313493579626,-0.0095234643667936,-0.0109043130651116
1768733904934,-0.231475830078125,-0.96063232421875,0.2183685302734375,0.0022913836874067,0.0009139968897216,0.0053606769070029
1768733904944,-0.2480621337890625,-0.96002197265625,0.22271728515625,-0.0156729687005281,0.008732771500945,-0.000582167005632
1768733904954,-0.2525177001953125,-0.954376220703125,0.2129669189453125,-0.0216016992926597,0.0066714850254356,-0.0059974389150738
1768733904964,-0.2347412109375,-0.9465179443359376,0.2104339599609375,-0.0207955595105886,0.0018471685471013,0.0021086910273879
1768733904974,-0.249603271484375,-0.93798828125,0.19976806640625,-0.0092233261093497,0.0061066281050443,-0.0028208203148096
1768733904984,-0.264007568359375,-0.9290313720703124,0.19683837890625,-0.0019004317000508,0.0056056878529489,-0.0149041144177317
1768733904994,-0.2574462890625,-0.92962646484375,0.197021484375,-0.0048019457608461,0.0052725262939929,-0.0237697772681713
1768733905004,-0.2467498779296875,-0.94158935546875,0.2020111083984375,-0.0147632332518696,0.0094166714698076,-0.0209335107356309
1768733905014,-0.24407958984375,-0.9480438232421876,0.2027740478515625,-0.0200256388634443,0.0119978068396449,-0.0128761176019907
1768733905024,-0.2462615966796875,-0.9524078369140624,0.1997833251953125,-0.0174511615186929,0.0011795139871537,-0.0120284333825111
1768733905034,-0.241668701171875,-0.9507598876953124,0.19598388671875,-0.0119168469682335,-0.0022679478861391,-0.0070898672565817
1768733905044,-0.2415771484375,-0.950225830078125,0.1962127685546875,-0.0079023977741599,-0.0043255062773823,-0.0063761402852833
1768733905054,-0.2508697509765625,-0.9500274658203124,0.192535400390625,0.0018943065078929,-0.0016825852217152,-0.0042621227912604
1768733905064,-0.2490081787109375,-0.9498443603515624,0.1981964111328125,0.001046355930157,-0.0050336406566202,-0.0106739494949579
1768733905074,-0.2448883056640625,-0.946929931640625,0.192840576171875,0.0102885905653238,-0.0098467720672488,-0.0053723948076367
1768733905084,-0.250946044921875,-0.9458160400390624,0.1916351318359375,0.0240435507148504,-0.0074776238761842,-0.0070464578457176
1768733905094,-0.2480926513671875,-0.945068359375,0.1920928955078125,0.032888974994421,0.0009116000146605,-0.004202201962471
1768733905104,-0.244232177734375,-0.9450225830078124,0.1949615478515625,0.0392858870327472,0.0056693372316658,0.0010772485984489
1768733905114,-0.24774169921875,-0.94610595703125,0.20001220703125,0.0406150706112384,0.0076083848252892,-0.0003818972909357
1768733905124,-0.2451019287109375,-0.9463653564453124,0.2076873779296875,0.0357438810169696,0.0021244036033749,-0.0001352885883534
1768733905134,-0.2430572509765625,-0.94769287109375,0.2153167724609375,0.0268902033567428,0.009361277334392,0.0047950213775038
1768733905145,-0.2472686767578125,-0.947906494140625,0.2179412841796875,0.0148082403466105,0.0102361254394054,0.0041428133845329
1768733905155,-0.2482757568359375,-0.9475250244140624,0.21844482421875,0.002846652874723,0.0036804885603487,0.0013041499769315
1768733905165,-0.2448272705078125,-0.94720458984375,0.217132568359375,-0.0064435182139277,0.0067545752972364,0.0027798074297606
1768733905175,-0.2452545166015625,-0.947296142578125,0.2191009521484375,-0.0139397839084267,0.0029028456192463,0.0059220711700618
1768733905185,-0.248870849609375,-0.9488677978515624,0.217742919921875,-0.0261634271591901,0.0120843593031167,0.0062152855098247
1768733905195,-0.25445556640625,-0.9457855224609376,0.2099761962890625,-0.0354192443192005,0.0090028159320354,-0.0032077773939818
1768733905205,-0.25115966796875,-0.9455108642578124,0.20697021484375,-0.0365031510591506,-0.0097932424396276,-0.0052813147194683
1768733905215,-0.24456787109375,-0.9475250244140624,0.2034912109375,-0.0301275420933961,-0.0345467925071716,0.0031995216850191
1768733905226,-0.2466278076171875,-0.9475555419921876,0.19989013671875,-0.0219630897045135,-0.0140971764922142,0.0052418997511267
1768733905235,-0.2542724609375,-0.9430999755859376,0.192626953125,-0.017354754731059,0.000834102043882,0.0008061388507485
1768733905245,-0.2488250732421875,-0.9374847412109376,0.187164306640625,-0.0101541001349687,-0.0059412461705505,-0.0024564997293055
1768733905255,-0.245849609375,-0.9351959228515624,0.1830291748046875,0.0060211410745978,-0.0057617491111159,-0.0017145430902019
1768733905265,-0.2481231689453125,-0.940155029296875,0.1955413818359375,0.0103967143222689,-0.008756473660469,-0.0012538161827251
1768733905275,-0.249542236328125,-0.9455108642578124,0.2059326171875,0.0090949609875679,0.0013307816116139,-0.0014948323369026
1768733905285,-0.2490234375,-0.9478302001953124,0.2096099853515625,0.0021544971968978,0.0069846725091338,0.0007241134881041
1768733905295,-0.2449798583984375,-0.9448394775390624,0.206756591796875,-0.0011875035706907,0.0042972764931619,-0.0006791060441173
1768733905305,-0.2500762939453125,-0.943511962890625,0.20648193359375,0.0002375539625063,0.0060477722436189,-0.0064003751613199
1768733905315,-0.248046875,-0.9453277587890624,0.2071075439453125,-0.0012591425329446,0.0021736719645559,-0.0052211270667612
1768733905325,-0.247833251953125,-0.94879150390625,0.2129364013671875,-0.0069753513671457,0.0024525050539523,-0.0018612833227962
1768733905335,-0.249664306640625,-0.9478912353515624,0.208526611328125,-0.0100880544632673,0.0026975157670676,-0.004988367203623
1768733905346,-0.2508697509765625,-0.9478302001953124,0.2053680419921875,-0.0153243616223335,0.002322542713955,-0.0095889773219823
1768733905356,-0.246002197265625,-0.9457855224609376,0.2021942138671875,-0.0112108429893851,-0.015762984752655,-0.0046221823431551
1768733905366,-0.2509765625,-0.9462432861328124,0.1984100341796875,0.0053827813826501,-0.0439155250787735,-0.0064714811742305
1768733905376,-0.249298095703125,-0.9455413818359376,0.1909637451171875,0.012671853415668,-0.035662654787302,-0.0083444826304912
1768733905386,-0.24310302734375,-0.9461517333984376,0.192535400390625,0.0210709311068058,-0.0264372006058692,-0.0047007454559206
1768733905396,-0.2444305419921875,-0.94525146484375,0.196014404296875,0.0223551057279109,-0.0139741385355591,-0.0045806369744241
1768733905406,-0.2461090087890625,-0.944366455078125,0.197967529296875,0.0239255726337432,-0.0059319250285625,-0.0024019049014896
1768733905416,-0.2402801513671875,-0.94427490234375,0.198089599609375,0.0323345027863979,-0.0102574313059449,0.0057654771953821
1768733905426,-0.2477569580078125,-0.94744873046875,0.2028656005859375,0.0326231904327869,-0.0004988100845366,0.0029340046457946
1768733905436,-0.2471771240234375,-0.943084716796875,0.206512451171875,0.0294242016971111,0.0037971350830048,0.0015081481542438
1768733905446,-0.245941162109375,-0.9443817138671876,0.2164154052734375,0.0221231449395418,0.0017073525814339,0.0044376254081726
1768733905456,-0.2456817626953125,-0.9445953369140624,0.2188568115234375,0.0112547846511006,0.0106116319075226,0.0067031765356659
1768733905466,-0.2479400634765625,-0.9445037841796876,0.218719482421875,0.004962267819792,0.0214632134884595,0.0074331490322947
1768733905476,-0.254638671875,-0.944061279296875,0.217864990234375,-0.0042211101390421,0.0123149892315268,0.0040506678633391
1768733905486,-0.256134033203125,-0.943450927734375,0.2168731689453125,-0.0114955343306064,0.0083194486796855,-0.0032250881195068
1768733905496,-0.25103759765625,-0.944244384765625,0.2104949951171875,-0.0150782857090234,0.0006663228850811,-0.0069929282180964
1768733905506,-0.246673583984375,-0.94384765625,0.2086334228515625,-0.014487063512206,-0.0088518150150775,-0.0083846962079405
1768733905516,-0.2436981201171875,-0.9453125,0.2062530517578125,-0.0169491562992334,-0.0100185452029109,-0.007228351663798
1768733905526,-0.246826171875,-0.943389892578125,0.2062835693359375,-0.015049522742629,-0.0048906290903687,-0.0021068267524242
1768733905536,-0.2471771240234375,-0.943695068359375,0.2053680419921875,-0.0100784664973616,-0.0038882151711732,-0.0014578143600374
1768733905547,-0.248199462890625,-0.9437408447265624,0.2022552490234375,-0.0032892702147364,-0.0096070868894457,-0.0051060789264738
1768733905557,-0.24652099609375,-0.943817138671875,0.1981353759765625,0.0016796556301414,-0.0045233792625367,-0.0030128341168165
1768733905567,-0.24591064453125,-0.946197509765625,0.1989288330078125,0.0077133132144808,0.0026357304304838,-0.0027246801182627
1768733905577,-0.2483673095703125,-0.9459228515625,0.1999969482421875,0.0104063022881746,0.0035012578591704,-0.001276186783798
1768733905587,-0.2508697509765625,-0.9486541748046876,0.2009735107421875,0.0158889517188072,-0.0048368331044912,-0.006907707080245
1768733905597,-0.25054931640625,-0.9487152099609376,0.2027130126953125,0.0170586127787828,-0.0041212416253983,-0.0080643184483051
1768733905607,-0.249664306640625,-0.94940185546875,0.20355224609375,0.0199824962764978,-0.0111389374360442,-0.0110140349715948
1768733905617,-0.2499847412109375,-0.9459686279296876,0.202301025390625,0.0215082205832004,-0.017618941143155,-0.0139602907001972
1768733905627,-0.2477264404296875,-0.938079833984375,0.19915771484375,0.0249719284474849,-0.0132582811638712,-0.0165246482938528
1768733905637,-0.2553863525390625,-0.9263153076171876,0.195953369140625,0.0379239469766616,-0.0082595273852348,-0.0284300427883863
1768733905647,-0.25439453125,-0.9315948486328124,0.203094482421875,0.0424433313310146,-0.0080712419003248,-0.0309648402035236
1768733905657,-0.2381744384765625,-0.9448699951171876,0.2156829833984375,0.0373079553246498,-0.0078296931460499,-0.0184796750545501
1768733905667,-0.23291015625,-0.95989990234375,0.2309722900390625,0.0170389041304588,-0.0101506384089589,-0.0129395006224513
1768733905677,-0.247406005859375,-0.958953857421875,0.230255126953125,0.0007060039788484,0.0018524948973208,-0.0186650305986404
1768733905687,-0.24017333984375,-0.9530792236328124,0.22418212890625,-0.0048139300197362,0.0014823154779151,-0.0120388194918632
1768733905697,-0.2370147705078125,-0.9454803466796876,0.2202606201171875,-0.0087668597698211,0.0005872269975952,-0.0109168300405144
1768733905707,-0.247467041015625,-0.9344482421875,0.2153778076171875,-0.0096198702231049,0.0012152004055678,-0.018130799755454
1768733905717,-0.257476806640625,-0.927947998046875,0.2141265869140625,-0.0111450627446174,0.0045667886734008,-0.0263165589421987
1768733905727,-0.2492523193359375,-0.9364776611328124,0.2158050537109375,-0.0220642890781164,0.0001693770464044,-0.0258550327271223
1768733905737,-0.2401275634765625,-0.9444732666015624,0.2156524658203125,-0.0349225625395774,-0.0006109291571192,-0.0167094711214303
1768733905747,-0.2390594482421875,-0.9521331787109376,0.2102813720703125,-0.0366581454873085,-0.008207862265408,-0.013749367557466
1768733905757,-0.2395477294921875,-0.9525146484375,0.201263427734375,-0.0320713818073272,0.0003821636200882,-0.0150018529966473
1768733905768,-0.236175537109375,-0.9492645263671876,0.1966400146484375,-0.0228398013859987,-0.0044432180002331,-0.0112017877399921
1768733905778,-0.2387237548828125,-0.9485931396484376,0.1968536376953125,-0.0156199727207422,-0.0020674120169132,-0.0058115501888096
1768733905788,-0.242462158203125,-0.947998046875,0.19561767578125,-0.0095373122021555,0.0084973480552434,-0.0030905983876436
1768733905798,-0.244659423828125,-0.948089599609375,0.1982879638671875,-0.0077242325060069,0.012671853415668,-0.0031662322580814
1768733905808,-0.2458038330078125,-0.94757080078125,0.199737548828125,-0.0030778152868151,0.0058498997241258,-0.0043265712447464
1768733905818,-0.248504638671875,-0.9472808837890624,0.1999664306640625,0.0029145635198801,0.0045047369785606,-0.0070613715797662
1768733905828,-0.2462158203125,-0.9463043212890624,0.2006988525390625,0.0084597971290349,0.0069300779141485,-0.0058642807416617
1768733905838,-0.24298095703125,-0.947174072265625,0.20404052734375,0.0163542050868272,0.0207923632115125,0.0014929680619388
1768733905848,-0.2426910400390625,-0.9484405517578124,0.2102508544921875,0.0174231994897127,0.0229788180440664,0.0012165319640189
1768733905858,-0.2446746826171875,-0.9466094970703124,0.21600341796875,0.0100339921191334,0.021522868424654,-0.0009502158500254
1768733905868,-0.243255615234375,-0.9484100341796876,0.218475341796875,0.0020466393325477,0.0277554653584957,-0.0021462414879351
1768733905878,-0.2396240234375,-0.9483795166015624,0.219085693359375,-0.0062440475448966,0.0110864732414484,-0.0041872882284224
1768733905888,-0.2431793212890625,-0.948089599609375,0.2191925048828125,-0.0145057057961821,0.0038895467296242,-0.0010338390711694
1768733905898,-0.244049072265625,-0.949676513671875,0.2171173095703125,-0.0205654632300138,0.0030682277865707,-0.0025371934752911
1768733905909,-0.239898681640625,-0.949188232421875,0.2127532958984375,-0.0251287892460823,0.011863850057125,0.0035451999865472
1768733905918,-0.2385101318359375,-0.947418212890625,0.2065582275390625,-0.0245751179754734,0.0152423363178968,0.0031851406674832
1768733905928,-0.2444305419921875,-0.944488525390625,0.201690673828125,-0.0227250196039676,0.0132862441241741,0.0005113269435241
1768733905938,-0.2461395263671875,-0.945709228515625,0.19976806640625,-0.0147523144260048,0.0020607539918273,0.0022695458028465
1768733905949,-0.2409820556640625,-0.944000244140625,0.1934051513671875,-0.0037462685722857,0.0130191296339035,0.0049870354123413
