timestamp_ms,acc_x,acc_y,acc_z,gyro_x,gyro_y,gyro_z
1769247417304,-0.12713623046875,-0.978057861328125,0.2060546875,0.0277610570192337,0.0120460102334618,0.0009867012267932
1769247417316,-0.1244354248046875,-0.978179931640625,0.2138824462890625,0.0044458811171352,0.0003973436250817,0.0015819176333025
1769247417322,-0.127716064453125,-0.9684600830078124,0.213104248046875,-0.0138372527435421,-0.0113724963739514,-0.0034035197459161
1769247417333,-0.140350341796875,-0.9532928466796876,0.2040557861328125,-0.0220163520425558,-0.032414399087429,-0.0197936780750751
1769247417342,-0.156097412109375,-0.936248779296875,0.1936492919921875,-0.0329731293022632,-0.0296228732913732,-0.0333140157163143
1769247417352,-0.154266357421875,-0.94024658203125,0.189788818359375,-0.0281975492835044,-0.0521452277898788,-0.0383465886116027
1769247417362,-0.137664794921875,-0.9599151611328124,0.180328369140625,-0.035334289073944,-0.0396142527461051,-0.0257865898311138
1769247417373,-0.1121063232421875,-0.9922637939453124,0.19989013671875,-0.0523327142000198,-0.0386906713247299,-0.0055710668675601
1769247417383,-0.08624267578125,-1.00927734375,0.2131195068359375,-0.0670352280139923,-0.0264614354819059,0.0064304685220122
1769247417393,-0.09564208984375,-1.0107421875,0.213043212890625,-0.0824040621519088,0.026046248152852,-0.026953587308526
1769247417403,-0.155029296875,-0.98583984375,0.200164794921875,-0.0809853971004486,0.0342024452984333,-0.0869735106825828
1769247417413,-0.2047882080078125,-0.9579010009765624,0.18109130859375,-0.0629379525780677,-0.0840123444795608,-0.1090777516365051
1769247417423,-0.176116943359375,-0.95489501953125,0.1704254150390625,-0.0381119661033153,-0.1509514302015304,-0.1059996709227562
1769247417433,-0.140045166015625,-0.95562744140625,0.1642913818359375,-0.0301698856055736,-0.1147582754492759,-0.0842261984944343
1769247417443,-0.106536865234375,-0.9685821533203124,0.17022705078125,-0.0361795760691165,-0.0941278263926506,-0.0598558783531188
1769247417453,-0.0805206298828125,-0.97601318359375,0.1827850341796875,-0.0322109349071979,-0.1143699884414672,-0.0392336882650852
1769247417463,-0.0904541015625,-0.973480224609375,0.17669677734375,-0.0120787667110562,-0.1273528933525085,-0.0126612000167369
1769247417473,-0.0843963623046875,-0.9613037109375,0.1624298095703125,-0.0054893074557185,-0.0571748726069927,0.0155877480283379
1769247417483,-0.08648681640625,-0.9609222412109376,0.1578369140625,0.0061729410663247,0.0314303599298,0.0330913737416267
1769247417494,-0.09564208984375,-0.9679107666015624,0.143096923828125,0.0209926329553127,0.0294577572494745,0.0549119859933853
1769247417503,-0.09326171875,-0.97625732421875,0.1586151123046875,0.0352743677794933,0.0099391834810376,0.0706597864627838
1769247417513,-0.104339599609375,-0.9897308349609376,0.17010498046875,0.0338434502482414,0.0299962479621171,0.0662258937954902
1769247417523,-0.132171630859375,-0.9927825927734376,0.183685302734375,0.0257471743971109,0.0964804664254188,0.0404813811182975
1769247417533,-0.152618408203125,-0.9859161376953124,0.1849822998046875,0.0153051866218447,0.1281622350215912,0.0202512089163064
1769247417543,-0.152130126953125,-0.9745025634765624,0.187591552734375,0.0150537844747304,0.0779677703976631,0.0044980789534747
1769247417553,-0.1541290283203125,-0.966827392578125,0.1844329833984375,0.0130897033959627,0.065518818795681,-0.0018426411552354
1769247417564,-0.1464691162109375,-0.964324951171875,0.182586669921875,0.0107541102916002,0.0607645474374294,-0.0072011873126029
1769247417574,-0.1445465087890625,-0.9676361083984376,0.1871337890625,0.0018130800453945,0.0206701252609491,-0.0104600973427295
1769247417584,-0.1425323486328125,-0.9739837646484376,0.195892333984375,-0.0015504923649132,-0.0216520316898822,-0.0229375399649143
1769247417594,-0.1470489501953125,-0.979888916015625,0.196624755859375,0.0059172776527702,-0.0220017060637474,-0.0284516140818595
1769247417604,-0.1403961181640625,-0.9767608642578124,0.1850128173828125,0.0182626266032457,0.0131104756146669,-0.0173201337456703
1769247417614,-0.113922119140625,-0.969635009765625,0.1688232421875,0.0383628346025943,0.0107788778841495,0.0010817759903147
1769247417624,-0.1006927490234375,-0.9700775146484376,0.165496826171875,0.0532578937709331,0.0256060268729925,0.0190530531108379
1769247417634,-0.1007537841796875,-0.9727935791015624,0.1655731201171875,0.0695191547274589,0.0155033254995942,0.0329813845455646
1769247417644,-0.100128173828125,-0.9777679443359376,0.17169189453125,0.0702959969639778,0.0214967690408229,0.0381348691880703
1769247417654,-0.1150054931640625,-0.98095703125,0.1882171630859375,0.0703569874167442,0.0450463034212589,0.0225777477025985
1769247417664,-0.1308441162109375,-0.9794464111328124,0.186981201171875,0.0688973069190979,0.026258235797286,0.0072507224977016
1769247417674,-0.13897705078125,-0.980224609375,0.192230224609375,0.0745999366044998,-0.0169006865471601,-0.0030442595016211
1769247417684,-0.1421966552734375,-0.9792633056640624,0.1917724609375,0.0720172002911567,-0.0328519567847251,-0.005772135220468
1769247417694,-0.1379852294921875,-0.973114013671875,0.19561767578125,0.077825553715229,-0.0315581932663917,-0.0129426969215273
1769247417704,-0.138824462890625,-0.96807861328125,0.1834259033203125,0.0823595896363258,-0.0422625020146369,-0.0160649865865707
1769247417714,-0.1322021484375,-0.959991455078125,0.1835479736328125,0.0904710441827774,-0.0538832060992717,-0.0129765188321471
1769247417724,-0.1199493408203125,-0.9609375,0.1872406005859375,0.0929339379072189,-0.0504645071923732,-0.0045185852795839
1769247417734,-0.113739013671875,-0.9626922607421876,0.1901092529296875,0.0909568071365356,-0.0187529157847166,0.0032152342610061
1769247417745,-0.1122894287109375,-0.9645843505859376,0.192413330078125,0.0895661041140556,-0.0071276840753853,0.0099104214459657
1769247417754,-0.1136627197265625,-0.9698028564453124,0.1923828125,0.0904068648815155,-0.0021339908707886,0.0183065682649612
1769247417765,-0.113433837890625,-0.9703521728515624,0.1893310546875,0.0964224115014076,0.0138356545940041,0.0221598967909812
1769247417774,-0.117828369140625,-0.97039794921875,0.18487548828125,0.1002597585320472,0.0240443497896194,0.028137095272541
1769247417785,-0.1177978515625,-0.9684295654296876,0.18560791015625,0.1023932173848152,0.0245852377265691,0.0392358191311359
1769247417795,-0.1156768798828125,-0.966217041015625,0.1893310546875,0.1017764285206794,0.0284628011286258,0.0479416921734809
1769247417805,-0.1199951171875,-0.968048095703125,0.1939849853515625,0.1011420637369155,0.0185569059103727,0.0484793856739997
1769247417815,-0.1279296875,-0.9711456298828124,0.19696044921875,0.1010182276368141,-0.0262124296277761,0.0506954006850719
1769247417825,-0.13189697265625,-0.9744415283203124,0.2032623291015625,0.0891714245080947,-0.0316207781434059,0.0449080877006053
1769247417835,-0.13623046875,-0.9796600341796876,0.2127685546875,0.0801864489912986,-0.0309632420539855,0.0408728644251823
1769247417845,-0.1324310302734375,-0.9769744873046876,0.21636962890625,0.0656367987394332,-0.052357479929924,0.0347427986562252
1769247417855,-0.1346893310546875,-0.9740142822265624,0.2228546142578125,0.0511553287506103,-0.0598484203219413,0.0320125259459018
1769247417865,-0.137939453125,-0.9693145751953124,0.22198486328125,0.0421828739345073,-0.0501047112047672,0.0281006097793579
1769247417875,-0.1363983154296875,-0.9600830078125,0.21484375,0.0387591123580932,-0.0313893482089042,0.0276502706110477
1769247417885,-0.135040283203125,-0.9530181884765624,0.2115478515625,0.0328176021575927,-0.017111076042056,0.0314788296818733
1769247417896,-0.130462646484375,-0.9559783935546876,0.2131195068359375,0.0263956543058156,-0.0112710306420922,0.038239262998104
1769247417905,-0.1249847412109375,-0.962738037109375,0.213470458984375,0.0345542468130588,0.0053654704242944,0.0499989837408065
1769247417915,-0.1168365478515625,-0.9639892578125,0.203216552734375,0.0370522923767566,0.0272635780274868,0.0590473413467407
1769247417925,-0.112548828125,-0.969757080078125,0.20147705078125,0.0418204180896282,0.0445136725902557,0.0695633664727211
1769247417935,-0.118682861328125,-0.9737396240234376,0.2010650634765625,0.0514738447964191,0.0343435928225517,0.0637845695018768
1769247417945,-0.14019775390625,-0.9725494384765624,0.1981964111328125,0.0569437108933925,0.0086885625496506,0.0425005890429019
1769247417955,-0.167144775390625,-0.971649169921875,0.2036590576171875,0.0593735799193382,-0.0026983148418366,0.0221082307398319
1769247417965,-0.1655120849609375,-0.9670867919921876,0.2089996337890625,0.0619107708334922,-0.0110350744798779,0.0148484548553824
1769247417975,-0.146331787109375,-0.963958740234375,0.2112884521484375,0.0691492408514022,-0.0266779493540525,0.0211446993052959
1769247417985,-0.1261749267578125,-0.9622955322265624,0.208648681640625,0.0880345180630683,-0.0830112621188163,0.0396110601723194
1769247417996,-0.10723876953125,-0.95953369140625,0.205657958984375,0.1009798794984817,-0.1298176497220993,0.0507907420396804
1769247418006,-0.11883544921875,-0.9628143310546876,0.2113800048828125,0.095605619251728,-0.044563740491867,0.0406321138143539
1769247418016,-0.1412811279296875,-0.9637908935546876,0.2143096923828125,0.0777704268693924,0.0994176641106605,0.0166442245244979
1769247418026,-0.154266357421875,-0.9592742919921876,0.2171173095703125,0.0659707635641098,0.0660085752606391,0.0175752658396959
1769247418036,-0.1319122314453125,-0.960968017578125,0.2277374267578125,0.0706017315387725,0.032590165734291,0.0262422561645507
1769247418046,-0.132171630859375,-0.9709625244140624,0.217681884765625,0.0742563903331756,0.0430396124720573,0.0330269262194633
1769247418056,-0.1303253173828125,-0.9787750244140624,0.2154693603515625,0.0782801583409309,0.0369905084371566,0.0417815335094928
1769247418066,-0.1262054443359375,-0.97796630859375,0.2148284912109375,0.0903727710247039,-0.005372661165893,0.0489952377974987
1769247418076,-0.1315460205078125,-0.9661407470703124,0.21124267578125,0.0994743928313255,-0.0532400533556938,0.0459744147956371
1769247418086,-0.145721435546875,-0.9527130126953124,0.2132415771484375,0.1174454018473625,-0.0665635839104652,0.0483480915427207
1769247418096,-0.13494873046875,-0.954833984375,0.20587158203125,0.1200678199529647,-0.0333334542810916,0.0620527192950248
1769247418106,-0.1219024658203125,-0.9621124267578124,0.21405029296875,0.1113869771361351,0.0113618439063429,0.0521596074104309
1769247418116,-0.145904541015625,-0.9725341796875,0.2194366455078125,0.096088983118534,0.0619882680475711,0.0376472435891628
1769247418126,-0.15234375,-0.9623870849609376,0.2203521728515625,0.0861489996314048,0.0600473582744598,0.033812291920185
1769247418136,-0.1451263427734375,-0.9624786376953124,0.228729248046875,0.0801976323127746,-0.0210357774049043,0.0382083728909492
1769247418147,-0.1523284912109375,-0.955841064453125,0.2391204833984375,0.0587693080306053,0.011469435878098,0.000140082265716
1769247418156,-0.191986083984375,-0.948211669921875,0.2429962158203125,0.0353694409132003,0.0238792337477207,-0.0131000895053148
1769247418167,-0.1638336181640625,-0.9581451416015624,0.252655029296875,0.0221886597573757,-0.0141011718660593,-0.018983544781804
1769247418176,-0.14935302734375,-0.9632720947265624,0.2472076416015625,0.0196338891983032,-0.0301142260432243,-0.023103455081582
1769247418186,-0.1434478759765625,-0.9719085693359376,0.235321044921875,0.0181784704327583,-0.027441743761301,-0.0185688901692628
1769247418197,-0.1238861083984375,-0.972625732421875,0.2270050048828125,0.0213319193571805,-0.002969158347696,-0.0057556238025426
1769247418206,-0.1188507080078125,-0.974761962890625,0.2188720703125,0.0205833055078983,0.0352011285722255,0.0113908722996711
1769247418217,-0.12005615234375,-0.9725494384765624,0.219573974609375,0.009531719610095,0.0325861722230911,0.019760388880968
1769247418227,-0.1284637451171875,-0.9597625732421876,0.221649169921875,0.0040900828316807,0.0374613553285598,0.0174104161560535
1769247418237,-0.146087646484375,-0.938232421875,0.21124267578125,0.0100664822384715,0.0472191758453846,0.0091229248791933
1769247418247,-0.160491943359375,-0.919952392578125,0.2030487060546875,0.028028704226017,0.0532999746501445,0.0008716526208445
1769247418257,-0.1630859375,-0.9299468994140624,0.2130584716796875,0.0465709641575813,0.0017928400775417,0.0048855687491595
1769247418267,-0.142547607421875,-0.9630126953125,0.2359161376953125,0.0533761382102966,0.0003486077766865,-0.0093293199315667
1769247418277,-0.14788818359375,-0.97918701171875,0.2475738525390625,0.0434366911649704,0.0373577587306499,-0.0186546444892883
1769247418287,-0.1364898681640625,-0.98138427734375,0.2647705078125,0.0282071363180875,0.0075244954787194,-0.0193350818008184
1769247418297,-0.1244659423828125,-0.9931488037109376,0.2747955322265625,0.0145054394379258,-0.005960420705378,-0.0254672765731811
1769247418308,-0.1381683349609375,-0.977783203125,0.258514404296875,0.0077918767929077,0.0096454368904232,-0.0374224744737148
1769247418317,-0.153472900390625,-0.9524078369140624,0.2411651611328125,0.0087596690282225,0.0177382510155439,-0.0413327924907207
1769247418327,-0.15814208984375,-0.9466552734375,0.2351531982421875,0.0042075281962752,0.0069876019842922,-0.0405769869685173
1769247418337,-0.1499786376953125,-0.945404052734375,0.2364349365234375,-0.0044802357442677,0.0104209491983056,-0.035312183201313
1769247418347,-0.14044189453125,-0.9503326416015624,0.2391510009765625,-0.0215955730527639,0.0292673408985137,-0.0214040912687778
1769247418357,-0.126922607421875,-0.9544830322265624,0.2403717041015625,-0.0285837072879076,-0.0232517924159765,-0.00154649768956
1769247418367,-0.1217498779296875,-0.9540863037109376,0.239593505859375,-0.0502389371395111,-0.0122313657775521,-0.0007731156656518
1769247418377,-0.13958740234375,-0.953887939453125,0.2418060302734375,-0.0638796463608741,-0.019064238294959,-3.1957933970261365e-06
1769247418387,-0.1429290771484375,-0.96197509765625,0.2401885986328125,-0.0711780413985252,-0.0447176694869995,-0.0017315873410552
1769247418397,-0.1428680419921875,-0.957672119140625,0.2324981689453125,-0.0758505538105964,-0.035941757261753,0.0059505673125386
1769247418408,-0.130340576171875,-0.9582061767578124,0.2261962890625,-0.0758971646428108,-0.0032581111881881,0.0144412573426961
1769247418418,-0.126983642578125,-0.966461181640625,0.2218475341796875,-0.0800951048731803,0.0312793590128421,0.0186389312148094
1769247418428,-0.1278228759765625,-0.9711761474609376,0.2189483642578125,-0.0808775350451469,0.039257925003767,0.0209388379007577
1769247418438,-0.1304473876953125,-0.9705047607421876,0.2205352783203125,-0.0801600813865661,0.038087997585535,0.0174610149115324
1769247418448,-0.1372528076171875,-0.9650726318359376,0.2198333740234375,-0.0766218081116676,0.0301874633878469,0.0120052639394998
1769247418458,-0.140960693359375,-0.9649200439453124,0.21746826171875,-0.0671587958931922,0.0287336446344852,0.0132361771538853
1769247418468,-0.1362762451171875,-0.9611053466796876,0.2150421142578125,-0.0582601092755794,0.0203793067485094,0.0182461161166429
1769247418478,-0.1282958984375,-0.9644622802734376,0.215911865234375,-0.0537883974611759,0.010807373560965,0.022382004186511
1769247418488,-0.1322479248046875,-0.9691162109375,0.2211456298828125,-0.0491134822368621,0.0170117411762475,0.023495739325881
1769247418498,-0.143646240234375,-0.9691314697265624,0.2206573486328125,-0.0491651482880115,0.038286667317152,0.0213673394173383
1769247418508,-0.1533203125,-0.9647369384765624,0.21905517578125,-0.047312919050455,0.0297142192721366,0.0221596304327249
1769247418518,-0.1464996337890625,-0.9668426513671876,0.22027587890625,-0.0429205708205699,0.0224565733224153,0.0299951825290918
1769247418528,-0.1417083740234375,-0.96697998046875,0.21844482421875,-0.0397775061428546,0.0316269025206565,0.0306588429957628
1769247418539,-0.1458282470703125,-0.9706268310546876,0.2209625244140625,-0.040723193436861,0.0507017932832241,0.022677881643176
1769247418548,-0.1569061279296875,-0.967010498046875,0.2221832275390625,-0.0400592684745788,0.05530746281147,0.0078438082709908
1769247418558,-0.160552978515625,-0.965423583984375,0.2229156494140625,-0.0389982648193836,0.0296425800770521,0.0072541842237114
1769247418568,-0.1489410400390625,-0.9673004150390624,0.2232666015625,-0.0358842313289642,0.0165310390293598,0.0078264977782964
1769247418579,-0.1407012939453125,-0.9728240966796876,0.2176513671875,-0.0187723562121391,0.0098872520029544,0.021175593137741
1769247418588,-0.1273651123046875,-0.971343994140625,0.20294189453125,0.0018559569725766,0.0055721318349242,0.0404203943908214
1769247418598,-0.1156768798828125,-0.960968017578125,0.19232177734375,0.0178101565688848,0.0152828162536025,0.0480247847735881
1769247418608,-0.130584716796875,-0.9583587646484376,0.1983184814453125,0.0130537506192922,0.0533822663128376,0.0277618560940027
1769247418618,-0.16033935546875,-0.9561614990234376,0.2149200439453125,0.007456318475306,0.0628242343664169,0.0178290642797946
1769247418629,-0.154998779296875,-0.9541473388671876,0.2260894775390625,0.0019941749051213,0.0324753858149051,0.0250707324594259
1769247418639,-0.1416473388671875,-0.9567413330078124,0.2333221435546875,0.0025651566684246,0.0261620953679084,0.0297807995229959
1769247418649,-0.132904052734375,-0.957489013671875,0.226715087890625,0.0040820934809744,0.0249839127063751,0.0406813845038414
1769247418659,-0.1282196044921875,-0.9585723876953124,0.2220916748046875,0.0059018312022089,0.0116787599399685,0.0492282658815383
1769247418669,-0.1273345947265625,-0.9606170654296876,0.226043701171875,0.003760383464396,0.0087908282876014,0.0524099431931972
1769247418679,-0.137451171875,-0.9675750732421876,0.2240753173828125,-0.0067255469039082,0.0582364089787006,0.0447890423238277
1769247418689,-0.154449462890625,-0.9695587158203124,0.223663330078125,-0.0228515192866325,0.1008318066596984,0.029583191499114
1769247418699,-0.1661376953125,-0.966064453125,0.22442626953125,-0.0345824770629406,0.0668578594923019,0.0198488049209117
1769247418710,-0.1684417724609375,-0.9678802490234376,0.229949951171875,-0.0496754124760627,0.0186421275138854,0.0051430966705083
1769247418719,-0.17291259765625,-0.968353271484375,0.2291717529296875,-0.0621216930449008,0.0154021261259913,-0.0014852449530735
1769247418729,-0.1641998291015625,-0.969207763671875,0.2237091064453125,-0.0723474323749542,0.020316457375884,-0.0086060054600238
1769247418739,-0.154327392578125,-0.9691009521484376,0.2200469970703125,-0.0770670846104621,0.0066770776174962,-0.0113325491547584
1769247418749,-0.149444580078125,-0.96728515625,0.2141876220703125,-0.079606145620346,-0.0024860608391463,-0.0141254067420959
1769247418760,-0.1497650146484375,-0.96832275390625,0.2099456787109375,-0.0766902491450309,0.0136207370087504,-0.0163850989192724
1769247418770,-0.14801025390625,-0.96929931640625,0.2024993896484375,-0.0762614831328392,0.0326556824147701,-0.0148974563926458
1769247418779,-0.142669677734375,-0.9676513671875,0.2035980224609375,-0.0755248516798019,0.0338820666074752,-0.0153304869309067
1769247418790,-0.1439361572265625,-0.9656829833984376,0.207855224609375,-0.0708667188882827,0.0331931076943874,-0.0102137550711631
1769247418799,-0.1411895751953125,-0.9631195068359376,0.20330810546875,-0.05868461728096,0.0310442019253969,-0.0036906085442751
1769247418810,-0.1373443603515625,-0.9569854736328124,0.1994781494140625,-0.0472319610416889,0.0284590721130371,0.0036200347822159
1769247418820,-0.137725830078125,-0.9575653076171876,0.200927734375,-0.0406968295574188,0.02479163184762,0.0047540087252855
1769247418830,-0.1471405029296875,-0.9629669189453124,0.2109832763671875,-0.037662424147129,0.0200378894805908,-0.002462891396135
1769247418840,-0.1580352783203125,-0.9662017822265624,0.2155609130859375,-0.0350213684141635,0.0055044875480234,-0.0117517309263348
1769247418850,-0.164520263671875,-0.9705657958984376,0.219451904296875,-0.0322460867464542,-0.0088118677958846,-0.0194549243897199
1769247418860,-0.1656036376953125,-0.9668426513671876,0.2166748046875,-0.026767699047923,0.0043769050389528,-0.0221178196370601
1769247418870,-0.15283203125,-0.9629058837890624,0.209228515625,-0.0164492800831794,-0.0034005902707576,-0.0129887694492936
1769247418880,-0.137054443359375,-0.9626312255859376,0.205413818359375,-0.0015678029740229,-0.0110827451571822,-0.0017899106023833
1769247418890,-0.1328887939453125,-0.9636688232421876,0.1989593505859375,0.0113661047071218,-0.0046914243139326,0.0051793158054351
1769247418900,-0.141998291015625,-0.9633941650390624,0.196685791015625,0.0176213383674621,0.0208826456218957,-0.0004032025753986
1769247418910,-0.1550750732421875,-0.9621734619140624,0.196014404296875,0.0244712550193071,0.029012743383646,4.101268132217229e-05
1769247418920,-0.15234375,-0.95794677734375,0.1943206787109375,0.0306415315717458,0.022620091214776,0.0071101072244346
1769247418930,-0.141815185546875,-0.959136962890625,0.1959228515625,0.0369883775711059,0.0254789944738149,0.0205984860658645
1769247418940,-0.133270263671875,-0.9601287841796876,0.196197509765625,0.0441783815622329,0.0273900795727968,0.0310404747724533
1769247418950,-0.1310882568359375,-0.9622650146484376,0.2017974853515625,0.0467030555009841,0.0290601477026939,0.0392091870307922
1769247418960,-0.1372222900390625,-0.9639129638671876,0.2075042724609375,0.0450135469436645,0.0429298914968967,0.0314649827778339
1769247418970,-0.1484222412109375,-0.964935302734375,0.2110443115234375,0.0454963780939579,0.0425767563283443,0.0253897793591022
1769247418980,-0.1512298583984375,-0.9630126953125,0.213623046875,0.0505475960671901,0.0131126064807176,0.0203340332955122
1769247418990,-0.1536407470703125,-0.9580535888671876,0.2125091552734375,0.0491209402680397,0.0242504775524139,0.0122859608381986
1769247419000,-0.16021728515625,-0.95965576171875,0.215118408203125,0.0450929105281829,0.0464889369904994,0.0005123922019265
1769247419010,-0.1632080078125,-0.9633941650390624,0.2178802490234375,0.042063295841217,0.0415469110012054,-0.0009622001089155
1769247419020,-0.14996337890625,-0.9676055908203124,0.22003173828125,0.0383665636181831,0.0268116407096385,0.0042456113733351
1769247419031,-0.141754150390625,-0.968475341796875,0.2215118408203125,0.0398659221827983,0.0074496604502201,0.0083663202822208
1769247419041,-0.1408538818359375,-0.968231201171875,0.22021484375,0.0403295792639255,-0.0097109507769346,0.0071833445690572
1769247419051,-0.147247314453125,-0.96258544921875,0.2220306396484375,0.038862444460392,-0.0162468813359737,0.0031779501587152
1769247419061,-0.1556396484375,-0.9620361328125,0.2243804931640625,0.0331571549177169,-0.0134721333160996,0.0003510046226438
1769247419071,-0.156707763671875,-0.9615478515625,0.2258758544921875,0.0251833833754062,-0.000712661887519,-0.0029419939965009
1769247419081,-0.1592254638671875,-0.960906982421875,0.22613525390625,0.0123866284266114,-0.0019502328941598,-0.0075013255700469
1769247419092,-0.1599273681640625,-0.9714202880859376,0.2300872802734375,-0.0027039074338972,-0.0116654448211193,-0.0033933997619897
1769247419101,-0.1486663818359375,-0.973297119140625,0.2328643798828125,-0.0156673770397901,-0.0061582936905324,0.0051209921948611
1769247419111,-0.1405181884765625,-0.97064208984375,0.224884033203125,-0.0213494971394538,0.0035968653392046,0.0098702078685164
1769247419121,-0.13861083984375,-0.9654693603515624,0.2174530029296875,-0.0346402674913406,0.0105876633897423,0.012516857124865
1769247419131,-0.145782470703125,-0.9636688232421876,0.221343994140625,-0.045236986130476,0.0007736482657492,0.0146806752309203
1769247419141,-0.14642333984375,-0.956878662109375,0.219757080078125,-0.0494911186397075,0.0036280243657529,0.0217606890946626
1769247419151,-0.143890380859375,-0.946685791015625,0.2123870849609375,-0.0448969006538391,-0.0022578279022127,0.026851586997509
1769247419161,-0.1458587646484375,-0.9375762939453124,0.199554443359375,-0.0224736165255308,-0.0052139367908239,0.0329009592533111
1769247419171,-0.144775390625,-0.9379119873046876,0.190093994140625,0.0025734126102179,-0.0086917588487267,0.0339132249355316
1769247419181,-0.1511077880859375,-0.9575347900390624,0.1979827880859375,0.0028013791888952,-0.0040610544383525,0.0112595790997147
1769247419191,-0.1775360107421875,-0.9766693115234376,0.2249603271484375,-0.0020160130225121,0.014551511965692,-0.0106989834457635
1769247419201,-0.1779937744140625,-0.9849395751953124,0.2296905517578125,0.0046797064132988,0.0024802018888294,-0.010243316181004
1769247419211,-0.15069580078125,-0.9805450439453124,0.219573974609375,0.0271626450121402,-0.0076587186194956,0.0027646275702863
1769247419221,-0.1376190185546875,-0.96087646484375,0.1948394775390625,0.0564004257321357,0.0039116512052714,0.0138337900862097
1769247419232,-0.137176513671875,-0.9484405517578124,0.1885528564453125,0.0765397846698761,0.0101559646427631,0.0195494666695594
1769247419242,-0.144805908203125,-0.94677734375,0.1996002197265625,0.0888220146298408,0.0063441824167966,0.0249639395624399
1769247419252,-0.147430419921875,-0.952667236328125,0.21533203125,0.0886992439627647,0.0008868326549418,0.0240102615207433
1769247419262,-0.1533966064453125,-0.9605255126953124,0.224395751953125,0.0848347321152687,-0.0031172300223261,0.0158332921564579
1769247419272,-0.16796875,-0.9622344970703124,0.2241363525390625,0.0556795075535774,0.0464271530508995,0.0037260286044329
1769247419282,-0.1746368408203125,-0.9589996337890624,0.2291259765625,0.0359992794692516,0.0656887292861938,0.00457957200706
1769247419292,-0.1616058349609375,-0.9572601318359376,0.22442626953125,0.0237484723329544,0.0296529661864042,0.015073224902153
1769247419302,-0.14654541015625,-0.964111328125,0.22650146484375,0.0098145473748445,0.0284795779734849,0.0257138852030038
1769247419312,-0.14178466796875,-0.967071533203125,0.2260894775390625,0.0030386666767299,0.0344836749136447,0.0359177887439727
1769247419322,-0.1382293701171875,-0.967498779296875,0.2281341552734375,-0.002094842493534,0.0277112554758787,0.0366581454873085
1769247419332,-0.14422607421875,-0.9707489013671876,0.2278594970703125,-0.0012535499408841,0.010178068652749,0.0348610430955886
1769247419342,-0.149566650390625,-0.9712982177734376,0.2288818359375,-0.0147128999233245,0.013595437631011,0.0221718810498714
1769247419352,-0.167144775390625,-0.971527099609375,0.2334442138671875,-0.0257280003279447,0.0153685696423053,-0.0021869877818971
1769247419362,-0.180511474609375,-0.9629669189453124,0.23028564453125,-0.0243293084204196,-0.005667739547789,-0.00670424150303
1769247419372,-0.1677703857421875,-0.9597625732421876,0.219390869140625,-0.0119123198091983,-0.0111610414460301,-0.0001850896951509
1769247419382,-0.150482177734375,-0.9589996337890624,0.2047576904296875,0.0024636902380734,-0.0018034926615655,0.0083868270739912
1769247419392,-0.1410064697265625,-0.95904541015625,0.2020721435546875,0.0110499877482652,0.0034890072420239,0.0137208718806505
1769247419402,-0.14532470703125,-0.9597320556640624,0.210693359375,0.0192144401371479,-0.0009811085183173,0.0105325356125831
1769247419412,-0.156097412109375,-0.961883544921875,0.2214202880859375,0.0207755863666534,-0.007497064769268,0.003125219605863
1769247419422,-0.1672821044921875,-0.96234130859375,0.2340087890625,0.0155464690178632,-0.0216440428048372,-0.015352857299149
1769247419433,-0.1843719482421875,-0.9642486572265624,0.236907958984375,0.0204994156956672,-0.0584726296365261,-0.0398153215646743
1769247419442,-0.1872406005859375,-0.96221923828125,0.2315216064453125,0.0157635174691677,-0.1028978824615478,-0.0325387679040432
1769247419453,-0.150726318359375,-0.9490814208984376,0.238983154296875,0.0253988336771726,-0.1269217282533645,-0.0207734555006027
1769247419463,-0.1371002197265625,-0.9583587646484376,0.2195281982421875,0.0421274788677692,-0.1744642108678817,-0.009108543395996
1769247419472,-0.1439971923828125,-0.950164794921875,0.22369384765625,0.0348202995955944,-0.0465648397803306,-0.0341518446803092
1769247419483,-0.1595611572265625,-0.9678192138671876,0.2238616943359375,0.0267069786787033,0.0071157002821564,-0.0293453726917505
1769247419493,-0.1349334716796875,-0.9671630859375,0.2189483642578125,0.0287520196288824,-0.0041271005757153,-0.014297978952527
1769247419503,-0.132110595703125,-0.9580230712890624,0.210784912109375,0.0388621762394905,-0.0326666012406349,0.0025888588279485
1769247419513,-0.1368865966796875,-0.955352783203125,0.20989990234375,0.0362046100199222,0.0133301867172122,-0.0031419973820447
1769247419523,-0.157318115234375,-0.946685791015625,0.2142486572265625,0.0341843366622924,0.0310636442154645,-0.0079423449933528
1769247419533,-0.1548309326171875,-0.952667236328125,0.2235870361328125,0.0275695752352476,-0.0029214876703917,-0.007832090370357
1769247419543,-0.157562255859375,-0.95599365234375,0.232940673828125,0.0137174101546406,-0.0045159221626818,-0.0094401072710752
1769247419553,-0.1603240966796875,-0.9594879150390624,0.2376861572265625,-0.0011001517996191,0.0053745252080261,-0.01017726957798
1769247419563,-0.1558380126953125,-0.957305908203125,0.2390594482421875,-0.0107517139986157,-0.0007241134881041,-0.0099924467504024
1769247419573,-0.154632568359375,-0.9582977294921876,0.23638916015625,-0.0223069041967391,-0.0084821684285998,-0.0083447489887475
1769247419583,-0.1543731689453125,-0.9560699462890624,0.23486328125,-0.0237809624522924,-0.0083370255306363,-0.007414773106575
1769247419593,-0.1544189453125,-0.954681396484375,0.2287445068359375,-0.0210219286382198,-0.0019595539197325,-0.0075897425413131
1769247419603,-0.150543212890625,-0.955291748046875,0.221771240234375,-0.0165608674287796,0.0027031085919588,0.0020943097770214
1769247419613,-0.1378936767578125,-0.9591827392578124,0.2188262939453125,-0.0178836584091186,0.0200549345463514,0.0124002108350396
1769247419623,-0.13250732421875,-0.9649658203125,0.22320556640625,-0.0173108130693435,0.0265708900988101,0.0176413115113973
1769247419633,-0.1352386474609375,-0.971923828125,0.222625732421875,-0.0114233633503317,-0.0088744517415761,0.0249053500592708
1769247419644,-0.1427001953125,-0.96722412109375,0.2238311767578125,-0.0141914524137973,0.0436643883585929,0.0179459769278764
1769247419653,-0.1522369384765625,-0.964691162109375,0.220703125,-0.0152535215020179,0.0308500584214925,0.0213388446718454
1769247419663,-0.14739990234375,-0.963897705078125,0.2256317138671875,-0.0196879506111145,0.0197446756064891,0.0194932743906974
1769247419673,-0.162567138671875,-0.9586334228515624,0.2294921875,-0.0190232265740633,0.0133078154176473,0.0243189223110675
1769247419684,-0.15704345703125,-0.955902099609375,0.223907470703125,-0.0152548532932996,0.0121775707229971,0.0268739592283964
1769247419694,-0.1562042236328125,-0.9508514404296876,0.21929931640625,-0.0111298831179738,0.0159291662275791,0.0312055889517068
1769247419704,-0.1532440185546875,-0.95355224609375,0.21978759765625,-0.0029374666046351,0.0164285078644752,0.0306215584278106
1769247419714,-0.1562652587890625,-0.957763671875,0.220794677734375,-0.0007574030314572,0.025025725364685,0.0264374669641256
1769247419724,-0.1606597900390625,-0.959625244140625,0.2230987548828125,0.0037385455798357,0.0109485210850834,0.0222853310406208
1769247419734,-0.1630859375,-0.9615020751953124,0.2219085693359375,0.0136178079992532,-0.0180687494575977,0.018818961456418
1769247419744,-0.163421630859375,-0.9575653076171876,0.2162628173828125,0.0225790776312351,-0.0144609650596976,0.0151488594710826
1769247419754,-0.1610870361328125,-0.957305908203125,0.2183837890625,0.0300921220332384,-0.0348346792161464,0.0040405481122434
1769247419764,-0.1637725830078125,-0.95965576171875,0.222137451171875,0.0377154201269149,-0.0590233728289604,-0.0049950247630476
1769247419774,-0.166961669921875,-0.9635162353515624,0.223968505859375,0.0437677204608917,-0.0817254856228828,-0.0190075132995843
1769247419784,-0.170501708984375,-0.9628753662109376,0.2273712158203125,0.0444425642490386,-0.0780497938394546,-0.0309453997761011
1769247419794,-0.165496826171875,-0.960235595703125,0.2235260009765625,0.050544399768114,-0.0721290558576583,-0.0378943867981433
1769247419804,-0.159515380859375,-0.956695556640625,0.222564697265625,0.0595051385462284,-0.0731330662965774,-0.03309803083539
1769247419814,-0.1456756591796875,-0.9561309814453124,0.222137451171875,0.062234878540039,-0.0539425946772098,-0.0286042150110006
1769247419824,-0.1407318115234375,-0.958740234375,0.22125244140625,0.0620916001498699,-0.0033633061684668,-0.0196615848690271
1769247419834,-0.139129638671875,-0.9608306884765624,0.2219696044921875,0.0604918412864208,0.0152117097750306,-0.013497432693839
1769247419844,-0.1419219970703125,-0.9605255126953124,0.229461669921875,0.0549790970981121,0.0049785133451223,-0.0132335135713219
1769247419854,-0.153961181640625,-0.9600982666015624,0.2365264892578125,0.045338187366724,-0.0008942894637584,-0.0196850206702947
1769247419864,-0.163665771484375,-0.9585418701171876,0.242462158203125,0.0327976271510124,-0.0084627270698547,-0.0264901965856552
1769247419875,-0.1653289794921875,-0.9596099853515624,0.24603271484375,0.02548298984766,-0.0115927401930093,-0.0281951520591974
1769247419885,-0.1547698974609375,-0.9615020751953124,0.2420196533203125,0.0195507984608411,-0.0204581376165151,-0.0202765092253685
1769247419895,-0.1400299072265625,-0.9608917236328124,0.2397003173828125,0.0137392478063702,-0.0241399575024843,-0.012811935506761
1769247419905,-0.1383056640625,-0.96331787109375,0.23675537109375,0.0080065270885825,-0.0221532396972179,-0.0034549187403172
1769247419915,-0.139739990234375,-0.96246337890625,0.237579345703125,-0.0016988303977996,-0.009009207598865,-0.0011510181939229
1769247419925,-0.142852783203125,-0.9574737548828124,0.239654541015625,-0.0059236693195998,0.0015949672088027,0.0017611484508961
1769247419935,-0.1416015625,-0.9500885009765624,0.2340240478515625,-0.0090446276590228,0.0052770534530282,0.0098763331770896
1769247419945,-0.139068603515625,-0.9468231201171876,0.23687744140625,-0.0170879065990448,0.0209468267858028,0.0181752759963274
1769247419955,-0.14190673828125,-0.9499053955078124,0.23907470703125,-0.021657358855009,0.0346655696630477,0.0228989236056804
1769247419965,-0.146453857421875,-0.9566497802734376,0.23687744140625,-0.0173835176974535,0.0210453644394874,0.024542361497879
1769247419975,-0.1480865478515625,-0.9585113525390624,0.2335205078125,-0.0150266196578741,0.0085514103993773,0.0218344591557979
1769247419985,-0.154998779296875,-0.962066650390625,0.2303009033203125,-0.0129930302500724,0.0081506045535206,0.0190069805830717
1769247419995,-0.158355712890625,-0.962646484375,0.229339599609375,-0.0084701841697096,0.0034035197459161,0.0164119955152273
1769247420005,-0.1543426513671875,-0.9674530029296876,0.231475830078125,-0.0109250852838158,0.009801497682929,0.0165922921150922
1769247420015,-0.1490478515625,-0.9688720703125,0.231719970703125,-0.0125522771850228,0.0238928161561489,0.020071180537343
1769247420025,-0.1424102783203125,-0.9636077880859376,0.2308349609375,-0.0179166831076145,0.0303099695593118,0.0253133457154035
1769247420035,-0.146575927734375,-0.95257568359375,0.229827880859375,-0.0183438528329134,0.0337286703288555,0.0230941344052553
1769247420046,-0.157073974609375,-0.9414520263671876,0.2259368896484375,-0.017242370173335,0.0295320600271224,0.0183619633316993
1769247420056,-0.164703369140625,-0.9347076416015624,0.2245330810546875,-0.0110411997884511,0.00860973354429,0.0106510464102029
1769247420065,-0.1720123291015625,-0.9432373046875,0.2286376953125,-0.00682701356709,-0.0123967481777071,0.0020879183430224
1769247420075,-0.1718902587890625,-0.969482421875,0.240264892578125,-0.0115032577887177,-0.0181944500654935,-0.0010133327450603
1769247420085,-0.1559295654296875,-0.985382080078125,0.250946044921875,-0.0123219136148691,-0.0152497924864292,0.000598944898229
1769247420096,-0.142974853515625,-0.988494873046875,0.2446746826171875,-0.002911900402978,-0.0224350020289421,0.004269313532859
1769247420106,-0.14202880859375,-0.9702301025390624,0.225311279296875,0.0175805911421775,-0.0247029494494199,0.0104851312935352
1769247420116,-0.1431121826171875,-0.9507293701171876,0.2086944580078125,0.0414281338453292,-0.0192514583468437,0.0174514278769493
1769247420127,-0.1485137939453125,-0.9424896240234376,0.206817626953125,0.0579988546669483,-0.0177592895925045,0.017166469246149
1769247420136,-0.1570281982421875,-0.943603515625,0.2183837890625,0.0617304742336273,-0.0271666403859853,0.0165054742246866
1769247420146,-0.1609954833984375,-0.94818115234375,0.229217529296875,0.0504131056368351,-0.0453184805810451,0.0146764144301414
1769247420156,-0.1638641357421875,-0.9587554931640624,0.2422332763671875,0.0319648571312427,-0.044513139873743,0.0124060697853565
1769247420166,-0.160064697265625,-0.96270751953125,0.24530029296875,0.0079708406701684,-0.0374685451388359,0.015393603593111
1769247420176,-0.1552734375,-0.960205078125,0.2446746826171875,-0.0111197624355554,-0.0229900050908327,0.0195875503122806
1769247420186,-0.1497344970703125,-0.9591522216796876,0.2429656982421875,-0.0298532359302043,-0.0041108555160462,0.0207971576601266
1769247420196,-0.1466217041015625,-0.957855224609375,0.2419586181640625,-0.0390581861138343,-0.0007707187905907,0.0296098235994577
1769247420206,-0.13995361328125,-0.955596923828125,0.2371368408203125,-0.0404137372970581,0.0002644518972374,0.0269181672483682
1769247420216,-0.154083251953125,-0.957305908203125,0.2353668212890625,-0.0510312244296073,0.0216325912624597,0.0135544249787926
1769247420226,-0.1671295166015625,-0.961273193359375,0.238189697265625,-0.0512402839958667,0.0027366643771529,0.0109125692397356
1769247420236,-0.1604156494140625,-0.962188720703125,0.2342681884765625,-0.0504067130386829,0.0074872109107673,0.0164815057069063
1769247420246,-0.1479034423828125,-0.960296630859375,0.2334747314453125,-0.0419186875224113,0.0089660640805959,0.0171411707997322
1769247420256,-0.14703369140625,-0.963409423828125,0.2274169921875,-0.0335025675594806,0.0117248324677348,0.0216206070035696
1769247420266,-0.1452178955078125,-0.967254638671875,0.225006103515625,-0.0180146861821413,0.0111804828047752,0.0234981346875429
1769247420276,-0.1487274169921875,-0.9678955078125,0.221160888671875,-0.0098129492253065,0.0204094015061855,0.0105815380811691
1769247420287,-0.1696929931640625,-0.9614410400390624,0.2222747802734375,-0.0160767044872045,0.0504125729203224,-0.0201926194131374
1769247420297,-0.19805908203125,-0.958770751953125,0.233612060546875,-0.0239380896091461,0.0238829627633094,-0.0352655798196792
1769247420306,-0.1899261474609375,-0.957366943359375,0.2424468994140625,-0.0308157037943601,-0.0014317154418677,-0.0298934504389762
1769247420317,-0.15826416015625,-0.9588470458984376,0.24371337890625,-0.0358797051012516,0.0033065807074308,-0.0141797345131635
1769247420327,-0.1414337158203125,-0.959808349609375,0.2398223876953125,-0.0359177887439727,-0.0115583855658769,-0.0046389601193368
1769247420337,-0.13958740234375,-0.9552001953125,0.237640380859375,-0.0289925038814544,-0.0247207917273044,0.0007829693495295
1769247420347,-0.145843505859375,-0.95489501953125,0.2347259521484375,-0.0187941938638687,-0.0308138392865657,0.0061297980137169
1769247420357,-0.1431121826171875,-0.955291748046875,0.2296142578125,-0.0007068029372021,-0.0248470269143581,0.0114707676693797
1769247420367,-0.1429901123046875,-0.95831298828125,0.2178955078125,-0.0005685848882421,0.0211497601121664,0.0021536983549594
1769247420377,-0.1539459228515625,-0.9677734375,0.2223968505859375,0.0001147822404163,0.0307651031762361,-0.0030285466928035
1769247420387,-0.1590118408203125,-0.966583251953125,0.2176361083984375,0.0105397263541817,-0.0003858920244965,-0.0019861855544149
1769247420397,-0.1594390869140625,-0.9618377685546876,0.2107391357421875,0.0229785535484552,-0.016920393332839,-0.0025337315164506
1769247420407,-0.1649017333984375,-0.9564666748046876,0.209716796875,0.033141441643238,-0.0176540948450565,-0.0061817294918
1769247420417,-0.1669769287109375,-0.9529266357421876,0.2138671875,0.0443211272358894,-0.0362634658813476,-0.0092733930796384
1769247420428,-0.1639862060546875,-0.9539337158203124,0.2217254638671875,0.0509457401931285,-0.0473629869520664,-0.0114462664350867
1769247420437,-0.1567535400390625,-0.9510650634765624,0.2274932861328125,0.053604107350111,-0.0558635331690311,-0.0067907944321632
1769247420448,-0.149383544921875,-0.9503173828125,0.23260498046875,0.0523694641888141,-0.0420414581894874,-0.0051974253728985
1769247420457,-0.1478729248046875,-0.9534759521484376,0.2316436767578125,0.0506224296987056,0.0126393623650074,-0.0031188279390335
1769247420467,-0.1465606689453125,-0.9546966552734376,0.2318878173828125,0.0455211475491523,0.0194559898227453,-0.0033808830194175
1769247420477,-0.1488037109375,-0.9631805419921876,0.2370758056640625,0.0408688709139823,0.0054879761300981,-0.0002269013202749
1769247420487,-0.1495208740234375,-0.9691619873046876,0.2431182861328125,0.0337800681591033,0.0004735100374091,-0.0013486248208209
1769247420497,-0.1566009521484375,-0.9683380126953124,0.245635986328125,0.0205827727913856,0.0105567704886198,-0.0040131174027919
1769247420508,-0.1591339111328125,-0.9680023193359376,0.246124267578125,0.008093879558146,0.0218118224292993,-0.0064397896640002
1769247420518,-0.1585235595703125,-0.9646759033203124,0.24395751953125,-0.0017805894603952,0.0131158018484711,-0.002878877101466
1769247420528,-0.1468505859375,-0.95947265625,0.240203857421875,-0.0108992531895637,0.0174769945442676,-0.0007273092633113
1769247420538,-0.1471099853515625,-0.9582672119140624,0.239715576171875,-0.0225886665284633,0.0179888531565666,0.0028586371336132
1769247420548,-0.150360107421875,-0.960235595703125,0.2421875,-0.0319765731692314,0.0095564872026443,0.0039004657883197
1769247420558,-0.1524810791015625,-0.9586944580078124,0.239532470703125,-0.0396328978240489,0.0084454165771603,-0.0011422297684475
1769247420568,-0.16241455078125,-0.9556884765625,0.235443115234375,-0.0442542806267738,0.0054118097759783,-0.0068240840919315
1769247420578,-0.1654815673828125,-0.9545440673828124,0.2309722900390625,-0.0476383604109287,-0.0015366439474746,-0.0101631553843617
1769247420588,-0.1630859375,-0.956756591796875,0.23309326171875,-0.0479108020663261,-0.006344448775053,-0.0136758647859096
1769247420598,-0.1652069091796875,-0.9585113525390624,0.2314453125,-0.0490098856389522,0.0016618125373497,-0.0206639990210533
1769247420608,-0.16644287109375,-0.9588775634765624,0.2355194091796875,-0.0484852455556392,0.0088848378509283,-0.0242246463894844
1769247420618,-0.159088134765625,-0.9554290771484376,0.236572265625,-0.0414403825998306,-0.0014444985426962,-0.021231785416603
1769247420628,-0.148162841796875,-0.9560699462890624,0.234649658203125,-0.0276137851178646,-0.00402243854478,-0.0186282787472009
1769247420638,-0.1475982666015625,-0.9548797607421876,0.2287445068359375,-0.0117820911109447,-0.0176761988550424,-0.0221556350588798
1769247420648,-0.1551666259765625,-0.95440673828125,0.2256011962890625,-0.0065614962950348,-0.0010274475207552,-0.0368509590625762
1769247420658,-0.16650390625,-0.9521026611328124,0.228271484375,-0.0045974147506058,0.0089599387720227,-0.0407351776957511
1769247420668,-0.1594696044921875,-0.955780029296875,0.231964111328125,0.0024426514282822,-0.0090893683955073,-0.0337957814335823
1769247420679,-0.1446990966796875,-0.959381103515625,0.22955322265625,0.0103895235806703,-0.0112012550234794,-0.0206951592117548
1769247420689,-0.1314697265625,-0.957855224609375,0.2257232666015625,0.0193864814937114,-0.0005912217311561,-0.0074102454818785
1769247420698,-0.128448486328125,-0.9580535888671876,0.2214508056640625,0.0309826824814081,0.0022442457266151,0.0049529471434652
1769247420708,-0.1294097900390625,-0.9599456787109376,0.2166595458984375,0.0404464937746524,0.0029688919894397,0.0149563122540712
1769247420719,-0.13934326171875,-0.9606475830078124,0.220001220703125,0.0286518838256597,0.0278289671987295,0.0111706294119358
1769247420729,-0.1591949462890625,-0.960662841796875,0.2325286865234375,0.0189894028007984,0.0380206182599067,0.0126582710072398
1769247420739,-0.158111572265625,-0.9607696533203124,0.2359771728515625,0.0125994151458144,0.0179995074868202,0.0207854397594928
1769247420749,-0.142791748046875,-0.96075439453125,0.2359161376953125,0.0132558839395642,0.0318162515759468,0.0315648503601551
1769247420759,-0.1393890380859375,-0.9573974609375,0.2272186279296875,0.0143184857442975,0.02690458483994,0.0421091057360172
1769247420769,-0.1379241943359375,-0.954193115234375,0.232086181640625,0.0011254518758505,0.0416779369115829,0.042597260326147
1769247420779,-0.1508331298828125,-0.9577789306640624,0.2480621337890625,0.0005675196298398,0.0394288972020149,0.0415410511195659
1769247420789,-0.1579132080078125,-0.95452880859375,0.2390594482421875,0.0031989889685064,0.0199105907231569,0.0360325686633586
1769247420799,-0.1652069091796875,-0.95538330078125,0.2359771728515625,0.0024775387719273,0.0136218024417757,0.0329358465969562
1769247420809,-0.16668701171875,-0.957061767578125,0.23681640625,0.0093756588175892,0.0033902039285749,0.0292241983115673
1769247420819,-0.162933349609375,-0.958740234375,0.228057861328125,0.0187542457133531,0.010064885020256,0.0222826693207025
1769247420829,-0.165191650390625,-0.96112060546875,0.223541259765625,0.0224560406059026,0.03411216288805,0.0178042966872453
1769247420839,-0.1584320068359375,-0.96197509765625,0.226287841796875,0.0219148863106966,0.0291597489267587,0.0229111742228269
1769247420849,-0.1497344970703125,-0.96343994140625,0.2334442138671875,0.0220376569777727,0.0249277204275131,0.0242640599608421
1769247420859,-0.147216796875,-0.9607391357421876,0.23779296875,0.0205878335982561,0.0238699130713939,0.0231407396495342
1769247420869,-0.1537628173828125,-0.95648193359375,0.238677978515625,0.010170878842473,0.0234174411743879,0.0127405626699328
1769247420879,-0.1680450439453125,-0.9513702392578124,0.2418670654296875,0.0044038030318915,0.0029225528705865,0.003484479850158
1769247420889,-0.172027587890625,-0.9484710693359376,0.2403411865234375,0.0045587993226945,-0.0138702755793929,0.0023459785152226
1769247420899,-0.1665191650390625,-0.9516448974609376,0.2328643798828125,0.0140489740297198,-0.0189867410808801,0.0082768378779292
1769247420909,-0.1515960693359375,-0.9554595947265624,0.2190399169921875,0.0271027237176895,-0.0154226319864392,0.0238515362143516
1769247420919,-0.1341705322265625,-0.9585723876953124,0.21710205078125,0.0354605205357074,-0.0003789678157772,0.0350024588406086
1769247420930,-0.1367950439453125,-0.9678955078125,0.22259521484375,0.0338037684559822,0.0292218010872602,0.0370392426848411
1769247420939,-0.1484832763671875,-0.97027587890625,0.2332763671875,0.0370949059724807,0.0234659109264612,0.0333259999752044
1769247420950,-0.1569061279296875,-0.97021484375,0.234893798828125,0.0337984450161457,0.0010005496442317,0.0343925952911376
1769247420960,-0.1580047607421875,-0.969024658203125,0.24114990234375,0.032320387661457,0.0025148231070488,0.0374807976186275
1769247420970,-0.159942626953125,-0.959014892578125,0.2410888671875,0.023602532222867,0.0102861933410167,0.0388081148266792
1769247420980,-0.1648406982421875,-0.9409942626953124,0.240875244140625,0.0196370836347341,0.0211966317147016,0.0292108822613954
1769247420990,-0.1763153076171875,-0.931243896484375,0.239501953125,0.0197958089411258,0.0104110958054661,0.0208365730941295
1769247421000,-0.1788330078125,-0.9255828857421876,0.237518310546875,0.0358184501528739,0.0001866875973064,0.0219351258128881
1769247421010,-0.1673736572265625,-0.9407806396484376,0.2335205078125,0.0516757108271122,-0.0109091065824031,0.0276787653565406
1769247421020,-0.1487884521484375,-0.968902587890625,0.244598388671875,0.0556715168058872,-0.0121107250452041,0.0306561794131994
1769247421030,-0.1456451416015625,-0.9801483154296876,0.2515716552734375,0.0912665277719497,-0.1388977020978927,0.0517074018716812
1769247421040,-0.1433258056640625,-0.980926513671875,0.23504638671875,0.0955281183123588,-0.1314309984445572,0.0170389041304588
1769247421050,-0.190185546875,-0.953948974609375,0.2341156005859375,0.0928913280367851,0.0082930838689208,0.0115330852568149
1769247421060,-0.1624908447265625,-0.944854736328125,0.2209014892578125,0.0928569659590721,0.0445730611681938,0.0166026782244443
1769247421070,-0.155517578125,-0.946533203125,0.231536865234375,0.0872038751840591,-0.0099264001473784,0.0224898625165224
1769247421080,-0.1623077392578125,-0.9555511474609376,0.2510528564453125,0.0611658841371536,-0.0034783547744154,0.0173068176954984
1769247421090,-0.173858642578125,-0.9535980224609376,0.266204833984375,0.0358181856572628,0.0174018926918506,0.0058837216347455
1769247421100,-0.182464599609375,-0.9469757080078124,0.2652587890625,0.012656140141189,-0.0053252568468451,0.0088262483477592
1769247421111,-0.1624603271484375,-0.94580078125,0.264190673828125,-0.0013662016717717,-0.0159970764070749,0.0213428400456905
1769247421120,-0.146087646484375,-0.9463653564453124,0.25531005859375,-0.012425510212779,0.0124990139156579,0.0353992693126201
1769247421130,-0.1416168212890625,-0.950042724609375,0.247406005859375,-0.0205374993383884,0.0201460141688585,0.0410715378820896
1769247421141,-0.1463623046875,-0.9540252685546876,0.2489776611328125,-0.0208469592034816,0.0127717219293117,0.0495885908603668
1769247421151,-0.1523895263671875,-0.9574737548828124,0.2454681396484375,-0.0165158603340387,0.0271922051906585,0.0477853640913963
1769247421162,-0.15887451171875,-0.9653778076171876,0.2402496337890625,-0.0158860217779874,0.0266254860907793,0.0456335321068763
1769247421171,-0.1595611572265625,-0.9688568115234376,0.2436065673828125,-0.0211707986891269,0.028243089094758,0.0391790941357612
1769247421181,-0.1728973388671875,-0.9637451171875,0.2476043701171875,-0.0258590281009674,0.0216501671820878,0.0257626213133335
1769247421191,-0.1795806884765625,-0.958160400390625,0.2533111572265625,-0.0314050614833831,0.0169398356229066,0.0171765908598899
1769247421201,-0.1797027587890625,-0.9513702392578124,0.2516326904296875,-0.0342961885035038,0.0077407439239323,0.0137733360752463
1769247421211,-0.176300048828125,-0.94970703125,0.2501373291015625,-0.0355281680822372,0.0059614861384034,0.0116760972887277
1769247421221,-0.171966552734375,-0.9492645263671876,0.2464599609375,-0.0346583798527717,0.0114593161270022,0.0181188154965639
1769247421231,-0.15924072265625,-0.9506988525390624,0.241668701171875,-0.0256315935403108,0.0170551501214504,0.0303539112210273
1769247421241,-0.1540679931640625,-0.952880859375,0.237884521484375,-0.0183960516005754,0.0234917439520359,0.0368512235581874
1769247421251,-0.1551971435546875,-0.9553680419921876,0.2383880615234375,-0.0131203290075063,0.0422547794878482,0.0391990691423416
1769247421261,-0.162384033203125,-0.9552764892578124,0.2430572509765625,-0.0064094299450516,0.0459235496819019,0.0345643684267997
1769247421271,-0.1703033447265625,-0.9574737548828124,0.243682861328125,-0.001954493811354,0.0342613011598587,0.0308292843401432
1769247421282,-0.1733245849609375,-0.9584503173828124,0.2447357177734375,0.0005675196298398,0.0264947246760129,0.024893632158637
1769247421291,-0.1765899658203125,-0.9566497802734376,0.245574951171875,-0.0031273500062525,0.0263623651117086,0.0214360505342483
1769247421301,-0.172943115234375,-0.9568939208984376,0.252197265625,-0.000157392816618,0.0155137125402688,0.0129264509305357
1769247421311,-0.170623779296875,-0.9524993896484376,0.246063232421875,-0.0035092474427074,-0.0140923829749226,0.0038690404035151
1769247421322,-0.1769561767578125,-0.9495697021484376,0.2471771240234375,-0.0094451671466231,-0.0142484446987509,-0.0011382350930944
1769247421331,-0.17608642578125,-0.947113037109375,0.2434844970703125,-0.0094371773302555,-0.0095777921378612,-0.0021283982787281
1769247421341,-0.171722412109375,-0.94366455078125,0.23480224609375,-0.0032264196779578,-0.0083362264558672,0.0030445256270468
1769247421352,-0.1667022705078125,-0.9476165771484376,0.2283935546875,0.0023257385473698,-0.0135685391724109,0.000941960082855
1769247421362,-0.17022705078125,-0.952239990234375,0.230224609375,0.0075410068966448,-0.0079239690676331,-0.0010029464028775
1769247421372,-0.1706695556640625,-0.956817626953125,0.2339019775390625,0.0139885200187563,-0.0021068267524242,-0.0037966023664921
1769247421382,-0.169830322265625,-0.9577789306640624,0.2360382080078125,0.0169406346976757,-0.0025220136158168,-0.0042261704802513
1769247421392,-0.170379638671875,-0.9552001953125,0.2375640869140625,0.0201143231242895,-0.0080888187512755,-0.0044466801919043
1769247421402,-0.1684112548828125,-0.953765869140625,0.2408447265625,0.0225021131336689,-0.0018860506825149,-0.0053867758251726
1769247421412,-0.1674041748046875,-0.9476776123046876,0.241912841796875,0.0252640768885612,0.021923940628767,-0.0039065908640623
1769247421422,-0.1627044677734375,-0.9417266845703124,0.2404327392578125,0.0268372073769569,0.0150931989774107,0.0035281558521091
1769247421432,-0.158050537109375,-0.943450927734375,0.2469482421875,0.0275743696838617,-0.0018306568963453,0.0110004534944891
1769247421442,-0.158172607421875,-0.9475250244140624,0.2467498779296875,0.0293272621929645,0.0086467517539858,0.0133389746770262
1769247421452,-0.162506103515625,-0.952545166015625,0.24578857421875,0.0246739201247692,0.0111264204606413,0.0120156500488519
1769247421462,-0.165435791015625,-0.9615020751953124,0.2483367919921875,0.0161858946084976,-0.0041561289690434,0.0115594509989023
1769247421472,-0.167236328125,-0.9620819091796876,0.250457763671875,0.0102803343906998,-0.0087391631677746,0.0118662463501095
1769247421482,-0.1689453125,-0.961212158203125,0.24713134765625,0.0085239792242646,-0.0092086782678961,0.0163329001516103
1769247421492,-0.1645660400390625,-0.9574432373046876,0.240875244140625,0.0038978024385869,-0.0035212314687669,0.0195891484618186
1769247421502,-0.1655120849609375,-0.953460693359375,0.2419891357421875,-0.0007648598402738,0.0045393579639494,0.0213478989899158
1769247421513,-0.175323486328125,-0.9522705078125,0.2451629638671875,-0.0066746803931891,0.0215263310819864,0.023402526974678
1769247421522,-0.1724700927734375,-0.948028564453125,0.246337890625,-0.0080600567162036,0.0276071261614561,0.0277109891176223
1769247421532,-0.1687164306640625,-0.9464263916015624,0.24554443359375,-0.0055481633171439,0.0205169934779405,0.0328793860971927
1769247421542,-0.1669464111328125,-0.948028564453125,0.2451019287109375,-0.0029084382113069,0.0155408764258027,0.0331409089267253
1769247421553,-0.1716766357421875,-0.9470062255859376,0.2476043701171875,0.0013624732382595,0.0130452280864119,0.0325952284038066
1769247421563,-0.1734771728515625,-0.9455718994140624,0.248748779296875,0.0051596080884337,0.0026660906150937,0.035057321190834
1769247421573,-0.1699981689453125,-0.94677734375,0.250885009765625,0.0144745465368032,-0.004790760576725,0.0296777337789535
1769247421583,-0.1748199462890625,-0.9522247314453124,0.24560546875,0.0240392889827489,-0.0079082567244768,0.0218935813754796
1769247421593,-0.176422119140625,-0.9536590576171876,0.2445068359375,0.0304886661469936,-0.0044666538015007,0.0218379199504852
1769247421603,-0.173919677734375,-0.9552154541015624,0.2429962158203125,0.034442663192749,0.0049321744590997,0.0171249248087406
1769247421613,-0.17352294921875,-0.9532012939453124,0.240509033203125,0.039347406476736,0.0111328121274709,0.0163677874952554
1769247421623,-0.170440673828125,-0.9534759521484376,0.243988037109375,0.0346290841698646,0.0166657958179712,0.0158735048025846
1769247421633,-0.1693267822265625,-0.9531097412109376,0.251129150390625,0.024525050073862,0.0192450676113367,0.0188538488000631
1769247421643,-0.16845703125,-0.9504852294921876,0.2579345703125,0.0127030117437243,0.0309097133576869,0.0226230211555957
1769247421653,-0.1670379638671875,-0.9470672607421876,0.25982666015625,-0.0005488775204867,0.0369492284953594,0.0279552023857831
1769247421663,-0.1659393310546875,-0.9447021484375,0.26104736328125,-0.0084755104035139,0.0199561305344104,0.0270481295883655
1769247421673,-0.17669677734375,-0.9461517333984376,0.2602386474609375,-0.014602112583816,0.0052546830847859,0.0199393536895513
1769247421683,-0.184906005859375,-0.9470672607421876,0.25494384765625,-0.0213779937475919,0.0023497070651501,0.0152902733534574
1769247421693,-0.1855010986328125,-0.949737548828125,0.25506591796875,-0.0213388446718454,-0.0026871294248849,0.0103253414854407
1769247421703,-0.180908203125,-0.9535064697265624,0.24664306640625,-0.0159483402967453,-0.0137626836076378,0.0120380204170942
1769247421714,-0.1725616455078125,-0.9580535888671876,0.24407958984375,-0.0113402726128697,-0.0202139243483543,0.0130534842610359
1769247421723,-0.1723175048828125,-0.95831298828125,0.2396240234375,-0.0062190135940909,0.0038882151711732,0.0055039548315107
1769247421733,-0.177520751953125,-0.9528045654296876,0.237274169921875,-0.0043518715538084,0.0198445450514554,0.0033124396577477
1769247421743,-0.1779632568359375,-0.95166015625,0.23663330078125,0.0011590076610445,0.0073188990354537,0.0073862774297595
1769247421753,-0.1675262451171875,-0.94970703125,0.2422332763671875,0.0039065908640623,0.0108782136812806,0.0157006662338972
1769247421764,-0.16351318359375,-0.9490203857421876,0.2445068359375,0.0019113506423309,0.0176445078104734,0.0164617970585823
1769247421774,-0.169036865234375,-0.950408935546875,0.247711181640625,-0.0055183358490467,0.0063761402852833,0.0139981070533394
1769247421784,-0.1787261962890625,-0.94586181640625,0.2534942626953125,-0.0155640458688139,-0.0076960027217864,0.009099755436182
1769247421794,-0.1813812255859375,-0.9433746337890624,0.2571563720703125,-0.0280710496008396,-0.0133054191246628,0.0112300179898738
1769247421804,-0.1710052490234375,-0.94580078125,0.2581329345703125,-0.0440950244665145,-0.0076728332787752,0.0152679020538926
1769247421814,-0.1650238037109375,-0.9505157470703124,0.26220703125,-0.0599821098148822,-0.0081013357266783,0.0210240595042705
1769247421824,-0.165740966796875,-0.95361328125,0.2657623291015625,-0.0748340263962745,-0.004612062126398,0.0223572365939617
1769247421834,-0.1686248779296875,-0.9511260986328124,0.2641754150390625,-0.079433836042881,-0.0071865399368107,0.0273754317313432
1769247421844,-0.16815185546875,-0.950164794921875,0.256683349609375,-0.0789787024259567,0.0022125542163848,0.0333920456469059
1769247421854,-0.1717376708984375,-0.950286865234375,0.2496337890625,-0.0746159106492996,0.0075005269609391,0.0352879501879215
1769247421864,-0.1798553466796875,-0.9532623291015624,0.24267578125,-0.067059725522995,0.0083591295406222,0.0359556041657924
1769247421875,-0.1858367919921875,-0.9539947509765624,0.2348175048828125,-0.0601672008633613,0.0082451468333601,0.0276452098041772
1769247421884,-0.1920166015625,-0.956756591796875,0.232147216796875,-0.051909003406763,0.0039020637050271,0.0258198790252208
1769247421894,-0.1860504150390625,-0.960052490234375,0.2324981689453125,-0.0382781475782394,-0.0064578992314636,0.0282814390957355
1769247421905,-0.1776580810546875,-0.9613037109375,0.2306365966796875,-0.0291965007781982,-0.0075335502624511,0.0315139852464199
1769247421915,-0.17919921875,-0.954742431640625,0.22650146484375,-0.0206205900758504,0.007079747505486,0.0267842095345258
1769247421924,-0.1871185302734375,-0.9438629150390624,0.2216339111328125,-0.0099104214459657,0.0172966979444026,0.0207321755588054
1769247421934,-0.1875762939453125,-0.92840576171875,0.2182159423828125,0.0069694924168288,0.017959825694561,0.0188892688602209
1769247421944,-0.1812286376953125,-0.9244232177734376,0.21917724609375,0.0219612251967191,0.0147214215248823,0.0246321093291044
1769247421954,-0.1751861572265625,-0.942718505859375,0.23388671875,0.030148847028613,0.0134867802262306,0.0244267787784338
1769247421964,-0.1733856201171875,-0.968475341796875,0.2537841796875,0.03216353058815,0.0125618642196059,0.0260606296360492
1769247421974,-0.17388916015625,-0.978912353515625,0.2615966796875,0.0314010642468929,0.0031214910559356,0.0137712061405181
1769247421984,-0.1854248046875,-0.975128173828125,0.2559814453125,0.0321821719408035,0.0101570300757884,-0.0025020397733896
1769247421994,-0.1944427490234375,-0.9568634033203124,0.24322509765625,0.0424329452216625,0.0013089436106383,-0.0151448640972375
1769247422005,-0.200408935546875,-0.94354248046875,0.2306060791015625,0.0547181069850921,-0.017642643302679,-0.0252797901630401
1769247422015,-0.1982421875,-0.937530517578125,0.23046875,0.0584270916879177,-0.0167960245162248,-0.0265903323888778
1769247422025,-0.186737060546875,-0.9427642822265624,0.2378082275390625,0.0552387535572052,-0.0074259582906961,-0.0251237284392118
1769247422036,-0.1740264892578125,-0.9477081298828124,0.2445831298828125,0.0420497171580791,-0.005315136630088,-0.0183150917291641
1769247422045,-0.1697540283203125,-0.9507598876953124,0.2514495849609375,0.0231615118682384,-0.0083535369485616,-0.0131466947495937
1769247422055,-0.16754150390625,-0.9515228271484376,0.2582550048828125,0.0046887611970305,-0.0015499597648158,-0.0056134108453989
1769247422065,-0.1680145263671875,-0.9484405517578124,0.25811767578125,-0.0136830555275082,0.0084685860201716,0.0026024410035461
1769247422075,-0.16796875,-0.9485626220703124,0.2574615478515625,-0.0312958694994449,0.0067290090955793,0.0069290124811232
1769247422085,-0.1719207763671875,-0.9521636962890624,0.25579833984375,-0.0382632315158844,0.004545749630779,0.0040525323711335
1769247422095,-0.1820831298828125,-0.9533538818359376,0.245849609375,-0.0424843430519104,0.0036895433440804,-0.0015696671325713
1769247422105,-0.1888580322265625,-0.9567413330078124,0.243408203125,-0.0478271767497062,0.0030791468452662,-0.00927818659693
1769247422115,-0.1815643310546875,-0.961761474609375,0.2449798583984375,-0.049829076975584,0.0027007116004824,-0.0062997075729072
1769247422125,-0.1712799072265625,-0.963653564453125,0.2423248291015625,-0.0436899550259113,0.0007467503892257,-0.0098318578675389
1769247422135,-0.1748504638671875,-0.9583587646484376,0.2356414794921875,-0.0475600622594356,0.011395932175219,-0.0223345998674631
1769247422145,-0.1890411376953125,-0.957244873046875,0.24249267578125,-0.0513404197990894,0.0059260660782456,-0.0285022146999835
1769247422155,-0.1890411376953125,-0.9532928466796876,0.2481231689453125,-0.0554712489247322,-0.0101045658811926,-0.0226214230060577
1769247422166,-0.178253173828125,-0.9507598876953124,0.2506256103515625,-0.0494871251285076,-0.0112835466861724,-0.0130180642008781
1769247422176,-0.167388916015625,-0.9449005126953124,0.2381591796875,-0.0329861789941787,-0.0085567366331815,-0.0045782402157783
1769247422186,-0.1718597412109375,-0.9427642822265624,0.2301177978515625,-0.0315645821392536,0.0163052044808864,-0.0181603617966175
1769247422196,-0.1964111328125,-0.946258544921875,0.2437591552734375,-0.0332082882523536,0.030016753822565,-0.0345180295407772
1769247422206,-0.2006988525390625,-0.953216552734375,0.2501983642578125,-0.024015586823225,-0.0055399076081812,-0.0293067563325166
1769247422216,-0.179718017578125,-0.95843505859375,0.24658203125,-0.0091197285801172,-0.0098371841013431,-0.018153702840209
1769247422226,-0.162353515625,-0.959625244140625,0.23248291015625,0.0123147228732705,0.0061441790312528,-0.0045116613619029
1769247422236,-0.1522216796875,-0.954864501953125,0.222930908203125,0.0294803939759731,0.0015803198330104,0.0067966533824801
1769247422246,-0.154815673828125,-0.9538726806640624,0.2288665771484375,0.0395687147974967,0.0066326027736067,0.0095258606597781
1769247422256,-0.16552734375,-0.9553985595703124,0.2391357421875,0.0370003618299961,0.0006695187184959,0.0072483252733945
1769247422266,-0.1740875244140625,-0.9571533203125,0.2483978271484375,0.0324213244020938,-0.0263937897980213,0.0004705805622506
1769247422276,-0.190673828125,-0.9522247314453124,0.2465667724609375,0.0282409582287073,-0.0473427474498748,-0.0062256716191768
1769247422286,-0.1937408447265625,-0.9432220458984376,0.24273681640625,0.0203462839126586,-0.0069833411835134,-0.0146958557888865
1769247422296,-0.1912689208984375,-0.9369659423828124,0.2370758056640625,0.0173986982554197,0.0168972238898277,-0.0183395929634571
1769247422306,-0.18017578125,-0.942840576171875,0.2325592041015625,0.0209401696920394,-0.0151379397138953,-0.0074691013433039
1769247422316,-0.1636962890625,-0.9482574462890624,0.2372589111328125,0.0256201419979333,-0.0029316076543182,-0.0013313142117112
1769247422326,-0.161895751953125,-0.9527587890625,0.2366180419921875,0.0307437982410192,0.0175145454704761,0.0059265987947583
1769247422336,-0.1599578857421875,-0.95050048828125,0.2382659912109375,0.038933016359806,0.0067234165035188,0.0151304835453629
1769247422346,-0.1599884033203125,-0.94622802734375,0.2381744384765625,0.0502898022532463,0.0140729416161775,0.0217082239687442
1769247422356,-0.165283203125,-0.9432373046875,0.2378387451171875,0.05081257969141,0.0309778898954391,0.0229599103331565
1769247422366,-0.1744232177734375,-0.9446258544921876,0.2447967529296875,0.0481648668646812,0.0432382859289646,0.022433403879404
1769247422377,-0.17901611328125,-0.95172119140625,0.2507476806640625,0.0411024279892444,0.0275863539427518,0.0239045340567827
1769247422386,-0.17828369140625,-0.9600982666015624,0.2555694580078125,0.0294242016971111,0.0106142945587635,0.0191049855202436
1769247422396,-0.1858978271484375,-0.9632720947265624,0.2578582763671875,0.0160468779504299,0.0025547703262418,0.0130204604938626
1769247422407,-0.1865081787109375,-0.96112060546875,0.2581329345703125,0.0045303031802177,0.0032155006192624,0.0094243939965963
1769247422417,-0.1833648681640625,-0.9587554931640624,0.2533721923828125,-0.0045920885168015,0.0005025385180488,0.0067180902697145
1769247422427,-0.1787261962890625,-0.95599365234375,0.2491455078125,-0.0127048762515187,0.0037726340815424,0.0095024248585104
1769247422437,-0.1732940673828125,-0.952301025390625,0.2472991943359375,-0.016710003837943,0.0094158723950386,0.0155794918537139
1769247422447,-0.1679534912109375,-0.9516448974609376,0.2449188232421875,-0.0171142723411321,0.018907643854618,0.0199239067733287
1769247422457,-0.1717071533203125,-0.9506072998046876,0.2403411865234375,-0.0151778878644108,0.0213343165814876,0.0209561474621295
1769247422467,-0.180206298828125,-0.949676513671875,0.2398681640625,-0.0119828935712575,0.0075508607551455,0.0174482315778732
1769247422477,-0.1912841796875,-0.94781494140625,0.242950439453125,-0.0142159536480903,0.012867328710854,0.00926274061203
1769247422487,-0.190032958984375,-0.947967529296875,0.2488861083984375,-0.0202171206474304,0.0133666712790727,0.010988469235599
1769247422497,-0.182403564453125,-0.9513092041015624,0.256256103515625,-0.0216911807656288,0.0066326027736067,0.0123807694762945
1769247422507,-0.1786956787109375,-0.952606201171875,0.258270263671875,-0.0282867643982172,0.0086297066882252,0.0069074407219886
1769247422517,-0.1844329833984375,-0.9489288330078124,0.2598419189453125,-0.0284758489578962,0.0053300503641366,-0.0011078750248998
1769247422527,-0.191925048828125,-0.9473876953125,0.256622314453125,-0.0284726545214653,-0.0093716634437441,-0.0072653698734939
1769247422537,-0.1855010986328125,-0.947845458984375,0.252288818359375,-0.0276356227695941,-0.0165592692792415,-0.0046546729281544
1769247422547,-0.1785736083984375,-0.9489898681640624,0.24591064453125,-0.0178927145898342,-0.0158527325838804,-0.0062179486267268
1769247422557,-0.1829833984375,-0.94830322265625,0.236297607421875,-0.0156655125319957,0.0052128713577985,-0.0201513413339853
1769247422567,-0.1974945068359375,-0.943511962890625,0.2340240478515625,-0.0132718635722994,0.0050546796992421,-0.0329028218984603
1769247422577,-0.195526123046875,-0.9467620849609376,0.2393951416015625,-0.0051446943543851,-0.0119727728888392,-0.0240747090429067
1769247422587,-0.1753082275390625,-0.951751708984375,0.236358642578125,0.0078677767887711,-0.0076533923856914,-0.0142543036490678
1769247422597,-0.1613922119140625,-0.9568023681640624,0.232147216796875,0.0224469862878322,0.0035023230593651,0.0032708945218473
1769247422608,-0.1494598388671875,-0.953033447265625,0.2300567626953125,0.0361004807054996,0.0100366547703742,0.013759221881628
1769247422618,-0.1590423583984375,-0.9503173828125,0.23089599609375,0.0326863080263137,0.0284665282815694,-0.0013116068439558
1769247422628,-0.1927032470703125,-0.9542694091796876,0.2442169189453125,0.0216799955815076,0.0179659500718116,-0.0156223690137267
1769247422638,-0.20428466796875,-0.949951171875,0.2556304931640625,0.0153983971104025,-0.0098220044746994,-0.0129693280905485
1769247422648,-0.1867523193359375,-0.9496002197265624,0.25701904296875,0.0102955140173435,-0.0121815651655197,-0.0023598270490765
1769247422658,-0.166961669921875,-0.954193115234375,0.2529296875,0.008101868443191,-0.0096584865823388,0.0089253177866339
1769247422668,-0.1594085693359375,-0.9546661376953124,0.2503204345703125,0.0072251558303833,-0.0020788635592907,0.0120231071487069
1769247422678,-0.169921875,-0.949676513671875,0.2507781982421875,0.0055138086900115,0.0161589961498975,0.0071662999689579
1769247422688,-0.1798248291015625,-0.9477386474609376,0.2474517822265625,0.0078454064205288,0.0119306957349181,0.0084683196619153
1769247422698,-0.1746063232421875,-0.9462738037109376,0.2462310791015625,0.0089673958718776,0.0047412258572876,0.0163472816348075
1769247422708,-0.168243408203125,-0.9478759765625,0.243438720703125,0.0198898185044527,0.0284952912479639,0.0247716587036848
1769247422718,-0.1640777587890625,-0.9485626220703124,0.2331390380859375,0.0257373210042715,0.0404190607368946,0.0318426191806793
1769247422728,-0.168609619140625,-0.9522705078125,0.2351837158203125,0.0294734705239534,0.0396358259022235,0.0280156563967466
1769247422738,-0.185028076171875,-0.952728271484375,0.24078369140625,0.0268782190978527,0.022083731368184,0.018068216741085
1769247422749,-0.1951904296875,-0.9521331787109376,0.2461395263671875,0.0266723576933145,0.0159110557287931,0.0163502115756273
1769247422758,-0.1842803955078125,-0.946533203125,0.246856689453125,0.0273099169135093,0.0127589385956525,0.0234411433339118
1769247422769,-0.1710205078125,-0.9461517333984376,0.246063232421875,0.0241940189152956,0.0165331698954105,0.0351646468043327
1769247422778,-0.1640472412109375,-0.9485015869140624,0.2514801025390625,0.0172745939344167,0.0307706948369741,0.0406891070306301
1769247422788,-0.1664276123046875,-0.947235107421875,0.256103515625,0.0117421438917517,0.0308447312563657,0.049409095197916
1769247422798,-0.1683502197265625,-0.9437255859375,0.2558746337890625,0.0067282100208103,0.0209063477814197,0.0511454753577709
1769247422808,-0.1746978759765625,-0.94378662109375,0.256744384765625,0.0018322548130527,0.015630891546607,0.0530091561377048
1769247422819,-0.181549072265625,-0.9488067626953124,0.2554168701171875,0.0050602722913026,0.0248574130237102,0.0528744012117385
1769247422829,-0.18408203125,-0.94952392578125,0.2466583251953125,0.0115764951333403,0.0312737673521041,0.0454665496945381
1769247422839,-0.19256591796875,-0.95428466796875,0.2420806884765625,0.0191792864352464,0.0285328421741724,0.0381127633154392
1769247422849,-0.1923370361328125,-0.9581756591796876,0.23968505859375,0.0216634832322597,0.0264033786952495,0.0351875498890876
1769247422859,-0.1897735595703125,-0.9631500244140624,0.2474365234375,0.0166372992098331,0.0190610419958829,0.0346831455826759
1769247422869,-0.1885528564453125,-0.9640960693359376,0.2566986083984375,0.0167464893311262,0.0196719709783792,0.0333041623234748
1769247422879,-0.1843109130859375,-0.9574127197265624,0.2530975341796875,0.0130095416679978,0.0321033410727977,0.0330322533845901
1769247422889,-0.1850738525390625,-0.943572998046875,0.2492828369140625,0.007833688519895,0.0372626818716526,0.0331741981208324
1769247422899,-0.1903076171875,-0.9256439208984376,0.244537353515625,0.0102555667981505,0.0301893278956413,0.0303243491798639
1769247422909,-0.1941070556640625,-0.91241455078125,0.240509033203125,0.0202277731150388,0.016490027308464,0.0303014460951089
1769247422919,-0.1961517333984375,-0.9147186279296876,0.238677978515625,0.039031021296978,0.008470450527966,0.0337704792618751
1769247422929,-0.18609619140625,-0.9420928955078124,0.2491302490234375,0.0486887097358703,0.0105945877730846,0.0339297391474247
1769247422939,-0.178070068359375,-0.9745941162109376,0.264495849609375,0.0459842681884765,0.0303027778863906,0.029983464628458
1769247422949,-0.1814727783203125,-0.985107421875,0.2698974609375,0.0444827787578105,0.0389250293374061,0.0138697428628802
1769247422959,-0.1945648193359375,-0.976776123046875,0.2650909423828125,0.0431834235787391,0.0233681723475456,0.0020237360149621
1769247422969,-0.205108642578125,-0.9524993896484376,0.255462646484375,0.042477685958147,0.0120798321440815,-0.0065961172804236
1769247422979,-0.2095947265625,-0.937652587890625,0.246002197265625,0.0426324158906936,0.0129245873540639,-0.0065665561705827
1769247422989,-0.208892822265625,-0.929412841796875,0.2481689453125,0.034850925207138,0.0035675705876201,-0.0085117295384407
1769247422999,-0.206787109375,-0.9351959228515624,0.260589599609375,0.0170809831470251,-0.0086877644062042,-0.0111831463873386
1769247423009,-0.197723388671875,-0.9434051513671876,0.2674713134765625,-0.0003651193692348,-0.0115317534655332,-0.0067846691235899
1769247423019,-0.1855926513671875,-0.9467010498046876,0.2691497802734375,-0.0189649034291505,-0.0122010065242648,-0.0001070590733434
1769247423030,-0.178619384765625,-0.94580078125,0.264923095703125,-0.0307597760111093,-0.0034775556996464,0.0077918767929077
1769247423040,-0.1800384521484375,-0.943115234375,0.257965087890625,-0.034256774932146,-0.0029486520215868,0.0037968687247484
1769247423050,-0.18731689453125,-0.940643310546875,0.2485809326171875,-0.0357273705303669,-0.0004514057945925,0.0009536779834888
1769247423060,-0.18695068359375,-0.9450836181640624,0.2515869140625,-0.035718847066164,0.0025640914682298,-0.000255663471762
1769247423070,-0.1851806640625,-0.9534149169921876,0.2517547607421875,-0.0310681704431772,0.0024402544368058,-0.0051042144186794
1769247423080,-0.18890380859375,-0.9561767578125,0.24609375,-0.0295208748430013,0.0073545854538679,-0.0211417712271213
1769247423090,-0.203216552734375,-0.95404052734375,0.2476348876953125,-0.0295280646532773,0.0136518962681293,-0.0321147926151752
1769247423100,-0.2013092041015625,-0.9512481689453124,0.24993896484375,-0.029766684398055,0.0038179077673703,-0.0365146026015281
1769247423110,-0.1900787353515625,-0.947998046875,0.2521514892578125,-0.0295464396476745,0.0032208270858973,-0.0382374003529548
1769247423120,-0.184173583984375,-0.948272705078125,0.2581024169921875,-0.0321147926151752,0.0222962498664855,-0.0434931479394435
1769247423130,-0.1886749267578125,-0.9471588134765624,0.262359619140625,-0.03908322006464,0.0081535335630178,-0.050961185246706
1769247423140,-0.1952362060546875,-0.9485931396484376,0.2704010009765625,-0.0428966023027896,-0.0272489320486783,-0.0600108727812767
1769247423150,-0.2032470703125,-0.9530487060546876,0.2719268798828125,-0.0424814149737358,-0.0348647721111774,-0.0588579885661602
1769247423160,-0.191986083984375,-0.9560089111328124,0.2650909423828125,-0.04620211571455,-0.0195390805602073,-0.0526392422616481
1769247423170,-0.181182861328125,-0.95977783203125,0.2586669921875,-0.0562936328351497,-0.0013789847726002,-0.0478897616267204
1769247423180,-0.181427001953125,-0.9617462158203124,0.2600555419921875,-0.0655632987618446,-0.0046914243139326,-0.0405452959239482
1769247423190,-0.1783294677734375,-0.960662841796875,0.261138916015625,-0.0675585344433784,-0.0205777138471603,-0.0358783714473247
1769247423200,-0.1829376220703125,-0.95404052734375,0.2536468505859375,-0.0662855431437492,-0.0217678789049386,-0.030016753822565
1769247423210,-0.18536376953125,-0.950653076171875,0.245269775390625,-0.0588454715907573,-0.023472037166357,-0.0278468113392591
1769247423220,-0.1815643310546875,-0.9491119384765624,0.236602783203125,-0.0449853166937828,-0.0144196860492229,-0.0286659989506006
1769247423231,-0.1812744140625,-0.9511871337890624,0.2325439453125,-0.0368885099887847,-0.003778226673603,-0.0283184573054313
1769247423240,-0.18243408203125,-0.953277587890625,0.2301788330078125,-0.0250105448067188,-0.0007560714147984,-0.0320633947849273
1769247423251,-0.1906280517578125,-0.9490814208984376,0.2220916748046875,-0.0118103204295039,3.1425301131093875e-05,-0.0368307195603847
1769247423261,-0.192413330078125,-0.941802978515625,0.2188720703125,0.0037566549144685,-0.0008785768295638,-0.0373199395835399
1769247423271,-0.1887054443359375,-0.93609619140625,0.2236785888671875,0.0198288317769765,-0.0024229439441114,-0.0408494286239147
1769247423281,-0.1833648681640625,-0.9353179931640624,0.23187255859375,0.0323608703911304,0.0011321097845211,-0.0431618504226207
1769247423291,-0.1764678955078125,-0.941131591796875,0.24200439453125,0.0322303734719753,-0.001340635237284,-0.0481848381459713
1769247423301,-0.172637939453125,-0.9479827880859376,0.25439453125,0.0282888952642679,-0.0131368413567543,-0.0525444336235523
1769247423311,-0.1754150390625,-0.946136474609375,0.2577972412109375,0.0252907089889049,-0.0246289130300283,-0.0531726740300655
1769247423321,-0.173583984375,-0.9443206787109376,0.2567596435546875,0.0197055283933877,-0.0128713240846991,-0.0494503751397132
1769247423331,-0.169036865234375,-0.942138671875,0.2552490234375,0.011846006847918,-0.0078739020973443,-0.0457845330238342
1769247423341,-0.170135498046875,-0.942230224609375,0.253448486328125,0.0024956483393907,-0.0122236432507634,-0.0444319136440753
1769247423351,-0.173095703125,-0.9458465576171876,0.2525177001953125,-0.0049558766186237,-0.0138207403942942,-0.0416390560567379
1769247423361,-0.174224853515625,-0.94976806640625,0.2521514892578125,-0.0093245254829525,-0.0063979779370129,-0.0325483568012714
1769247423371,-0.1677398681640625,-0.9553375244140624,0.250579833984375,-0.0161318313330411,0.0009534116834402,-0.021999042481184
1769247423381,-0.1641998291015625,-0.9578704833984376,0.246734619140625,-0.0205606687813997,-0.0062283347360789,-0.0135496305301785
1769247423391,-0.16961669921875,-0.9585418701171876,0.2470855712890625,-0.0341241471469402,0.0001613875647308,-0.0106209525838494
1769247423401,-0.1759185791015625,-0.9559326171875,0.2532958984375,-0.0427927374839782,0.001341700553894,-0.006328469607979
1769247423411,-0.1749420166015625,-0.95367431640625,0.2562103271484375,-0.0564627423882484,-0.0044562672264873,0.0049012815579771
1769247423421,-0.1685791015625,-0.951629638671875,0.2564849853515625,-0.0675529465079307,0.0012269183062016,0.0121253719553351
1769247423432,-0.1683197021484375,-0.9505767822265624,0.255462646484375,-0.0746321603655815,0.016760604456067,0.015952069312334
1769247423441,-0.1731414794921875,-0.946197509765625,0.2516937255859375,-0.076397567987442,0.0150479255244135,0.0197060611099004
1769247423452,-0.1756591796875,-0.9467620849609376,0.2487640380859375,-0.0717098712921142,0.0076701701618731,0.0223460514098405
1769247423462,-0.171051025390625,-0.950653076171875,0.2445831298828125,-0.0568473041057586,0.0118822259828448,0.0337337292730808
1769247423472,-0.163726806640625,-0.9534912109375,0.23553466796875,-0.0401450209319591,0.0169520862400531,0.0393916144967079
1769247423482,-0.16357421875,-0.9549102783203124,0.22943115234375,-0.0288052819669246,0.0380866639316082,0.0285757184028625
1769247423492,-0.1815032958984375,-0.9486846923828124,0.2308349609375,-0.018043715506792,0.0358805023133754,0.0112515892833471
1769247423502,-0.194580078125,-0.9452972412109376,0.2317047119140625,-0.0023252058308571,0.0038599856197834,0.0036341496743261
1769247423512,-0.19097900390625,-0.9510498046875,0.2348175048828125,0.0146071724593639,-0.0031356059480458,0.0047835698351264
1769247423522,-0.17718505859375,-0.95416259765625,0.2313690185546875,0.0252531580626964,-0.0016042882343754,0.0085564702749252
1769247423532,-0.17144775390625,-0.955596923828125,0.2342987060546875,0.0236166454851627,0.0245090704411268,0.001252484624274
1769247423542,-0.1839599609375,-0.9533233642578124,0.2425689697265625,0.0220773387700319,0.0297384541481733,-0.0091639375314116
1769247423552,-0.1880035400390625,-0.94781494140625,0.2425994873046875,0.0216608196496963,-0.0046139266341924,-0.0121679827570915
1769247423562,-0.181243896484375,-0.94598388671875,0.2449493408203125,0.0236936118453741,-0.0107439905405044,-0.0031539816409349
1769247423572,-0.1732177734375,-0.94219970703125,0.2409515380859375,0.0289496257901191,0.0023417174816131,-0.0024988439399749
1769247423582,-0.1728363037109375,-0.9426422119140624,0.2430572509765625,0.0283621326088905,0.0147842727601528,-0.0082555329427123
1769247423592,-0.181976318359375,-0.9478759765625,0.243438720703125,0.032239694148302,0.0145717523992061,-0.0119147161021828
1769247423602,-0.182830810546875,-0.95233154296875,0.242431640625,0.0374174118041992,0.0011816446203738,-0.0139749376103281
1769247423612,-0.1790924072265625,-0.957550048828125,0.243011474609375,0.047328632324934,0.0018735338235273,-0.0131743913516402
1769247423622,-0.1787109375,-0.9605712890625,0.242218017578125,0.0497057698667049,-0.0018162758788093,-0.0102337291464209
1769247423632,-0.1763916015625,-0.95904541015625,0.24530029296875,0.0479645952582359,0.0009227853151969,-0.0088118677958846
1769247423642,-0.1741790771484375,-0.956451416015625,0.2512969970703125,0.0387029200792312,0.0101764714345335,-0.0070499200373888
1769247423653,-0.17425537109375,-0.9523773193359376,0.2564239501953125,0.0282758455723524,0.0122297685593366,-0.0056373793631792
1769247423663,-0.17852783203125,-0.94866943359375,0.2612457275390625,0.0193356145173311,0.0015496934065595,-0.0059447083622217
1769247423673,-0.1784515380859375,-0.94873046875,0.2629852294921875,0.007940481416881,-0.0086792418733239,-0.0057862498797476
1769247423683,-0.17767333984375,-0.9507598876953124,0.2636260986328125,0.0003448793722782,-0.0078760329633951,-0.0058323228731751
1769247423693,-0.1760711669921875,-0.948394775390625,0.2605133056640625,-0.0042330943979322,-0.0132297854870557,-0.0032392027787864
1769247423703,-0.1742706298828125,-0.944915771484375,0.2550811767578125,-0.0056464341469109,-0.0164878964424133,0.0005334311863407
1769247423713,-0.171234130859375,-0.9454498291015624,0.24755859375,-0.0065537733025848,-0.0046426886692643,0.0022114890161901
1769247423723,-0.170196533203125,-0.947906494140625,0.2475738525390625,-0.0109080411493778,0.00771837355569,3.1158982892520726e-05
1769247423733,-0.1737518310546875,-0.9488677978515624,0.25103759765625,-0.0194602496922016,0.0060752029530704,-0.0032447953708469
1769247423743,-0.17437744140625,-0.95306396484375,0.2544097900390625,-0.0245402306318283,-0.0005227785441093,-0.0052056810818612
1769247423753,-0.1756591796875,-0.9522247314453124,0.253631591796875,-0.0285797137767076,-0.0061782673001289,-0.0060730725526809
1769247423763,-0.17938232421875,-0.946380615234375,0.250152587890625,-0.0306082423776388,0.0008207862265408,-0.0074129090644419
1769247423773,-0.180999755859375,-0.9477386474609376,0.2496337890625,-0.0398962832987308,-0.002019741339609,-0.0074520572088658
1769247423784,-0.17724609375,-0.9518280029296876,0.2558746337890625,-0.0511436127126216,-0.0074832164682447,0.0002596582053229
1769247423793,-0.16937255859375,-0.955291748046875,0.260498046875,-0.0621565803885459,-0.0007747135823592,0.0055409730412065
1769247423804,-0.168670654296875,-0.9539642333984376,0.2578125,-0.064836785197258,-0.0010849718237295,0.0085972165688872
1769247423813,-0.1715087890625,-0.95367431640625,0.2501373291015625,-0.0639512836933136,-0.0077966703101992,0.0085122613236308
1769247423823,-0.17724609375,-0.9584808349609376,0.2472381591796875,-0.0621150359511375,-0.0120460102334618,0.0084182517603039
1769247423833,-0.1757659912109375,-0.9581298828125,0.242095947265625,-0.0591791681945323,0.001038899179548,0.0107477195560932
1769247423843,-0.1758575439453125,-0.949615478515625,0.2304229736328125,-0.0469872169196605,0.010105631314218,0.0093303844332695
1769247423854,-0.1814117431640625,-0.936248779296875,0.2186126708984375,-0.0282915588468313,0.0141778709366917,0.0059753344394266
1769247423863,-0.183349609375,-0.924285888671875,0.2104034423828125,-0.0033957967534661,0.0121639883145689,0.0050581418909132
1769247423874,-0.1863250732421875,-0.928466796875,0.2134246826171875,0.0235868189483881,0.0035963326226919,0.0015845808666199
1769247423884,-0.18414306640625,-0.95379638671875,0.2308349609375,0.033546507358551,-0.0061873220838606,0.0039872848428785
1769247423894,-0.17327880859375,-0.9739990234375,0.2542877197265625,0.0286012850701808,0.0181792695075273,0.0059140818193554
1769247423904,-0.165557861328125,-0.977325439453125,0.26068115234375,0.0275466721504926,0.0278798341751098,0.0045532062649726
1769247423914,-0.1679229736328125,-0.9625244140625,0.253021240234375,0.0358948856592178,0.0151272872462868,0.0058142133057117
1769247423924,-0.1716766357421875,-0.942626953125,0.2408447265625,0.0475752428174018,0.00927818659693,0.0093591473996639
1769247423934,-0.177734375,-0.9317474365234376,0.2365570068359375,0.0528981015086174,0.0111583787947893,0.0146604357287287
1769247423944,-0.1785430908203125,-0.93487548828125,0.2461700439453125,0.0500700920820236,0.0162825658917427,0.0135730663314461
1769247423955,-0.1841888427734375,-0.94451904296875,0.2569580078125,0.0381316728889942,0.0090643353760242,0.0084920218214392
1769247423964,-0.1893463134765625,-0.9542694091796876,0.25946044921875,0.0193246956914663,-0.0027068369090557,0.0096672745421528
1769247423974,-0.186187744140625,-0.9561614990234376,0.25677490234375,0.008510397747159,-0.0067689563147723,0.0072200959548354
1769247423984,-0.185699462890625,-0.950592041015625,0.2457122802734375,0.0002005360292969,-0.010072074830532,0.0060277986340224
1769247423994,-0.1822662353515625,-0.9476470947265624,0.2412109375,-0.007546333130449,-0.0126303080469369,0.0086542079225182
1769247424004,-0.1766204833984375,-0.9479522705078124,0.2388763427734375,-0.0164269097149372,0.002256762702018,0.0132337799295783
1769247424014,-0.1736297607421875,-0.9485931396484376,0.2432708740234375,-0.0250209309160709,0.0157837569713592,0.0108462562784552
1769247424024,-0.17559814453125,-0.9510650634765624,0.2458953857421875,-0.0336770042777061,0.0120649188756942,0.0091825798153877
1769247424034,-0.1796417236328125,-0.9571380615234376,0.2500457763671875,-0.040923997759819,0.0115847503766417,0.010939466767013
1769247424044,-0.1767120361328125,-0.95904541015625,0.251922607421875,-0.0400992147624492,0.0200770385563373,0.0077876155264675
1769247424054,-0.1789093017578125,-0.9555511474609376,0.2481842041015625,-0.0341044403612613,0.0158908162266016,0.0033904702868312
1769247424064,-0.182525634765625,-0.9521484375,0.243560791015625,-0.0253290589898824,0.0150820137932896,-0.0040935450233519
1769247424074,-0.1877899169921875,-0.95562744140625,0.2456207275390625,-0.0184895284473896,0.0126004805788397,-0.0124342991039156
1769247424084,-0.190093994140625,-0.953643798828125,0.2471923828125,-0.0122832981869578,0.0030477214604616,-0.0173664726316928
1769247424094,-0.1901092529296875,-0.954437255859375,0.24505615234375,-0.0012223909143358,-0.0084688523784279,-0.0199795663356781
1769247424104,-0.1846160888671875,-0.9527587890625,0.2444000244140625,0.0058973040431737,-0.007759918924421,-0.0207327082753181
1769247424115,-0.182891845703125,-0.9509429931640624,0.2440338134765625,0.0126414932310581,-0.0033489251509308,-0.0227945279330015
1769247424125,-0.18096923828125,-0.9529876708984376,0.2436981201171875,0.0195172429084777,-0.0069742863997817,-0.0154929393902421
1769247424135,-0.17181396484375,-0.94970703125,0.243408203125,0.0231974646449089,-0.0013385047204792,-0.0084499437361955
1769247424145,-0.1685028076171875,-0.9534149169921876,0.25054931640625,0.0185057744383811,0.0041617220267653,-0.0017126789316534
1769247424155,-0.165435791015625,-0.952911376953125,0.256744384765625,0.0192884765565395,-0.003221093211323,0.0106694223359227
1769247424165,-0.1614837646484375,-0.94964599609375,0.2605438232421875,0.0142636243253946,-0.0104595655575394,0.0178841911256313
1769247424175,-0.1643524169921875,-0.951934814453125,0.2601318359375,0.0093522230163216,-0.0166636649519205,0.0200890228152275
1769247424185,-0.169647216796875,-0.9519500732421876,0.2586822509765625,-0.0007062703371047,-0.0112502574920654,0.0188700947910547
1769247424195,-0.177459716796875,-0.95074462890625,0.251190185546875,-0.0076110479421913,-0.0089743202552199,0.0109125692397356
1769247424205,-0.18829345703125,-0.944305419921875,0.238525390625,-0.0047923582606017,-0.0120284333825111,0.0057969028130173
1769247424215,-0.1913299560546875,-0.941162109375,0.2259674072265625,0.0076866815797984,-0.0002796319022309,0.0002916161320172
1769247424225,-0.1894378662109375,-0.9434814453125,0.2171630859375,0.0187100376933813,0.010652644559741,-0.0031872710678726
1769247424235,-0.1806182861328125,-0.9504852294921876,0.2256011962890625,0.0266515836119651,0.0124129941686987,-0.0031744879670441
1769247424245,-0.1725921630859375,-0.9536590576171876,0.2346038818359375,0.0258856602013111,0.0201340299099683,-0.0050930292345583
1769247424255,-0.169830322265625,-0.9503631591796876,0.2450408935546875,0.0225607026368379,0.0224581714719533,-0.002544383984059
1769247424265,-0.171783447265625,-0.9437408447265624,0.254547119140625,0.018281802535057,0.0255357194691896,-0.0003384877636563
1769247424275,-0.173980712890625,-0.9385528564453124,0.2610321044921875,0.0104792723432183,0.0207417644560337,0.0034722294658422
1769247424286,-0.17230224609375,-0.9386444091796876,0.2682647705078125,0.0014530207263305,0.0114590497687459,0.0064720138907432
1769247424296,-0.1754913330078125,-0.9480743408203124,0.2734832763671875,-0.0118774324655532,0.0068523134104907,0.0095261270180344
1769247424306,-0.1771697998046875,-0.956573486328125,0.2750396728515625,-0.0282324366271495,-0.0034083134960383,0.0071601746603846
1769247424316,-0.1813812255859375,-0.9593658447265624,0.27264404296875,-0.0373234041035175,-0.0101711452007293,0.0075484635308384
1769247424326,-0.18267822265625,-0.960357666015625,0.2613372802734375,-0.0430542603135108,-0.009346630424261,0.0094369109719991
1769247424336,-0.1791839599609375,-0.9583740234375,0.250274658203125,-0.0481355711817741,-0.0038938077632337,0.0140606919303536
1769247424346,-0.1766815185546875,-0.953521728515625,0.2386627197265625,-0.0467147752642631,0.0037358824629336,0.0225351359695196
1769247424356,-0.1721343994140625,-0.9445037841796876,0.2306976318359375,-0.0453184805810451,0.0052634715102612,0.0257335919886827
1769247424366,-0.17510986328125,-0.942901611328125,0.231964111328125,-0.045520082116127,0.0095173390582203,0.0240771062672138
1769247424376,-0.184814453125,-0.94683837890625,0.2393951416015625,-0.0541772171854972,0.022056033834815,0.0224589705467224
1769247424386,-0.1890716552734375,-0.9508209228515624,0.24761962890625,-0.060864683240652,0.0142926527187228,0.0256291963160038
1769247424396,-0.184478759765625,-0.955352783203125,0.2531890869140625,-0.0652935206890106,0.0140401851385831,0.0289051514118909
1769247424406,-0.1820526123046875,-0.9535675048828124,0.2525634765625,-0.0598726533353328,0.0245269145816564,0.0265498515218496
1769247424416,-0.18463134765625,-0.95404052734375,0.2432098388671875,-0.0485800541937351,0.0181877929717302,0.0261059030890464
1769247424426,-0.18780517578125,-0.9527435302734376,0.2376251220703125,-0.0331702046096324,0.0017068199813365,0.0187334734946489
1769247424436,-0.192474365234375,-0.9498291015625,0.2318115234375,-0.0175204034894704,0.0029539782553911,0.0089977560564875
1769247424446,-0.19659423828125,-0.947479248046875,0.2237548828125,-0.0018399780383333,-0.0065561700612306,0.0015278555219992
1769247424456,-0.1938018798828125,-0.9486083984375,0.225189208984375,0.0122305676341056,-0.0113248256966471,-0.0029878003988415
1769247424466,-0.1872711181640625,-0.9465789794921876,0.2274169921875,0.0234011970460414,0.0055574844591319,-0.0044826325029134
1769247424476,-0.1795501708984375,-0.9490814208984376,0.2331695556640625,0.0282870307564735,0.0113661047071218,-0.0040477383881807
1769247424487,-0.17767333984375,-0.9531707763671876,0.2418212890625,0.0287440307438373,0.0081237060949206,-0.0061180801130831
1769247424497,-0.181976318359375,-0.9527130126953124,0.2529296875,0.0260957833379507,0.0039974045939743,-0.0110867395997047
1769247424506,-0.18804931640625,-0.9530792236328124,0.25592041015625,0.0258518364280462,-0.0055657401680946,-0.0147288786247372
1769247424517,-0.1902618408203125,-0.9548797607421876,0.2540283203125,0.0232137106359004,-0.0130742564797401,-0.0126460203900933
1769247424527,-0.1848602294921875,-0.955230712890625,0.2479400634765625,0.0259586293250322,-0.0116401445120573,-0.009787649847567
1769247424537,-0.180877685546875,-0.9553375244140624,0.2417144775390625,0.0274084545671939,-0.0125517444685101,-0.0079897493124008
1769247424547,-0.1824188232421875,-0.9564056396484376,0.23876953125,0.0277599915862083,-0.0074789552018046,-0.0123986126855015
1769247424557,-0.183013916015625,-0.955718994140625,0.2397003173828125,0.0212288554757833,0.0008223841432482,-0.0185611676424741
1769247424567,-0.1849365234375,-0.955352783203125,0.2427825927734375,0.0164239797741174,0.0151640390977263,-0.0175323877483606
1769247424577,-0.186614990234375,-0.9521026611328124,0.2440185546875,0.010693390853703,0.0006093312404118,-0.0269565172493457
1769247424587,-0.1826019287109375,-0.9486541748046876,0.248748779296875,0.0050248522311449,-0.0093929693102836,-0.0291930381208658
1769247424597,-0.1761474609375,-0.9457244873046876,0.243377685546875,0.0060768011026084,0.0031164311803877,-0.022791065275669
1769247424607,-0.1685333251953125,-0.94580078125,0.236480712890625,0.0062400526367127,0.0175030939280986,-0.0189172327518463
1769247424617,-0.1706085205078125,-0.9490814208984376,0.2433929443359375,-0.0008793757879175,0.0226443260908126,-0.0144865307956933
1769247424627,-0.17352294921875,-0.95416259765625,0.25140380859375,-0.0114100473001599,0.0184961855411529,-0.0104025732725858
1769247424637,-0.173980712890625,-0.95233154296875,0.25726318359375,-0.018442390486598,0.0138034299015998,-0.0098941763862967
1769247424647,-0.177032470703125,-0.948883056640625,0.256500244140625,-0.0245884340256452,0.012908874079585,-0.0139264678582549
1769247424657,-0.182708740234375,-0.94683837890625,0.255218505859375,-0.0256931129842996,0.0001789644302334,-0.0103506417945027
1769247424667,-0.17950439453125,-0.9447479248046876,0.25421142578125,-0.0248270519077777,-0.0047774445265531,-0.0083940178155899
1769247424677,-0.1759185791015625,-0.944183349609375,0.251617431640625,-0.0206299107521772,-0.002077798359096,-0.0008985505555756
1769247424687,-0.172515869140625,-0.944488525390625,0.2487640380859375,-0.0182040371000766,0.0017310547409579,0.0055164718069136
1769247424697,-0.169464111328125,-0.944732666015625,0.250457763671875,-0.0191771574318408,0.0107272127643227,0.0139581598341465
1769247424708,-0.172515869140625,-0.944671630859375,0.2523193359375,-0.0175968371331691,0.019683688879013,0.0171619430184364
1769247424718,-0.17730712890625,-0.9468841552734376,0.2508087158203125,-0.0191675685346126,0.0185281448066234,0.0213281922042369
1769247424728,-0.183013916015625,-0.9491424560546876,0.250213623046875,-0.0209691971540451,0.0105823371559381,0.0197023320943117
1769247424738,-0.1926422119140625,-0.9521484375,0.25128173828125,-0.0267186965793371,0.0149043807759881,0.0121685154736042
1769247424748,-0.1971435546875,-0.953857421875,0.249847412109375,-0.0338772721588611,0.0056988983415067,0.0104534402489662
1769247424758,-0.192047119140625,-0.9566497802734376,0.249053955078125,-0.0402219891548156,-0.007359645795077,0.005911152344197
1769247424768,-0.18792724609375,-0.9581756591796876,0.2503204345703125,-0.0462476573884487,-0.0059300605207681,-3.861583536490798e-05
1769247424778,-0.1870574951171875,-0.958892822265625,0.24871826171875,-0.0453634858131408,-0.0087836375460028,-0.0040219058282673
1769247424788,-0.1796112060546875,-0.954986572265625,0.24151611328125,-0.0450388491153717,-0.0125293741002678,-0.0077769630588591
1769247424798,-0.180755615234375,-0.9477386474609376,0.236419677734375,-0.0413724742829799,-0.0070994547568261,-0.0137219373136758
1769247424808,-0.186676025390625,-0.9373779296875,0.2360687255859375,-0.0326748564839363,-0.0144050382077693,-0.0242835022509098
1769247424818,-0.1865997314453125,-0.9264068603515624,0.232452392578125,-0.0218030326068401,-0.0137850539758801,-0.0263948552310466
1769247424828,-0.183807373046875,-0.9273834228515624,0.230255126953125,-0.0119456090033054,-0.0156556591391563,-0.0229087769985198
1769247424838,-0.1807098388671875,-0.94659423828125,0.2430419921875,-0.0113658383488655,-0.0054810517467558,-0.0195084530860185
1769247424848,-0.172637939453125,-0.97161865234375,0.258331298828125,-0.016057264059782,0.0031116374302655,-0.013667075894773
1769247424858,-0.1688385009765625,-0.9781494140625,0.2583160400390625,-0.0139586925506591,0.0014785870444029,-0.0171667356044054
1769247424869,-0.1771392822265625,-0.9758148193359376,0.2480926513671875,-0.0005896238726563,-0.007433415390551,-0.0165251810103654
1769247424879,-0.18426513671875,-0.957275390625,0.22833251953125,0.0226491205394268,-0.009474728256464,-0.0114832846447825
1769247424888,-0.1920013427734375,-0.9426116943359376,0.217254638671875,0.0476295687258243,-0.0151472613215446,-0.0041332258842885
1769247424898,-0.19677734375,-0.9337005615234376,0.2238616943359375,0.0654442533850669,-0.0209886394441127,-0.0021401161793619
1769247424908,-0.2025146484375,-0.9369659423828124,0.2447052001953125,0.0734180212020874,-0.0332120135426521,-0.00150628387928
1769247424919,-0.203216552734375,-0.93988037109375,0.2640838623046875,0.0578744858503341,-0.0430763624608516,-0.0046986150555312
1769247424929,-0.1997222900390625,-0.9480743408203124,0.2830810546875,0.0275879520922899,-0.046147521585226,-0.010023339651525
1769247424939,-0.1964263916015625,-0.953033447265625,0.28997802734375,-0.0192434694617986,-0.067037358880043,-0.0248020198196172
1769247424949,-0.19537353515625,-0.9522705078125,0.2910919189453125,-0.0732624977827072,-0.0841969028115272,-0.0339545048773288
1769247424959,-0.1865386962890625,-0.95086669921875,0.2794036865234375,-0.130922332406044,-0.0969582349061966,-0.0350477322936058
1769247424969,-0.186004638671875,-0.9520721435546876,0.2733001708984375,-0.17921182513237,-0.1016888096928596,-0.0493923164904117
1769247424979,-0.191619873046875,-0.95257568359375,0.2594146728515625,-0.2062295973300933,-0.0767541676759719,-0.0551394186913967
1769247424989,-0.1723175048828125,-0.944580078125,0.231719970703125,-0.2169070094823837,-0.0451411120593547,-0.0484301149845123
1769247424999,-0.1552276611328125,-0.946685791015625,0.20623779296875,-0.2044532746076584,-0.0022485069930553,-0.0362738519906997
1769247425009,-0.1456146240234375,-0.947296142578125,0.189666748046875,-0.1808566004037857,0.0244619324803352,-0.0222046375274658
1769247425019,-0.150360107421875,-0.9589691162109376,0.1856842041015625,-0.1531248390674591,0.0655830055475235,-0.0132044851779937
1769247425029,-0.1654815673828125,-0.96917724609375,0.1930999755859375,-0.1137558594346046,0.0720749944448471,0.0010849718237295
1769247425039,-0.1707763671875,-0.9709320068359376,0.19183349609375,-0.0585748963057994,0.0773403272032737,0.0088480859994888
1769247425049,-0.1807708740234375,-0.9671783447265624,0.188629150390625,-0.0069175609387457,0.065810702741146,0.0020932445768266
1769247425059,-0.1861419677734375,-0.9705352783203124,0.2006683349609375,0.034644529223442,0.054664310067892,-0.0084070665761828
1769247425070,-0.1853485107421875,-0.971038818359375,0.2088470458984375,0.0659782141447067,0.0371803902089595,-0.0224488507956266
1769247425079,-0.1832122802734375,-0.967620849609375,0.22149658203125,0.0881857872009277,0.0178972408175468,-0.0369753278791904
1769247425089,-0.175323486328125,-0.962493896484375,0.229827880859375,0.099462941288948,0.0119573269039392,-0.0503318794071674
1769247425099,-0.1678619384765625,-0.958160400390625,0.2344512939453125,0.1051000505685806,0.008714129216969,-0.0578566417098045
1769247425109,-0.1663818359375,-0.95068359375,0.2376708984375,0.1042816638946533,0.0143682863563299,-0.0673273727297782
1769247425120,-0.1624755859375,-0.94769287109375,0.2415618896484375,0.1000720039010047,0.0108547778800129,-0.0826994106173515
1769247425130,-0.1598052978515625,-0.9519805908203124,0.2457427978515625,0.0928487107157707,-0.0033603766933083,-0.091466799378395
1769247425140,-0.1528778076171875,-0.9535675048828124,0.2490997314453125,0.0900489315390586,-0.0133275231346488,-0.0965286716818809
1769247425150,-0.1444091796875,-0.9560699462890624,0.2466888427734375,0.0789829641580581,-0.0073601780459284,-0.0938109159469604
1769247425160,-0.1438140869140625,-0.958770751953125,0.2489471435546875,0.0643486306071281,-0.0065535069443285,-0.0912164598703384
1769247425170,-0.15020751953125,-0.958984375,0.2508087158203125,0.0492383874952793,-0.0148929292336106,-0.0838453620672226
1769247425180,-0.1524658203125,-0.952178955078125,0.2531890869140625,0.0338871255517005,-0.0181941837072372,-0.079141154885292
1769247425190,-0.1617279052734375,-0.947998046875,0.2550506591796875,0.0226592402905225,-0.016978183761239,-0.0754928961396217
1769247425200,-0.16192626953125,-0.94415283203125,0.2552032470703125,0.0176540948450565,-0.017082579433918,-0.0665561258792877
1769247425210,-0.155487060546875,-0.9438629150390624,0.2486724853515625,0.0163163896650075,-0.0049811764620244,-0.0463973246514797
1769247425220,-0.1442108154296875,-0.944976806640625,0.23876953125,0.0224547088146209,0.0088403634727001,-0.0219894554466009
1769247425230,-0.13629150390625,-0.9467315673828124,0.230438232421875,0.038582544773817,0.0224014464765787,0.0036123117897659
1769247425240,-0.1403656005859375,-0.9499359130859376,0.2269287109375,0.0549221038818359,0.034892737865448,0.0225931927561759
1769247425250,-0.148406982421875,-0.9564361572265624,0.225982666015625,0.0702312886714935,0.0330389104783535,0.0365984924137592
1769247425260,-0.156219482421875,-0.963409423828125,0.227142333984375,0.0757285803556442,0.0307845436036586,0.042503785341978
1769247425270,-0.1619415283203125,-0.966888427734375,0.226959228515625,0.0809454470872879,0.0254121497273445,0.0447208657860755
1769247425281,-0.1610565185546875,-0.9628753662109376,0.2275238037109375,0.0854608416557312,0.0291040893644094,0.0506432019174099
1769247425290,-0.156829833984375,-0.9575653076171876,0.2325897216796875,0.089930422604084,0.0314889512956142,0.0578558444976806
1769247425301,-0.1548614501953125,-0.950714111328125,0.2369537353515625,0.0887572988867759,0.0408715344965457,0.0695993155241012
1769247425310,-0.1551361083984375,-0.9467620849609376,0.2451019287109375,0.0793659314513206,0.0478471517562866,0.0744715705513954
1769247425321,-0.1574554443359375,-0.944183349609375,0.25457763671875,0.0675180554389953,0.0506448000669479,0.0854935944080352
1769247425331,-0.1566009521484375,-0.939697265625,0.2574462890625,0.0624404735863208,0.0439964868128299,0.0932250171899795
1769247425340,-0.160308837890625,-0.941314697265625,0.2587890625,0.0615714862942695,0.0378144904971122,0.0976147055625915
1769247425351,-0.17034912109375,-0.9418487548828124,0.25341796875,0.05723213031888,0.0448558889329433,0.1005756109952926
1769247425361,-0.18499755859375,-0.9417266845703124,0.254150390625,0.0460404604673385,0.0494618266820907,0.1016339510679245
1769247425371,-0.192413330078125,-0.9459075927734376,0.25738525390625,0.0418129600584507,0.0479222536087036,0.1002725437283515
1769247425381,-0.1931304931640625,-0.9499053955078124,0.2547607421875,0.0346450619399547,0.0480420924723148,0.0985225811600685
1769247425391,-0.1908721923828125,-0.9482879638671876,0.2545166015625,0.028995431959629,0.0342293418943882,0.0946479439735412
1769247425401,-0.1905059814453125,-0.949127197265625,0.2567138671875,0.0317331627011299,0.0174578204751014,0.0900111123919487
1769247425411,-0.188720703125,-0.94970703125,0.2555694580078125,0.0349774248898029,0.0175337195396423,0.0813635662198066
1769247425421,-0.1869354248046875,-0.950103759765625,0.2583160400390625,0.040468331426382,0.0135174067690968,0.0759325847029686
1769247425431,-0.18853759765625,-0.9511871337890624,0.26287841796875,0.0497521087527275,0.00924729462713,0.0663449317216873
1769247425441,-0.192535400390625,-0.9530181884765624,0.2603607177734375,0.058589544147253,0.0026988473255187,0.0565215982496738
1769247425451,-0.195709228515625,-0.9560089111328124,0.2582550048828125,0.064112938940525,-0.0064991782419383,0.0474759042263031
1769247425461,-0.19757080078125,-0.9547119140625,0.258941650390625,0.0677036792039871,0.0026040389202535,0.0312758982181549
1769247425471,-0.2027740478515625,-0.953857421875,0.2503662109375,0.0715753808617591,-0.0040016658604145,0.0212078168988227
1769247425481,-0.20318603515625,-0.951995849609375,0.2487640380859375,0.0666522607207298,-0.0157451406121253,0.0072802836075425
1769247425491,-0.2016754150390625,-0.951507568359375,0.251251220703125,0.0617432594299316,-0.022565497085452,-0.0038879488129168
1769247425501,-0.1954803466796875,-0.9479522705078124,0.25274658203125,0.0497204177081584,-0.0162809696048498,-0.0142178181558847
1769247425511,-0.1867828369140625,-0.94012451171875,0.2528533935546875,0.0466125085949897,-0.0064128916710615,-0.0179696790874004
1769247425521,-0.1811065673828125,-0.9394378662109376,0.2571563720703125,0.0467275567352771,0.0010697918478399,-0.0256936457008123
1769247425532,-0.173980712890625,-0.93780517578125,0.2656402587890625,0.0531156808137893,0.0025302693247795,-0.0325904339551925
1769247425541,-0.1688690185546875,-0.9428863525390624,0.2698516845703125,0.0539455227553844,0.0029523803386837,-0.0322825722396373
1769247425552,-0.1693878173828125,-0.947113037109375,0.2753143310546875,0.0362517461180686,-0.0048813079483807,-0.0344812795519828
1769247425562,-0.176910400390625,-0.9531402587890624,0.2761077880859375,0.0130004873499274,-0.0104196174070239,-0.0323731191456317
1769247425572,-0.18316650390625,-0.95050048828125,0.2728424072265625,-0.0020956413354724,-0.01192909758538,-0.0294886492192745
1769247425582,-0.1904754638671875,-0.947540283203125,0.2672882080078125,-0.009346630424261,0.0070421970449388,-0.0336626209318637
1769247425592,-0.1902923583984375,-0.943634033203125,0.26263427734375,-0.0042024683207273,0.0232185032218694,-0.0252707358449697
1769247425602,-0.184844970703125,-0.94097900390625,0.260223388671875,0.014690794982016,0.0025281386915594,-0.0224416591227054
1769247425612,-0.178955078125,-0.9410858154296876,0.2579498291015625,0.0252443701028823,-0.0008844357798807,-0.019037339836359
1769247425622,-0.175384521484375,-0.943939208984375,0.2635650634765625,0.0291653424501419,0.0245482195168733,-0.0170338451862335
1769247425632,-0.1708984375,-0.948638916015625,0.26568603515625,0.0280731804668903,0.0068097030743956,-0.0117328222841024
1769247425642,-0.1648712158203125,-0.951019287109375,0.268890380859375,0.0228070449084043,0.0076139774173498,-0.0106100337579846
1769247425652,-0.1662445068359375,-0.9488983154296876,0.266021728515625,0.0128612034022808,0.0197753030806779,-0.0065588331781327
1769247425662,-0.1693267822265625,-0.9477081298828124,0.2689666748046875,-0.0054909056052565,0.0130585441365838,-0.0101077612489461
1769247425672,-0.1771087646484375,-0.9506988525390624,0.277191162109375,-0.0267341416329145,0.003458114573732,-0.0114028565585613
1769247425682,-0.1805877685546875,-0.948944091796875,0.28515625,-0.0472988076508045,0.0022130869328975,-0.0145235490053892
1769247425692,-0.1812591552734375,-0.949737548828125,0.2851104736328125,-0.0711522102355957,-0.0060443105176091,-0.0104100303724408
1769247425702,-0.1766815185546875,-0.9497222900390624,0.2853546142578125,-0.0877610072493553,-0.0098044276237487,-0.0064879930578172
1769247425712,-0.1741790771484375,-0.9478607177734376,0.2759246826171875,-0.0977843478322029,-0.0009752495680004,-0.0053502907976508
1769247425722,-0.1728515625,-0.9431610107421876,0.2612457275390625,-0.0991044789552688,0.0004567321157082,-0.005355617031455
1769247425732,-0.1770782470703125,-0.9440460205078124,0.2552490234375,-0.101970836520195,0.0052618738263845,-0.0049910303205251
1769247425743,-0.1791534423828125,-0.9394073486328124,0.2482147216796875,-0.0971435904502868,0.0032352081034332,-0.0039020637050271
1769247425752,-0.183502197265625,-0.9306640625,0.2392578125,-0.0817670375108718,-0.0082773705944418,-0.0085178539156913
1769247425763,-0.18792724609375,-0.9214935302734376,0.2309417724609375,-0.0581684969365596,-0.0057178069837391,-0.0083487434312701
1769247425773,-0.18243408203125,-0.9261932373046876,0.2278900146484375,-0.035812858492136,0.0022772690281271,4.0746363083599135e-05
1769247425783,-0.1738739013671875,-0.9477996826171876,0.242950439453125,-0.0301840007305145,0.005887450184673,0.0014660701854154
1769247425793,-0.1676177978515625,-0.974365234375,0.269195556640625,-0.0294199399650096,0.0105373291298747,0.002665557898581
1769247425803,-0.1670989990234375,-0.9797821044921876,0.2797393798828125,-0.0259674191474914,0.0208829119801521,-0.0037553233560174
1769247425813,-0.17901611328125,-0.9650115966796876,0.2684326171875,-0.0185289438813924,0.0197135172784328,-0.011912852525711
1769247425823,-0.1892242431640625,-0.9427947998046876,0.2536773681640625,0.0038559909444302,-0.0326421000063419,-0.0177507679909467
1769247425833,-0.1960296630859375,-0.9322357177734376,0.2380523681640625,0.0219447128474712,-0.0290172696113586,-0.0162487439811229
1769247425843,-0.1907501220703125,-0.932891845703125,0.2364501953125,0.0332152098417282,-0.0257993731647729,-0.013080115430057
1769247425853,-0.1794281005859375,-0.9438018798828124,0.244354248046875,0.0323440916836261,-0.0184381287544965,-0.0057119480334222
1769247425863,-0.172271728515625,-0.9527130126953124,0.2548828125,0.018636267632246,-0.0052943644113838,-0.0014261227333918
1769247425873,-0.1706085205078125,-0.9556121826171876,0.2584991455078125,0.0108784800395369,-0.0072075789794325,0.0068634985946118
1769247425883,-0.168487548828125,-0.951416015625,0.2535552978515625,0.0081996070221066,-0.0059795957058668,0.0113671701401472
1769247425893,-0.166961669921875,-0.9430084228515624,0.24609375,0.0075564533472061,0.0067420587874948,0.0158298294991254
1769247425904,-0.1703948974609375,-0.9408416748046876,0.2418365478515625,0.0052829124033451,0.0132886413484811,0.0166934933513402
1769247425913,-0.169891357421875,-0.9445343017578124,0.2455596923828125,0.0034743598662316,0.0088824415579438,0.0192969981580972
1769247425923,-0.1683807373046875,-0.9518280029296876,0.250640869140625,0.0006825681775808,0.0171651374548673,0.0160751063376665
1769247425933,-0.1724090576171875,-0.9540252685546876,0.2550811767578125,-0.0068584387190639,0.0397740453481674,0.0059660132974386
1769247425943,-0.1850738525390625,-0.9532318115234376,0.257659912109375,-0.0111019192263484,0.0261130928993225,-0.0053881076164543
1769247425953,-0.191009521484375,-0.9543304443359376,0.259307861328125,-0.0101122893393039,0.0012956279097124,-0.0068472535349428
1769247425963,-0.1838836669921875,-0.95294189453125,0.259613037109375,-0.0056506949476897,0.0075921397656202,-0.0047007454559206
1769247425973,-0.1732025146484375,-0.9503021240234376,0.2574005126953125,0.0002308960683876,0.0040757018141448,0.0052634715102612
1769247425984,-0.16790771484375,-0.9500274658203124,0.256011962890625,0.0044746431522071,0.0073761572130024,0.0029712887480854
1769247425994,-0.18212890625,-0.945709228515625,0.2592620849609375,0.0027771443128585,0.0390217006206512,-0.0087197218090295
1769247426004,-0.194793701171875,-0.9409027099609376,0.2626495361328125,0.0060517671518027,0.0170681998133659,-0.0124856978654861
1769247426014,-0.1897735595703125,-0.944610595703125,0.26361083984375,0.0127235185354948,-0.0158727057278156,-0.0049958238378167
1769247426024,-0.176116943359375,-0.949859619140625,0.2557830810546875,0.0299637578427791,0.0022927154786884,0.0103490436449646
1769247426034,-0.161712646484375,-0.9515380859375,0.24395751953125,0.0466721653938293,2.6631610694494157e-07,0.0229295510798692
1769247426044,-0.1559906005859375,-0.9538726806640624,0.2451629638671875,0.0558054745197296,-0.0036282907240092,0.0340266749262809
1769247426054,-0.164276123046875,-0.9516143798828124,0.2481689453125,0.0631235763430595,0.0067268786951899,0.0372472368180751
1769247426064,-0.1767730712890625,-0.94476318359375,0.255828857421875,0.0608479045331478,0.0097809918224811,0.0279032699763774
1769247426074,-0.194976806640625,-0.945831298828125,0.266204833984375,0.0531428456306457,-0.0007166566210798,0.0151997255161404
1769247426084,-0.19598388671875,-0.9486083984375,0.27532958984375,0.0436382927000522,-0.0211106110364198,0.0160705782473087
1769247426094,-0.18304443359375,-0.955657958984375,0.2751617431640625,0.038457378745079,-0.0195262972265481,0.0177102871239185
1769247426104,-0.172576904296875,-0.9511566162109376,0.26513671875,0.0334216058254241,-0.0084070665761828,0.0186221543699502
1769247426114,-0.173095703125,-0.9469451904296876,0.2558746337890625,0.0345846079289913,-0.0056293900124728,0.018557971343398
1769247426124,-0.17413330078125,-0.94378662109375,0.2546844482421875,0.0413700751960277,0.0018775284988805,0.013816213235259
1769247426134,-0.1798858642578125,-0.9372406005859376,0.255218505859375,0.0442348383367061,0.0079471385106444,0.0063220779411494
1769247426144,-0.1832275390625,-0.9365692138671876,0.2595367431640625,0.0464921332895755,-0.0057732006534934,0.002092711860314
1769247426154,-0.1824798583984375,-0.93768310546875,0.265106201171875,0.0504738278687,-0.0068467208184301,0.0039369510486721
1769247426164,-0.176361083984375,-0.939605712890625,0.265045166015625,0.0501611717045307,0.0017542241839691,0.0074547203257679
1769247426174,-0.1735382080078125,-0.939788818359375,0.2643280029296875,0.0496269427239894,0.0054906392470002,0.0108385328203439
1769247426185,-0.1703643798828125,-0.9402008056640624,0.265533447265625,0.0396795012056827,0.0023073628544807,0.0191886089742183
1769247426194,-0.16986083984375,-0.9406280517578124,0.272186279296875,0.0226485878229141,0.0109362704679369,0.0209673326462507
1769247426205,-0.1772003173828125,-0.9416351318359376,0.2757415771484375,0.0029830066487193,0.0159203764051198,0.0236006677150726
1769247426215,-0.1783294677734375,-0.94183349609375,0.2836761474609375,-0.021869346499443,0.0112366750836372,0.0284228529781103
1769247426225,-0.1775970458984375,-0.945404052734375,0.2862701416015625,-0.0408797897398471,0.0138753354549407,0.0290364455431699
1769247426235,-0.177276611328125,-0.9488983154296876,0.283660888671875,-0.0569082908332347,0.0126446885988116,0.0309374090284109
1769247426245,-0.1781158447265625,-0.950653076171875,0.27862548828125,-0.0679074078798294,0.0062765381298959,0.0296063609421253
1769247426255,-0.1810455322265625,-0.9518280029296876,0.275115966796875,-0.0785512700676918,0.015846075490117,0.0284593384712934
1769247426265,-0.1859130859375,-0.9462738037109376,0.265869140625,-0.080531857907772,0.0159310288727283,0.0290122106671333
1769247426275,-0.187255859375,-0.9453887939453124,0.2610626220703125,-0.0781555250287056,0.0117818247526884,0.0304939933121204
1769247426285,-0.18798828125,-0.9437408447265624,0.2576904296875,-0.0729770064353942,0.0106087019667029,0.0332852527499198
1769247426295,-0.187835693359375,-0.94171142578125,0.252166748046875,-0.0612878575921058,0.0015110776294022,0.036842968314886
1769247426305,-0.1858978271484375,-0.93994140625,0.2525482177734375,-0.052208874374628,0.005028314422816,0.0410204045474529
1769247426315,-0.182464599609375,-0.9417266845703124,0.25543212890625,-0.0429181717336177,0.0134217990562319,0.042595662176609
1769247426325,-0.1813812255859375,-0.9445343017578124,0.2585296630859375,-0.0369857139885425,0.0165238492190837,0.0424625054001808
1769247426336,-0.1829376220703125,-0.9461212158203124,0.260284423828125,-0.0309845469892025,0.0169286504387855,0.0395173169672489
1769247426345,-0.188629150390625,-0.9461212158203124,0.257843017578125,-0.0185691565275192,0.015261510387063,0.0315938778221607
1769247426355,-0.195098876953125,-0.94500732421875,0.249298095703125,-0.0021638183388859,0.0122316321358084,0.0268649030476808
1769247426365,-0.19354248046875,-0.9438934326171876,0.2420806884765625,0.0157504677772521,0.0135893123224377,0.023134347051382
1769247426375,-0.191497802734375,-0.94970703125,0.2451171875,0.0250188000500202,0.0197880864143371,0.0159744396805763
1769247426386,-0.19488525390625,-0.95660400390625,0.2510528564453125,0.0308196973055601,0.0100145507603883,0.010374610312283
1769247426395,-0.1924285888671875,-0.9544525146484376,0.2573394775390625,0.0321286432445049,-0.000737695605494,0.0040629184804856
1769247426406,-0.19671630859375,-0.9514007568359376,0.259521484375,0.0459890626370906,-0.0060634850524365,0.0007094661123119
1769247426416,-0.1932373046875,-0.9444580078125,0.249969482421875,0.0631342306733131,-0.0032336101867258,-0.0001384843781124
1769247426426,-0.184417724609375,-0.9422760009765624,0.2410888671875,0.0760753229260444,-0.00018828548491,0.0031153657473623
1769247426436,-0.179107666015625,-0.948394775390625,0.2430572509765625,0.0824045985937118,0.0135552231222391,0.002240251051262
1769247426446,-0.179473876953125,-0.9521636962890624,0.2496490478515625,0.0846584290266037,0.0318825654685497,-0.001873267465271
1769247426456,-0.185394287109375,-0.95196533203125,0.2510223388671875,0.085079476237297,0.0221258085221052,-0.0055979643948376
1769247426466,-0.187164306640625,-0.9464874267578124,0.258209228515625,0.0724086835980415,0.0040759681724011,-0.0130191296339035
1769247426476,-0.19012451171875,-0.94696044921875,0.2665557861328125,0.0598257817327976,0.0011403656098991,-0.0157725717872381
1769247426486,-0.191314697265625,-0.9447479248046876,0.2719268798828125,0.0426451973617076,-0.0019821908790618,-0.0208679977804422
1769247426497,-0.18890380859375,-0.9445648193359376,0.275482177734375,0.0272084511816501,-0.0036581179592758,-0.019995279610157
1769247426506,-0.1812591552734375,-0.9421539306640624,0.27557373046875,0.0163608640432357,0.0039438754320144,-0.0153826847672462
1769247426516,-0.1760711669921875,-0.9425811767578124,0.2708282470703125,0.0122036691755056,0.0154540576040744,-0.0102212121710181
1769247426526,-0.1744842529296875,-0.939697265625,0.266876220703125,0.0105634285137057,0.0123488111421465,-0.0046474821865558
1769247426536,-0.175537109375,-0.9394378662109376,0.267425537109375,0.0107775460928678,0.0163129270076751,0.0013670006301254
1769247426546,-0.1794891357421875,-0.9388885498046876,0.2685546875,0.0105423890054225,0.0311576537787914,0.0108284130692482
1769247426556,-0.1824951171875,-0.93853759765625,0.273529052734375,0.0153035884723067,0.0254291929304599,0.0213574860244989
1769247426567,-0.1809844970703125,-0.942352294921875,0.27471923828125,0.0218989066779613,0.0156750995665788,0.0280390921980142
1769247426576,-0.186859130859375,-0.9442138671875,0.273712158203125,0.0275946091860532,0.0198472086340188,0.0295749362558126
1769247426587,-0.1910247802734375,-0.94305419921875,0.2725372314453125,0.0288979616016149,0.0222797393798828,0.0327875092625618
1769247426597,-0.1904449462890625,-0.9451446533203124,0.27362060546875,0.0316269025206565,0.0216752011328935,0.0358370915055274
1769247426607,-0.190521240234375,-0.942901611328125,0.2733001708984375,0.0285767838358879,0.0287722591310739,0.0331377126276493
1769247426617,-0.1961669921875,-0.943359375,0.2729949951171875,0.0235950741916894,0.027948809787631,0.0298034362494945
1769247426627,-0.1994476318359375,-0.9445648193359376,0.2784881591796875,0.0137011650949716,0.0227556452155113,0.0275368187576532
1769247426637,-0.196563720703125,-0.943084716796875,0.2814483642578125,-0.0002585929469205,0.0050171292386949,0.0262049715965986
1769247426647,-0.1930999755859375,-0.9426116943359376,0.2811737060546875,-0.0095524927601218,-0.007473362609744,0.0229998584836721
1769247426657,-0.1887969970703125,-0.939971923828125,0.279022216796875,-0.0187846068292856,0.0010612696642056,0.0244576726108789
1769247426667,-0.1849822998046875,-0.94342041015625,0.2816925048828125,-0.0271501280367374,0.0041990061290562,0.0233340840786695
1769247426677,-0.184234619140625,-0.94378662109375,0.27947998046875,-0.0328378416597843,-0.0001443433284293,0.0242446195334196
1769247426687,-0.1885528564453125,-0.93975830078125,0.2724456787109375,-0.0305890683084726,0.0029515814967453,0.0182714145630598
1769247426697,-0.197174072265625,-0.9307861328125,0.258636474609375,-0.026585005223751,0.009131446480751,0.0084107955917716
1769247426707,-0.203094482421875,-0.9195098876953124,0.25433349609375,-0.0170285180211067,0.008266451768577,-0.0037657096982002
1769247426717,-0.2108154296875,-0.91961669921875,0.2513580322265625,-0.0096686063334345,0.0105604985728859,-0.0095652751624584
