timestamp_ms,acc_x,acc_y,acc_z,gyro_x,gyro_y,gyro_z
1770452061583,-0.0729217529296875,-0.252655029296875,-0.9702911376953124,0.0287482906132936,-0.0446132756769657,-0.0062427157536149
1770452061590,-0.0800933837890625,-0.2517242431640625,-0.9772796630859376,0.0398004092276096,-0.0454732105135917,-0.0105932559818029
1770452061600,-0.0871429443359375,-0.2484283447265625,-0.9754180908203124,0.0496202819049358,-0.0373180769383907,-0.0152521897107362
1770452061610,-0.08642578125,-0.2479248046875,-0.973907470703125,0.0563783198595047,-0.0317933484911918,-0.0131493574008345
1770452061620,-0.0825958251953125,-0.2452850341796875,-0.9664154052734376,0.0563953667879104,-0.029553098604083,-0.0118848886340856
1770452061630,-0.0833740234375,-0.2452545166015625,-0.96136474609375,0.0531705431640148,-0.0362381637096405,-0.0084510091692209
1770452061640,-0.0828857421875,-0.250701904296875,-0.956939697265625,0.0475036017596721,-0.0400392934679985,-0.0085450187325477
1770452061650,-0.08270263671875,-0.2555389404296875,-0.95355224609375,0.0415833964943885,-0.0328676700592041,-0.0077868164516985
1770452061660,-0.080474853515625,-0.2550506591796875,-0.95404052734375,0.0456945188343524,-0.0138335237279534,-0.0079745696857571
1770452061671,-0.08203125,-0.24884033203125,-0.9646759033203124,0.0455363243818283,-0.0131501564756035,-0.0137757332995533
1770452061680,-0.08642578125,-0.25042724609375,-0.9619903564453124,0.0479595363140106,-0.0187377352267503,-0.0156189072877168
1770452061690,-0.086395263671875,-0.2513427734375,-0.9601287841796876,0.0425027199089527,-0.0092765893787145,-0.0134284570813179
1770452061700,-0.07843017578125,-0.2513885498046875,-0.955413818359375,0.0318900234997272,-0.0077524618245661,-0.012915532104671
1770452061710,-0.080413818359375,-0.2530975341796875,-0.94793701171875,0.0216288622468709,-0.0111884726211428,-0.0101980427280068
1770452061720,-0.0785980224609375,-0.253631591796875,-0.94775390625,0.0053023537620902,-0.0178210753947496,-0.0120974089950323
1770452061730,-0.084136962890625,-0.2515716552734375,-0.9404754638671876,-0.0079737706109881,-0.004578772932291,-0.012909673154354
1770452061740,-0.082244873046875,-0.25360107421875,-0.94525146484375,-0.0200133882462978,-0.0059654805809259,-0.0043049999512732
1770452061750,-0.0758209228515625,-0.2562408447265625,-0.9463653564453124,-0.0340330675244331,0.0114044547080993,-0.0027798074297606
1770452061761,-0.081268310546875,-0.252197265625,-0.94549560546875,-0.0403612703084945,0.0362799763679504,-0.0015068164793774
1770452061771,-0.0811309814453125,-0.253936767578125,-0.9530029296875,-0.0381119661033153,0.0323523469269275,-0.0032525185961276
1770452061781,-0.0824127197265625,-0.255126953125,-0.962371826171875,-0.0390749648213386,0.0318037346005439,-0.0067031765356659
1770452061791,-0.0849609375,-0.25164794921875,-0.96441650390625,-0.0317970775067806,0.0381657630205154,-0.0134364468976855
1770452061801,-0.087799072265625,-0.2495574951171875,-0.967498779296875,-0.0281368289142847,0.0324101373553276,-0.013210610486567
1770452061811,-0.083099365234375,-0.2503204345703125,-0.968505859375,-0.0202040709555149,0.03965899720788,-0.0080533986911177
1770452061821,-0.0747222900390625,-0.2527618408203125,-0.972412109375,-0.0118063259869813,0.0344892665743827,-0.01033466309309
1770452061831,-0.0769805908203125,-0.2559661865234375,-0.971221923828125,-0.0063279368914663,0.0343190915882587,-0.0114622451364994
1770452061841,-0.0764617919921875,-0.254638671875,-0.9715423583984376,0.0004127899592276,0.022726884111762,-0.0088507495820522
1770452061851,-0.077911376953125,-0.251953125,-0.9731903076171876,0.0129709262400865,0.0096339853480458,-0.0034221620298922
1770452061861,-0.0791473388671875,-0.25177001953125,-0.9768218994140624,0.007227286696434,-0.0239018704742193,0.0036863475106656
1770452061872,-0.077789306640625,-0.250946044921875,-0.9626617431640624,0.0080882860347628,-0.0097594195976853,0.0131496237590909
1770452061881,-0.07720947265625,-0.253387451171875,-0.9639892578125,0.0055758603848516,0.0050914315506815,0.0159390196204185
1770452061891,-0.0759735107421875,-0.2601165771484375,-0.957855224609375,-0.0023821976501494,0.0242808386683464,0.0226030461490154
1770452061901,-0.070953369140625,-0.261016845703125,-0.9556121826171876,-0.0029345371294766,0.0478357002139091,0.0279498752206563
1770452061911,-0.066925048828125,-0.26123046875,-0.9601898193359376,-0.0003020024741999,0.054119162261486,0.0367460288107395
1770452061921,-0.0739898681640625,-0.263702392578125,-0.961456298828125,-0.0027095000259578,0.0517153926193714,0.0415218770503997
1770452061931,-0.079986572265625,-0.2559967041015625,-0.9674072265625,-0.0002641855680849,0.0407354459166526,0.0419093668460845
1770452061943,-0.08551025390625,-0.249420166015625,-0.96978759765625,0.00305065093562,0.0227484554052352,0.0383386015892028
1770452061951,-0.08404541015625,-0.2630615234375,-0.96575927734375,0.0083727119490504,0.0231282226741313,0.0449954383075237
1770452061961,-0.079376220703125,-0.241485595703125,-0.9619598388671876,0.0056099486537277,0.0268537178635597,0.0237713754177093
1770452061972,-0.0966949462890625,-0.2363128662109375,-0.9606170654296876,0.0099921803921461,0.0222877282649278,-9.267800487577917e-05
1770452061981,-0.0977630615234375,-0.2407684326171875,-0.971588134765625,0.0089167961850762,0.0041031320579349,-0.0110079096630215
1770452061992,-0.08642578125,-0.2615966796875,-0.9652862548828124,0.0085554048418998,-0.0203737150877714,0.0170998908579349
1770452062002,-0.0706329345703125,-0.28662109375,-0.9605712890625,0.0133309857919812,-0.0093871103599667,0.0416758060455322
1770452062012,-0.0714263916015625,-0.273773193359375,-0.9640655517578124,0.0121485413983464,0.0311270263046026,0.0426662378013134
1770452062022,-0.077362060546875,-0.25030517578125,-0.956756591796875,0.0195119157433509,0.0649217441678047,0.0313877500593662
1770452062032,-0.078338623046875,-0.246368408203125,-0.964324951171875,0.0209199283272027,0.0471781641244888,0.0181869938969612
1770452062042,-0.0803985595703125,-0.2505645751953125,-0.966583251953125,0.0198522675782442,0.0072400695644319,0.0065495120361447
1770452062052,-0.087554931640625,-0.2447967529296875,-0.96307373046875,0.0209691971540451,-0.0091538168489933,0.0009139968897216
1770452062062,-0.0927734375,-0.249176025390625,-0.962860107421875,0.0314966738224029,-0.0253676753491163,0.0105764782056212
1770452062072,-0.0844268798828125,-0.2583770751953125,-0.9573516845703124,0.0330863147974014,-0.0019153454340994,0.019669309258461
1770452062082,-0.075408935546875,-0.263275146484375,-0.96026611328125,0.01627803966403,0.008829710073769,0.0197313595563173
1770452062092,-0.0795745849609375,-0.261871337890625,-0.9488983154296876,-0.0008652610122226,0.0235982704907655,0.0154964020475745
1770452062102,-0.080291748046875,-0.255950927734375,-0.944580078125,-0.008757272735238,0.0224989168345928,0.015820775181055
1770452062113,-0.0818939208984375,-0.25775146484375,-0.9493560791015624,-0.0204506795853376,0.0235508661717176,0.0173377115279436
1770452062122,-0.0842132568359375,-0.2569122314453125,-0.9501495361328124,-0.0204506795853376,0.0235508661717176,0.0173377115279436
1770452062132,-0.0792388916015625,-0.2550811767578125,-0.9588623046875,-0.0122761074453592,0.0277216434478759,0.0203271098434925
1770452062142,-0.0796356201171875,-0.25677490234375,-0.9620208740234376,-0.0077194385230541,0.0057894457131624,0.0215319227427244
1770452062152,-0.081390380859375,-0.2524261474609375,-0.9639892578125,0.0018034926615655,-0.0025531724095344,0.02213672734797
1770452062162,-0.0843505859375,-0.2532958984375,-0.9717254638671876,0.0165795087814331,0.0012317119399085,0.0169813800603151
1770452062172,-0.0886688232421875,-0.25341796875,-0.972686767578125,0.0331480987370014,0.0071255536749958,0.0095165399834513
1770452062182,-0.087738037109375,-0.2568817138671875,-0.9725341796875,0.0402518138289451,-0.0090097403153777,0.0033108417410403
1770452062192,-0.08673095703125,-0.260345458984375,-0.969512939453125,0.044511541724205,-0.0110119050368666,0.0007198524544946
1770452062203,-0.082489013671875,-0.2609100341796875,-0.967864990234375,0.0452529639005661,-0.0095860483124852,-0.0002063949796138
1770452062213,-0.0800323486328125,-0.2606658935546875,-0.957061767578125,0.0328024215996265,-0.0172285214066505,-0.0014554174849763
1770452062223,-0.0841522216796875,-0.2524871826171875,-0.9507293701171876,0.0257919151335954,-0.0148226218298077,-0.0052930326201021
1770452062233,-0.087188720703125,-0.2537078857421875,-0.951324462890625,0.0124534741044044,-0.0119922142475843,-0.0049721216782927
1770452062244,-0.0829620361328125,-0.258392333984375,-0.942535400390625,-0.0046533411368727,0.0021912488155066,-0.0039984700269997
1770452062253,-0.0772705078125,-0.254608154296875,-0.9381103515625,-0.0267852749675512,0.0141959805041551,-0.0071362066082656
1770452062263,-0.07769775390625,-0.2551422119140625,-0.93597412109375,-0.0466647073626518,0.0118457404896616,-0.0047252466902136
1770452062273,-0.076324462890625,-0.259246826171875,-0.9407501220703124,-0.0540648326277732,0.0158623196184635,0.0009717874927446
1770452062283,-0.0740203857421875,-0.2598876953125,-0.951507568359375,-0.0491374507546424,0.01791881211102,0.0044211135245859
1770452062293,-0.0783233642578125,-0.2603302001953125,-0.9634552001953124,-0.0453941114246845,0.0103082973510026,0.0091346427798271
1770452062303,-0.0811767578125,-0.2571868896484375,-0.9649658203125,-0.0468252971768379,-0.003598463255912,0.0128383003175258
1770452062313,-0.0764312744140625,-0.256134033203125,-0.9610748291015624,-0.0394195765256881,-1.1717908819264268e-05,0.0148569764569401
1770452062323,-0.0757598876953125,-0.2628326416015625,-0.96990966796875,-0.0339715480804443,0.0015315839555114,0.011942945420742
1770452062333,-0.0772705078125,-0.261871337890625,-0.970916748046875,-0.032809879630804,0.0008285093936137,0.0144769437611103
1770452062343,-0.0775299072265625,-0.2581787109375,-0.9666290283203124,-0.0302585698664188,0.0048520131967961,0.0162934865802526
1770452062353,-0.080963134765625,-0.258880615234375,-0.9678192138671876,-0.0194429401308298,6.151902198325843e-05,0.0165542084723711
1770452062363,-0.0839080810546875,-0.258941650390625,-0.9748687744140624,-0.018718559294939,-0.0163744464516639,0.0138090224936604
1770452062374,-0.086883544921875,-0.2552490234375,-0.9672698974609376,-0.0189372058957815,-0.0083319656550884,0.0075647090561687
1770452062384,-0.0928802490234375,-0.252197265625,-0.965423583984375,-0.0145576372742652,0.0030216225422918,0.0030312100425362
1770452062393,-0.09124755859375,-0.2550201416015625,-0.9622802734375,-0.0152106443420052,0.0145429903641343,-0.0009371663909405
1770452062403,-0.089508056640625,-0.256378173828125,-0.9633941650390624,-0.024949824437499,0.0343403965234756,-0.0011238539591431
1770452062414,-0.079345703125,-0.2544708251953125,-0.96014404296875,-0.021124992519617,0.0265059098601341,0.0001302285818383
1770452062424,-0.0791473388671875,-0.253173828125,-0.967041015625,-0.0112947328016161,0.0042850263416767,-0.0008516788948327
1770452062434,-0.0841217041015625,-0.2525787353515625,-0.97515869140625,-0.004979046061635,-0.0092030856758356,-0.0046019423753023
1770452062444,-0.086456298828125,-0.2510986328125,-0.972137451171875,-0.0014271880500018,-0.001585912425071,-0.008300008252263
1770452062454,-0.083404541015625,-0.25201416015625,-0.967071533203125,0.0059156795032322,0.0057494984939694,-0.0132036861032247
1770452062464,-0.0867156982421875,-0.2557373046875,-0.9710235595703124,0.0076046562753617,-0.0005107942852191,-0.0123144565150141
1770452062474,-0.0839385986328125,-0.2538909912109375,-0.9652252197265624,0.0071878717280924,0.0030799456872045,-0.0109626362100243
1770452062484,-0.0828399658203125,-0.2555084228515625,-0.9633941650390624,0.0069306101649999,0.0055039548315107,-0.0096789924427866
1770452062494,-0.0837249755859375,-0.2549896240234375,-0.962066650390625,0.0105442535132169,0.0040533309802412,-0.01327745616436
1770452062504,-0.087432861328125,-0.252410888671875,-0.9633636474609376,0.0067351344041526,-0.0027473168447613,-0.0134606817737221
1770452062514,-0.079833984375,-0.2540283203125,-0.9609527587890624,-0.0029201561119407,-0.0144527088850736,-0.0152346128597855
1770452062524,-0.0785980224609375,-0.253814697265625,-0.9520721435546876,-0.0136558907106518,0.0003957457374781,-0.0111764883622527
1770452062534,-0.0767364501953125,-0.2537994384765625,-0.9500732421875,-0.0285544134676456,0.0115844840183854,-0.0118244355544447
1770452062544,-0.081298828125,-0.2518157958984375,-0.9448699951171876,-0.0513878241181373,0.0179587602615356,-0.0074949343688786
1770452062554,-0.079193115234375,-0.2512054443359375,-0.9380035400390624,-0.0667910128831863,0.0323294438421726,-0.001112935016863
1770452062564,-0.072906494140625,-0.2516632080078125,-0.9435882568359376,-0.0802146792411804,0.0290063507854938,-0.0008735168376006
1770452062574,-0.07928466796875,-0.2508392333984375,-0.94903564453125,-0.077559508383274,0.0243905615061521,-0.0002367550187045
1770452062585,-0.0806121826171875,-0.2456207275390625,-0.9642181396484376,-0.0611698813736438,0.0236238371580839,-0.0067572384141385
1770452062594,-0.0869598388671875,-0.2451934814453125,-0.981597900390625,-0.0353041961789131,0.0162191838026046,-0.0069431271404027
1770452062605,-0.083953857421875,-0.24517822265625,-0.9898681640625,-0.0147083718329668,-0.0034850125666707,-0.0125016765668988
1770452062614,-0.0828399658203125,-0.2479248046875,-0.983154296875,0.0006237123161554,-0.00561687303707,-0.0100369211286306
1770452062625,-0.0794677734375,-0.249725341796875,-0.9763641357421876,0.011412976309657,-0.007915181107819,-0.0085921566933393
1770452062635,-0.078216552734375,-0.2540435791015625,-0.975006103515625,0.0227655004709959,-0.0200184490531682,-0.0058283279649913
1770452062645,-0.0756378173828125,-0.258331298828125,-0.9749603271484376,0.0298098269850015,-0.0217801295220851,-0.003082342678681
1770452062655,-0.0748748779296875,-0.25048828125,-0.9704742431640624,0.0369585491716861,-0.0071939970366656,-0.005315136630088
1770452062665,-0.0834808349609375,-0.2570343017578125,-0.9626007080078124,0.0373915806412696,0.0093719298020005,-0.0030724888201802
1770452062675,-0.079864501953125,-0.2602996826171875,-0.962677001953125,0.0253751315176486,0.0154729662463068,-0.0030983216129243
1770452062685,-0.077392578125,-0.2469024658203125,-0.9553375244140624,0.0110774189233779,0.0094148069620132,-0.0098084220662713
1770452062695,-0.083740234375,-0.2514801025390625,-0.94744873046875,0.0017827199772,0.0009302421822212,-0.0033904702868312
1770452062705,-0.08013916015625,-0.2393341064453125,-0.9388427734375,-0.0045462823472917,0.0193595830351114,-0.0075937374494969
1770452062715,-0.08367919921875,-0.2355804443359375,-0.9439697265625,-0.0214139446616172,0.0162098631262779,-0.0246299784630537
1770452062725,-0.0879058837890625,-0.2384033203125,-0.94903564453125,-0.0444675981998443,0.0014266553334891,-0.0330863147974014
1770452062735,-0.0791778564453125,-0.25396728515625,-0.94921875,-0.053706370294094,-0.0101801995187997,-0.0160186477005481
1770452062745,-0.0689849853515625,-0.2734832763671875,-0.9478912353515624,-0.0587767623364925,-0.0099202748388051,0.0103527726605534
1770452062755,-0.0666961669921875,-0.26025390625,-0.951416015625,-0.0591168478131294,0.0177848562598228,0.0105849998071789
1770452062765,-0.0775909423828125,-0.23956298828125,-0.9599151611328124,-0.0512075275182724,0.0502706281840801,-0.0059135491028428
1770452062775,-0.082061767578125,-0.23614501953125,-0.966278076171875,-0.0345127023756504,0.0403255857527256,-0.0164785757660865
1770452062785,-0.078277587890625,-0.2473297119140625,-0.9780426025390624,-0.0288284514099359,0.0036892769858241,-0.0212091486901044
1770452062795,-0.078704833984375,-0.2503204345703125,-0.97369384765625,-0.0187252182513475,-0.016463927924633,-0.020609937608242
1770452062805,-0.08642578125,-0.2498016357421875,-0.9737701416015624,-0.003376621985808,-0.0180479753762483,-0.0108739528805017
1770452062815,-0.07940673828125,-0.254730224609375,-0.9812469482421876,0.0088283792138099,-0.0273354835808277,-0.0014133396325632
1770452062825,-0.0765228271484375,-0.2520294189453125,-0.97760009765625,0.0110798152163624,-0.0111461281776428,-0.0013691311469301
1770452062836,-0.07525634765625,-0.2468414306640625,-0.9694061279296876,0.0081077273935079,0.0157651137560606,-0.0066270101815462
1770452062846,-0.076690673828125,-0.2469024658203125,-0.96142578125,0.0113570503890514,0.02478763833642,-0.0096022933721542
1770452062856,-0.0724334716796875,-0.2550048828125,-0.96478271484375,0.0073505910113453,0.0188144333660602,-0.0137243345379829
1770452062866,-0.0724029541015625,-0.2515106201171875,-0.961151123046875,0.0098164118826389,0.020341757684946,-0.0141435153782367
1770452062876,-0.0766143798828125,-0.248992919921875,-0.9676513671875,0.0121932830661535,0.0078123831190168,-0.0127626666799187
1770452062886,-0.081024169921875,-0.2471160888671875,-0.9696807861328124,0.0159581936895847,0.0005608617211692,-0.0086880307644605
1770452062896,-0.0823516845703125,-0.2464599609375,-0.9647369384765624,0.0123749105259776,-0.0040117856115102,-0.0045492118224501
1770452062906,-0.0794219970703125,-0.2489166259765625,-0.9569854736328124,0.0047931573353707,-0.0026567694731056,-0.0081788338720798
1770452062916,-0.07879638671875,-0.2511749267578125,-0.95123291015625,-0.0097413109615445,0.003156644757837,-0.0069894660264253
1770452062926,-0.0749053955078125,-0.2485504150390625,-0.9456329345703124,-0.0244787111878395,0.0090622045099735,-0.003409378696233
1770452062936,-0.069122314453125,-0.252105712890625,-0.94769287109375,-0.0453680157661438,0.016303339973092,0.0057588196359574
1770452062946,-0.0684051513671875,-0.25299072265625,-0.940521240234375,-0.0651904568076133,0.0225172936916351,0.0150425992906093
1770452062956,-0.0691680908203125,-0.249267578125,-0.943267822265625,-0.0736217573285102,0.0341864675283432,0.0189401358366012
1770452062966,-0.0723876953125,-0.2418212890625,-0.9597015380859376,-0.0743623822927475,0.0316876210272312,0.0160990748554468
1770452062976,-0.0794830322265625,-0.2440338134765625,-0.966827392578125,-0.0692459195852279,0.0172474291175603,0.013432185165584
1770452062986,-0.077545166015625,-0.2439727783203125,-0.968505859375,-0.058165568858385,0.0166194569319486,0.0074853468686342
1770452062996,-0.0788421630859375,-0.2428741455078125,-0.97283935546875,-0.0425400026142597,0.0083788372576236,-8.52211542223813e-06
1770452063006,-0.080078125,-0.2430572509765625,-0.9782562255859376,-0.0255985707044601,0.0081705776974558,-0.0078691085800528
1770452063016,-0.08160400390625,-0.2434539794921875,-0.9790496826171876,-0.0127829071134328,0.0063511063344776,-0.0140833286568522
1770452063026,-0.0809478759765625,-0.2448577880859375,-0.9741973876953124,-0.0026628947816789,0.0015398397808894,-0.0098779303953051
1770452063037,-0.0729217529296875,-0.24755859375,-0.971710205078125,0.0014663364272564,-0.0073175677098333,-0.0077742999419569
1770452063047,-0.0758514404296875,-0.2447052001953125,-0.96942138671875,0.0070142336189746,-0.0042384206317365,-0.0088190576061606
1770452063057,-0.077606201171875,-0.2430267333984375,-0.9704132080078124,0.0096390452235937,-0.0073937340639531,-0.0038197718095034
1770452063067,-0.071533203125,-0.2464141845703125,-0.967742919921875,0.0066179553978145,-0.0043942159973084,-0.0056384447962045
1770452063077,-0.0736541748046875,-0.2487945556640625,-0.9610748291015624,-0.0013395700370892,0.00758787849918,-2.8229507734067735e-05
1770452063087,-0.0697784423828125,-0.2463836669921875,-0.955596923828125,-0.0068760155700147,0.0145744150504469,0.0020530307665467
1770452063097,-0.072845458984375,-0.24713134765625,-0.9558258056640624,-0.013055614195764,0.0220264717936515,0.0003925499331671
1770452063107,-0.0780792236328125,-0.2460479736328125,-0.957794189453125,-0.0243641957640647,0.0238328948616981,0.0059873186983168
1770452063117,-0.07440185546875,-0.2427520751953125,-0.952972412109375,-0.0309656392782926,0.0253229327499866,0.0119967414066195
1770452063127,-0.0720977783203125,-0.2418212890625,-0.956512451171875,-0.0350016579031944,0.0259780716150999,0.0093373088166117
1770452063139,-0.072998046875,-0.2449493408203125,-0.9614410400390624,-0.0411224029958248,0.0218618884682655,0.0140380542725324
1770452063147,-0.070770263671875,-0.2398681640625,-0.95880126953125,-0.0368690676987171,0.0220264717936515,0.0184296071529388
1770452063157,-0.0695343017578125,-0.2442626953125,-0.967254638671875,-0.0353316254913806,0.0169744566082954,0.0134745296090841
1770452063167,-0.078155517578125,-0.2451934814453125,-0.966400146484375,-0.0350043214857578,0.0198671817779541,0.0088001498952507
1770452063177,-0.0807647705078125,-0.2414398193359375,-0.9642791748046876,-0.0343049764633178,0.0215159449726343,0.0091237239539623
1770452063187,-0.0762939453125,-0.2451629638671875,-0.9692840576171876,-0.0284212548285722,0.0154322190210223,0.0058115501888096
1770452063197,-0.07977294921875,-0.24481201171875,-0.974090576171875,-0.01912122964859,0.0097780618816614,0.0004982774262316
1770452063207,-0.083831787109375,-0.2419586181640625,-0.9750518798828124,-0.0145610990002751,0.0032975259236991,-0.0046413573436439
1770452063217,-0.0817108154296875,-0.2404327392578125,-0.96868896484375,-0.0183257441967725,0.0080214412882924,-0.0061929146759212
1770452063227,-0.0798797607421875,-0.235443115234375,-0.95587158203125,-0.0250499602407217,0.0192551873624324,-0.0079167792573571
1770452063237,-0.077301025390625,-0.238433837890625,-0.954864501953125,-0.0270084477961063,0.0331912413239479,0.0012101404136046
1770452063247,-0.0665740966796875,-0.24212646484375,-0.960174560546875,-0.0254941750317811,0.0271621122956275,0.0026032398454844
1770452063258,-0.0687713623046875,-0.2437286376953125,-0.9694061279296876,-0.0122875589877367,0.0126673253253102,0.0017371799331158
1770452063268,-0.074554443359375,-0.2425689697265625,-0.9778594970703124,-0.0055793225765228,0.0021776668727397,-0.0015427692560479
1770452063278,-0.0750579833984375,-0.2409210205078125,-0.9752197265625,0.0006420881254598,-0.0029443909879773,-0.0009206547983922
1770452063288,-0.073516845703125,-0.2405853271484375,-0.9693145751953124,0.0026849990244954,0.0021161478944122,0.0018485001055523
1770452063298,-0.070098876953125,-0.246612548828125,-0.9683990478515624,-0.0021033645607531,0.008961004205048,0.0030029804911464
1770452063308,-0.070098876953125,-0.2452239990234375,-0.96136474609375,-0.0036506610922515,0.0150090428069233,0.0056019593030214
1770452063318,-0.0703582763671875,-0.24224853515625,-0.9612579345703124,-0.0031036478467285,0.021279189735651,0.0100686131045222
1770452063328,-0.07232666015625,-0.24298095703125,-0.967437744140625,0.0024948492646217,0.0212834514677524,0.0117882164195179
1770452063338,-0.0731964111328125,-0.240081787109375,-0.970367431640625,0.010472347959876,0.0151813495904207,0.0069923955015838
1770452063348,-0.0755615234375,-0.2375946044921875,-0.9708099365234376,0.0122942170128226,0.0127823743969202,0.0041271005757153
1770452063358,-0.0777130126953125,-0.237091064453125,-0.962799072265625,0.0088443579152226,0.0160255711525678,0.0063383234664797
1770452063368,-0.074310302734375,-0.2411041259765625,-0.9564971923828124,-0.0033089776989072,0.0171630084514617,0.0093447659164667
1770452063378,-0.071533203125,-0.240203857421875,-0.9526214599609376,-0.0133064845576882,0.0191486608237028,0.0048514804802834
1770452063389,-0.0755157470703125,-0.2438201904296875,-0.9487152099609376,-0.0259389225393533,0.0259804669767618,0.0083934850990772
1770452063398,-0.0714874267578125,-0.248779296875,-0.9495086669921876,-0.0239961463958024,0.0357326976954937,0.0107423923909664
1770452063408,-0.067901611328125,-0.2388916015625,-0.967071533203125,-0.0215657465159893,0.017528660595417,0.0004854942671954
1770452063418,-0.0820159912109375,-0.242340087890625,-0.9745330810546876,-0.0110851414501667,0.0107517139986157,0.0011883024126291
1770452063428,-0.0756072998046875,-0.2454986572265625,-0.97314453125,-0.001651426195167,0.0218911841511726,-0.001882588607259
1770452063439,-0.0752716064453125,-0.22869873046875,-0.96441650390625,0.0035736958961933,0.0292108822613954,-0.0152079816907644
1770452063448,-0.0816802978515625,-0.236236572265625,-0.9680328369140624,0.0019475696608424,0.0212781243026256,-0.0128857046365737
1770452063458,-0.0713958740234375,-0.245574951171875,-0.9661102294921876,-0.0042189797386527,0.0220589637756347,-0.0009249158320017
1770452063468,-0.0638427734375,-0.2545166015625,-0.95831298828125,-0.0027515781112015,0.0206317752599716,0.0128811774775385
1770452063479,-0.064239501953125,-0.24969482421875,-0.9683837890625,0.0021393173374235,0.0274468045681715,0.003720169654116
1770452063489,-0.0755157470703125,-0.2293548583984375,-0.967681884765625,0.0081351585686206,0.0349499955773353,-0.0148127684369683
1770452063499,-0.082122802734375,-0.227996826171875,-0.9693450927734376,0.0147025128826498,0.0247317124158144,-0.024091487750411
1770452063509,-0.0780029296875,-0.2344207763671875,-0.971099853515625,0.0196402799338102,0.0113021889701485,-0.0322357006371021
1770452063519,-0.08013916015625,-0.23712158203125,-0.9705657958984376,0.022456306964159,0.0038205708842724,-0.0354464091360569
1770452063529,-0.0798492431640625,-0.2423248291015625,-0.9661865234375,0.0317137204110622,-0.0087998835369944,-0.0272076521068811
1770452063539,-0.0716552734375,-0.2496490478515625,-0.969879150390625,0.026952788233757,-0.0048192562535405,-0.0210197977721691
1770452063549,-0.0703277587890625,-0.252471923828125,-0.9623565673828124,0.0123679861426353,0.020446153357625,-0.0133112780749797
1770452063559,-0.0599517822265625,-0.249053955078125,-0.9560546875,0.0041409493423998,0.0289014223963022,-0.0064094299450516
1770452063569,-0.0578460693359375,-0.2474517822265625,-0.9604339599609376,0.0011377023765817,0.0229686982929706,-0.0054112770594656
1770452063579,-0.0655670166015625,-0.2431182861328125,-0.965789794921875,0.0057747983373701,0.0171257238835096,-0.0130108734592795
1770452063589,-0.0771942138671875,-0.2397308349609375,-0.9693756103515624,0.0151765560731291,0.0120633207261562,-0.0139022329822182
1770452063599,-0.076141357421875,-0.24237060546875,-0.97088623046875,0.021522868424654,0.0137336552143096,-0.0121799670159816
1770452063609,-0.0682373046875,-0.2440643310546875,-0.96826171875,0.0260830000042915,0.0183228142559528,-0.0117597207427024
1770452063619,-0.06793212890625,-0.2447052001953125,-0.9678497314453124,0.0288625415414571,0.0181449148803949,-0.0124068688601255
1770452063629,-0.0723114013671875,-0.2477874755859375,-0.967132568359375,0.0261868629604578,0.0162492766976356,-0.0174636784940958
1770452063639,-0.072296142578125,-0.2480010986328125,-0.9594879150390624,0.0135978339239954,0.0138124851509928,-0.0145421912893652
1770452063649,-0.0680694580078125,-0.2463531494140625,-0.953277587890625,-0.0014855111949145,0.0198868885636329,-0.0146002480760216
1770452063659,-0.0674896240234375,-0.2477569580078125,-0.9507598876953124,-0.0138455079868435,0.0324165299534797,-0.0088113350793719
1770452063669,-0.064788818359375,-0.251678466796875,-0.9504547119140624,-0.0265642330050468,0.0299879927188158,-0.0047233826480805
1770452063680,-0.0654449462890625,-0.25250244140625,-0.9505767822265624,-0.0393420793116092,0.032196819782257,-0.0062168831937015
1770452063690,-0.066925048828125,-0.2381591796875,-0.9569854736328124,-0.0449717342853546,0.0416281372308731,-0.0078446073457598
1770452063700,-0.072967529296875,-0.2426605224609375,-0.9597930908203124,-0.0551364906132221,0.0373545624315738,-0.0067918598651885
1770452063710,-0.0678558349609375,-0.239990234375,-0.952239990234375,-0.0686043575406074,0.0315025337040424,-0.0024437166284769
1770452063720,-0.0632781982421875,-0.23968505859375,-0.95330810546875,-0.0657606348395347,0.0405160002410411,0.0004295678809285
1770452063730,-0.0621185302734375,-0.241455078125,-0.9671173095703124,-0.0606851838529109,0.0302891954779624,-0.0007344998302869
1770452063740,-0.067352294921875,-0.2457733154296875,-0.97503662109375,-0.040387637913227,0.038750059902668,-0.0025020397733896
1770452063750,-0.0638885498046875,-0.2439422607421875,-0.984375,-0.0262180212885141,0.0280446838587522,0.0014687333023175
1770452063760,-0.0631256103515625,-0.2456512451171875,-0.9801483154296876,-0.0125498799607157,0.0099722063168883,0.0038682415615767
1770452063770,-0.0654144287109375,-0.2458648681640625,-0.983642578125,0.0079862875863909,5.246427463134751e-05,0.0034362766891717
1770452063780,-0.0687408447265625,-0.248199462890625,-0.9876556396484376,0.0165978856384754,0.003671433776617,6.764429417671636e-05
1770452063790,-0.0690155029296875,-0.2452545166015625,-0.9710540771484376,0.0130436299368739,0.0236326251178979,-0.0052163335494697
1770452063800,-0.068145751953125,-0.2453765869140625,-0.9595947265625,0.0130436299368739,0.0236326251178979,-0.0052163335494697
1770452063810,-0.0657958984375,-0.2451019287109375,-0.9567413330078124,0.0073769562877714,0.0343116335570812,-0.0047838361933827
1770452063820,-0.0653839111328125,-0.24237060546875,-0.95867919921875,-0.0044008735567331,0.0166926942765712,-0.0104214819148182
1770452063830,-0.0651702880859375,-0.241455078125,-0.963623046875,-0.0007177218794822,0.0030306773260235,-0.011860653758049
1770452063840,-0.065032958984375,-0.2380218505859375,-0.971527099609375,0.0094190677627921,-0.0116697056218981,-0.0103647569194436
1770452063850,-0.065277099609375,-0.2389068603515625,-0.972137451171875,0.0125972842797636,-0.0114928716793656,-0.0108433263376355
1770452063860,-0.062347412109375,-0.24383544921875,-0.96881103515625,0.0117772975936532,-0.0022791333030909,-0.0110079096630215
1770452063870,-0.061920166015625,-0.248565673828125,-0.9622650146484376,0.0013161342358216,-0.0007470166892744,-0.0073828152380883
1770452063880,-0.0557403564453125,-0.248199462890625,-0.953948974609375,-0.0111389374360442,0.013130716048181,-0.0043662525713443
1770452063891,-0.055938720703125,-0.2472381591796875,-0.9511260986328124,-0.0211122091859579,0.0326679311692714,-0.0019915117882192
1770452063901,-0.0568695068359375,-0.24725341796875,-0.951171875,-0.0272800903767347,0.0335427783429622,0.0006532734259963
1770452063911,-0.0597076416015625,-0.2481842041015625,-0.9580535888671876,-0.032847162336111,0.0196200404316186,0.0076041240245103
1770452063921,-0.05633544921875,-0.2435302734375,-0.9579315185546876,-0.0395886898040771,0.0144175551831722,0.0006596649764105
1770452063931,-0.0621490478515625,-0.24267578125,-0.9578399658203124,-0.0368128754198551,0.0199340265244245,-0.0048522795550525
1770452063941,-0.06915283203125,-0.2413482666015625,-0.966339111328125,-0.0411884486675262,0.0052975597791373,-0.0046554720029234
1770452063951,-0.0648193359375,-0.2379150390625,-0.9620361328125,-0.046445794403553,0.0032264196779578,-0.0072161010466516
1770452063961,-0.065765380859375,-0.235137939453125,-0.9562225341796876,-0.0521691963076591,0.0003912183747161,-0.0020623519085347
1770452063972,-0.06005859375,-0.237945556640625,-0.9547576904296876,-0.0510005988180637,0.0044285706244409,0.0065098307095468
1770452063981,-0.0541534423828125,-0.240081787109375,-0.965606689453125,-0.044406346976757,-0.0018849853659048,0.0145299406722188
1770452063991,-0.0571746826171875,-0.242340087890625,-0.972412109375,-0.0275980718433856,-0.0050288471393287,0.0167638007551431
1770452064001,-0.0594940185546875,-0.2462921142578125,-0.9817352294921876,-0.0097562242299318,-0.0339622274041175,0.0218352582305669
1770452064011,-0.05694580078125,-0.245819091796875,-0.9873809814453124,-0.0068712220527231,-0.0433440133929252,0.0134236635640263
1770452064021,-0.06817626953125,-0.241180419921875,-0.972076416015625,0.0030626351945102,-0.0268870070576667,0.0259357262402772
1770452064031,-0.0604400634765625,-0.2452545166015625,-0.9720916748046876,0.007063768338412,-0.0094976313412189,0.0281938202679157
1770452064041,-0.0629730224609375,-0.24346923828125,-0.971588134765625,0.0149347409605979,0.00421844702214,0.0313821583986282
1770452064051,-0.0587158203125,-0.2431182861328125,-0.97662353515625,0.0191068481653928,-0.0138521660119295,0.0248041488230228
1770452064061,-0.0728302001953125,-0.241546630859375,-0.9747772216796876,0.0115791577845811,-0.0216648150235414,0.0208802483975887
1770452064071,-0.0700836181640625,-0.236053466796875,-0.9590301513671876,0.0106246806681156,-0.0021353224292397,0.0183411911129951
1770452064082,-0.0683135986328125,-0.238861083984375,-0.9598388671875,0.0161371584981679,0.0062914518639445,0.0176650136709213
1770452064091,-0.06939697265625,-0.2422943115234375,-0.971038818359375,0.0224605686962604,-0.0078478027135133,0.0131251234561204
1770452064101,-0.072021484375,-0.2429656982421875,-0.973052978515625,0.0321022756397724,-0.0112265553325414,0.0089879026636481
1770452064112,-0.0716094970703125,-0.2444610595703125,-0.969024658203125,0.0314447432756423,-0.0237215738743543,0.0243069380521774
1770452064121,-0.057708740234375,-0.25189208984375,-0.9670562744140624,0.0351201705634593,-0.03196831792593,0.0321603342890739
1770452064132,-0.0566253662109375,-0.2414093017578125,-0.979278564453125,0.0386328808963298,-0.0370070189237594,0.0236880183219909
1770452064142,-0.0709381103515625,-0.247894287109375,-0.9715576171875,0.0502405352890491,-0.0217700097709894,0.0227300804108381
1770452064152,-0.0690460205078125,-0.241546630859375,-0.96771240234375,0.0460686907172203,-0.025884861126542,0.0133411055430769
1770452064162,-0.0758056640625,-0.2261962890625,-0.9526824951171876,0.0299725458025932,-0.0609616227447986,-0.0071332771331071
1770452064172,-0.08349609375,-0.229461669921875,-0.955108642578125,0.0342570394277572,-0.0955901741981506,-0.0109277488663792
1770452064182,-0.071197509765625,-0.2500457763671875,-0.9676666259765624,0.0426345467567443,-0.1261744499206543,-0.0009502158500254
1770452064192,-0.069305419921875,-0.264190673828125,-0.9762420654296876,0.053192913532257,-0.1602474600076675,0.0065407236106693
1770452064202,-0.074462890625,-0.2507171630859375,-0.97509765625,0.0672115311026573,-0.1049975231289863,-0.00594337657094
1770452064212,-0.0824737548828125,-0.229461669921875,-0.9762115478515624,0.082954540848732,-0.0631430149078369,-0.0241037383675575
1770452064222,-0.084381103515625,-0.229400634765625,-0.969146728515625,0.101378820836544,-0.0659683644771575,-0.0323797762393951
1770452064232,-0.074798583984375,-0.2408599853515625,-0.9792022705078124,0.1154280602931976,-0.0873317122459411,-0.0429682396352291
1770452064242,-0.074859619140625,-0.2431640625,-0.9766693115234376,0.1268444955348968,-0.1074564158916473,-0.0418142937123775
1770452064252,-0.0755767822265625,-0.250701904296875,-0.9729156494140624,0.1311745345592498,-0.0922404453158378,-0.0314655154943466
1770452064262,-0.071624755859375,-0.2565765380859375,-0.961639404296875,0.1201394572854042,-0.0749261751770973,-0.0209462940692901
1770452064272,-0.072265625,-0.25616455078125,-0.9485626220703124,0.0969667583703994,-0.0774220898747444,-0.0079434104263782
1770452064282,-0.0669708251953125,-0.256927490234375,-0.9429779052734376,0.0700688362121582,-0.0744545236229896,-0.0031337416730821
1770452064292,-0.06951904296875,-0.2586822509765625,-0.93634033203125,0.0378754772245883,-0.0486671365797519,-0.0042927493341267
1770452064302,-0.0741424560546875,-0.251739501953125,-0.9337615966796876,0.0205718539655208,-0.031048996374011,0.0045353635214269
1770452064312,-0.0714111328125,-0.2508392333984375,-0.94525146484375,0.0151938665658235,-0.029609290882945,0.0049204565584659
1770452064323,-0.0816497802734375,-0.25457763671875,-0.9568023681640624,0.0135333854705095,-0.0379356630146503,0.0048269792459905
1770452064333,-0.0838470458984375,-0.250457763671875,-0.9587860107421876,0.0078731030225753,-0.0228909347206354,0.0053620086982846
1770452064343,-0.0787506103515625,-0.2527008056640625,-0.9550933837890624,0.0184788759797811,-0.0082856267690658,0.0098337223753333
1770452064353,-0.0795440673828125,-0.25823974609375,-0.9647369384765624,0.0130846425890922,-0.028719263151288,0.0063716126605868
1770452064363,-0.08544921875,-0.253326416015625,-0.956512451171875,0.005086104851216,-0.0293869171291589,0.0106579707935452
1770452064373,-0.078033447265625,-0.2525177001953125,-0.94915771484375,-0.0040602553635835,-0.0282758455723524,0.0135096833109855
1770452064383,-0.0786590576171875,-0.253448486328125,-0.9474945068359376,-0.015982961282134,-0.0278308317065238,0.014208230189979
1770452064393,-0.0795440673828125,-0.2574462890625,-0.9492034912109376,-0.0201657228171825,-0.0317392870783805,0.0145951882004737
1770452064403,-0.08056640625,-0.26177978515625,-0.960296630859375,-0.0245002824813127,-0.0419961847364902,0.0172453001141548
1770452064413,-0.0799407958984375,-0.250946044921875,-0.962158203125,-0.0254209376871585,-0.0369532257318496,0.0114705013111233
1770452064423,-0.0902557373046875,-0.252288818359375,-0.9654083251953124,-0.0165131967514753,-0.0417940504848957,0.0129078086465597
1770452064433,-0.085357666015625,-0.25811767578125,-0.9706573486328124,-0.0187244191765785,-0.0283980853855609,0.0085319690406322
1770452064443,-0.0837860107421875,-0.2521209716796875,-0.95794677734375,-0.0211215298622846,-0.0012532835826277,0.0057497648522257
1770452064453,-0.0826568603515625,-0.2577667236328125,-0.957305908203125,0.0069726882502436,-0.0376120917499065,0.0019579560030251
1770452064463,-0.0884857177734375,-0.2540435791015625,-0.986114501953125,0.0057148775085806,-0.0577485188841819,-0.0056879795156419
1770452064473,-0.0926055908203125,-0.25079345703125,-0.96075439453125,0.020026171579957,-0.0307097099721431,0.000631701783277
1770452064483,-0.0806121826171875,-0.2562103271484375,-0.9672393798828124,0.0270574502646923,-0.0415671505033969,-0.0005238438025116
1770452064494,-0.09210205078125,-0.2537841796875,-0.9709625244140624,0.0412678122520446,-0.039947148412466,-0.0026061693206429
1770452064503,-0.090484619140625,-0.256866455078125,-0.97271728515625,0.0410398431122303,-0.0355481393635273,-0.0041731735691428
1770452064513,-0.085784912109375,-0.259796142578125,-0.9608001708984376,0.0299046356230974,-0.0410403758287429,0.0023829964920878
1770452064523,-0.0796966552734375,-0.260589599609375,-0.948516845703125,0.012320315465331,-0.0356988757848739,0.0036932716611772
1770452064533,-0.081329345703125,-0.261322021484375,-0.9419097900390624,-0.0119645176455378,-0.0243269111961126,0.0125272432342171
1770452064544,-0.0829010009765625,-0.2563323974609375,-0.9354095458984376,-0.0270310845226049,-0.0021329256705939,0.0160463452339172
1770452064554,-0.0868682861328125,-0.2587738037109375,-0.9470062255859376,-0.0356674492359161,0.0013648699969053,0.0224307402968406
1770452064564,-0.0854339599609375,-0.2628326416015625,-0.95404052734375,-0.0403884351253509,-0.0119938123971223,0.0178279988467693
1770452064574,-0.0930023193359375,-0.253509521484375,-0.958221435546875,-0.0350410751998424,-0.0278481431305408,0.0162362270057201
1770452064584,-0.0911407470703125,-0.2530975341796875,-0.967041015625,-0.0242978818714618,-0.0276609230786561,0.0202562697231769
1770452064594,-0.0845184326171875,-0.25146484375,-0.968048095703125,-0.0107812751084566,-0.0151720289140939,0.0201840978115797
1770452064604,-0.088165283203125,-0.254302978515625,-0.975830078125,0.0053787864744663,-0.016015451401472,0.0170397032052278
1770452064614,-0.090606689453125,-0.2528076171875,-0.9748077392578124,0.014551511965692,-0.0174980331212282,0.0093897730112075
1770452064624,-0.0921783447265625,-0.2562103271484375,-0.9685211181640624,0.0152239603921771,-0.0142705487087368,0.0068563083186745
1770452064634,-0.08966064453125,-0.2564697265625,-0.9619140625,0.0112185664474964,-0.0174189377576112,0.004226969089359
1770452064644,-0.0913238525390625,-0.2544097900390625,-0.9574127197265624,0.0038794267456978,-0.022939670830965,0.0062331282533705
1770452064654,-0.09075927734375,-0.25518798828125,-0.95428466796875,0.0035523904953151,-0.0158069264143705,0.0112089784815907
1770452064664,-0.086151123046875,-0.2561798095703125,-0.958892822265625,0.005092762876302,-0.0216568261384964,0.0137272635474801
1770452064674,-0.0875091552734375,-0.2550811767578125,-0.963775634765625,0.0110505204647779,-0.0368496254086494,0.0167904309928417
1770452064684,-0.0876617431640625,-0.257232666015625,-0.9670257568359376,0.0192517247051,-0.0366546846926212,0.0151054495945572
1770452064694,-0.09185791015625,-0.2584991455078125,-0.9665069580078124,0.0096427733078598,-0.0311760287731885,0.0142678851261734
1770452064704,-0.091278076171875,-0.25579833984375,-0.952423095703125,0.0021768677979707,-0.0075268922373652,0.0143467150628566
1770452064714,-0.0901641845703125,-0.2566986083984375,-0.9497528076171876,-0.0063463128171861,0.006630206014961,0.0153930708765983
1770452064724,-0.0919342041015625,-0.255126953125,-0.95123291015625,-0.0230898726731538,0.0004775047709699,0.0106553072109818
1770452064735,-0.096099853515625,-0.2513885498046875,-0.9463653564453124,-0.0315709747374057,0.0033910030033439,0.0135363154113292
1770452064745,-0.092498779296875,-0.254302978515625,-0.9489288330078124,-0.0345063135027885,0.0078672440722584,0.0187318753451108
1770452064754,-0.089019775390625,-0.2536773681640625,-0.957977294921875,-0.0340573042631149,0.0033734261523932,0.0128854382783174
1770452064765,-0.09918212890625,-0.2568817138671875,-0.9634246826171876,-0.024362064898014,0.0025518408510833,0.0119938123971223
1770452064775,-0.0946197509765625,-0.258575439453125,-0.9707794189453124,-0.0184005796909332,-0.0040312269702553,0.014486264437437
1770452064785,-0.089813232421875,-0.2580108642578125,-0.9654388427734376,-0.0111346766352653,-0.000258326617768,0.0153328832238912
1770452064795,-0.0889129638671875,-0.258544921875,-0.9693450927734376,-0.0100044310092926,-0.0107184248045086,0.0193478651344776
1770452064805,-0.0872344970703125,-0.259185791015625,-0.96697998046875,-0.0129754533991217,-0.0100089581683278,0.0236733704805374
1770452064816,-0.0902252197265625,-0.2558135986328125,-0.959564208984375,-0.0163382273167371,-0.0128604052588343,0.0290372446179389
1770452064825,-0.0896759033203125,-0.2575836181640625,-0.9541473388671876,-0.0081210434436798,-0.0118982046842575,0.037623543292284
1770452064835,-0.089324951171875,-0.264801025390625,-0.962432861328125,-0.007896538823843,-0.0119908824563026,0.0380738824605941
1770452064845,-0.0905303955078125,-0.256927490234375,-0.9697113037109376,-0.0090741887688636,-0.0078869517892599,0.0330839157104492
1770452064855,-0.094268798828125,-0.2510528564453125,-0.9648895263671876,0.0025561018846929,-0.010661432519555,0.0270475968718528
1770452064865,-0.1021881103515625,-0.2619476318359375,-0.9666748046875,0.0095469001680612,-0.0102763399481773,0.0240752417594194
1770452064875,-0.10394287109375,-0.2362060546875,-0.9582672119140624,0.0039390814490616,0.0063372580334544,0.0017656758427619
1770452064885,-0.11138916015625,-0.23602294921875,-0.9559173583984376,-0.0013973605819046,-0.0010381002211943,-0.0203034076839685
1770452064895,-0.1067657470703125,-0.2414398193359375,-0.957366943359375,-0.0145397940650582,-0.0135664092376828,-0.0292526930570602
1770452064905,-0.1014862060546875,-0.2630767822265625,-0.948028564453125,-0.0157443415373563,-0.0091673992574214,-0.0003675162151921
1770452064915,-0.0843963623046875,-0.278167724609375,-0.9547882080078124,-0.0137693416327238,-0.0041364217177033,0.0225154291838407
1770452064925,-0.083038330078125,-0.261383056640625,-0.9661865234375,-0.0122963469475507,0.0117192398756742,0.0167949590831995
1770452064935,-0.0939483642578125,-0.241363525390625,-0.9622039794921876,-0.0094960331916809,0.0302138291299343,0.0066248793154954
1770452064945,-0.0912628173828125,-0.2449188232421875,-0.96246337890625,-0.0079697761684656,0.0156410112977027,0.0036988644860684
1770452064955,-0.08441162109375,-0.2484130859375,-0.9593353271484376,-0.0016876452136784,-0.0135927740484476,0.0005829659639857
1770452064965,-0.090667724609375,-0.251007080078125,-0.963226318359375,0.0016317188274115,-0.0088028125464916,0.0046408246271312
1770452064976,-0.0919952392578125,-0.2548065185546875,-0.9658355712890624,0.0036354812327772,-0.0055859801359474,0.0130636040121316
1770452064986,-0.0939483642578125,-0.257781982421875,-0.961517333984375,2.3169501218944788e-05,0.0017984326696023,0.0199947468936443
1770452064996,-0.0950469970703125,-0.2576751708984375,-0.9557037353515624,-0.0021731394808739,0.010964767076075,0.018387796357274
1770452065006,-0.093841552734375,-0.2592315673828125,-0.96075439453125,-0.0053401705808937,0.0073082465678453,0.0181944500654935
1770452065016,-0.0944976806640625,-0.2565460205078125,-0.96002197265625,-0.0044541368260979,0.005601692944765,0.0158836245536804
1770452065026,-0.0949859619140625,-0.25311279296875,-0.963409423828125,-0.0013832458062097,-0.0034716967493295,0.0155368819832801
1770452065036,-0.0973663330078125,-0.2549591064453125,-0.964263916015625,0.0020343887154012,-0.005487177055329,0.0119229722768068
1770452065046,-0.0998687744140625,-0.2551727294921875,-0.9653167724609376,0.0060355220921337,-0.0055265920236706,0.010564493946731
1770452065056,-0.0993804931640625,-0.253448486328125,-0.9616851806640624,0.0062925168313086,-0.0046767769381403,0.0120574617758393
1770452065066,-0.0963134765625,-0.2553253173828125,-0.9622039794921876,0.0082872249186038,-0.0022383867762982,0.0093407714739441
1770452065076,-0.0981597900390625,-0.2553863525390625,-0.9620819091796876,0.0131850438192486,-0.004177700728178,0.0084693850949406
1770452065086,-0.0991973876953125,-0.2548065185546875,-0.9629974365234376,0.0152926696464419,-0.0085380943492054,0.0104779405519366
1770452065096,-0.0974884033203125,-0.2542724609375,-0.9617462158203124,0.0121674500405788,-0.0062291338108479,0.007374026812613
1770452065106,-0.098724365234375,-0.2536468505859375,-0.9576873779296876,0.0062317969277501,0.0010647317394614,0.0095343831926584
1770452065116,-0.0932769775390625,-0.2589874267578125,-0.9551849365234376,0.0072491243481636,0.0104270745068788,0.0124002108350396
1770452065126,-0.090179443359375,-0.26025390625,-0.9585113525390624,0.0001480717619415,0.0065681543201208,0.0074137076735496
1770452065136,-0.096893310546875,-0.2503814697265625,-0.96063232421875,-0.0056637446396052,0.0007635282818228,0.0009254484903067
1770452065146,-0.10113525390625,-0.249420166015625,-0.9547119140625,-0.014232731424272,0.0035918052308261,0.0068600364029407
1770452065156,-0.0963134765625,-0.253326416015625,-0.9541015625,-0.0165456868708133,0.009133843705058,0.0094776572659611
1770452065166,-0.092742919921875,-0.2527618408203125,-0.9566650390625,-0.0198274999856948,0.0077929417602717,0.0053952978923916
1770452065177,-0.0957489013671875,-0.2557220458984375,-0.9593353271484376,-0.0217220727354288,0.0123368268832564,0.0045545380562543
1770452065187,-0.093719482421875,-0.2568359375,-0.959075927734375,-0.0203984826803207,0.0099466405808925,0.0083205141127109
1770452065197,-0.0909271240234375,-0.25537109375,-0.9638671875,-0.0150308813899755,0.0039928774349391,0.0144407246261835
1770452065207,-0.090057373046875,-0.25799560546875,-0.9680938720703124,-0.0041513354517519,0.0011741877533495,0.0095077510923147
1770452065217,-0.0966644287109375,-0.2572174072265625,-0.9732208251953124,-0.0011089402250945,-0.0106656933203339,0.0130942305549979
1770452065227,-0.09466552734375,-0.255035400390625,-0.964385986328125,-0.0011843077372759,-0.0048064729198813,0.0145224835723638
1770452065237,-0.0943756103515625,-0.255218505859375,-0.9636077880859376,0.000255663471762,-0.0005030711181461,0.0188764855265617
1770452065247,-0.0938568115234375,-0.2572784423828125,-0.96380615234375,0.0013454289874061,0.002650377806276,0.0158953424543142
1770452065257,-0.09521484375,-0.2605133056640625,-0.964935302734375,-0.000597613339778,0.0075798891484737,0.0164796411991119
1770452065267,-0.0972900390625,-0.260284423828125,-0.961883544921875,-0.0058949068188667,0.0049649314023554,0.016728913411498
1770452065277,-0.09375,-0.258331298828125,-0.959442138671875,-0.0095892436802387,0.0026940538082271,0.0177571587264537
1770452065287,-0.0973968505859375,-0.25445556640625,-0.95965576171875,-0.0175699386745691,0.0044011399149894,0.0156966708600521
1770452065297,-0.103729248046875,-0.250640869140625,-0.955963134765625,-0.010129333473742,0.0187792796641588,0.0176287945359945
1770452065307,-0.10223388671875,-0.2518157958984375,-0.9686431884765624,-0.0059990365989506,0.0076198363676667,0.0193169731646776
1770452065317,-0.096710205078125,-0.253814697265625,-0.967742919921875,-0.006727943662554,0.0086299730464816,0.0157669782638549
1770452065327,-0.1001129150390625,-0.2528228759765625,-0.9610137939453124,-0.0005688511882908,0.0131757231429219,0.0124121950939297
1770452065337,-0.0990142822265625,-0.2510528564453125,-0.9637908935546876,-0.0037369476631283,0.0144369965419173,0.005085039883852
1770452065347,-0.102996826171875,-0.2491912841796875,-0.9622344970703124,-0.0051023503765463,0.026684608310461,0.0017390442080795
1770452065357,-0.1008758544921875,-0.2506561279296875,-0.9633026123046876,-0.0044522727839648,0.0154412742704153,0.0053353770636022
1770452065367,-0.0968170166015625,-0.2518463134765625,-0.9637451171875,-0.0008737831376492,0.01065344363451,0.0012708604335784
1770452065378,-0.10205078125,-0.2552947998046875,-0.96478271484375,0.0035047200508415,0.0145765459164977,-0.0012535499408841
1770452065387,-0.0980682373046875,-0.2563018798828125,-0.966766357421875,0.0076517942361533,0.0099849896505475,-2.6631610694494157e-07
1770452065398,-0.0954742431640625,-0.253936767578125,-0.96710205078125,0.0144732147455215,0.0085471495985984,-0.0043633230961859
1770452065408,-0.1002197265625,-0.2546539306640625,-0.971221923828125,0.0198975410312414,0.0099085569381713,-0.006850981619209
1770452065418,-0.099365234375,-0.2534332275390625,-0.9639434814453124,0.0254044253379106,0.012703544460237,-0.000146473859786
1770452065428,-0.0910797119140625,-0.25628662109375,-0.9675140380859376,0.0252134781330823,0.0021438447292894,0.0027846011798828
1770452065438,-0.0926666259765625,-0.25994873046875,-0.9604949951171876,0.023583622649312,0.0013267868198454,0.0010029464028775
1770452065448,-0.0944061279296875,-0.253021240234375,-0.957763671875,0.0207375027239322,0.0019654128700494,0.0041840923950076
1770452065458,-0.089599609375,-0.2537841796875,-0.9573822021484376,0.019146529957652,0.0027640948537737,0.0072509888559579
1770452065468,-0.091583251953125,-0.2540740966796875,-0.958953857421875,0.0151310162618756,0.0130694629624485,0.0022373215761035
1770452065478,-0.098663330078125,-0.251983642578125,-0.954376220703125,0.0111477263271808,0.0304066408425569,-0.0009195895399898
1770452065488,-0.098480224609375,-0.25408935546875,-0.9530792236328124,0.0117085874080657,0.0366621389985084,-0.0003198456543032
1770452065498,-0.09600830078125,-0.2519989013671875,-0.9593353271484376,0.0154436714947223,0.0228595100343227,-0.0012471582740545
1770452065508,-0.097137451171875,-0.2530670166015625,-0.96319580078125,0.0225460547953844,0.0261359959840774,-0.0023590279743075
1770452065518,-0.096221923828125,-0.252227783203125,-0.9647216796875,0.0184626299887895,0.0224499143660068,-0.0044165863655507
1770452065528,-0.09857177734375,-0.2489166259765625,-0.9556884765625,0.018705777823925,0.0310532562434673,-0.0071098413318395
1770452065538,-0.10009765625,-0.25177001953125,-0.954315185546875,0.0113442670553922,0.0250054839998483,-0.0029521139804273
1770452065548,-0.09588623046875,-0.2635650634765625,-0.9480743408203124,-0.0098182754591107,0.0209172666072845,0.0110654346644878
1770452065558,-0.0854644775390625,-0.2552032470703125,-0.941162109375,-0.0294076893478631,0.0291115455329418,0.0100182797759771
1770452065568,-0.0953521728515625,-0.2535858154296875,-0.9527587890625,-0.0294076893478631,0.0291115455329418,0.0100182797759771
1770452065578,-0.1015777587890625,-0.2647552490234375,-0.9578857421875,-0.0287456270307302,0.0197292305529117,0.0053958306089043
1770452065588,-0.0970001220703125,-0.24542236328125,-0.957366943359375,-0.0170125383883714,0.033271137624979,-0.0128667959943413
1770452065599,-0.1080169677734375,-0.2462921142578125,-0.96307373046875,-0.0204352345317602,0.0308963973075151,-0.0331686064600944
1770452065609,-0.1083984375,-0.248016357421875,-0.96502685546875,-0.0252534244209527,0.0125613315030932,-0.0428619794547557
1770452065619,-0.10113525390625,-0.2636871337890625,-0.9579620361328124,-0.029447104781866,0.0010591391474008,-0.0198823623359203
1770452065629,-0.0827178955078125,-0.2765655517578125,-0.95098876953125,-0.0373439081013202,0.014365623705089,-0.0013299826532602
1770452065639,-0.0821990966796875,-0.2567596435546875,-0.949462890625,-0.0378168858587741,0.0364783816039562,-0.0059577575884759
1770452065649,-0.0913238525390625,-0.24078369140625,-0.955596923828125,-0.0357532054185867,0.0442273840308189,-0.0214360505342483
1770452065659,-0.092041015625,-0.2424468994140625,-0.962005615234375,-0.0356980748474597,0.0257165487855672,-0.0279663875699043
1770452065669,-0.0885467529296875,-0.2429046630859375,-0.962188720703125,-0.0268989913165569,0.0048639974556863,-0.033491913229227
1770452065679,-0.0950775146484375,-0.2479095458984375,-0.9665679931640624,-0.0154002616181969,0.0006732470938004,-0.0332000330090522
1770452065689,-0.0952606201171875,-0.25738525390625,-0.9709930419921876,-0.0106124309822916,0.0135514950379729,-0.018714565783739
1770452065699,-0.087005615234375,-0.2591552734375,-0.9682159423828124,-0.0079205073416233,0.0358030050992965,-0.0063790697604417
1770452065709,-0.081634521484375,-0.2630462646484375,-0.9672088623046876,-0.0103434510529041,0.0439272448420524,-0.0067239492200315
1770452065719,-0.0848541259765625,-0.2644805908203125,-0.9643096923828124,-0.0047556068748235,0.0555085316300392,-0.0065793395042419
1770452065729,-0.0855712890625,-0.2607269287109375,-0.968292236328125,-0.0030855385120958,0.0417698174715042,-0.0121493404731154
1770452065739,-0.0915985107421875,-0.256072998046875,-0.963653564453125,0.0021939121652394,0.0251620784401893,-0.0202019400894641
1770452065749,-0.097869873046875,-0.2521514892578125,-0.9652252197265624,0.006720220670104,0.0122670521959662,-0.019965186715126
1770452065760,-0.098052978515625,-0.2531890869140625,-0.9631500244140624,0.0156215699389576,0.0126209864392876,-0.0187976565212011
1770452065769,-0.0951690673828125,-0.2536468505859375,-0.9651947021484376,0.0157784298062324,0.0112001905217766,-0.0227726902812719
1770452065780,-0.0949859619140625,-0.2539215087890625,-0.956878662109375,0.0134470993652939,0.0125211179256439,-0.0257317293435335
1770452065789,-0.0907745361328125,-0.255645751953125,-0.95477294921875,0.007063768338412,0.013185310177505,-0.0221013072878122
1770452065799,-0.08349609375,-0.254150390625,-0.951446533203125,0.0031254857312887,0.0014279870083555,-0.0209146030247211
1770452065809,-0.08349609375,-0.252899169921875,-0.957611083984375,-0.0009321063989773,-0.001644235686399,-0.0190155021846294
1770452065820,-0.085601806640625,-0.2559051513671875,-0.956207275390625,-0.0062179486267268,0.0108782136812806,-0.0130928987637162
1770452065830,-0.081085205078125,-0.2606353759765625,-0.953277587890625,-0.0126705216243863,0.0179608911275863,-0.0082448804751038
1770452065840,-0.0787811279296875,-0.25787353515625,-0.954010009765625,-0.0208344422280788,0.0245849713683128,-0.0052618738263845
1770452065850,-0.0834503173828125,-0.2487335205078125,-0.954437255859375,-0.0274292267858982,0.041144773364067,-0.0060144830495119
1770452065860,-0.0870208740234375,-0.252105712890625,-0.9573822021484376,-0.0241143908351659,0.0379415228962898,-0.0033787523861974
1770452065870,-0.0830535888671875,-0.2531890869140625,-0.9602508544921876,-0.0198373533785343,0.0366940982639789,-0.0107455886900424
1770452065880,-0.0884552001953125,-0.252166748046875,-0.959991455078125,-0.0126351015642285,0.0414526350796222,-0.018680477514863
1770452065890,-0.0871124267578125,-0.253448486328125,-0.9677276611328124,-0.0079761678352952,0.0294609535485506,-0.0217020995914936
1770452065900,-0.08551025390625,-0.255035400390625,-0.96588134765625,-0.004685831721872,0.0270023234188556,-0.0252667404711246
1770452065910,-0.0888214111328125,-0.2523956298828125,-0.962646484375,-0.0106545081362128,0.0228856075555086,-0.021681061014533
1770452065920,-0.0854339599609375,-0.25128173828125,-0.9534759521484376,-0.0124803716316819,0.0249042846262455,-0.0114489290863275
1770452065930,-0.076568603515625,-0.2559967041015625,-0.9580841064453124,-0.0165936239063739,0.015393603593111,-0.009706157259643
1770452065940,-0.079254150390625,-0.257965087890625,-0.959930419921875,-0.0214978344738483,0.0136471027508378,-0.0087117329239845
1770452065950,-0.0780181884765625,-0.2575836181640625,-0.957122802734375,-0.022856580093503,0.0181100275367498,-0.0023246733471751
1770452065960,-0.075164794921875,-0.2563018798828125,-0.956146240234375,-0.0236464738845825,0.0272577200084924,-0.0043585295788943
1770452065970,-0.0799713134765625,-0.2566375732421875,-0.9578857421875,-0.0232999958097934,0.031657263636589,-0.0040498692542314
1770452065980,-0.0797882080078125,-0.2577362060546875,-0.9605865478515624,-0.0266289468854665,0.0418116301298141,-0.0069836070761084
1770452065990,-0.081451416015625,-0.2544708251953125,-0.9557037353515624,-0.0318111926317215,0.0543569810688495,-0.0071718925610184
1770452066000,-0.083648681640625,-0.2528839111328125,-0.9568023681640624,-0.0291325859725475,0.0471709743142128,-0.0047635962255299
1770452066011,-0.0824432373046875,-0.25701904296875,-0.9648590087890624,-0.0271253604441881,0.0391596518456935,0.0055806539021432
1770452066020,-0.0784759521484375,-0.2526397705078125,-0.9653167724609376,-0.0174660757184028,0.0307174324989318,0.0013515542959794
1770452066031,-0.0857086181640625,-0.2551116943359375,-0.972991943359375,-0.0076134447008371,0.0223859995603561,0.0005142564186826
1770452066041,-0.084625244140625,-0.253631591796875,-0.9725799560546876,-0.0019555592443794,0.0281599983572959,-0.002797916997224
1770452066051,-0.0810089111328125,-0.2556915283203125,-0.969757080078125,0.0092430328950285,0.0321550071239471,-0.0019515644526109
1770452066061,-0.0806121826171875,-0.256134033203125,-0.9720458984375,0.0155504634603858,0.0237277001142501,-0.0064525729976594
1770452066071,-0.0834197998046875,-0.258392333984375,-0.97076416015625,0.0187409315258264,0.0242115966975688,-0.0044852960854768
1770452066081,-0.0800933837890625,-0.2551422119140625,-0.9644012451171876,0.0158362202346324,0.0204054061323404,-0.0045556034892797
1770452066091,-0.08148193359375,-0.2552490234375,-0.9580841064453124,0.0042264368385076,0.0260425191372632,-0.0070448601618409
1770452066101,-0.083465576171875,-0.2535247802734375,-0.947906494140625,-0.0064533720724284,0.0446292534470558,-0.0013414341956377
1770452066111,-0.0736083984375,-0.2562713623046875,-0.944488525390625,-0.0157158467918634,0.0446375086903572,0.0045468150638043
1770452066121,-0.0729827880859375,-0.2613372802734375,-0.950714111328125,-0.0233167745172977,0.0390264950692653,0.0040195090696215
1770452066131,-0.07904052734375,-0.2566986083984375,-0.9542388916015624,-0.0313427411019802,0.027944816276431,0.0090161319822072
1770452066141,-0.0745391845703125,-0.24871826171875,-0.95330810546875,-0.0333206728100776,0.0191811509430408,0.0096939066424965
1770452066151,-0.07672119140625,-0.252471923828125,-0.9599609375,-0.0317504741251468,0.0176405124366283,0.01079938467592
1770452066161,-0.080963134765625,-0.254669189453125,-0.960052490234375,-0.0301112961024045,0.0255117509514093,0.0114888772368431
1770452066171,-0.076019287109375,-0.25323486328125,-0.957733154296875,-0.0297882556915283,0.0369143411517143,0.0122401546686887
1770452066181,-0.073974609375,-0.253021240234375,-0.9546661376953124,-0.0346834100782871,0.0415056310594081,0.0136899799108505
1770452066191,-0.0767669677734375,-0.25128173828125,-0.954864501953125,-0.0373431108891963,0.0444790497422218,0.0073053170926868
1770452066201,-0.0831756591796875,-0.2494964599609375,-0.95953369140625,-0.034110564738512,0.0428068526089191,0.0052943644113838
1770452066211,-0.078857421875,-0.245758056640625,-0.9673309326171876,-0.0252305213361978,0.0258646197617054,0.0024711471050977
1770452066221,-0.08056640625,-0.2471923828125,-0.9711151123046876,-0.0109053784981369,0.020823523402214,-0.0031489215325564
1770452066232,-0.0845489501953125,-0.246551513671875,-0.97515869140625,0.0037345506716519,0.0165147949010133,-0.0128361703827977
1770452066242,-0.0863037109375,-0.2501220703125,-0.9733123779296876,0.0111562479287385,0.0135469678789377,-0.0109716905280947
1770452066252,-0.0762176513671875,-0.262847900390625,-0.9648590087890624,0.0050243195146322,0.0199412181973457,-0.0008090683259069
1770452066262,-0.065399169921875,-0.25396728515625,-0.956298828125,-0.006867759861052,0.023389745503664,-0.0031121699139475
1770452066272,-0.07550048828125,-0.2525634765625,-0.956390380859375,-0.0036613137926906,0.0225724205374717,0.0045284391380846
1770452066282,-0.06939697265625,-0.2629852294921875,-0.9660797119140624,0.0069713569246232,0.031103590503335,0.0118587901815772
1770452066292,-0.0666961669921875,-0.2422943115234375,-0.967315673828125,0.0227833427488803,0.0275743696838617,0.0044863610528409
1770452066302,-0.0753631591796875,-0.2500762939453125,-0.97601318359375,0.0345558449625968,0.005094626918435,0.0020442423410713
1770452066312,-0.07501220703125,-0.260894775390625,-0.9766693115234376,0.0428779572248458,-0.0091287838295102,0.0049364352598786
1770452066322,-0.071868896484375,-0.2625885009765625,-0.9705352783203124,0.0414659492671489,-0.0148569764569401,0.0154085168614983
1770452066332,-0.0709228515625,-0.2545013427734375,-0.9606170654296876,0.0465749576687812,0.0026394589804112,0.0089295795187354
1770452066342,-0.07989501953125,-0.2381591796875,-0.9577789306640624,0.0448268614709377,0.0211100783199071,-0.0045348308049142
1770452066352,-0.0859832763671875,-0.239593505859375,-0.9529266357421876,0.0337276048958301,0.0175984352827072,-0.0127576068043708
1770452066362,-0.0775909423828125,-0.2453765869140625,-0.9463958740234376,0.0125139271840453,0.0018085526535287,-0.0198879539966583
1770452066372,-0.07733154296875,-0.2465057373046875,-0.9354248046875,-0.0162703171372413,0.006099437829107,-0.0171062815934419
1770452066382,-0.0772247314453125,-0.2484283447265625,-0.9286041259765624,-0.0297155510634183,0.0307208951562643,-0.0016905746888369
1770452066392,-0.070220947265625,-0.26068115234375,-0.94366455078125,-0.0419237464666366,0.0338415876030921,0.0086813727393746
1770452066403,-0.0640869140625,-0.26483154296875,-0.948333740234375,-0.0532890558242797,0.0438606664538383,0.0145587027072906
1770452066412,-0.063018798828125,-0.257598876953125,-0.950439453125,-0.0599048770964145,0.047187753021717,0.0182455834001302
1770452066423,-0.0638427734375,-0.25335693359375,-0.956878662109375,-0.0561402328312397,0.0389711000025272,0.0208916999399662
1770452066432,-0.0712127685546875,-0.249664306640625,-0.9648895263671876,-0.0467208996415138,0.0314013324677944,0.0216813273727893
1770452066442,-0.073974609375,-0.245330810546875,-0.9693450927734376,-0.0334889851510524,0.0206189919263124,0.0241282396018505
1770452066452,-0.070831298828125,-0.248931884765625,-0.97149658203125,-0.0193827524781227,0.0179523695260286,0.0230083800852298
1770452066462,-0.074310302734375,-0.2514801025390625,-0.9773712158203124,-0.0053265886381268,0.0210783872753381,0.0253687389194965
1770452066473,-0.071563720703125,-0.2528839111328125,-0.9786834716796876,-3.1425301131093875e-05,0.0113828834146261,0.0244416929781436
1770452066483,-0.0704803466796875,-0.255615234375,-0.973388671875,-0.0026343988720327,0.0089716566726565,0.0233825538307428
1770452066493,-0.07611083984375,-0.2520599365234375,-0.9620208740234376,-0.0089396992698311,0.0215135477483272,0.021637650206685
1770452066503,-0.077056884765625,-0.252197265625,-0.9578094482421876,-0.0101357251405715,0.0217503029853105,0.0246177278459072
1770452066513,-0.07354736328125,-0.253875732421875,-0.96539306640625,-0.0022136194165796,0.0134066194295883,0.0262608993798494
1770452066523,-0.0740509033203125,-0.254852294921875,-0.972625732421875,0.0070688282139599,0.0051604071632027,0.0226182267069816
1770452066533,-0.0778350830078125,-0.253662109375,-0.9703216552734376,0.0149155659601092,0.0079902820289134,0.0247231889516115
1770452066543,-0.0738372802734375,-0.244873046875,-0.972076416015625,0.0285296458750963,0.0157834906131029,0.0147246178239583
1770452066553,-0.0788421630859375,-0.2449188232421875,-0.9730682373046876,0.0366405695676803,0.0215865187346935,0.0118135157972574
1770452066563,-0.07427978515625,-0.249847412109375,-0.9661712646484376,0.0397793687880039,0.0170650035142898,0.0079585909843444
1770452066573,-0.071746826171875,-0.252899169921875,-0.965362548828125,0.0280747767537832,0.0130233904346823,0.0007989483419805
1770452066583,-0.0729827880859375,-0.2552490234375,-0.951263427734375,0.0215002316981554,0.0314988046884536,0.0025513083674013
1770452066593,-0.0698089599609375,-0.250732421875,-0.9518280029296876,0.0171148050576448,0.0454708114266395,0.0069439262151718
1770452066603,-0.065826416015625,-0.2569122314453125,-0.9565277099609376,0.0119096562266349,0.0350892767310142,0.0129397669807076
1770452066613,-0.065338134765625,-0.261322021484375,-0.956939697265625,0.0030136329587548,0.0196567922830581,0.0180144198238849
1770452066623,-0.067169189453125,-0.257110595703125,-0.9549560546875,-0.0058472366072237,0.0119181787595152,0.020047478377819
1770452066633,-0.0693817138671875,-0.25225830078125,-0.9536285400390624,-0.0091303810477256,0.0164793748408556,0.022407304495573
1770452066643,-0.07061767578125,-0.25018310546875,-0.9560394287109376,-0.0135152759030461,0.0179313290864229,0.0231679026037454
1770452066654,-0.0711212158203125,-0.249053955078125,-0.9549407958984376,-0.0080022662878036,0.0202690530568361,0.0253136120736598
1770452066664,-0.0696563720703125,-0.253326416015625,-0.9656219482421876,-0.0027712853625416,0.0100600905716419,0.0245085395872592
1770452066674,-0.0701141357421875,-0.2568206787109375,-0.967498779296875,0.0055785235017538,0.0040141828358173,0.0202994123101234
1770452066684,-0.0733795166015625,-0.2524871826171875,-0.9681243896484376,0.0199151188135147,-0.0040424121543765,0.0151544520631432
1770452066694,-0.0757293701171875,-0.25390625,-0.9776763916015624,0.0284036789089441,-0.0075689698569476,0.0133898416534066
1770452066704,-0.0751190185546875,-0.2551116943359375,-0.9712066650390624,0.0333667434751987,0.0062914518639445,0.0142332641407847
1770452066714,-0.07098388671875,-0.2527313232421875,-0.9635772705078124,0.0377021059393882,0.0070581757463514,0.009803095832467
1770452066725,-0.0731658935546875,-0.2562103271484375,-0.9651947021484376,0.0424127057194709,0.0004588626616168,0.0091130705550313
1770452066734,-0.07421875,-0.254730224609375,-0.9645843505859376,0.0375444442033767,-0.0009257147903554,0.0127203222364187
1770452066744,-0.0675506591796875,-0.2565765380859375,-0.9582366943359376,0.031692948192358,0.009025452658534,0.0161014720797538
1770452066754,-0.0656890869140625,-0.2559661865234375,-0.9535980224609376,0.028562668710947,0.0195065904408693,0.01646632514894
1770452066764,-0.0663909912109375,-0.25775146484375,-0.9571075439453124,0.0223247464746236,0.0197268333286046,0.0226416625082492
1770452066774,-0.0647735595703125,-0.2576751708984375,-0.9559326171875,0.0124721154570579,0.012001534923911,0.0252243969589471
1770452066784,-0.065704345703125,-0.2542724609375,-0.9537353515625,0.0071481904014945,0.0125022092834115,0.0252590179443359
1770452066794,-0.0725250244140625,-0.256683349609375,-0.95635986328125,0.005314071662724,0.0194775611162185,0.0242968183010816
1770452066804,-0.071746826171875,-0.2562408447265625,-0.9564361572265624,0.0010239854454994,0.0266766175627708,0.0335941798985004
1770452066814,-0.0631561279296875,-0.2596893310546875,-0.955963134765625,-0.0048932922072708,0.024819329380989,0.0390384793281555
1770452066824,-0.0619964599609375,-0.262908935546875,-0.9532623291015624,-0.0085631283000111,0.0249644722789526,0.0425258874893188
1770452066834,-0.06304931640625,-0.2621002197265625,-0.95684814453125,-0.0158037301152944,0.0246068090200424,0.0401375666260719
1770452066844,-0.0693359375,-0.2563629150390625,-0.952880859375,-0.0152527224272489,0.0356978103518486,0.0400254465639591
1770452066854,-0.071014404296875,-0.2552642822265625,-0.9592132568359376,-0.0181110929697752,0.0294412449002265,0.0399844348430633
1770452066865,-0.0702362060546875,-0.2578277587890625,-0.9590301513671876,-0.0176351871341466,0.027215376496315,0.0374589599668979
1770452066874,-0.072540283203125,-0.2576446533203125,-0.9599761962890624,-0.0219977106899023,0.0236866865307092,0.0331291928887367
1770452066885,-0.0719757080078125,-0.258056640625,-0.958984375,-0.0271072518080472,0.0175086855888366,0.0258414503186941
1770452066895,-0.0774078369140625,-0.2542572021484375,-0.954925537109375,-0.0277844928205013,0.0234201047569513,0.0220030359923839
1770452066905,-0.0772857666015625,-0.2526397705078125,-0.9574737548828124,-0.0323965549468994,0.0198282990604639,0.0177411809563636
1770452066915,-0.0728759765625,-0.254486083984375,-0.9567718505859376,-0.0368048846721649,0.0281629282981157,0.01903254725039
1770452066925,-0.069793701171875,-0.2525634765625,-0.9542694091796876,-0.0417591631412506,0.0236486047506332,0.021036310121417
1770452066935,-0.0695953369140625,-0.248748779296875,-0.9564361572265624,-0.0361327044665813,0.0256619546562433,0.0237127859145402
1770452066945,-0.0681610107421875,-0.26007080078125,-0.9599151611328124,-0.0352828912436962,0.0251807197928428,0.0300295371562242
1770452066955,-0.0615386962890625,-0.27227783203125,-0.95654296875,-0.0451973043382167,0.024391358718276,0.0386696308851242
1770452066965,-0.0555877685546875,-0.2594757080078125,-0.955718994140625,-0.0600859746336936,0.0326911024749279,0.0308231599628925
1770452066975,-0.0687103271484375,-0.2510986328125,-0.956695556640625,-0.0619994550943374,0.0320980139076709,0.0373449735343456
1770452066985,-0.0646820068359375,-0.2586212158203125,-0.956390380859375,-0.0638005509972572,0.0342810079455375,0.0419746153056621
1770452066995,-0.068634033203125,-0.238555908203125,-0.95220947265625,-0.0729908496141433,0.0549143813550472,0.0330913737416267
1770452067005,-0.074188232421875,-0.238250732421875,-0.9554443359375,-0.0735130980610847,0.0526376441121101,0.0286220572888851
1770452067015,-0.0641632080078125,-0.258026123046875,-0.9638671875,-0.0703175738453865,0.0399711169302463,0.0373447090387344
1770452067025,-0.054779052734375,-0.2737884521484375,-0.9632110595703124,-0.0752340331673622,0.0278782360255718,0.0524871759116649
1770452067035,-0.057464599609375,-0.262359619140625,-0.9618682861328124,-0.0609232708811759,0.0430217683315277,0.0485102795064449
1770452067045,-0.0738525390625,-0.24365234375,-0.9709014892578124,-0.0469019934535026,0.0506040565669536,0.0339443832635879
1770452067055,-0.077972412109375,-0.237274169921875,-0.976715087890625,-0.0404813811182975,0.0466418042778968,0.0105751464143395
1770452067065,-0.0807342529296875,-0.23846435546875,-0.9717559814453124,-0.0316514037549495,0.029421005398035,0.0002687129599507
1770452067075,-0.07464599609375,-0.23809814453125,-0.9716644287109376,-0.0190490577369928,-0.0031864722259342,-0.0037185717374086
1770452067085,-0.0744476318359375,-0.2441864013671875,-0.972259521484375,-0.0073471288196742,-0.047198936343193,0.0004130562883801
1770452067096,-0.07257080078125,-0.250274658203125,-0.9685821533203124,-0.0019129485590383,-0.0212104804813861,0.0075830849818885
1770452067106,-0.067138671875,-0.2547149658203125,-0.974884033203125,-0.001954493811354,-0.0017491641920059,0.0133000928908586
1770452067116,-0.060394287109375,-0.2566986083984375,-0.9680023193359376,-0.0051774512976408,0.0115221664309501,0.016833309084177
1770452067126,-0.060150146484375,-0.2550506591796875,-0.963775634765625,-0.0026972496416419,0.0170378386974334,0.0167912300676107
1770452067136,-0.0648956298828125,-0.2550048828125,-0.9671630859375,0.0051473579369485,0.0131522873416543,0.0101967109367251
1770452067146,-0.0695037841796875,-0.25323486328125,-0.9762420654296876,0.0132100777700543,-0.004511927254498,0.0037958035245537
1770452067156,-0.073638916015625,-0.2486724853515625,-0.97320556640625,0.0177483707666397,-0.0037430729717016,-0.0015305186389014
1770452067166,-0.07586669921875,-0.243408203125,-0.9671173095703124,0.0262763444334268,0.0003464772598817,-0.0046482812613248
1770452067176,-0.0776214599609375,-0.2457427978515625,-0.9721221923828124,0.0242563374340534,-0.0168002843856811,-0.0089578088372945
1770452067186,-0.07586669921875,-0.2458648681640625,-0.9634552001953124,0.0236653815954923,-0.0337638221681118,-0.009042496792972
1770452067196,-0.0704193115234375,-0.2478790283203125,-0.95904541015625,0.0238230414688587,-0.0483137369155883,-0.0038080539088696
1770452067206,-0.0637664794921875,-0.2522430419921875,-0.96234130859375,0.020559336990118,-0.0590745061635971,0.0024101608432829
1770452067216,-0.0654144287109375,-0.2539520263671875,-0.96221923828125,0.0164064038544893,-0.0447781234979629,0.0038783615455031
1770452067226,-0.06488037109375,-0.25775146484375,-0.959930419921875,0.0119240377098321,-0.0298617593944072,0.0147933270782232
1770452067236,-0.05792236328125,-0.2603912353515625,-0.9577178955078124,0.0097604850307106,-0.0288191307336092,0.0228784177452325
1770452067246,-0.06121826171875,-0.2548675537109375,-0.9609527587890624,9.933590627042577e-05,-0.0203699860721826,0.0185704883188009
1770452067256,-0.074432373046875,-0.2447509765625,-0.959808349609375,0.0051180627197027,-0.0036187032237648,0.018284996971488
1770452067266,-0.0752716064453125,-0.2519989013671875,-0.96209716796875,0.0043806335888803,-0.0086467517539858,0.0221670866012573
1770452067276,-0.0677032470703125,-0.252105712890625,-0.9626922607421876,0.0023853934835642,-0.0185558404773473,0.0144037064164876
1770452067286,-0.0728607177734375,-0.2496337890625,-0.9626312255859376,0.003924167715013,-0.021012607961893,0.0055644088424742
1770452067296,-0.075714111328125,-0.2496490478515625,-0.9615020751953124,0.0041753039695322,-0.0264880657196044,-9.267800487577917e-05
1770452067306,-0.0738677978515625,-0.2491912841796875,-0.959564208984375,0.0031135017052292,-0.0263690222054719,-0.0019856528379023
1770452067317,-0.0723419189453125,-0.247039794921875,-0.96343994140625,-0.0034679684322327,-0.0240451488643884,-0.0044834315776824
1770452067327,-0.0770263671875,-0.250701904296875,-0.9591064453125,-0.0124553376808762,-0.0099873868748545,-0.0020397149492055
1770452067337,-0.072479248046875,-0.2505645751953125,-0.9561767578125,-0.015449795871973,-0.0049132658168673,0.0017547567840665
1770452067347,-0.06817626953125,-0.2525482177734375,-0.9627838134765624,-0.0140079604461789,-0.01773052662611,0.000208791825571
1770452067357,-0.0733489990234375,-0.251129150390625,-0.9720916748046876,-0.0053484262898564,-0.0240904223173856,-0.0018975022248923
1770452067367,-0.07476806640625,-0.2487945556640625,-0.9748992919921876,0.0017243968322873,-0.0186208225786685,0.00234757643193
1770452067377,-0.069976806640625,-0.252410888671875,-0.972503662109375,0.0080323601141572,-0.0105032408609986,0.0009374326909892
1770452067387,-0.068328857421875,-0.2544403076171875,-0.9705810546875,0.0154894776642322,-0.0080725736916065,0.0029654297977685
1770452067397,-0.0683441162109375,-0.2546844482421875,-0.97186279296875,0.0207553450018167,-0.0168514177203178,0.0015182681381702
1770452067407,-0.0738372802734375,-0.2543487548828125,-0.969268798828125,0.0219503063708543,-0.0236944109201431,-0.0036000611726194
1770452067417,-0.074249267578125,-0.250885009765625,-0.96356201171875,0.024084297940135,-0.0198171138763427,-0.0005382248782552
1770452067427,-0.070526123046875,-0.248504638671875,-0.9633636474609376,0.0287863742560148,-0.020852817222476,-0.0021038972772657
1770452067437,-0.073272705078125,-0.249969482421875,-0.9682159423828124,0.0251082833856344,-0.0276886187493801,-0.0028770128265023
1770452067447,-0.0757904052734375,-0.2454376220703125,-0.9608306884765624,0.0260728802531957,-0.0290798544883728,-7.536746124969795e-05
1770452067457,-0.0694732666015625,-0.2517547607421875,-0.962890625,0.0177707411348819,-0.0281722489744424,0.0029832730069756
1770452067467,-0.069091796875,-0.255615234375,-0.9559478759765624,0.0070179621689021,-0.022324213758111,0.0068967882543802
1770452067477,-0.067352294921875,-0.251953125,-0.9540557861328124,-0.0036895433440804,-0.013372796587646,0.0058632153086364
1770452067487,-0.070648193359375,-0.252288818359375,-0.953948974609375,-0.0145565718412399,-0.0013611416798084,0.0069625684991478
1770452067497,-0.07281494140625,-0.2498626708984375,-0.9503936767578124,-0.0216080900281667,0.0064158211462199,0.0124851651489734
1770452067507,-0.0691986083984375,-0.2515716552734375,-0.95404052734375,-0.0199867580085992,0.01000043656677,0.0105751464143395
1770452067517,-0.0724334716796875,-0.2512664794921875,-0.96392822265625,-0.0177092216908931,-0.0057119480334222,0.007307980209589
1770452067527,-0.078033447265625,-0.2468719482421875,-0.9649658203125,-0.0142814675346016,-0.0145946554839611,0.0060975737869739
1770452067538,-0.079132080078125,-0.24749755859375,-0.96826171875,-0.0048650624230504,-0.0240528713911771,0.0083548687398433
1770452067548,-0.0767669677734375,-0.24896240234375,-0.9699249267578124,0.0010636665392667,-0.0367902368307113,0.0055087488144636
1770452067558,-0.0775146484375,-0.24993896484375,-0.9673614501953124,0.0158282313495874,-0.0347523875534534,0.0038754320703446
1770452067568,-0.0756072998046875,-0.250823974609375,-0.9727020263671876,0.015140070579946,-0.0333257317543029,0.0030314761679619
1770452067578,-0.0775909423828125,-0.2472991943359375,-0.9634552001953124,0.0049244510009884,-0.0221654903143644,0.0038314899429678
1770452067588,-0.07391357421875,-0.24456787109375,-0.951385498046875,0.0050879693590104,-0.0118854213505983,0.0132329808548092
1770452067598,-0.0694580078125,-0.2516021728515625,-0.9622650146484376,0.0061598913744091,-0.0135411089286208,0.0184607654809951
1770452067608,-0.0723419189453125,-0.25244140625,-0.9680023193359376,0.0132239265367388,-0.01079938467592,0.0181004405021667
1770452067618,-0.072052001953125,-0.2525177001953125,-0.969207763671875,0.0123410886153578,-0.0160181149840354,0.0218278001993894
1770452067628,-0.0762786865234375,-0.2519683837890625,-0.9617156982421876,0.0152455316856503,-0.0103322658687829,0.0172879099845886
1770452067638,-0.0802459716796875,-0.248931884765625,-0.9605712890625,0.0171265229582786,-0.0028016455471515,0.0166764482855796
1770452067648,-0.0767822265625,-0.248382568359375,-0.9624786376953124,0.0234150439500808,-0.004938299767673,0.012605806812644
1770452067658,-0.081329345703125,-0.2522735595703125,-0.967529296875,0.0350796915590763,-0.0071500549092888,0.0090861730277538
1770452067668,-0.085479736328125,-0.25836181640625,-0.9721832275390624,0.0411615520715713,-0.0152633748948574,0.0131272533908486
1770452067678,-0.0775909423828125,-0.25341796875,-0.976409912109375,0.04373549669981,-0.0187752861529588,0.0031784826423972
1770452067688,-0.0841827392578125,-0.2485198974609375,-0.9733428955078124,0.0523015521466732,-0.0160543341189622,-0.000341150938766
1770452067698,-0.079620361328125,-0.26898193359375,-0.9686279296875,0.054725032299757,-0.0160743072628974,0.0066826702095568
1770452067709,-0.072540283203125,-0.2414398193359375,-0.9593048095703124,0.0511515997350215,-0.0032921996898949,-0.0110100405290722
1770452067718,-0.0916290283203125,-0.2393341064453125,-0.962371826171875,0.0424723587930202,-0.0093426350504159,-0.0295365862548351
1770452067729,-0.0926666259765625,-0.23980712890625,-0.959136962890625,0.0405977591872215,-0.0166849698871374,-0.0376142188906669
1770452067739,-0.084747314453125,-0.264373779296875,-0.9591827392578124,0.0363436266779899,-0.0287951622158288,-0.0175971034914255
1770452067749,-0.07293701171875,-0.277587890625,-0.95391845703125,0.0333987027406692,-0.0219593606889247,-0.0009424926829524
1770452067759,-0.071746826171875,-0.260650634765625,-0.9564971923828124,0.0413434468209743,-0.0027326694689691,-0.005241101142019
1770452067769,-0.0767822265625,-0.2431488037109375,-0.9653472900390624,0.0478809736669063,0.012826582416892,-0.0234315562993288
1770452067779,-0.08416748046875,-0.2380523681640625,-0.966583251953125,0.0425189658999443,0.0012532835826277,-0.030009564012289
1770452067789,-0.0766754150390625,-0.243865966796875,-0.952545166015625,0.0383007824420928,-0.0120870228856801,-0.0298433825373649
1770452067799,-0.07574462890625,-0.2583770751953125,-0.9561767578125,0.030647125095129,-0.0212762597948312,-0.0262952540069818
1770452067809,-0.0756683349609375,-0.2605438232421875,-0.9510955810546876,0.0171174686402082,-0.0475874915719032,-0.0147318076342344
1770452067819,-0.070556640625,-0.259033203125,-0.94073486328125,0.0063745421357452,-0.0287091434001922,0.0060448427684605
1770452067829,-0.0629425048828125,-0.2626800537109375,-0.949493408203125,-0.0130425654351711,0.0022969765122979,0.0159294307231903
1770452067839,-0.06634521484375,-0.2631378173828125,-0.949920654296875,-0.0261226799339056,0.0275320261716842,0.02310904674232
1770452067849,-0.068359375,-0.261688232421875,-0.95123291015625,-0.0299730785191059,0.0395093262195587,0.0283554755151271
1770452067859,-0.0723876953125,-0.2626495361328125,-0.9599151611328124,-0.0315909497439861,0.0308902710676193,0.0262715518474578
1770452067869,-0.0802154541015625,-0.26300048828125,-0.9622650146484376,-0.0388592481613159,0.0309387408196926,0.0229636393487453
1770452067879,-0.084197998046875,-0.2578125,-0.958892822265625,-0.0391676425933837,0.0281655918806791,0.0209960956126451
1770452067889,-0.0874481201171875,-0.2580108642578125,-0.9605865478515624,-0.0382115691900253,0.0175102837383747,0.0187313426285982
1770452067899,-0.08642578125,-0.256500244140625,-0.9649200439453124,-0.0313528627157211,0.0010045443195849,0.019087940454483
1770452067909,-0.0861358642578125,-0.2520294189453125,-0.9707183837890624,-0.0235505998134613,-0.01456855610013,0.0158732384443283
1770452067919,-0.089874267578125,-0.2508697509765625,-0.969818115234375,-0.0160809662193059,-0.0130375046283006,0.0105634285137057
1770452067929,-0.088409423828125,-0.2536163330078125,-0.9660491943359376,-0.0143009088933467,-0.0039247004315257,0.0098755341023206
1770452067940,-0.0810089111328125,-0.2559051513671875,-0.9601287841796876,-0.0152007909491658,-0.0011307782260701,0.0050416300073266
1770452067949,-0.0791778564453125,-0.258697509765625,-0.959869384765625,-0.0149754872545599,-0.0215479023754596,0.0056970342993736
1770452067960,-0.0759735107421875,-0.2601470947265625,-0.9583587646484376,-0.0281719826161861,-0.0273123141378164,0.0070453924126923
1770452067970,-0.0738525390625,-0.25518798828125,-0.95465087890625,-0.0414550304412841,-0.0137253999710083,0.0099160140380263
1770452067980,-0.0777130126953125,-0.246612548828125,-0.9544525146484376,-0.0396600626409053,-0.0029395972378551,0.01732306368649
1770452067990,-0.0781402587890625,-0.25823974609375,-0.9616546630859376,-0.0370980985462665,-0.0072187641635537,0.0232251621782779
1770452068000,-0.076568603515625,-0.2545623779296875,-0.9630279541015624,-0.0363510847091674,-0.0162988118827343,0.0221737455576658
1770452068010,-0.078277587890625,-0.2528533935546875,-0.9631500244140624,-0.0351385474205017,-0.0359004773199558,0.0149973249062895
1770452068020,-0.0844573974609375,-0.2552947998046875,-0.9618072509765624,-0.0323499515652656,-0.0518861003220081,0.0123072667047381
1770452068030,-0.0855865478515625,-0.25628662109375,-0.9618988037109376,-0.0283597353845834,-0.0438169874250888,0.0134087493643164
1770452068040,-0.084136962890625,-0.2555084228515625,-0.963775634765625,-0.0314817614853382,-0.0439136624336242,0.0112894056364893
1770452068050,-0.0847625732421875,-0.2552337646484375,-0.9574127197265624,-0.0300748124718666,-0.0420872643589973,0.0164860319346189
1770452068060,-0.0799560546875,-0.25555419921875,-0.960357666015625,-0.0296263359487056,-0.0332418419420719,0.0122249741107225
1770452068070,-0.0832672119140625,-0.2537994384765625,-0.9606781005859376,-0.0196613185107707,-0.0285538807511329,0.0054054181091487
1770452068080,-0.0885467529296875,-0.253204345703125,-0.9727325439453124,-0.0010538127971813,-0.0214632134884595,-0.002894057193771
1770452068090,-0.0918121337890625,-0.25103759765625,-0.9821929931640624,0.0141914524137973,-0.0139938462525606,-0.0119618540629744
1770452068100,-0.0908966064453125,-0.25079345703125,-0.9779510498046876,0.0351238995790481,-0.0067654945887625,-0.0143645582720637
1770452068110,-0.0883026123046875,-0.2539215087890625,-0.9800567626953124,0.0524062179028987,-0.0168146658688783,-0.0178567618131637
1770452068120,-0.0917205810546875,-0.25726318359375,-0.9807281494140624,0.0688048973679542,-0.0138862542808055,-0.0275498684495687
1770452068130,-0.0927886962890625,-0.2552490234375,-0.976593017578125,0.0822005942463874,-0.0130058135837316,-0.0301573704928159
1770452068140,-0.0899505615234375,-0.25799560546875,-0.97119140625,0.0819422677159309,-0.0121650537475943,-0.0323864370584487
1770452068150,-0.087646484375,-0.2602691650390625,-0.9614105224609376,0.0701386108994484,0.0001331580569967,-0.0328237265348434
1770452068161,-0.0825653076171875,-0.252716064453125,-0.946929931640625,0.061502244323492,0.0179134868085384,-0.0275354869663715
1770452068171,-0.0789031982421875,-0.2563323974609375,-0.9470672607421876,0.0399791076779365,0.0123062012717127,-0.0175289269536733
1770452068181,-0.076507568359375,-0.259490966796875,-0.936431884765625,0.0193779580295085,0.0214179400354623,-0.0133389746770262
1770452068191,-0.0727081298828125,-0.2587738037109375,-0.939727783203125,-0.004301537759602,0.0243793744593858,-0.0058810585178434
1770452068201,-0.07720947265625,-0.2623748779296875,-0.937774658203125,-0.0060064936988055,0.0382360704243183,-0.009933590888977
1770452068211,-0.08905029296875,-0.25726318359375,-0.95379638671875,-0.0095008267089724,0.0215295273810625,-0.0126939574256539
1770452068221,-0.086029052734375,-0.2551727294921875,-0.9595947265625,-0.0039856866933405,0.0161523390561342,-0.0179824624210596
1770452068231,-0.08843994140625,-0.25518798828125,-0.964630126953125,-0.0092526208609342,-0.0012942962348461,-0.0138524323701858
1770452068241,-0.0810546875,-0.2589263916015625,-0.95465087890625,-0.0009297095239162,0.014763499610126,-0.0129469577223062
1770452068251,-0.081085205078125,-0.26324462890625,-0.9640350341796876,0.0112790195271372,0.0177797954529523,-0.0117381485179066
1770452068261,-0.0786285400390625,-0.2663726806640625,-0.972686767578125,0.0488157421350479,0.013088371604681,-0.0184314716607332
1770452068271,-0.0849609375,-0.2646331787109375,-1.0002288818359375,0.065941996872425,-0.0147589724510908,-0.0239332951605319
1770452068281,-0.0893402099609375,-0.263092041015625,-0.9844818115234376,0.0696557760238647,-0.0183635614812374,-0.0295429788529872
1770452068291,-0.090972900390625,-0.2555084228515625,-0.964630126953125,0.0596374981105327,-0.0142721468582749,-0.0325089395046234
1770452068301,-0.0905303955078125,-0.261688232421875,-0.949127197265625,0.0465363413095474,-0.0044030044227838,-0.0302473846822977
1770452068312,-0.085235595703125,-0.2668304443359375,-0.946319580078125,0.0230118427425622,0.0012279836228117,-0.0279019381850957
1770452068321,-0.07525634765625,-0.271270751953125,-0.9409942626953124,0.0178138837218284,0.0081170490011572,-0.0202991459518671
1770452068331,-0.075775146484375,-0.267303466796875,-0.9550018310546876,0.0040205740369856,0.0008029430755414,-0.0215721372514963
1770452068341,-0.0847320556640625,-0.2606048583984375,-0.9502716064453124,-0.0054384414106607,0.0111882062628865,-0.0228698961436748
1770452068351,-0.08880615234375,-0.257659912109375,-0.9458160400390624,-0.018825352191925,0.020880514755845,-0.0159994736313819
1770452068362,-0.07904052734375,-0.26348876953125,-0.94256591796875,-0.0362522788345813,0.0233239643275737,-0.0189252216368913
1770452068372,-0.0824127197265625,-0.2628021240234375,-0.943817138671875,-0.0443328432738781,0.032375518232584,-0.0183574352413415
1770452068382,-0.0818023681640625,-0.260223388671875,-0.9492034912109376,-0.0451805293560028,0.0383473895490169,-0.0155683066695928
1770452068391,-0.079620361328125,-0.2684783935546875,-0.9549560546875,-0.0448529571294784,0.0337731428444385,-0.0030447919853031
1770452068402,-0.071502685546875,-0.2733154296875,-0.963958740234375,-0.0491129495203495,0.0263671595603227,0.0030218889005482
1770452068412,-0.06988525390625,-0.2588348388671875,-0.9638824462890624,-0.0446668043732643,0.0166559424251317,-0.0021835258230566
1770452068422,-0.0792694091796875,-0.2709808349609375,-0.9675445556640624,-0.0294348541647195,0.0100118881091475,0.0081681814044713
1770452068432,-0.0763092041015625,-0.2615966796875,-0.9725341796875,-0.0305709578096866,0.0167275816202163,-0.0048072719946503
1770452068443,-0.088043212890625,-0.24603271484375,-0.96221923828125,-0.0394512675702571,0.051294345408678,-0.0206560101360082
1770452068452,-0.094390869140625,-0.24200439453125,-0.962310791015625,-0.035865057259798,0.0511276312172412,-0.0305198263376951
1770452068462,-0.0865631103515625,-0.263519287109375,-0.966705322265625,-0.0279173851013183,0.0142849292606115,-0.0137885166332125
1770452068472,-0.072113037109375,-0.283599853515625,-0.9618682861328124,-0.0223047733306884,-0.0050834417343139,0.004669586662203
1770452068482,-0.06951904296875,-0.2746124267578125,-0.9631500244140624,-0.0155094508081674,0.0088448906317353,-0.0005933523061685
1770452068492,-0.0827789306640625,-0.2497406005859375,-0.9696044921875,-0.0081498054787516,0.0161707140505313,-0.0173595491796731
1770452068502,-0.0882110595703125,-0.2412567138671875,-0.968902587890625,-0.005266667343676,0.0185358673334121,-0.0269663706421852
1770452068512,-0.080657958984375,-0.2487945556640625,-0.965362548828125,0.0016429040115326,0.0114409402012825,-0.0312095843255519
1770452068522,-0.078369140625,-0.2553558349609375,-0.966400146484375,0.0075143752619624,0.0027289411518722,-0.0340256094932556
1770452068532,-0.0832366943359375,-0.2594146728515625,-0.9654998779296876,0.0072001223452389,0.0210080798715353,-0.0260185506194829
1770452068543,-0.078399658203125,-0.2642364501953125,-0.9595184326171876,0.0007819040911272,0.040310937911272,-0.0123594645410776
1770452068552,-0.06976318359375,-0.2659759521484375,-0.9545745849609376,-0.0085250446572899,0.0451528318226337,-0.0015486282063648
1770452068562,-0.06805419921875,-0.2702178955078125,-0.9522705078125,-0.0272361487150192,0.0587570555508136,0.0013496900210157
1770452068572,-0.0689239501953125,-0.2672576904296875,-0.943023681640625,-0.0404920317232608,0.0810535699129104,0.0031547807157039
1770452068582,-0.0687408447265625,-0.2619781494140625,-0.947601318359375,-0.0439549423754215,0.0722217336297035,0.0020106865558773
1770452068593,-0.0758209228515625,-0.257598876953125,-0.957855224609375,-0.0374917164444923,0.0655129626393318,0.001890045357868
1770452068603,-0.081024169921875,-0.25653076171875,-0.9694061279296876,-0.0332375802099704,0.0457339324057102,-0.000356597272912
1770452068613,-0.0796966552734375,-0.25634765625,-0.9620361328125,-0.0270782224833965,0.0474277026951313,0.0026122946292161
1770452068623,-0.07421875,-0.256072998046875,-0.96148681640625,-0.0296726748347282,0.0435144528746604,0.0035230957437306
1770452068633,-0.073944091796875,-0.2611083984375,-0.95721435546875,-0.0271258931607007,0.0378179512917995,0.0006719155353493
1770452068643,-0.0745086669921875,-0.2631683349609375,-0.9569854736328124,-0.0273173749446868,0.0309110432863235,0.0007765777409076
1770452068653,-0.074432373046875,-0.26129150390625,-0.960235595703125,-0.0311318207532167,0.013278255239129,1.1185276889591478e-05
1770452068663,-0.074188232421875,-0.2590484619140625,-0.95794677734375,-0.0367897041141986,0.00318114599213,-0.0024956483393907
1770452068673,-0.0727386474609375,-0.256988525390625,-0.956817626953125,-0.0435080640017986,0.010098174214363,0.0019060244085267
1770452068683,-0.0681304931640625,-0.25787353515625,-0.953460693359375,-0.0521564111113548,0.036968670785427,0.0068608354777097
1770452068693,-0.0677947998046875,-0.25213623046875,-0.957061767578125,-0.060889184474945,0.0556419566273689,0.0041563953272998
1770452068703,-0.07061767578125,-0.2519683837890625,-0.9541778564453124,-0.065065287053585,0.0548091866075992,0.0079266326501965
1770452068713,-0.0682525634765625,-0.2547149658203125,-0.953826904296875,-0.0719306468963623,0.0582049824297428,0.0038357509765774
1770452068723,-0.0722198486328125,-0.251678466796875,-0.9557037353515624,-0.0725125521421432,0.0561913661658763,-0.002078330842778
1770452068733,-0.0738525390625,-0.25433349609375,-0.9600067138671876,-0.0738097727298736,0.0578185580670833,0.0029574404470622
1770452068743,-0.0657806396484375,-0.25701904296875,-0.962127685546875,-0.0635174587368965,0.0529361851513385,0.0079303607344627
1770452068753,-0.06683349609375,-0.2593841552734375,-0.9752960205078124,-0.0526006259024143,0.0341949872672557,0.0103844637051224
1770452068763,-0.06805419921875,-0.2558746337890625,-0.9730072021484376,-0.0431317575275898,0.0341079011559486,0.0063018379732966
1770452068773,-0.0740814208984375,-0.25146484375,-0.9745330810546876,-0.0409764610230922,0.0255338549613952,0.00336943147704
1770452068783,-0.071502685546875,-0.2522125244140625,-0.9678955078125,-0.0358325652778148,0.0203092657029628,-0.0021683457307517
1770452068793,-0.0759429931640625,-0.2474517822265625,-0.9624176025390624,-0.0357960797846317,0.0342085696756839,-0.0048661278560757
1770452068803,-0.0707244873046875,-0.249847412109375,-0.9627838134765624,-0.0342485159635543,0.0381266139447689,-0.0059921122156083
1770452068813,-0.0681915283203125,-0.257843017578125,-0.9613189697265624,-0.0387862771749496,0.0455357916653156,-0.0061750714667141
1770452068824,-0.0670166015625,-0.2572479248046875,-0.953704833984375,-0.048500157892704,0.065496452152729,-0.0050916974432766
1770452068834,-0.0623931884765625,-0.2549285888671875,-0.949005126953125,-0.0625515282154083,0.077882282435894,-0.0005467469454742
1770452068844,-0.06158447265625,-0.2534942626953125,-0.9525909423828124,-0.0674520134925842,0.0884632840752601,-0.0028855351265519
1770452068854,-0.0684967041015625,-0.250396728515625,-0.9589996337890624,-0.0641081482172012,0.0910020768642425,-0.0037382792215794
1770452068864,-0.0667877197265625,-0.245697021484375,-0.9666595458984376,-0.0670703798532486,0.0556874983012676,-0.0036839507520198
1770452068874,-0.062713623046875,-0.2458648681640625,-0.962188720703125,-0.0658274814486503,0.0202035382390022,0.0060285977087914
1770452068884,-0.06170654296875,-0.23712158203125,-0.9625701904296876,-0.0757333785295486,0.0193108469247818,0.0033084449823945
1770452068894,-0.0735015869140625,-0.2342987060546875,-0.9527587890625,-0.0819095149636268,0.0445648059248924,0.0069175609387457
1770452068904,-0.070281982421875,-0.232757568359375,-0.957000732421875,-0.0819095149636268,0.0445648059248924,0.0069175609387457
1770452068914,-0.059661865234375,-0.245635986328125,-0.981475830078125,-0.0659063085913658,0.0614835992455482,0.0152809517458081
1770452068924,-0.0614776611328125,-0.2483062744140625,-0.9921722412109376,-0.026201244443655,0.0287978257983922,0.0027097663842141
1770452068934,-0.06231689453125,-0.2423858642578125,-0.985870361328125,-0.0092150699347257,0.0201569329947233,-0.0048083374276757
1770452068944,-0.0657501220703125,-0.2437286376953125,-0.9822998046875,0.0022959110792726,0.0235130488872528,-0.0094211986288428
1770452068954,-0.064178466796875,-0.24334716796875,-0.97735595703125,0.0058376491069793,0.005649097263813,-0.006793990265578
1770452068964,-0.0621490478515625,-0.2402496337890625,-0.970794677734375,0.0136990342289209,0.0041984734125435,-0.0058557586744427
1770452068974,-0.064300537109375,-0.2442169189453125,-0.9740142822265624,0.0205486845225095,0.0151102431118488,-0.0102774044498801
1770452068984,-0.0675201416015625,-0.2438201904296875,-0.9714508056640624,0.0186895318329334,0.0302359331399202,-0.0086177233606576
1770452068995,-0.0594940185546875,-0.24542236328125,-0.9636688232421876,0.0135738654062151,0.0251247938722372,-0.0075673721730709
1770452069005,-0.0558013916015625,-0.2471466064453125,-0.959625244140625,0.0053918357007205,0.0101061640307307,-0.0010341054294258
1770452069014,-0.0592193603515625,-0.241302490234375,-0.9590606689453124,-0.0052493568509817,0.0027696874458342,-0.0023129554465413
1770452069024,-0.0643157958984375,-0.2426300048828125,-0.9564056396484376,-0.0115357488393783,0.0198509357869625,0.0035686357878148
1770452069035,-0.0601654052734375,-0.2453765869140625,-0.9588623046875,-0.0167893655598163,0.0222230143845081,0.0106747485697269
1770452069045,-0.0555572509765625,-0.24212646484375,-0.9580078125,-0.0189108401536941,0.0347973965108394,0.010293117724359
1770452069055,-0.06329345703125,-0.2411041259765625,-0.9636688232421876,-0.0218730736523866,0.055603340268135,0.0045649241656064
1770452069065,-0.0673980712890625,-0.235748291015625,-0.9597930908203124,-0.0291501618921756,0.049110822379589,0.0035313516855239
1770452069075,-0.066680908203125,-0.2333984375,-0.9556884765625,-0.0291355140507221,0.0478114634752273,0.0015259912470355
1770452069085,-0.0650787353515625,-0.2410736083984375,-0.9646759033203124,-0.0426747575402259,0.0393633842468261,-0.0008894957718439
1770452069095,-0.0625762939453125,-0.2374267578125,-0.95111083984375,-0.0595248453319072,0.0461914651095867,0.0042179143056273
1770452069105,-0.0558624267578125,-0.2392120361328125,-0.947540283203125,-0.0626458078622818,0.0623965337872505,0.0056842509657144
1770452069115,-0.0553131103515625,-0.252349853515625,-0.95880126953125,-0.0731165558099746,0.0601424314081668,0.01010403316468
1770452069125,-0.0508575439453125,-0.25299072265625,-0.9613189697265624,-0.0743240341544151,0.0527068860828876,0.0145658934488892
1770452069135,-0.053619384765625,-0.23486328125,-0.973541259765625,-0.0723748654127121,0.0327670015394687,0.0098270643502473
1770452069145,-0.0622406005859375,-0.2463531494140625,-0.980743408203125,-0.0506301522254943,0.0159451439976692,0.0084273070096969
1770452069155,-0.063232421875,-0.2314605712890625,-0.981109619140625,-0.0280175190418958,0.0130473589524626,-0.0011741877533495
1770452069165,-0.06915283203125,-0.2255401611328125,-0.9787139892578124,-0.0110494550317525,0.0137778641656041,-0.0153637761250138
1770452069175,-0.070465087890625,-0.23114013671875,-0.98321533203125,4.101268132217229e-05,0.0188381355255842,-0.0200275033712387
1770452069185,-0.0596771240234375,-0.245513916015625,-0.9817657470703124,0.0087210536003112,0.0147810764610767,-0.0095298560336232
1770452069195,-0.04791259765625,-0.2606201171875,-0.978729248046875,0.0161025375127792,0.0158095899969339,-0.0009438242996111
1770452069205,-0.0487823486328125,-0.2393798828125,-0.97503662109375,0.012048939242959,0.0174671411514282,-0.0123304361477494
1770452069215,-0.0641632080078125,-0.2230072021484375,-0.96209716796875,0.0057082194834947,0.0332740657031536,-0.0252835191786289
1770452069225,-0.0634765625,-0.23004150390625,-0.95947265625,-0.0125826373696327,0.0185960549861192,-0.029227927327156
1770452069236,-0.055511474609375,-0.2352447509765625,-0.949981689453125,-0.0330471657216548,0.0207114033401012,-0.0296724084764719
1770452069246,-0.0562744140625,-0.2412261962890625,-0.946533203125,-0.0461842715740203,0.0323896296322345,-0.0237215738743543
1770452069256,-0.0556488037109375,-0.2454986572265625,-0.9520416259765624,-0.058036670088768,0.0421463884413242,-0.0144385937601327
1770452069266,-0.0526275634765625,-0.246490478515625,-0.951080322265625,-0.0717133358120918,0.0558126643300056,-0.0071982578374445
1770452069278,-0.0485992431640625,-0.2398834228515625,-0.951934814453125,-0.075793832540512,0.0693130269646644,-0.0070126359350979
1770452069286,-0.0515899658203125,-0.2349853515625,-0.9640045166015624,-0.0701519250869751,0.0818919390439987,-0.0149184959009289
1770452069296,-0.054473876953125,-0.2374725341796875,-0.9751129150390624,-0.0608905144035816,0.0726318582892417,-0.0166207887232303
1770452069306,-0.0513153076171875,-0.23309326171875,-0.976837158203125,-0.0445208624005317,0.0589709095656871,-0.0181928519159555
1770452069316,-0.054443359375,-0.2354583740234375,-0.98040771484375,-0.0329177342355251,0.0392685756087303,-0.0219343267381191
1770452069326,-0.0552825927734375,-0.2385406494140625,-0.9760894775390624,-0.0263386629521846,0.0318500734865665,-0.0231138411909341
1770452069336,-0.053619384765625,-0.2377166748046875,-0.974609375,-0.0252113472670316,0.0252353157848119,-0.024354875087738
1770452069346,-0.054107666015625,-0.2371978759765625,-0.9684600830078124,-0.0194224342703819,0.0186123009771108,-0.0169563461095094
1770452069356,-0.048553466796875,-0.2374267578125,-0.9708404541015624,-0.0210395045578479,0.0103045692667365,-0.0167110692709684
1770452069366,-0.0499725341796875,-0.240234375,-0.97186279296875,-0.0200155191123485,0.0147469881922006,-0.0189987253397703
1770452069377,-0.0508575439453125,-0.2397613525390625,-0.9693145751953124,-0.0227167643606662,0.0165603347122669,-0.0135467015206813
1770452069386,-0.0450592041015625,-0.2416534423828125,-0.96417236328125,-0.030091056600213,0.0178389176726341,-0.0054533551447093
1770452069396,-0.04010009765625,-0.2438812255859375,-0.961212158203125,-0.0390512607991695,0.0236195754259824,-0.0053359093144536
1770452069406,-0.04791259765625,-0.2379150390625,-0.959747314453125,-0.0468676388263702,0.039440881460905,-0.0099208075553178
1770452069416,-0.055938720703125,-0.22369384765625,-0.95703125,-0.0562872402369976,0.0469499304890632,-0.0105615640059113
1770452069427,-0.049285888671875,-0.22625732421875,-0.9537353515625,-0.0579818114638328,0.0434324294328689,-0.003401655703783
1770452069437,-0.0392608642578125,-0.231109619140625,-0.9631805419921876,-0.0543018542230129,0.0301754791289567,-0.0060885190032422
1770452069447,-0.043731689453125,-0.23321533203125,-0.9728240966796876,-0.0481677949428558,0.0223838686943054,-0.0187073741108179
1770452069457,-0.052032470703125,-0.2290191650390625,-0.9696197509765624,-0.0498820729553699,0.0246014837175607,-0.0222147572785615
1770452069467,-0.0493316650390625,-0.22540283203125,-0.9604034423828124,-0.0484972298145294,0.0315097235143184,-0.0244225189089775
1770452069477,-0.0480804443359375,-0.2322235107421875,-0.9671630859375,-0.0356653183698654,0.0310681704431772,-0.0197992715984582
1770452069487,-0.0432586669921875,-0.2336578369140625,-0.9808197021484376,-0.0217159483581781,0.0244867000728845,-0.0180575642734766
1770452069497,-0.03936767578125,-0.2353057861328125,-0.9836578369140624,-0.0088922949507832,0.0153123773634433,-0.0183840673416852
1770452069507,-0.03753662109375,-0.237274169921875,-0.9796905517578124,-9.880327706923708e-05,0.0106806075200438,-0.0132968965917825
1770452069517,-0.038116455078125,-0.2349853515625,-0.9764556884765624,0.0041092573665082,0.0137269971892237,-0.0160601921379566
1770452069527,-0.0412445068359375,-0.23406982421875,-0.972442626953125,0.0117501327767968,0.0264414604753255,-0.0152029208838939
1770452069537,-0.04168701171875,-0.2362213134765625,-0.9749755859375,0.0164349004626274,0.0298721455037593,-0.0166378319263458
1770452069547,-0.0440216064453125,-0.23272705078125,-0.973358154296875,0.0132026206701993,0.0201417542994022,-0.0191502589732408
1770452069557,-0.0479278564453125,-0.224700927734375,-0.965484619140625,0.0091868406161665,0.023340743035078,-0.0188381355255842
1770452069567,-0.04754638671875,-0.2256622314453125,-0.9657745361328124,0.0160178486257791,0.0259756743907928,-0.0176439750939607
1770452069579,-0.045501708984375,-0.2360687255859375,-0.975433349609375,0.0147107690572738,0.0161193143576383,-0.0093282544985413
1770452069587,-0.0336456298828125,-0.23614501953125,-0.96807861328125,0.009468070231378,0.0016471651615574,-0.0071351411752402
1770452069597,-0.0335540771484375,-0.23345947265625,-0.964691162109375,0.0120247052982449,0.0013646037550643,-0.0099394498392939
1770452069607,-0.0446624755859375,-0.2323150634765625,-0.96923828125,0.0067284763790667,0.011889150366187,-0.0110955275595188
1770452069617,-0.0459136962890625,-0.2275238037109375,-0.95965576171875,0.0002708434767555,0.0165946893393993,-0.0060280649922788
1770452069627,-0.03900146484375,-0.23138427734375,-0.95867919921875,-0.0097186733037233,0.0198171138763427,-0.0058677429333329
1770452069637,-0.0396270751953125,-0.2316436767578125,-0.9545745849609376,-0.0188972577452659,0.0233902782201766,-0.0062278020195662
1770452069648,-0.0430755615234375,-0.232177734375,-0.95745849609375,-0.0218128878623247,0.0253844521939754,-0.0064227455295622
1770452069657,-0.039154052734375,-0.2354583740234375,-0.966766357421875,-0.0257799308747053,0.0102185485884547,-0.0040437439456582
1770452069668,-0.0382843017578125,-0.23291015625,-0.9647064208984376,-0.0273208376020193,0.0038330876268446,-0.0022562299855053
1770452069678,-0.0434112548828125,-0.2348785400390625,-0.9694976806640624,-0.0211681351065635,0.0159028004854917,-0.0068437913432717
1770452069688,-0.0475921630859375,-0.233154296875,-0.975738525390625,-0.0129695944488048,0.0169787164777517,-0.0015398397808894
1770452069698,-0.04248046875,-0.23211669921875,-0.9785614013671876,-0.0140910511836409,0.0036248285323381,-0.0025947177782654
1770452069708,-0.0438079833984375,-0.2293243408203125,-0.970947265625,-0.0186573080718517,-0.0039452067576348,0.0007214503129944
1770452069718,-0.0415802001953125,-0.22955322265625,-0.96636962890625,-0.0211907718330621,0.007875233888626,0.0076834862120449
1770452069728,-0.036834716796875,-0.2332763671875,-0.9672088623046876,-0.0143171539530158,0.0162918884307146,0.0113157713785767
1770452069738,-0.03167724609375,-0.235565185546875,-0.9757537841796876,-0.0080882860347628,0.0098057594150304,0.0090448940172791
1770452069748,-0.03656005859375,-0.234954833984375,-0.9820709228515624,-0.0007587345899082,-0.0028146950062364,0.008796420879662
1770452069758,-0.03985595703125,-0.2285308837890625,-0.9806976318359376,0.0011116034584119,-0.0074307518079876,0.0059319250285625
1770452069768,-0.04339599609375,-0.227325439453125,-0.9710540771484376,0.0059340554289519,0.0012026835465803,0.0087657943367958
1770452069778,-0.04339599609375,-0.22515869140625,-0.9707489013671876,0.011765313334763,-0.0065910574048757,0.0057481667026877
1770452069788,-0.046234130859375,-0.2296905517578125,-0.9738616943359376,0.0041598575189709,-0.0161568652838468,0.0019494339358061
1770452069798,-0.0467529296875,-0.226959228515625,-0.9634246826171876,-0.0099591575562953,-0.012301673181355,0.0074722971767187
1770452069808,-0.0392303466796875,-0.224029541015625,-0.9521026611328124,-0.0149834770709276,0.0155501971021294,0.0144146252423524
1770452069818,-0.0351409912109375,-0.2292938232421875,-0.954345703125,-0.0211710650473833,0.0268145706504583,0.0229402035474777
1770452069830,-0.033203125,-0.2386016845703125,-0.9565582275390624,-0.0295720063149929,0.018093517050147,0.0358253754675388
1770452069838,-0.0269775390625,-0.242156982421875,-0.9672393798828124,-0.033439714461565,0.0099429115653038,0.0407764576375484
1770452069848,-0.0312957763671875,-0.22296142578125,-0.971405029296875,-0.0281219147145748,0.0052355085499584,0.0318018719553947
1770452069858,-0.0484771728515625,-0.2359619140625,-0.9797515869140624,-0.0018477011471986,-0.0072270203381776,0.040472324937582
1770452069869,-0.0414886474609375,-0.227508544921875,-0.988555908203125,0.0137986363843083,-0.0105397263541817,0.0236336905509233
1770452069879,-0.0555419921875,-0.2187957763671875,-0.984832763671875,0.0174990985542535,-0.0323084034025669,0.0080536650493741
1770452069889,-0.0520782470703125,-0.2197265625,-0.9792327880859376,0.022350313141942,-0.0443014167249202,0.0073183667846024
1770452069899,-0.0457000732421875,-0.240692138671875,-0.9779815673828124,0.0219063647091388,-0.0505864769220352,0.0200642552226781
1770452069909,-0.0400238037109375,-0.2498321533203125,-0.9699249267578124,0.018451178446412,-0.0415154844522476,0.0279650557786226
1770452069919,-0.0429534912109375,-0.226837158203125,-0.96112060546875,0.0209063477814197,-0.0060991714708507,0.0173273254185915
1770452069929,-0.0489501953125,-0.215911865234375,-0.96405029296875,0.0180136207491159,-0.0103136235848069,0.0037832865491509
1770452069939,-0.053863525390625,-0.22149658203125,-0.96630859375,0.0180136207491159,-0.0103136235848069,0.0037832865491509
1770452069949,-0.0541229248046875,-0.2243194580078125,-0.9573822021484376,-0.0105738146230578,-0.0261112283915281,-0.0103487772867083
1770452069959,-0.0486907958984375,-0.2282562255859375,-0.9492034912109376,-0.0250531546771526,-0.0166647303849458,0.0037766287568956
1770452069969,-0.044219970703125,-0.23150634765625,-0.94940185546875,-0.037778802216053,-0.0117533290758728,0.0135043570771813
1770452069979,-0.046844482421875,-0.2327423095703125,-0.9576263427734376,-0.0514309667050838,-0.0023270701058208,0.0183502454310655
1770452069989,-0.0388031005859375,-0.233184814453125,-0.9595184326171876,-0.0471062585711479,0.0104382596909999,0.0208573453128337
1770452069999,-0.0360260009765625,-0.23297119140625,-0.974609375,-0.0376949161291122,0.0032778186723589,0.012940832413733
1770452070009,-0.0480499267578125,-0.227935791015625,-0.98028564453125,-0.0221290048211812,0.0008551410282962,0.005813680589199
1770452070019,-0.0532379150390625,-0.226715087890625,-0.983734130859375,-0.0059777311980724,-0.0106395948678255,0.005828860681504
1770452070029,-0.0482635498046875,-0.23114013671875,-0.984283447265625,0.0028330706991255,-0.0261413231492042,0.0133080817759037
1770452070039,-0.0465240478515625,-0.2305450439453125,-0.983245849609375,0.0140585610643029,-0.0382874682545661,0.0124308373779058
1770452070049,-0.0496368408203125,-0.2339630126953125,-0.9831695556640624,0.0161371584981679,-0.0347835458815097,0.0169313121587038
1770452070060,-0.04803466796875,-0.23724365234375,-0.9721832275390624,0.0068967882543802,-0.0105807390064001,0.0180085618048906
1770452070069,-0.04559326171875,-0.2328033447265625,-0.9611358642578124,0.0058368500322103,0.0061652180738747,0.0204011462628841
1770452070079,-0.0422515869140625,-0.231170654296875,-0.9671783447265624,0.0172767248004674,0.0009073389810509,0.0180461127310991
1770452070089,-0.0474090576171875,-0.23291015625,-0.9858245849609376,0.0164982825517654,-0.0177398491650819,0.0135477669537067
1770452070100,-0.053009033203125,-0.22698974609375,-0.9748992919921876,0.0184328034520149,-0.0210269875824451,0.0096614155918359
1770452070110,-0.049041748046875,-0.2276611328125,-0.9682159423828124,0.0118651818484067,-0.0177286639809608,0.0141472443938255
1770452070120,-0.0499420166015625,-0.23150634765625,-0.9598388671875,-0.0020298613235354,-0.0179318618029356,0.0157976057380437
1770452070130,-0.04779052734375,-0.220977783203125,-0.95831298828125,-0.0068248827010393,-0.0041068606078624,0.0081327613443136
1770452070140,-0.0526123046875,-0.230438232421875,-0.9629058837890624,-0.0113133741542696,0.0061971759423613,0.0083396891131997
1770452070150,-0.0452423095703125,-0.2324981689453125,-0.9624176025390624,-0.0164833683520555,0.0024274713359773,0.0111743574962019
1770452070160,-0.0399017333984375,-0.2307586669921875,-0.9644317626953124,-0.0208160653710365,0.0005091963685117,0.0061923819594085
1770452070170,-0.049407958984375,-0.2285308837890625,-0.9677886962890624,-0.0140388533473014,0.0104031059890985,0.0022519689518958
1770452070180,-0.050994873046875,-0.2305908203125,-0.9729461669921876,-0.0116843525320291,0.0064941183663904,0.0065124942921102
1770452070190,-0.04290771484375,-0.2330474853515625,-0.9744873046875,-0.0084486119449138,-0.0002359560749027,0.009011604823172
1770452070200,-0.04437255859375,-0.2283782958984375,-0.9734649658203124,0.0020908478181809,-0.0092403702437877,0.0085767097771167
1770452070210,-0.047882080078125,-0.2271881103515625,-0.9801025390625,0.0131557490676641,-0.0198618546128273,0.0058736018836498
1770452070220,-0.0550689697265625,-0.2285614013671875,-0.9832763671875,0.0153784239664673,-0.0272175054997205,0.0004900216590613
1770452070230,-0.0558013916015625,-0.2275390625,-0.97064208984375,0.0175201371312141,-0.0146969202905893,0.0031246868893504
1770452070240,-0.0511474609375,-0.2339019775390625,-0.96844482421875,0.0225596372038126,-0.0047271107323467,0.0031771510839462
1770452070250,-0.049468994140625,-0.2379302978515625,-0.9734954833984376,0.0234078541398048,-0.0120800985023379,0.0025110945571213
1770452070260,-0.05072021484375,-0.2342376708984375,-0.972686767578125,0.0134516265243291,-0.0211047530174255,0.0001949433935806
1770452070270,-0.0528564453125,-0.229949951171875,-0.9610595703125,0.0048355017788708,-0.0126132639124989,0.0022517025936394
1770452070280,-0.0514678955078125,-0.2291412353515625,-0.9572296142578124,-0.0067867995239794,-0.0091460943222045,0.0050413641147315
1770452070290,-0.0505828857421875,-0.22906494140625,-0.9508819580078124,-0.0166048090904951,0.0079585909843444,0.010413758456707
1770452070300,-0.04437255859375,-0.225250244140625,-0.9579010009765624,-0.0255538299679756,0.0135751971974968,0.0136202042922377
1770452070311,-0.044189453125,-0.2241973876953125,-0.9612884521484376,-0.0250081475824117,0.0121927503496408,0.0142708150669932
1770452070321,-0.0505218505859375,-0.2295074462890625,-0.967926025390625,-0.0232605822384357,0.0058424426242709,0.0165187884122133
1770452070331,-0.0459747314453125,-0.2289886474609375,-0.97314453125,-0.00976980663836,-0.0019816581625491,0.0174921751022338
1770452070341,-0.048126220703125,-0.2296295166015625,-0.9832000732421876,0.0042687808163464,-0.0103304013609886,0.0096369143575429
1770452070351,-0.0539703369140625,-0.2292938232421875,-0.9837646484375,0.0159978754818439,-0.0059718722477555,0.0071199610829353
1770452070361,-0.05267333984375,-0.2252044677734375,-0.9791107177734376,0.0234414096921682,-0.0094124097377061,0.0059641492553055
1770452070371,-0.0506134033203125,-0.2261962890625,-0.9791107177734376,0.0370991639792919,-0.0202932879328727,0.0067537766881287
1770452070381,-0.0508575439453125,-0.2332000732421875,-0.98272705078125,0.0469880141317844,-0.0258971117436885,0.004987568128854
1770452070391,-0.0514068603515625,-0.237701416015625,-0.980224609375,0.0485038869082927,-0.0280928872525692,0.0039670448750257
1770452070401,-0.0476531982421875,-0.2386322021484375,-0.9736785888671876,0.0408534221351146,-0.0283453557640314,0.002984870923683
1770452070411,-0.0518951416015625,-0.2338714599609375,-0.9630584716796876,0.0335528999567031,-0.0149182295426726,-0.001757686259225
1770452070421,-0.059814453125,-0.2318115234375,-0.9636383056640624,0.0275562610477209,-0.0026357304304838,0.0032594427466392
1770452070431,-0.05072021484375,-0.23443603515625,-0.9615631103515624,0.0188602395355701,-0.0079223718494176,0.0047265784814953
1770452070441,-0.05084228515625,-0.236541748046875,-0.9610137939453124,0.0091639375314116,-0.0079407477751374,0.0022623552940785
1770452070451,-0.0546417236328125,-0.234344482421875,-0.9589691162109376,0.0006162554491311,0.0022120214998722,0.0017590179340913
1770452070461,-0.053863525390625,-0.230712890625,-0.95831298828125,0.0051161986775696,0.0056941048242151,0.0034466630313545
1770452070471,-0.0532684326171875,-0.233978271484375,-0.9711151123046876,0.0110316118225455,-0.0079865539446473,-0.0008210525847971
1770452070482,-0.0538330078125,-0.2340850830078125,-0.9751434326171876,0.0169992242008447,-0.0080414144322276,0.0018535600975155
1770452070491,-0.0498199462890625,-0.232086181640625,-0.9721527099609376,0.0244701895862817,-0.0058086207136511,0.005379319190979
1770452070501,-0.0498046875,-0.2339935302734375,-0.9736328125,0.0276111215353012,-0.0105834016576409,0.0057931742630898
1770452070512,-0.049896240234375,-0.23828125,-0.967071533203125,0.0257884543389081,-0.0029001825023442,0.0065836003050208
1770452070522,-0.048858642578125,-0.241302490234375,-0.962677001953125,0.0148886684328317,-0.0065228804014623,0.0135339181870222
1770452070532,-0.0465545654296875,-0.241546630859375,-0.9552001953125,-0.0019571571610867,-0.0109146991744637,0.0149557795375585
1770452070542,-0.0490570068359375,-0.2373046875,-0.95355224609375,-0.0097240004688501,-0.0088427597656846,0.0163965504616498
1770452070552,-0.054931640625,-0.234222412109375,-0.9549560546875,-0.0163225140422582,-0.0093218628317117,0.0169355738908052
1770452070562,-0.0576171875,-0.2353057861328125,-0.9552764892578124,-0.0318327657878398,-0.0132188666611909,0.021279189735651
1770452070572,-0.055145263671875,-0.2393341064453125,-0.9531097412109376,-0.0450497679412364,0.008419849909842,0.0226685609668493
1770452070582,-0.050537109375,-0.22906494140625,-0.9598236083984376,-0.0511910170316696,0.0188392009586095,0.0148868039250373
1770452070592,-0.0615234375,-0.2412109375,-0.97076416015625,-0.027058782055974,0.0099671464413404,0.0170399695634841
1770452070602,-0.0572509765625,-0.2398223876953125,-0.9862823486328124,-0.0231165047734975,0.0083319656550884,-0.0022104235831648
1770452070613,-0.071197509765625,-0.2151336669921875,-0.9733123779296876,-0.0091554149985313,0.0217998381704092,-0.0225641652941703
1770452070622,-0.07196044921875,-0.2154693603515625,-0.9824371337890624,0.0030415961518883,0.0029787456151098,-0.0320878960192203
1770452070632,-0.06072998046875,-0.2414093017578125,-0.9860687255859376,0.0116081861779093,-0.0233865492045879,-0.0135395107790827
1770452070642,-0.0434112548828125,-0.2592620849609375,-0.9788360595703124,0.0135645447298884,-0.034316960722208,0.0056818542070686
1770452070652,-0.0407562255859375,-0.24554443359375,-0.96868896484375,0.0207063443958759,-0.0139999715611338,0.0034221620298922
1770452070662,-0.052734375,-0.2249298095703125,-0.9665069580078124,0.0272172391414642,-0.0004924184759147,-0.0088089378550648
1770452070672,-0.058074951171875,-0.2283172607421875,-0.9698638916015624,0.0223108977079391,-0.016571519896388,-0.0193044561892747
1770452070682,-0.054046630859375,-0.2331390380859375,-0.96258544921875,0.0079572591930627,-0.0256374534219503,-0.0310860145837068
1770452070692,-0.0574493408203125,-0.2338714599609375,-0.95477294921875,0.0029342707712203,-0.0252374466508626,-0.0280502773821353
1770452070703,-0.0600738525390625,-0.2371368408203125,-0.959228515625,-0.0020381172653287,-0.0224925260990858,-0.0211295206099748
1770452070712,-0.059967041015625,-0.240447998046875,-0.96160888671875,-0.0175270624458789,-0.0122609268873929,-0.0134801222011446
1770452070722,-0.055816650390625,-0.239776611328125,-0.953125,-0.0321784429252147,0.0195923428982496,-0.0082688489928841
1770452070733,-0.0482330322265625,-0.2425384521484375,-0.953369140625,-0.0437504090368747,0.0225551109760999,-0.0042741070501506
1770452070745,-0.047821044921875,-0.2381591796875,-0.9562835693359376,-0.0472202412784099,0.014985074289143,-0.000343814084772
1770452070753,-0.0492095947265625,-0.2352447509765625,-0.9674224853515624,-0.0376626886427402,0.0094169378280639,-0.0006247775745578
1770452070763,-0.0508575439453125,-0.2368316650390625,-0.9792633056640624,-0.0218222085386514,0.0006580671179108,0.001202417188324
1770452070773,-0.054351806640625,-0.2358856201171875,-0.9857940673828124,-0.003647199133411,-0.009541573934257,0.0024205471854656
1770452070783,-0.0561981201171875,-0.2335662841796875,-0.9866790771484376,0.0120598590001463,-0.0186253488063812,-0.0001347559446003
1770452070793,-0.05828857421875,-0.2371063232421875,-0.9847564697265624,0.0209356416016817,-0.0223742816597223,-0.0004785700584761
1770452070803,-0.05609130859375,-0.2397308349609375,-0.9772796630859376,0.0308553837239742,-0.0141030354425311,-0.0025992451701313
1770452070813,-0.0574951171875,-0.240447998046875,-0.975799560546875,0.0240560676902532,-0.0213684048503637,-0.0078448737040162
1770452070823,-0.0602569580078125,-0.2366943359375,-0.964996337890625,0.0223039742559194,-0.0112968627363443,-0.0104619618505239
1770452070833,-0.062591552734375,-0.236602783203125,-0.964569091796875,0.0145954545587301,-0.017437046393752,-0.0101003050804138
1770452070844,-0.06005859375,-0.238006591796875,-0.961822509765625,0.0061412495560944,-0.0241964161396026,-0.0087847029790282
1770452070853,-0.0605010986328125,-0.23760986328125,-0.9599151611328124,-0.0056536244228482,-0.0187569092959165,-0.0045361621305346
1770452070864,-0.05615234375,-0.2312774658203125,-0.956024169921875,-0.012517656199634,-0.0120502710342407,-0.0049814428202807
1770452070873,-0.0565185546875,-0.233428955078125,-0.9617156982421876,-0.0112662361934781,-0.0139973079785704,-0.0039870184846222
1770452070883,-0.055450439453125,-0.2382965087890625,-0.9662017822265624,-0.0152963986620306,-0.0201622601598501,-0.004857872147113
1770452070894,-0.053985595703125,-0.236053466796875,-0.9658203125,-0.0169289167970418,-0.0173097476363182,-0.0065833339467644
1770452070903,-0.0520172119140625,-0.234100341796875,-0.9634246826171876,-0.0271573178470134,-0.0096065541729331,-0.0066222161985933
