timestamp_ms,acc_x,acc_y,acc_z,gyro_x,gyro_y,gyro_z
1770448306537,-0.230621337890625,-0.9303741455078124,0.1869659423828125,0.0171116087585687,-0.0003539340978022,-0.0170341115444898
1770448306545,-0.22674560546875,-0.9411773681640624,0.1893463134765625,0.0170298498123884,-0.0008684568456374,-0.0148388668894767
1770448306555,-0.219451904296875,-0.9453125,0.1922607421875,0.0101570300757884,0.0047553405165672,-0.0131416348740458
1770448306565,-0.216796875,-0.9524688720703124,0.197418212890625,0.005593969952315,0.0023172164801508,-0.0072491243481636
1770448306575,-0.2166290283203125,-0.962127685546875,0.1996307373046875,1.890844396257307e-05,-0.0007478156476281,-0.0014769891276955
1770448306585,-0.2177581787109375,-0.960968017578125,0.197174072265625,-0.0027912592049688,0.0015512913232669,0.0070541808381676
1770448306595,-0.21942138671875,-0.960205078125,0.194122314453125,-0.0101032340899109,0.0065415226854383,0.0073556508868932
1770448306605,-0.2200775146484375,-0.9617462158203124,0.191436767578125,-0.0171603448688983,0.0066286078654229,0.0094960331916809
1770448306615,-0.2200164794921875,-0.9597625732421876,0.188629150390625,-0.0276409480720758,0.0086962860077619,0.0102361254394054
1770448306626,-0.2222900390625,-0.957550048828125,0.1914520263671875,-0.0344112366437912,0.0140417832881212,0.0085679218173027
1770448306636,-0.2221832275390625,-0.9578704833984376,0.1938018798828125,-0.0421000495553016,0.0165914930403232,0.0081093255430459
1770448306646,-0.223907470703125,-0.95416259765625,0.19268798828125,-0.0409090816974639,0.0148785486817359,0.0034104441292583
1770448306656,-0.2255859375,-0.9512481689453124,0.1905975341796875,-0.039598274976015,0.0142444493249058,0.0038911446463316
1770448306666,-0.2255096435546875,-0.9545745849609376,0.1895294189453125,-0.0339667536318302,0.0095759285613894,0.0012186624808236
1770448306676,-0.2265167236328125,-0.954345703125,0.1878509521484375,-0.0263445228338241,0.0065055699087679,0.0002857571817003
1770448306686,-0.2288970947265625,-0.9522247314453124,0.18670654296875,-0.0227074436843395,0.001072454964742,-0.0049534793943166
1770448306696,-0.229705810546875,-0.953094482421875,0.1875152587890625,-0.0136758647859096,0.0007707187905907,-0.0079415459185838
1770448306706,-0.2273101806640625,-0.955322265625,0.1868743896484375,-0.0073378076776862,0.0018085526535287,-0.0075841499492526
1770448306716,-0.2240753173828125,-0.955657958984375,0.1837615966796875,0.0004623247659765,0.0006852313526906,-0.0080893514677882
1770448306726,-0.2253875732421875,-0.9551849365234376,0.1830902099609375,0.0053968960419297,0.0012183962389826,-0.0083540696650743
1770448306736,-0.2241363525390625,-0.9561309814453124,0.183349609375,0.0101983090862631,0.0039968723431229,-0.005394765175879
1770448306746,-0.2209930419921875,-0.955352783203125,0.1820068359375,0.0121916849166154,0.0030905983876436,-0.0050714574754238
1770448306756,-0.2210693359375,-0.957916259765625,0.182647705078125,0.0148255517706274,0.0005094627267681,-0.0015867113834246
1770448306766,-0.22027587890625,-0.9594268798828124,0.185699462890625,0.01545219309628,-0.0031337416730821,0.0017241304740309
1770448306776,-0.2201385498046875,-0.961029052734375,0.19085693359375,0.0102507732808589,-0.0051087420433759,0.0012399677652865
1770448306786,-0.2165679931640625,-0.960723876953125,0.1936492919921875,0.0054216631688177,-0.0008213188848458,0.003067162586376
1770448306796,-0.21893310546875,-0.955291748046875,0.189697265625,0.003711647586897,0.0050469567067921,0.0004308994684834
1770448306806,-0.2247467041015625,-0.947021484375,0.1870574951171875,0.0059321913868188,0.0054155378602445,-0.0005893575726076
1770448306816,-0.225372314453125,-0.9427337646484376,0.188812255859375,0.00514442846179,0.007857390679419,-0.0061710770241916
1770448306826,-0.22259521484375,-0.9488372802734376,0.19073486328125,0.0056666741147637,0.0054078148677945,-0.0061814631335437
1770448306836,-0.21844482421875,-0.956085205078125,0.1907806396484375,0.0032602418214082,0.0012045477051287,-0.0012301141396164
1770448306847,-0.2191925048828125,-0.9547119140625,0.1923980712890625,-0.0003584614896681,-0.0021249363198876,0.0009523464250378
1770448306856,-0.22296142578125,-0.95477294921875,0.1944122314453125,-0.0037792918737977,1.0120012120751198e-05,0.0009699232759885
1770448306867,-0.223663330078125,-0.9550933837890624,0.196502685546875,-0.0083042690530419,0.0033710293937474,0.0015041533624753
1770448306877,-0.221710205078125,-0.9577484130859376,0.1936187744140625,-0.0131757231429219,0.0065029067918658,0.0021260015200823
1770448306887,-0.220733642578125,-0.956817626953125,0.192535400390625,-0.0137195410206913,0.0078352857381105,0.0035401401109993
1770448306897,-0.22027587890625,-0.957855224609375,0.1893463134765625,-0.0148343397304415,0.0052349758334457,0.0031830100342631
1770448306907,-0.2230682373046875,-0.95513916015625,0.1895751953125,-0.0144007774069905,0.0045617287978529,0.0037907434161752
1770448306917,-0.2228240966796875,-0.951080322265625,0.18853759765625,-0.0134124783799052,0.0062307314947247,0.0023968450259417
1770448306927,-0.2240753173828125,-0.9501800537109376,0.191558837890625,-0.0151366088539361,0.0088704572990536,0.002566754585132
1770448306937,-0.2254180908203125,-0.949493408203125,0.1917266845703125,-0.0138657484203577,0.0079375514760613,0.0023949807509779
1770448306947,-0.22412109375,-0.9522552490234376,0.1888885498046875,-0.010651845484972,0.0049976878799498,0.003647731617093
1770448306957,-0.2227325439453125,-0.9546356201171876,0.188568115234375,-0.0104819359257817,0.0011041465913876,0.0035531895700842
1770448306967,-0.2232208251953125,-0.9535064697265624,0.19091796875,-0.0107711553573608,3.5686356568476185e-05,0.0041806302033364
1770448306977,-0.2241363525390625,-0.95025634765625,0.1918182373046875,-0.0148788150399923,0.0034557178150862,0.0019560917280614
1770448306987,-0.224700927734375,-0.9520721435546876,0.193023681640625,-0.0194104500114917,0.0019773971289396,0.0063282032497227
1770448306997,-0.220428466796875,-0.9541778564453124,0.19189453125,-0.0262787416577339,0.0057087522000074,0.0059369849041104
1770448307007,-0.220184326171875,-0.9560546875,0.1924285888671875,-0.0300266090780496,0.0062959790229797,0.0062256716191768
1770448307017,-0.2212677001953125,-0.95770263671875,0.1925201416015625,-0.0329696685075759,0.0056973006576299,0.0097365165129303
1770448307027,-0.22265625,-0.9542388916015624,0.1884765625,-0.0357817001640796,0.0101013695821166,0.0070033147931098
1770448307037,-0.2226715087890625,-0.95428466796875,0.1875,-0.0353689081966877,0.0093945665284991,0.0078078554943203
1770448307047,-0.2245941162109375,-0.9534759521484376,0.1881561279296875,-0.0369921065866947,0.0110981911420822,0.0077367490157485
1770448307057,-0.2247772216796875,-0.9533233642578124,0.1882476806640625,-0.0330985635519027,0.0074453991837799,0.0076062544248998
1770448307068,-0.2246551513671875,-0.9537506103515624,0.18621826171875,-0.0303501822054386,0.0059694754891097,0.0067540425807237
1770448307078,-0.2242584228515625,-0.9553680419921876,0.18377685546875,-0.0280103292316198,0.0034181671217083,0.0056030247360467
1770448307088,-0.2246856689453125,-0.9545440673828124,0.181732177734375,-0.0231982637196779,0.0055649415589869,0.0037755635567009
1770448307098,-0.2256622314453125,-0.951751708984375,0.1813201904296875,-0.0171334464102983,0.0049188584089279,0.0045840991660952
1770448307108,-0.22509765625,-0.953033447265625,0.17987060546875,-0.0141166178509593,0.0037449370138347,0.005265868268907
1770448307118,-0.224090576171875,-0.9564208984375,0.1826629638671875,-0.0130739901214838,0.0043420176953077,0.0047343014739453
1770448307128,-0.2242279052734375,-0.9556427001953124,0.1844940185546875,-0.0125711858272552,0.0039340215735137,0.0047731837257742
1770448307138,-0.2254486083984375,-0.954864501953125,0.184783935546875,-0.0133917052298784,0.0043121902272105,0.0028759476263076
1770448307148,-0.22442626953125,-0.9529876708984376,0.1847076416015625,-0.0101572964340448,0.0061649517156183,0.001479918602854
1770448307158,-0.2241058349609375,-0.9569244384765624,0.1849822998046875,-0.0082826968282461,0.0024008397012948,0.0023710122331976
1770448307168,-0.2213897705078125,-0.963714599609375,0.1840362548828125,-0.007497064769268,-0.0006961502949707,0.0063154203817248
1770448307178,-0.220794677734375,-0.96282958984375,0.1840667724609375,-0.0075234300456941,-0.0012785836588591,0.0076925405301153
1770448307188,-0.2245941162109375,-0.95404052734375,0.185516357421875,-0.0107277454808354,0.0046016760170459,0.0069191586226224
1770448307198,-0.2266998291015625,-0.9494781494140624,0.1865234375,-0.0123341642320156,0.0078214379027485,0.0053428336977958
1770448307208,-0.22552490234375,-0.951080322265625,0.1849517822265625,-0.0131067475304007,0.007888282649219,0.0053598778322339
1770448307218,-0.224090576171875,-0.957305908203125,0.1848602294921875,-0.0109463911503553,0.0056443037465214,0.0056432383134961
1770448307228,-0.2219085693359375,-0.9543914794921876,0.1827545166015625,-0.0112537201493978,0.0071939970366656,0.0039254995062947
1770448307238,-0.224273681640625,-0.952606201171875,0.181976318359375,-0.0098750013858079,0.0037875475827604,0.0038812910206615
1770448307248,-0.2231597900390625,-0.96014404296875,0.185333251953125,-0.0079772323369979,0.0020445086993277,0.0017323862994089
1770448307258,-0.22369384765625,-0.9539031982421876,0.184326171875,-0.0025624935515224,0.0032780850306153,-0.0031715584918856
1770448307268,-0.225433349609375,-0.9537200927734376,0.1846771240234375,0.0025712819769978,-0.0009054747642949,-0.0016231966437771
1770448307279,-0.2221221923828125,-0.9640960693359376,0.1839752197265625,0.0085247782990336,-0.005200354848057,-0.0034426683560013
1770448307289,-0.222686767578125,-0.9497833251953124,0.1822052001953125,0.011838549748063,0.0054227286018431,-0.0086960196495056
1770448307299,-0.2308349609375,-0.9355926513671876,0.1811370849609375,0.0125394938513636,0.0070347399450838,-0.01342339720577
1770448307309,-0.22979736328125,-0.9349517822265624,0.18487548828125,0.0091764545068144,0.0093935020267963,-0.0120484074577689
1770448307319,-0.2297210693359375,-0.9396820068359376,0.1878814697265625,0.0047630635090172,0.0075189024209976,-0.0120382867753505
1770448307329,-0.222869873046875,-0.952484130859375,0.1898651123046875,0.0041100564412772,0.0005073322099633,-0.0047137951478362
1770448307339,-0.2185211181640625,-0.96295166015625,0.1885528564453125,-0.0002604571636766,-0.0026469158474355,0.0028943235520273
1770448307349,-0.2189788818359375,-0.965911865234375,0.188385009765625,-0.0047321710735559,-0.0040621194057166,0.0074368771165609
1770448307359,-0.2212982177734375,-0.9632720947265624,0.1876220703125,-0.0113067170605063,-0.0021465078461915,0.0092957634478807
1770448307369,-0.2226104736328125,-0.9622650146484376,0.1864013671875,-0.0184032414108514,0.0036245621740818,0.011444135569036
1770448307379,-0.2224884033203125,-0.96136474609375,0.1873321533203125,-0.0298186149448156,0.0121653201058506,0.0135075533762574
1770448307389,-0.22314453125,-0.9611053466796876,0.1882781982421875,-0.0401564724743366,0.0168540813028812,0.0155206359922885
1770448307399,-0.2227630615234375,-0.95892333984375,0.1874542236328125,-0.0429751649498939,0.0188844744116067,0.0123599972575902
1770448307409,-0.22467041015625,-0.9532470703125,0.1883697509765625,-0.0431416109204292,0.0169363729655742,0.009736250154674
1770448307419,-0.2269439697265625,-0.953948974609375,0.1867523193359375,-0.0425506569445133,0.0128508172929286,0.0072145033627748
1770448307429,-0.228668212890625,-0.9534912109375,0.186859130859375,-0.0367873087525367,0.0074629760347306,0.0037289580795913
1770448307439,-0.2311553955078125,-0.9515533447265624,0.184722900390625,-0.031355258077383,0.00276436121203,0.0018061558948829
1770448307449,-0.2303619384765625,-0.9517822265625,0.181060791015625,-0.0234853513538837,-0.0016048208344727,-0.0022413162514567
1770448307459,-0.2313385009765625,-0.9544525146484376,0.18096923828125,-0.0126585373654961,-0.0024911209475249,-0.0059718722477555
1770448307469,-0.2288818359375,-0.9569549560546876,0.1795501708984375,-0.0072033181786537,-0.0033755565527826,-0.0063889236189424
1770448307479,-0.2263336181640625,-0.9569854736328124,0.179290771484375,-0.0020242687314748,-0.0030399984680116,-0.0060128848999738
1770448307489,-0.2235870361328125,-0.95635986328125,0.1772613525390625,0.0066043729893863,-0.0028447885997593,-0.0048863678239285
1770448307500,-0.2219696044921875,-0.95709228515625,0.1754913330078125,0.0140550984069705,-0.0010543455136939,-0.0044594630599021
1770448307510,-0.222686767578125,-0.956787109375,0.1744232177734375,0.015361113473773,0.0003941478498745,-0.0006977482116781
1770448307520,-0.2230224609375,-0.9574127197265624,0.176361083984375,0.0163227804005146,-0.0015270565636456,0.0033481260761618
1770448307530,-0.2205963134765625,-0.9626922607421876,0.1822052001953125,0.014387727715075,-0.0044477451592683,0.0029595708474516
1770448307540,-0.2188720703125,-0.965362548828125,0.18682861328125,0.0090851075947284,-0.0066496469080448,0.0063138222321867
1770448307550,-0.21905517578125,-0.9617462158203124,0.1871490478515625,0.0024141555186361,0.0004103931132704,0.0078435419127345
1770448307560,-0.22418212890625,-0.9521636962890624,0.1861724853515625,-0.0023875238839536,0.0038203045260161,0.0063630905933678
1770448307571,-0.2257080078125,-0.9486236572265624,0.187896728515625,-0.0043665189296007,0.0055526909418404,0.0035140409599989
1770448307580,-0.227020263671875,-0.9447174072265624,0.18621826171875,-0.0048687909729778,0.0073042516596615,0.0010104032699018
1770448307590,-0.2252349853515625,-0.945831298828125,0.1870574951171875,-0.0049172607250511,0.0057066213339567,0.0005219795857556
1770448307600,-0.2240142822265625,-0.956298828125,0.185791015625,-0.0066547067835927,0.0032538501545786,0.0016050871927291
1770448307610,-0.222381591796875,-0.9552001953125,0.1836395263671875,-0.0075993300415575,0.0055020907893776,0.0009821738349273
1770448307620,-0.226287841796875,-0.954498291015625,0.184783935546875,-0.0074776238761842,0.0048128645867109,0.003230414353311
1770448307630,-0.227386474609375,-0.956787109375,0.1851806640625,-0.0090558128431439,0.0047827707603573,0.0052288505248725
1770448307640,-0.22711181640625,-0.9594268798828124,0.1857452392578125,-0.0110521186143159,0.0070448601618409,0.0025963156949728
1770448307650,-0.22607421875,-0.9589996337890624,0.1856231689453125,-0.0135941058397293,0.0088291782885789,0.0045667886734008
1770448307661,-0.226715087890625,-0.9581451416015624,0.1851959228515625,-0.0132992938160896,0.0069561768323183,6.79106087773107e-05
1770448307670,-0.2266082763671875,-0.9548797607421876,0.1827545166015625,-0.0097913779318332,0.0072517874650657,0.0011342403013259
1770448307680,-0.226715087890625,-0.953033447265625,0.1819610595703125,-0.0101817976683378,0.0077932081185281,0.0026988473255187
1770448307690,-0.226654052734375,-0.9537811279296876,0.1820068359375,-0.0065529742278158,0.0068105016835033,-0.0001054611784638
1770448307700,-0.2285003662109375,-0.952392578125,0.18115234375,-0.0058027617633342,0.0027055053506046,0.0017044231062754
1770448307710,-0.2274169921875,-0.950042724609375,0.1826934814453125,-0.0041137849912047,-0.0002311623829882,0.0032091091852635
1770448307721,-0.2256927490234375,-0.9531402587890624,0.184326171875,-0.004261590540409,-0.0013771206140518,0.0021736719645559
1770448307731,-0.225341796875,-0.953277587890625,0.1839752197265625,-0.0026948526501655,-0.0031867385841906,0.0018152105621993
1770448307741,-0.2270660400390625,-0.953521728515625,0.1840057373046875,-0.0048301750794053,0.0002450108295306,0.0024309335276484
1770448307751,-0.225250244140625,-0.9530181884765624,0.1853790283203125,-0.007047523278743,0.0027134947013109,0.0004788363585248
1770448307761,-0.2257080078125,-0.954559326171875,0.1862030029296875,-0.0095197353512048,0.0022639532107859,-0.0003696467611007
1770448307771,-0.2261199951171875,-0.9549560546875,0.18560791015625,-0.0118611864745616,0.0010599381057545,0.0015283881220966
1770448307781,-0.2245635986328125,-0.95513916015625,0.18560791015625,-0.0154165066778659,0.0044842306524515,0.0020583572331815
1770448307791,-0.224365234375,-0.9544525146484376,0.1859893798828125,-0.0190376061946153,0.0056158076040446,0.0032546492293477
1770448307801,-0.22674560546875,-0.956390380859375,0.186859130859375,-0.0197217725217342,0.0076001291163265,0.0035127094015479
1770448307811,-0.225311279296875,-0.954010009765625,0.18402099609375,-0.0189435966312885,0.0057319216430187,0.0028815402183681
1770448307821,-0.226226806640625,-0.9531707763671876,0.1817169189453125,-0.0117376158013939,0.000449807906989,0.0035334820859134
1770448307831,-0.2262115478515625,-0.9539642333984376,0.179412841796875,-0.0101359905675053,0.0029273466207087,0.0040525323711335
1770448307841,-0.2238922119140625,-0.9550933837890624,0.180877685546875,-0.0081788338720798,0.0049777142703533,0.004087686073035
1770448307851,-0.2272186279296875,-0.9544677734375,0.179412841796875,-0.0049670618027448,0.0038890140131115,0.0039531961083412
1770448307861,-0.22821044921875,-0.9524078369140624,0.18084716796875,-0.0065236794762313,0.0033678335603326,0.0042847599834203
1770448307871,-0.227752685546875,-0.9549713134765624,0.1826171875,-0.0076664416119456,0.0047891624271869,0.0042330943979322
1770448307881,-0.2255859375,-0.956146240234375,0.1836090087890625,-0.0079548619687557,0.0039127161726355,0.001677791471593
1770448307891,-0.226470947265625,-0.9541168212890624,0.180877685546875,-0.0049564088694751,0.0020570256747305,0.0006961502949707
1770448307901,-0.2270965576171875,-0.9540252685546876,0.177276611328125,-0.0033734261523932,-0.0046714507043361,0.0024567660875618
1770448307911,-0.22369384765625,-0.9616546630859376,0.180389404296875,-0.0071777515113353,-0.0041529336012899,0.0059945094399154
1770448307922,-0.2216949462890625,-0.9632720947265624,0.1859588623046875,-0.0075157070532441,0.0018413095967844,0.004979046061635
1770448307931,-0.227203369140625,-0.9576873779296876,0.1845703125,-0.006678675301373,0.0040546627715229,0.0062839947640895
1770448307942,-0.2281036376953125,-0.9508819580078124,0.1785888671875,-0.0072770877741277,0.0066717509180307,0.0020695424173027
1770448307952,-0.2291412353515625,-0.949371337890625,0.1797637939453125,-0.0071684308350086,0.0076728332787752,0.0026762105990201
1770448307962,-0.2274627685546875,-0.957244873046875,0.18267822265625,-0.0044858283363282,0.0054301852360367,0.0043169842101633
1770448307972,-0.222564697265625,-0.9578399658203124,0.1802215576171875,-0.0059574912302196,0.0089596724137663,0.0028146950062364
1770448307982,-0.2265625,-0.9495086669921876,0.178558349609375,-0.002356098499149,0.0065926550887525,0.0051771849393844
1770448307992,-0.22943115234375,-0.9590301513671876,0.180816650390625,0.0026431872975081,-0.0017619474092498,0.0041385521180927
1770448308002,-0.2244873046875,-0.956298828125,0.182830810546875,0.0082621909677982,0.0010679275728762,0.000186953911907
1770448308012,-0.22650146484375,-0.9483489990234376,0.18353271484375,0.0132630746811628,-0.0044064661487936,-0.0025531724095344
1770448308022,-0.227569580078125,-0.9596405029296876,0.1853179931640625,0.0158849563449621,-0.0103940516710281,-0.002617621095851
1770448308032,-0.222869873046875,-0.9612579345703124,0.1849212646484375,0.0172484945505857,-0.0018929748330265,-0.0031750206835567
1770448308042,-0.2259979248046875,-0.9406890869140624,0.1816253662109375,0.0180490408092737,0.0052032843232154,-0.0093199983239173
1770448308052,-0.23284912109375,-0.934173583984375,0.181884765625,0.0155552579089999,0.0071314126253128,-0.0111820809543132
1770448308062,-0.2324371337890625,-0.934356689453125,0.1851806640625,0.0132215293124318,0.0066091669723391,-0.0126681244000792
1770448308072,-0.2282257080078125,-0.94683837890625,0.1862945556640625,0.0066909259185194,0.0044868937693536,-0.0061391186900436
1770448308082,-0.2215728759765625,-0.9599456787109376,0.188323974609375,0.0018860506825149,0.0009398295660503,-0.0013733921805396
1770448308092,-0.221649169921875,-0.9642486572265624,0.1871185302734375,-0.0040216394700109,-0.0025004418566823,0.0059785302728414
1770448308102,-0.2226715087890625,-0.9656219482421876,0.1863555908203125,-0.0111354757100343,-0.0019742012955248,0.0077492659911513
1770448308112,-0.2240447998046875,-0.9643402099609376,0.186981201171875,-0.0204373635351657,0.0034253578633069,0.0105035072192549
1770448308122,-0.225067138671875,-0.96221923828125,0.1865997314453125,-0.0276912823319435,0.0078185079619288,0.0129195265471935
1770448308132,-0.2244873046875,-0.960235595703125,0.184722900390625,-0.0326402336359024,0.0105506451800465,0.0112673016265034
1770448308143,-0.2266693115234375,-0.95770263671875,0.18212890625,-0.0325393006205558,0.0078334221616387,0.00773381954059
1770448308152,-0.226837158203125,-0.9575958251953124,0.18243408203125,-0.033490315079689,0.0104917893186211,0.0091064125299453
1770448308162,-0.22698974609375,-0.956787109375,0.1847991943359375,-0.0286311116069555,0.0116627812385559,0.0043625240214169
1770448308173,-0.227813720703125,-0.953948974609375,0.182342529296875,-0.0216773319989442,0.0057252636179327,0.0044402885250747
1770448308183,-0.2298583984375,-0.9532928466796876,0.1815185546875,-0.0166820418089628,0.0008740494376979,0.0020184097811579
1770448308193,-0.2296905517578125,-0.954193115234375,0.1832733154296875,-0.013285445049405,-0.0019819245208054,0.0008138620178215
1770448308203,-0.230133056640625,-0.9552459716796876,0.18414306640625,-0.0087551418691873,-0.0020010992884635,-0.0036024579312652
1770448308213,-0.2305755615234375,-0.95611572265625,0.18035888671875,-0.0004133225884288,-1.1984225238848012e-05,-0.0054980958811938
1770448308223,-0.2287445068359375,-0.954345703125,0.177581787109375,0.0063476446084678,-0.0028360001742839,-0.0070765516720712
1770448308233,-0.227447509765625,-0.954803466796875,0.1737060546875,0.0117024620994925,-0.0026192190125584,-0.0057921088300645
1770448308243,-0.22686767578125,-0.9534149169921876,0.17266845703125,0.018236793577671,-0.001644235686399,-0.0048245824873447
1770448308253,-0.225128173828125,-0.953399658203125,0.1746673583984375,0.0213979668915271,0.0003070624661631,-0.0037518613971769
1770448308263,-0.2242279052734375,-0.9539794921875,0.17633056640625,0.0241516754031181,0.0018080200534313,0.0011347729014232
1770448308273,-0.2253875732421875,-0.95916748046875,0.178192138671875,0.0296580269932746,-0.0026940538082271,0.0007342335302382
1770448308283,-0.224273681640625,-0.963043212890625,0.1799468994140625,0.0312641784548759,-0.0121746407821774,0.003426689421758
1770448308293,-0.2217254638671875,-0.96063232421875,0.1813812255859375,0.0265565104782581,-0.0075713670812547,0.0031262848060578
1770448308303,-0.2252349853515625,-0.9540252685546876,0.185882568359375,0.0210576150566339,-0.0035742283798754,0.0023587618488818
1770448308313,-0.2293243408203125,-0.9485626220703124,0.1887664794921875,0.0142969135195016,0.0012298477813601,-0.0014090784825384
1770448308323,-0.228668212890625,-0.9464874267578124,0.1900482177734375,0.0124465497210621,0.0050522829405963,-0.0055692023597657
1770448308333,-0.2269287109375,-0.943206787109375,0.1875457763671875,0.012114186771214,0.003892742563039,-0.0060701430775225
1770448308344,-0.2283935546875,-0.9493408203125,0.1871490478515625,0.0107631655409932,0.0029300097376108,-0.0065391254611313
1770448308353,-0.227508544921875,-0.9563446044921876,0.1880035400390625,0.006875482853502,-0.0001528654393041,-0.0029832730069756
1770448308364,-0.2271270751953125,-0.953125,0.1888275146484375,0.0027031085919588,-0.0002050634066108,-0.0021931130904704
1770448308374,-0.22808837890625,-0.955413818359375,0.19036865234375,0.0010524812387302,-0.0011238539591431,-8.974852971732616e-05
1770448308384,-0.2259521484375,-0.957916259765625,0.187286376953125,-0.001325188903138,-0.0013640711549669,0.0026343988720327
1770448308394,-0.2250518798828125,-0.959564208984375,0.18896484375,-0.0047904942184686,0.0027963190805166,0.0009704558760859
1770448308404,-0.225555419921875,-0.9567413330078124,0.1878814697265625,-0.0059881177730858,0.0050418963655829,0.0008215851848945
1770448308414,-0.2274169921875,-0.9541778564453124,0.186126708984375,-0.0069489860907197,0.0047790426760911,-0.0002519350382499
1770448308424,-0.2274627685546875,-0.9514617919921876,0.1862640380859375,-0.0102062989026308,0.004773982334882,0.0003976099542342
1770448308434,-0.2267913818359375,-0.950225830078125,0.187530517578125,-0.0092707304283976,0.0051968926563858,0.0001906823308672
1770448308444,-0.228179931640625,-0.94903564453125,0.187591552734375,-0.0105951195582747,0.0042386869899928,-6.311691686278209e-05
1770448308454,-0.2274322509765625,-0.9505767822265624,0.18817138671875,-0.0090382359921932,0.0042908852919936,0.0002620550512801
1770448308464,-0.228179931640625,-0.9525604248046876,0.1850433349609375,-0.0092321140691638,0.003434412414208,-0.0007904262165538
1770448308474,-0.228759765625,-0.9516448974609376,0.1844482421875,-0.0073854783549904,0.0014229270163923,-0.0016050871927291
1770448308484,-0.2266845703125,-0.953887939453125,0.184722900390625,-0.0067830714397132,0.0019550265278667,-0.0006663228850811
1770448308494,-0.224456787109375,-0.954833984375,0.1837615966796875,-0.0076885460875928,0.000623179716058,0.0015036207623779
1770448308504,-0.226348876953125,-0.9552154541015624,0.1840362548828125,-0.0048813079483807,0.000835433602333,0.000351537251845
1770448308514,-0.2268829345703125,-0.9568328857421876,0.184478759765625,-0.006171609275043,0.0023939155507832,0.001348891062662
1770448308524,-0.2269439697265625,-0.9539642333984376,0.1832733154296875,-0.0050624026916921,0.0019526296528056,0.0010293117957189
1770448308534,-0.2264556884765625,-0.9523162841796876,0.1812286376953125,-0.0037476003635674,0.0015499597648158,-0.0004141215467825
1770448308544,-0.2265777587890625,-0.9531097412109376,0.18328857421875,-0.0034732946660369,0.0041481396183371,0.0003619235940277
1770448308554,-0.2268524169921875,-0.956024169921875,0.18328857421875,-0.0022764701861888,0.0034890072420239,0.0001496696495451
1770448308564,-0.228607177734375,-0.9565887451171876,0.184814453125,-0.0017126789316534,0.002078330842778,-0.0007251787465065
1770448308574,-0.227386474609375,-0.955657958984375,0.185089111328125,0.0008713863207958,0.0008990831556729,-0.0014639396686106
1770448308584,-0.22808837890625,-0.9554595947265624,0.1836700439453125,0.0003725762362591,0.0010689928894862,-0.0044032703153789
1770448308595,-0.227874755859375,-0.9539947509765624,0.1843414306640625,0.0032378712203353,0.0060275322757661,-0.0062440475448966
1770448308605,-0.2278900146484375,-0.953765869140625,0.1838226318359375,0.0014740596525371,0.0034232272300869,-0.0025190841406583
1770448308615,-0.228668212890625,-0.950286865234375,0.1854400634765625,0.000138750692713,0.005192098673433,-0.0023832628503441
1770448308625,-0.2277984619140625,-0.9503936767578124,0.1840667724609375,0.0030391993932425,0.0048996838741004,-0.0016112125013023
1770448308635,-0.22723388671875,-0.950836181640625,0.18341064453125,0.0015435680979862,0.0043108589015901,-0.0024881914723664
1770448308645,-0.226715087890625,-0.94940185546875,0.1847381591796875,0.0017563547007739,0.0068381987512111,-0.0031819448340684
1770448308655,-0.227142333984375,-0.9514312744140624,0.1853790283203125,0.0026466494891792,0.0016029566759243,-0.0002625876804813
1770448308665,-0.224853515625,-0.96356201171875,0.186126708984375,0.0029569077305495,0.0004636563535314,0.0045489454641938
1770448308675,-0.2226409912109375,-0.9658966064453124,0.1871337890625,0.0012053466634824,0.0027084348257631,0.0051300469785928
1770448308685,-0.2245330810546875,-0.9600067138671876,0.1867218017578125,0.0017441042000427,0.0035324168857187,0.0040642502717673
1770448308695,-0.22930908203125,-0.9510040283203124,0.18524169921875,-0.0001033306471072,0.0069511164911091,0.0016887104138731
1770448308705,-0.229736328125,-0.947174072265625,0.1844635009765625,-0.0027153589762747,0.0112886074930429,0.0014439659425988
1770448308715,-0.22808837890625,-0.948486328125,0.1869049072265625,-0.0043824976310133,0.0072667011991143,0.0009456885163672
1770448308725,-0.22637939453125,-0.9564208984375,0.1869049072265625,-0.0050397659651935,0.0027023095171898,0.0012628709664568
1770448308735,-0.2256927490234375,-0.953826904296875,0.18560791015625,-0.0062576294876635,0.0034495925065129,0.0015686018159613
1770448308745,-0.2280426025390625,-0.9569244384765624,0.187042236328125,-0.0064616277813911,-0.0039950078353285,0.0009113337146118
1770448308755,-0.2265167236328125,-0.9618377685546876,0.1872406005859375,-0.0049625341780483,-0.0030655646696686,-0.0022144184913486
1770448308765,-0.2279510498046875,-0.947357177734375,0.186614990234375,-0.001235706731677,0.0004005394293926,-0.006311425473541
1770448308775,-0.230010986328125,-0.953582763671875,0.1866455078125,0.0006114617572166,-0.0049175270833075,-0.0047374973073601
1770448308785,-0.2239227294921875,-0.9644927978515624,0.187225341796875,0.0034165694378316,3.941478280466981e-05,-0.0097000319510698
1770448308796,-0.2260894775390625,-0.940582275390625,0.1837158203125,0.0045441519469022,0.0064304685220122,-0.0134513601660728
1770448308806,-0.23370361328125,-0.934783935546875,0.184051513671875,0.0064632254652678,0.004800081718713,-0.0146790770813822
1770448308816,-0.22882080078125,-0.9384307861328124,0.1871795654296875,0.0029590383637696,0.0100289322435855,-0.0177885852754116
1770448308826,-0.228363037109375,-0.9412841796875,0.18902587890625,0.0022615564521402,0.00787203758955,-0.0139680132269859
1770448308836,-0.2241668701171875,-0.9521942138671876,0.1886138916015625,-0.0006205165409483,0.0030288130510598,-0.006582801695913
1770448308846,-0.22174072265625,-0.961944580078125,0.187713623046875,-0.0038698392454534,-0.0007989483419805,-0.0006854976527392
1770448308856,-0.2225341796875,-0.9645843505859376,0.1880035400390625,-0.005666141398251,-0.0025017734151333,0.0045308358967304
1770448308866,-0.224761962890625,-0.9630584716796876,0.1861572265625,-0.0098696751520037,0.0002753708686213,0.0092504899948835
1770448308876,-0.2247314453125,-0.9622344970703124,0.18359375,-0.0141677502542734,0.0018793927738443,0.0098491683602333
1770448308886,-0.22479248046875,-0.960662841796875,0.18218994140625,-0.0210602786391973,0.0076794913038611,0.0097311902791261
1770448308896,-0.227081298828125,-0.9590606689453124,0.181060791015625,-0.0225516483187675,0.0097181415185332,0.0092025529593229
1770448308906,-0.2266387939453125,-0.9558258056640624,0.1840362548828125,-0.0279506742954254,0.0116033926606178,0.0080685792490839
1770448308916,-0.2277679443359375,-0.9537200927734376,0.1879119873046875,-0.0261152237653732,0.013866014778614,0.0052357744425535
1770448308926,-0.2279510498046875,-0.9548187255859376,0.18670654296875,-0.0206498838961124,0.0084129255264997,0.0019904465880244
1770448308936,-0.2284698486328125,-0.955963134765625,0.1849365234375,-0.0148713579401373,0.0042011365294456,-0.0021108214277774
1770448308946,-0.23138427734375,-0.95404052734375,0.1841583251953125,-0.0099551621824502,-0.00346743571572,-0.0066866646520793
1770448308956,-0.233428955078125,-0.9531402587890624,0.18359375,-0.0001102548703784,-0.0048011466860771,-0.010759437456727
1770448308966,-0.232635498046875,-0.9529876708984376,0.1847076416015625,0.0013254552613943,-0.0059404470957815,-0.0119032645598053
1770448308976,-0.22906494140625,-0.95489501953125,0.1820831298828125,0.0093021551147103,-0.0062839947640895,-0.0122180506587028
1770448308986,-0.2276153564453125,-0.9552154541015624,0.181243896484375,0.0157310254871845,-0.0087625989690423,-0.0109437275677919
1770448308997,-0.2259368896484375,-0.9548797607421876,0.1801910400390625,0.020346550270915,-0.0077876155264675,-0.0092946980148553
1770448309006,-0.224456787109375,-0.9543609619140624,0.1795654296875,0.0263972524553537,-0.0072424663230776,-0.0070943948812782
1770448309016,-0.2225494384765625,-0.9535369873046876,0.180206298828125,0.0241929534822702,0.0002284992224304,-0.003697266569361
1770448309027,-0.22235107421875,-0.9541473388671876,0.1825103759765625,0.0251719318330287,-0.007906125858426,0.0030162963084876
1770448309037,-0.2182769775390625,-0.95977783203125,0.18328857421875,0.0207646675407886,-0.0040799626149237,-0.0006367618334479
1770448309047,-0.2226104736328125,-0.96136474609375,0.188201904296875,0.0213955696672201,-0.0095184035599231,0.0057833204045891
1770448309057,-0.21820068359375,-0.9610595703125,0.1884765625,0.0159755051136016,-0.0062120896764099,0.0047438889741897
1770448309067,-0.2242584228515625,-0.9565582275390624,0.18975830078125,0.010848918929696,0.0010317085543647,0.0031023162882775
1770448309077,-0.23040771484375,-0.9470977783203124,0.1875152587890625,0.0116220349445939,0.0023915185593068,-0.0012548814993351
1770448309087,-0.2292022705078125,-0.9416046142578124,0.1861572265625,0.0120747722685337,0.0067423246800899,-0.0058048921637237
1770448309097,-0.226715087890625,-0.9470672607421876,0.19122314453125,0.0054187336936593,0.0046765110455453,-0.0073841465637087
1770448309107,-0.2244873046875,-0.9549713134765624,0.1928558349609375,0.0017275925492867,0.0017102820565924,-0.0071029169484972
1770448309117,-0.2252960205078125,-0.952178955078125,0.192962646484375,0.0004657868703361,0.0040003340691328,-0.0047257794067263
1770448309127,-0.2271575927734375,-0.952484130859375,0.192230224609375,-0.00164556724485,0.00524030206725,-0.0039830235764384
1770448309137,-0.2260894775390625,-0.9542999267578124,0.1903076171875,-0.0021787320729345,0.0061865230090916,-0.0040200417861342
1770448309147,-0.2267608642578125,-0.9597015380859376,0.1889801025390625,-0.0029867351986467,0.0051694619469344,-0.0019984361715614
1770448309157,-0.2258758544921875,-0.9579925537109376,0.190032958984375,-0.0071263527497649,0.0039247004315257,-0.0012301141396164
1770448309167,-0.225250244140625,-0.9564971923828124,0.1902313232421875,-0.0104188183322548,0.0039622508920729,-0.0008572715451009
1770448309177,-0.226806640625,-0.956634521484375,0.1932373046875,-0.0130324447527527,0.0047372309491038,-0.0017012272728607
1770448309187,-0.2278900146484375,-0.9531097412109376,0.1882476806640625,-0.0109048457816243,0.004162520635873,-0.0030482541769742
1770448309197,-0.2263336181640625,-0.951507568359375,0.1832427978515625,-0.0081902854144573,0.003026416292414,-0.0017339842161163
1770448309207,-0.2277984619140625,-0.9507293701171876,0.1855316162109375,-0.0057873153127729,0.0027116306591778,-0.0007707187905907
1770448309217,-0.2259521484375,-0.9518890380859376,0.187255859375,-0.0076054553501307,0.002755839144811,-0.0002838929649442
1770448309228,-0.2247772216796875,-0.9542388916015624,0.1908416748046875,-0.0113794207572937,0.0023973775096237,0.0025643578264862
1770448309238,-0.2244873046875,-0.9544525146484376,0.1897735595703125,-0.0106063056737184,-0.0002647181972861,0.0019462381023913
1770448309248,-0.225830078125,-0.9532623291015624,0.1887664794921875,-0.0126036759465932,0.0005203816690482,0.0020178770646452
1770448309258,-0.225799560546875,-0.9532470703125,0.1888275146484375,-0.0155997322872281,0.0049907639622688,0.0009366337326355
1770448309268,-0.2246246337890625,-0.9556121826171876,0.1896209716796875,-0.0185273457318544,0.0055502941831946,0.0033305492252111
1770448309278,-0.224395751953125,-0.955047607421875,0.1889190673828125,-0.0212427042424678,0.0064520402811467,0.0028125643730163
1770448309288,-0.226715087890625,-0.953094482421875,0.1876678466796875,-0.0241431538015604,0.0097570233047008,0.0034091125708073
1770448309298,-0.22540283203125,-0.952911376953125,0.187652587890625,-0.0244552753865718,0.0117032611742615,0.0038501319941133
1770448309308,-0.2246551513671875,-0.9535980224609376,0.1861572265625,-0.0229431334882974,0.0100901843979954,0.0033204292412847
1770448309318,-0.227264404296875,-0.9547119140625,0.1858978271484375,-0.0205247160047292,0.0099226720631122,0.003770237090066
1770448309328,-0.22991943359375,-0.95465087890625,0.18511962890625,-0.0191324148327112,0.008035821840167,0.0035268242936581
1770448309338,-0.2272796630859375,-0.9542694091796876,0.18426513671875,-0.0163842998445034,0.0042187133803963,0.0002852245524991
1770448309348,-0.227142333984375,-0.9532012939453124,0.181671142578125,-0.0109985889866948,0.0021630194969475,-0.0007467503892257
1770448309358,-0.2276153564453125,-0.95355224609375,0.1820526123046875,-0.0076331524178385,0.0003792341449297,-0.0020018981304019
1770448309368,-0.227447509765625,-0.954681396484375,0.1832733154296875,-0.0054301852360367,-0.001177383470349,-0.0028530445415526
1770448309378,-0.22711181640625,-0.9536590576171876,0.18316650390625,-0.0019313243683427,0.0011893677292391,-0.0021395836956799
1770448309388,-0.22772216796875,-0.9540557861328124,0.1824493408203125,0.0013784521725028,0.0007068029372021,-0.000687628169544
1770448309398,-0.2267303466796875,-0.95379638671875,0.1817779541015625,0.0039111184887588,0.0010498181218281,-0.0004719121498055
1770448309408,-0.2267913818359375,-0.949371337890625,0.1837615966796875,0.0040916805155575,0.0009161274065263,-0.003157443832606
1770448309418,-0.227630615234375,-0.947540283203125,0.1845703125,0.0059793293476104,0.0013803163310512,-0.0034136399626731
1770448309429,-0.2288055419921875,-0.949462890625,0.1854095458984375,0.008144212886691,0.0006570018595084,-0.0048546763136982
1770448309438,-0.22491455078125,-0.9604949951171876,0.1858978271484375,0.0081359567120671,-0.002577407285571,-0.0003691141318995
1770448309448,-0.2197113037109375,-0.9663848876953124,0.1876983642578125,0.0055612130090594,-0.0006170544074848,0.0013638047967106
1770448309458,-0.2231292724609375,-0.9594268798828124,0.189483642578125,0.0025198829825967,0.0004775047709699,0.0006751113105565
1770448309469,-0.2284698486328125,-0.9517669677734376,0.188568115234375,-0.0017819210188463,0.0025576998014003,-0.0018037590198218
1770448309478,-0.229949951171875,-0.94775390625,0.1880950927734375,-0.0038559909444302,0.0061803977005183,-0.0016823188634589
1770448309488,-0.23065185546875,-0.945281982421875,0.1869964599609375,-0.0042703789658844,0.0069034462794661,-0.0011656655697152
1770448309499,-0.228485107421875,-0.9500579833984376,0.1859588623046875,-0.002331863855943,-7.057376933516935e-05,-0.003908721730113
1770448309509,-0.2235107421875,-0.959075927734375,0.185882568359375,-0.0012783173006027,-0.001716939965263,-0.0015606123488396
1770448309519,-0.2209930419921875,-0.960662841796875,0.1863861083984375,0.0002162486780434,-0.0043577305041253,0.0001928128622239
1770448309530,-0.222991943359375,-0.96282958984375,0.1871337890625,-0.0009363674325868,-0.0037691718898713,-0.0015065502375364
1770448309539,-0.224853515625,-0.947601318359375,0.1870880126953125,-0.0012610068079084,0.0023957795929163,-0.008069378323853
1770448309550,-0.230560302734375,-0.9465179443359376,0.187896728515625,0.0020564929582178,-0.0028541097417473,-0.009108543395996
1770448309559,-0.223236083984375,-0.968109130859375,0.188873291015625,0.0006330333999358,-0.0081913508474826,-0.0039739687927067
1770448309569,-0.2194976806640625,-0.956451416015625,0.1868896484375,0.00304292794317,0.0045968824997544,-0.0124143250286579
1770448309579,-0.231231689453125,-0.93359375,0.185882568359375,0.0034573157317936,0.0080326264724135,-0.0172801874577999
1770448309589,-0.2337188720703125,-0.9345245361328124,0.190826416015625,0.0051042144186794,0.006557501386851,-0.0172572843730449
1770448309599,-0.22894287109375,-0.93939208984375,0.1881256103515625,0.0062874569557607,0.0078270304948091,-0.0158548634499311
1770448309609,-0.222869873046875,-0.9483795166015624,0.187103271484375,0.0065431203693151,0.0031606396660208,-0.0118116522207856
1770448309619,-0.2222137451171875,-0.959686279296875,0.19097900390625,0.000499875342939,-0.0037292244378477,-0.004724713973701
1770448309629,-0.2218475341796875,-0.96429443359375,0.19482421875,-0.0090081421658396,-0.004700212739408,0.0030330740846693
1770448309639,-0.22344970703125,-0.961578369140625,0.19482421875,-0.0179097577929496,-0.0013443636707961,0.0075987973250448
1770448309649,-0.2218780517578125,-0.962249755859375,0.1909637451171875,-0.0260212142020463,0.0048842374235391,0.0095077510923147
1770448309659,-0.2233428955078125,-0.963897705078125,0.1847381591796875,-0.0320415571331977,0.0114377439022064,0.0105618303641676
1770448309670,-0.2227935791015625,-0.9609527587890624,0.18115234375,-0.0360578708350658,0.0124236466363072,0.0104076331481337
1770448309680,-0.22528076171875,-0.958282470703125,0.181793212890625,-0.0400326363742351,0.0118907475844025,0.0100276004523038
1770448309690,-0.225372314453125,-0.9566802978515624,0.1861724853515625,-0.0412576906383037,0.0158314276486635,0.0096454368904232
1770448309700,-0.227996826171875,-0.9559478759765624,0.18646240234375,-0.0391407459974288,0.0137778641656041,0.0062142200767993
1770448309711,-0.22894287109375,-0.9539947509765624,0.1859893798828125,-0.0296194106340408,0.0069961240515112,0.0031497206073254
1770448309720,-0.2304534912109375,-0.952880859375,0.181396484375,-0.0194160416722297,-0.0017646105261519,-0.0014034858904778
1770448309730,-0.2319793701171875,-0.954071044921875,0.1816558837890625,-0.0113666374236345,-0.0071756211109459,-0.006630206014961
1770448309740,-0.231689453125,-0.9540252685546876,0.18328857421875,-0.0063108927570283,-0.0044354945421218,-0.0086315711960196
1770448309750,-0.2309722900390625,-0.9544830322265624,0.1817779541015625,0.0028423918411135,-0.0054229949600994,-0.0094957668334245
1770448309760,-0.2284698486328125,-0.9556427001953124,0.178070068359375,0.0123890256509184,-0.0052323127165436,-0.0123884929344058
1770448309770,-0.2276153564453125,-0.954437255859375,0.1758270263671875,0.0218901187181472,-0.0048749162815511,-0.013056413270533
1770448309780,-0.2256622314453125,-0.953369140625,0.1753692626953125,0.0257061626762151,-0.0046434877440333,-0.0095210671424865
1770448309790,-0.2249298095703125,-0.9542999267578124,0.1783599853515625,0.0289357770234346,-0.0016809873050078,-0.0082968119531869
1770448309800,-0.22344970703125,-0.95452880859375,0.1816558837890625,0.0281743798404932,0.0004929511342197,-0.0032573123462498
1770448309810,-0.2217559814453125,-0.9571685791015624,0.18408203125,0.0260750092566013,-0.0019371833186596,-0.0029435919132083
1770448309820,-0.2214202880859375,-0.9610748291015624,0.1873016357421875,0.0245373006910085,-0.0085937548428773,-0.0022841931786388
1770448309830,-0.221282958984375,-0.9638214111328124,0.189727783203125,0.0181411877274513,-0.0087575390934944,0.0013033510185778
1770448309840,-0.2203216552734375,-0.960357666015625,0.1890716552734375,0.0123251089826226,-0.0026716832071542,0.0014221280580386
1770448309850,-0.224822998046875,-0.9507293701171876,0.1895904541015625,0.0062493737787008,0.0005012069013901,0.0006599313346669
1770448309860,-0.2279205322265625,-0.945159912109375,0.191192626953125,0.0042866240255534,0.0042232410050928,-0.0030631679110229
1770448309870,-0.227813720703125,-0.943695068359375,0.188446044921875,0.0016410398529842,0.0028389296494424,-0.0041665155440568
1770448309880,-0.223388671875,-0.951324462890625,0.1878204345703125,0.0030447919853031,0.0005560680292546,-0.005853627808392
1770448309890,-0.2234344482421875,-0.954376220703125,0.1886138916015625,0.002241582609713,-0.0005696501466445,-0.0035691685043275
1770448309901,-0.2248077392578125,-0.9553070068359376,0.190338134765625,0.0003089266829192,0.0003012035158462,-0.0041236383840441
1770448309911,-0.2247161865234375,-0.9549713134765624,0.19189453125,-0.0023086944129318,0.0015659386990591,-0.0027422569692134
1770448309921,-0.2264556884765625,-0.9576568603515624,0.19207763671875,-0.0036203011404722,0.0051942295394837,-0.0052991579286754
1770448309931,-0.22552490234375,-0.9579010009765624,0.190338134765625,-0.006532734259963,0.0066938553936779,-0.0006945523782633
1770448309941,-0.22320556640625,-0.958709716796875,0.1886444091796875,-0.006483731791377,0.0059100869111716,-0.0013270531781017
1770448309951,-0.225341796875,-0.9575042724609376,0.1865386962890625,-0.0075290226377546,0.0067553743720054,-0.0016000272007659
1770448309962,-0.2248077392578125,-0.955963134765625,0.1882781982421875,-0.0121876904740929,0.0087349023669958,-0.0014346449170261
1770448309971,-0.2256317138671875,-0.95196533203125,0.1894989013671875,-0.0128167290240526,0.011043862439692,-0.0020623519085347
1770448309981,-0.2264862060546875,-0.948883056640625,0.188018798828125,-0.010457701049745,0.0086882971227169,-0.0034780884161591
1770448309991,-0.226318359375,-0.9516448974609376,0.183013916015625,-0.0069910641759634,0.0042424155399203,-0.0009736517095007
1770448310001,-0.22515869140625,-0.952392578125,0.185302734375,-0.0046994141303002,0.0010210559703409,0.000778175657615
1770448310011,-0.2242584228515625,-0.954498291015625,0.1868133544921875,-0.0040139164775609,0.0015816513914614,0.0001603222917765
1770448310021,-0.22686767578125,-0.9550628662109376,0.186737060546875,-0.0029193572700023,0.0002790992730297,-0.0012580773327499
1770448310033,-0.2263336181640625,-0.9524078369140624,0.1848907470703125,-0.0008101335843093,0.0020865867845714,0.0011872372124344
1770448310041,-0.2248077392578125,-0.95355224609375,0.1857147216796875,-0.0019382486352697,0.0033947313204407,-0.0001392833219142
1770448310051,-0.2249755859375,-0.955291748046875,0.18572998046875,-0.0013246563030406,0.002281796419993,0.000351537251845
1770448310061,-0.224578857421875,-0.9538421630859376,0.1857147216796875,-0.0005992112564854,0.0023414511233568,-0.0001153148768935
1770448310071,-0.2253570556640625,-0.954498291015625,0.1862640380859375,-0.0010213222121819,0.0025100293569266,0.0008820389630272
1770448310081,-0.22607421875,-0.95440673828125,0.1888275146484375,-0.003319896524772,0.0005819007055833,-0.0001065264441422
1770448310091,-0.2268218994140625,-0.9532318115234376,0.1880340576171875,-0.0038184402510523,0.0023904533591121,-0.0011390339350327
1770448310102,-0.226104736328125,-0.9526214599609376,0.1878814697265625,-0.0070248860865831,0.0015699334908276,-0.0010255833622068
1770448310112,-0.22705078125,-0.9541778564453124,0.1905364990234375,-0.006476807873696,0.0032490564044564,-0.0030413300264626
1770448310122,-0.22540283203125,-0.9531707763671876,0.1880950927734375,-0.0049297772347927,0.0016210661269724,-0.0026511768810451
1770448310132,-0.2241973876953125,-0.9548797607421876,0.187103271484375,-0.0061710770241916,0.0079514002427458,-0.0057100835256278
1770448310142,-0.2262420654296875,-0.952301025390625,0.18560791015625,-0.0030533140525221,-0.0001462075451854,-0.0035545211285352
1770448310152,-0.2211456298828125,-0.9566497802734376,0.1851043701171875,-0.0067971860989928,0.0109823439270257,-0.0070219566114246
1770448310162,-0.22723388671875,-0.952301025390625,0.18994140625,-0.0031734227668493,0.0067801419645547,-0.0013100089272484
1770448310172,-0.2231292724609375,-0.954437255859375,0.1863250732421875,-0.0030607709195464,0.0032618397381156,-4.1278995922766626e-05
1770448310182,-0.2252197265625,-0.9569244384765624,0.186737060546875,-0.0030083067249506,0.0077958712354302,-0.0015105449128895
1770448310192,-0.225830078125,-0.94903564453125,0.1851806640625,0.0017731325933709,0.0041542649269104,-0.0005427522119134
1770448310202,-0.2260589599609375,-0.9493408203125,0.1826019287109375,0.0066517773084342,0.0028655612841248,-0.0033670344855636
1770448310212,-0.2257843017578125,-0.951080322265625,0.1846923828125,0.0050173955969512,-0.0001390170073136,-0.0020764668006449
1770448310222,-0.2219696044921875,-0.9594268798828124,0.1894073486328125,0.0001818939053919,-0.0015970977256074,0.0002548645134083
1770448310232,-0.21966552734375,-0.9646148681640624,0.1926422119140625,-0.0009318400407209,-0.0006961502949707,0.001881523290649
1770448310242,-0.22235107421875,-0.9601593017578124,0.1882781982421875,-0.0016125440597534,-0.0010125337867066,0.0011795139871537
1770448310252,-0.224884033203125,-0.952667236328125,0.18853759765625,-0.0023342606145888,0.0032772859558463,0.0018639464396983
1770448310262,-0.226959228515625,-0.9489288330078124,0.1900482177734375,-0.0053612096235156,0.0108025800436735,-0.0008783105295151
1770448310272,-0.2281951904296875,-0.9479827880859376,0.189422607421875,-0.0073322150856256,0.0104084322229027,-0.0025654230266809
1770448310283,-0.2261199951171875,-0.953948974609375,0.1887359619140625,-0.0040354877710342,0.0039569246582686,-0.002911900402978
1770448310292,-0.22247314453125,-0.960906982421875,0.187347412109375,-0.0050373692065477,0.0020759340841323,0.0004551342281047
1770448310302,-0.2218170166015625,-0.9577484130859376,0.188201904296875,-0.0056664077565073,0.0018727348651736,2.0240024241502397e-05
1770448310313,-0.2269439697265625,-0.9560699462890624,0.1900787353515625,-0.0036253612488508,0.0011781824287027,-0.0020426444243639
1770448310322,-0.2301025390625,-0.946441650390625,0.1881866455078125,-0.0017454357584938,0.0040685110725462,-0.0085727153345942
1770448310333,-0.2284088134765625,-0.955230712890625,0.1869659423828125,0.0049518817104399,-0.0055361790582537,-0.0067577711306512
1770448310343,-0.2194061279296875,-0.9714508056640624,0.1854705810546875,0.0095676723867654,-0.0096752643585205,-0.0022122878581285
1770448310353,-0.2175445556640625,-0.9503936767578124,0.1823883056640625,0.0112153701484203,0.0032714270055294,-0.0100217415019869
1770448310363,-0.230560302734375,-0.931365966796875,0.185455322265625,0.0159137193113565,0.0034748925827443,-0.0135957039892673
1770448310373,-0.2321319580078125,-0.937530517578125,0.1906890869140625,0.0162436850368976,0.0056174057535827,-0.0153890764340758
1770448310383,-0.2253875732421875,-0.9417572021484376,0.190093994140625,0.0139277996495366,0.0069223544560372,-0.0150697631761431
1770448310393,-0.222137451171875,-0.949127197265625,0.1891937255859375,0.0164293069392442,0.0002913498319685,-0.0070706927217543
1770448310403,-0.219696044921875,-0.9593963623046876,0.1895599365234375,0.0164801739156246,-0.0063407202251255,0.0003680488734971
1770448310413,-0.2188873291015625,-0.9625701904296876,0.191314697265625,0.0138987712562084,-0.0048884986899793,0.0062363240867853
1770448310423,-0.221435546875,-0.958343505859375,0.190399169921875,0.0119759691879153,-0.0030069751664996,0.007962585426867
1770448310433,-0.224945068359375,-0.958526611328125,0.183624267578125,0.0117735685780644,-0.0002617887221276,0.0098158791661262
1770448310443,-0.224151611328125,-0.9588165283203124,0.1827545166015625,0.0058749332092702,0.0112063158303499,0.0102574313059449
1770448310453,-0.2213592529296875,-0.9596405029296876,0.1834869384765625,0.0048738508485257,0.0103152217343449,0.0061540324240922
1770448310463,-0.224090576171875,-0.9610137939453124,0.1836395263671875,0.0019110844004899,0.0055130096152424,0.0037619813811033
1770448310473,-0.226593017578125,-0.95703125,0.1892242431640625,-0.0037342845462262,0.0066115637309849,0.0011888351291418
1770448310483,-0.2261962890625,-0.95587158203125,0.1956634521484375,-0.0044607948511838,0.0088691255077719,-0.0018889801576733
1770448310493,-0.2252044677734375,-0.9570770263671876,0.1947479248046875,-0.0018967032665386,0.0069724218919873,-0.0052642705850303
1770448310503,-0.2281494140625,-0.9529571533203124,0.190185546875,0.0075591164641082,-0.001750229508616,-0.0080067934468388
1770448310515,-0.22869873046875,-0.9499359130859376,0.1894378662109375,0.0095218662172555,-0.0051273838616907,-0.0096251964569091
1770448310523,-0.2291107177734375,-0.952911376953125,0.1944732666015625,0.0086305057629942,-0.0034053840208798,-0.0101383877918124
1770448310533,-0.2265625,-0.95367431640625,0.1953125,0.0098726041615009,-0.0037739656399935,-0.0089191924780607
1770448310543,-0.2249908447265625,-0.95306396484375,0.1925048828125,0.0146886650472879,-0.0054387073032557,-0.0082025360316038
1770448310553,-0.2234344482421875,-0.953887939453125,0.186981201171875,0.0206075403839349,-0.0071146348491311,-0.007694671396166
1770448310563,-0.2220916748046875,-0.952362060546875,0.1871490478515625,0.0239665862172842,-0.0042903525754809,-0.0031212246976792
1770448310574,-0.220550537109375,-0.9532470703125,0.1874542236328125,0.0232240967452526,-0.0007424892974086,-0.0026604980230331
1770448310584,-0.220855712890625,-0.95526123046875,0.1893157958984375,0.0201225783675909,-8.81506348378025e-05,0.0014088122406974
1770448310594,-0.219635009765625,-0.957061767578125,0.1919097900390625,0.0153022576123476,-0.0058688079006969,0.0037358824629336
1770448310604,-0.2158966064453125,-0.9599456787109376,0.1974334716796875,0.009759952314198,-0.0047955540940165,0.004765460267663
1770448310614,-0.2166290283203125,-0.9655609130859376,0.20111083984375,-0.0023928501177579,-0.0018407768802717,0.0083727119490504
1770448310624,-0.2198028564453125,-0.9551544189453124,0.1984710693359375,-0.0119868880137801,0.0067561734467744,0.0066555058583617
1770448310634,-0.2268218994140625,-0.9462890625,0.1977691650390625,-0.0185614340007305,0.0098773976787924,0.0035095135681331
1770448310644,-0.22601318359375,-0.944061279296875,0.1984710693359375,-0.0228184964507818,0.0125104654580354,-0.001104412949644
1770448310654,-0.2246551513671875,-0.9471588134765624,0.1977996826171875,-0.0243490152060985,0.0080877542495727,-0.000157392816618
1770448310664,-0.222930908203125,-0.9519500732421876,0.1962432861328125,-0.0240584649145603,0.004512726329267,0.0019142802339047
1770448310674,-0.2232818603515625,-0.9515838623046876,0.194580078125,-0.0219803992658853,0.0030048445332795,0.0022120214998722
1770448310684,-0.2247314453125,-0.950164794921875,0.19183349609375,-0.0230126418173313,0.0021590245887637,0.0030149647500365
1770448310694,-0.2266845703125,-0.9529876708984376,0.191680908203125,-0.0225114338099956,0.0056432383134961,0.0026152241043746
1770448310704,-0.2239990234375,-0.9584503173828124,0.189971923828125,-0.0239410195499658,0.0082858931273221,0.0023576964158564
1770448310714,-0.2231292724609375,-0.9604949951171876,0.1907501220703125,-0.0261367950588464,0.0084339650347828,0.0017867147689685
1770448310724,-0.222198486328125,-0.9595489501953124,0.1898345947265625,-0.0239271707832813,0.0099373189732432,0.0033582460600882
1770448310734,-0.2253570556640625,-0.957550048828125,0.1852569580078125,-0.0208893027156591,0.0079247681424021,0.0003957457374781
1770448310745,-0.2267913818359375,-0.9534912109375,0.1838531494140625,-0.0152585813775658,0.0067433901131153,0.0006213154993019
1770448310754,-0.230499267578125,-0.9495697021484376,0.18408203125,-0.0087018785998225,0.0032016523182392,-0.0031627700664103
1770448310765,-0.2288665771484375,-0.9488372802734376,0.1832275390625,-0.0021579593885689,-0.0001733717799652,0.0001075917098205
1770448310775,-0.2275543212890625,-0.9502716064453124,0.1851654052734375,0.0031577101908624,-0.0008002799004316,0.0015683355741202
1770448310785,-0.2264251708984375,-0.9522552490234376,0.18707275390625,0.0058786617591977,-0.001659682020545,0.0013438310706987
1770448310795,-0.2255096435546875,-0.9535369873046876,0.18896484375,0.0075460667721927,-0.0027134947013109,-0.0010772485984489
1770448310805,-0.2265777587890625,-0.9529876708984376,0.1905517578125,0.0075327511876821,-0.0031851406674832,-0.0001265001483261
1770448310815,-0.2239837646484375,-0.9538421630859376,0.191253662109375,0.0044959485530853,-5.326322025211994e-06,-0.001757686259225
1770448310825,-0.224639892578125,-0.954620361328125,0.1939544677734375,0.0006772418855689,0.0022522353101521,-0.0010351707460358
1770448310835,-0.223907470703125,-0.95416259765625,0.19427490234375,-0.0030815436039119,0.005241101142019,-0.002272475278005
1770448310845,-0.2225341796875,-0.95391845703125,0.1922760009765625,-0.0064376592636108,0.0082536684349179,0.0006197175825946
1770448310855,-0.2234649658203125,-0.9534149169921876,0.1917572021484375,-0.0098507665097713,0.0100915161892771,0.0007962851668708
1770448310865,-0.2234649658203125,-0.9539947509765624,0.1926727294921875,-0.0115269599482417,0.0100230732932686,0.0009643306257203
1770448310875,-0.2254638671875,-0.9526214599609376,0.1926727294921875,-0.0149722918868064,0.0070171630941331,0.0024407871533185
1770448310885,-0.225250244140625,-0.953369140625,0.19482421875,-0.0170452967286109,0.0044552022591233,0.0024908545892685
1770448310895,-0.2244720458984375,-0.95257568359375,0.1959991455078125,-0.0195015296339988,0.0048855687491595,0.0027566379867494
1770448310905,-0.2224273681640625,-0.9535369873046876,0.192474365234375,-0.0224200878292322,0.0026746126823127,0.0008908273885026
1770448310915,-0.222869873046875,-0.957275390625,0.188720703125,-0.0197734385728836,0.0067359334789216,-0.0003960120375268
1770448310925,-0.22625732421875,-0.9523773193359376,0.1881561279296875,-0.0156519301235675,0.0080504696816205,0.0032410670537501
1770448310935,-0.2252197265625,-0.94903564453125,0.1834564208984375,-0.0128375012427568,-0.0003097256412729,0.0036503949668258
1770448310945,-0.2214202880859375,-0.9588623046875,0.188812255859375,-0.0197526663541793,0.0032447953708469,0.0043089943937957
1770448310955,-0.2252960205078125,-0.9547576904296876,0.196319580078125,-0.0265120342373847,0.0121613247320055,0.0029206888284534
1770448310966,-0.228973388671875,-0.951019287109375,0.1930084228515625,-0.0189931318163871,0.0121863586828112,0.0036975329276174
1770448310975,-0.2250213623046875,-0.9509429931640624,0.1823272705078125,-0.0133512252941727,0.007325024344027,0.0031153657473623
1770448310986,-0.2251739501953125,-0.9539337158203124,0.185211181640625,-0.018958244472742,0.0061931810341775,0.0037894118577241
1770448310996,-0.225433349609375,-0.95367431640625,0.1949920654296875,-0.0244976188987493,0.0076483320444822,0.0034107104875147
1770448311006,-0.222991943359375,-0.959747314453125,0.197418212890625,-0.0279791709035635,0.0107264136895537,0.0056704026646912
1770448311016,-0.223876953125,-0.962005615234375,0.1905364990234375,-0.0233684387058019,0.0034298852551728,0.0091471597552299
1770448311026,-0.2213134765625,-0.95941162109375,0.1843414306640625,-0.0232874788343906,0.0013550163712352,0.0081335604190826
1770448311036,-0.22747802734375,-0.952484130859375,0.185882568359375,-0.0225154291838407,0.0033124396577477,0.0065825353376567
1770448311046,-0.22882080078125,-0.94732666015625,0.18572998046875,-0.0220208801329135,0.008282165043056,0.0075809541158378
1770448311056,-0.2273712158203125,-0.9482421875,0.18524169921875,-0.0190559830516576,0.0105823371559381,0.00341736827977
1770448311067,-0.226104736328125,-0.954498291015625,0.1861114501953125,-0.0166199896484613,0.0060440441593527,0.0032439965289086
1770448311076,-0.222442626953125,-0.96063232421875,0.1858062744140625,-0.0137421777471899,0.0049244510009884,0.004326038993895
1770448311086,-0.2214813232421875,-0.9620208740234376,0.1855010986328125,-0.0151414023712277,0.0085085332393646,0.0041723744943737
1770448311096,-0.225982666015625,-0.9555511474609376,0.18548583984375,-0.009516273625195,0.0004708468914031,0.0030876689124852
1770448311106,-0.225921630859375,-0.950653076171875,0.184356689453125,-0.0094041544944047,0.002844522241503,0.0001906823308672
1770448311116,-0.22918701171875,-0.9514312744140624,0.1915283203125,-0.0099493032321333,0.0006085322820581,-0.0027475832030177
1770448311126,-0.2265777587890625,-0.9618377685546876,0.1912078857421875,-0.0064789382740855,-0.0053433664143085,-0.0009158611064776
1770448311136,-0.2199554443359375,-0.9577789306640624,0.1849822998046875,0.0009049421059899,0.0006186523241922,-0.0065716160461306
1770448311146,-0.22906494140625,-0.93817138671875,0.1802215576171875,0.0046458845026791,0.0087162600830197,-0.0138393826782703
1770448311156,-0.2372589111328125,-0.934326171875,0.1864166259765625,0.0061814631335437,0.007643005810678,-0.0135917086154222
1770448311166,-0.230560302734375,-0.9351043701171876,0.1875457763671875,0.0052765212021768,0.0065298047848045,-0.0141983767971396
1770448311176,-0.2232666015625,-0.9489898681640624,0.193023681640625,0.0052765212021768,0.0065298047848045,-0.0141983767971396
1770448311186,-0.2210540771484375,-0.9605712890625,0.195465087890625,-0.0033238914329558,0.0051982239820063,-0.0058091534301638
1770448311196,-0.218994140625,-0.9663848876953124,0.19012451171875,-0.0115346834063529,0.0013851100811734,0.0044855619780719
1770448311206,-0.2216949462890625,-0.964019775390625,0.1878204345703125,-0.01411874871701,0.0014988270122557,0.0125232487916946
1770448311217,-0.2218475341796875,-0.96099853515625,0.183807373046875,-0.0227178297936916,0.0010996191995218,0.0143682863563299
1770448311227,-0.2220611572265625,-0.963531494140625,0.1856689453125,-0.0361428223550319,0.0080536650493741,0.0141437817364931
1770448311237,-0.224578857421875,-0.9588775634765624,0.1903228759765625,-0.0418515764176845,0.0133216641843318,0.0133866453543305
1770448311247,-0.2271575927734375,-0.9557342529296876,0.187286376953125,-0.0441602692008018,0.0162559356540441,0.0114369448274374
1770448311257,-0.226654052734375,-0.955230712890625,0.182464599609375,-0.042839340865612,0.013693175278604,0.0104337325319647
1770448311267,-0.2268524169921875,-0.9554595947265624,0.18585205078125,-0.0408414378762245,0.0160530023276805,0.0056102150119841
1770448311277,-0.2299346923828125,-0.954071044921875,0.1875,-0.0360101982951164,0.0094329165294766,-0.001790709560737
1770448311287,-0.23291015625,-0.9602508544921876,0.186309814453125,-0.0342573076486587,-0.0065793395042419,0.0021318604703992
1770448311298,-0.2250823974609375,-0.9481048583984376,0.1904144287109375,-0.0290383100509643,0.0017092167399823,-0.0057447045110166
1770448311307,-0.2310028076171875,-0.95257568359375,0.182403564453125,-0.0183808710426092,-0.002241582609713,-0.0037851508241146
1770448311317,-0.22894287109375,-0.9560394287109376,0.1789093017578125,-0.0108787463977932,-0.0058653457090258,-0.0045233792625367
1770448311327,-0.2272186279296875,-0.9575653076171876,0.1759490966796875,-0.0022434468846768,-0.0056520267389714,-0.0056451023556292
1770448311337,-0.226837158203125,-0.9538421630859376,0.1787567138671875,0.0047295079566538,-0.0011864382540807,-0.0039425436407327
1770448311347,-0.2247314453125,-0.9538116455078124,0.1774444580078125,0.0120228407904505,-0.0005163869354873,-0.0024466461036354
1770448311357,-0.223175048828125,-0.95501708984375,0.1732330322265625,0.0201798360794782,0.0007384945638477,-0.0006175870657898
1770448311367,-0.22235107421875,-0.955657958984375,0.1736297607421875,0.0233298242092132,-0.0022748722694814,0.0042093922384083
1770448311377,-0.2210693359375,-0.9609527587890624,0.1800689697265625,0.0203585345298051,-0.0038378813769668,0.0074997278861701
1770448311387,-0.22039794921875,-0.965362548828125,0.1852874755859375,0.0171667356044054,-0.0038077877834439,0.0065633603371679
1770448311397,-0.2169952392578125,-0.965423583984375,0.18609619140625,0.0153171708807349,-0.0018250643042847,0.0086036082357168
1770448311407,-0.2238922119140625,-0.953765869140625,0.1841888427734375,0.0091642038896679,0.0010183927370235,0.005585447885096
1770448311417,-0.2308502197265625,-0.9488372802734376,0.1879425048828125,0.0068565746769309,0.0030884679872542,0.0035071168094873
1770448311428,-0.22845458984375,-0.945159912109375,0.1878814697265625,0.0013701963471248,0.0087958881631493,-0.0007795072160661
1770448311438,-0.2272186279296875,-0.944732666015625,0.1877288818359375,0.0016184030100703,0.0058762650005519,-0.0027300063520669
1770448311448,-0.2262725830078125,-0.95281982421875,0.1884307861328125,0.0021204089280217,0.0049891658127307,-0.002215217333287
1770448311458,-0.2243804931640625,-0.9542999267578124,0.1860809326171875,0.00099042954389,0.0056560216471552,-0.0009917612187564
1770448311468,-0.224853515625,-0.9526824951171876,0.1862030029296875,0.0019917781464755,0.0050815776921808,0.0015885755419731
1770448311478,-0.2279205322265625,-0.9558868408203124,0.1876373291015625,-0.0012535499408841,0.0074800206348299,-0.0005094627267681
1770448311488,-0.227325439453125,-0.9579620361328124,0.1877593994140625,-0.0061995727010071,0.0077652451582252,-0.0001123853944591
1770448311498,-0.22607421875,-0.95758056640625,0.1891021728515625,-0.0082020033150911,0.0106356004253029,0.0033728934358805
1770448311508,-0.2251739501953125,-0.95751953125,0.1888580322265625,-0.0101948464289307,0.0086725838482379,0.0032093753106892
1770448311518,-0.22705078125,-0.955047607421875,0.1854095458984375,-0.0113128423690795,0.0052416333928704,0.0020463729742914
1770448311531,-0.228057861328125,-0.9509124755859376,0.1858673095703125,-0.0119871543720364,0.0037976677995175,0.0011054781498387
1770448311538,-0.22955322265625,-0.949066162109375,0.1861114501953125,-0.0114084491506218,0.0044046021066606,0.0021001687273383
1770448311550,-0.2269134521484375,-0.9502410888671876,0.185302734375,-0.0086060054600238,0.0047090016305446,0.0010367685463279
1770448311558,-0.2276153564453125,-0.9520263671875,0.1832122802734375,-0.0038735677953809,0.0028170917648822,0.001154746627435
1770448311568,-0.2269287109375,-0.9539794921875,0.184051513671875,-0.0040219058282673,0.0009672601008787,0.0020623519085347
1770448311578,-0.2272186279296875,-0.953216552734375,0.1871490478515625,-0.0066408584825694,-0.0004985437262803,0.0035268242936581
1770448311588,-0.2274322509765625,-0.9532623291015624,0.189727783203125,-0.0090158656239509,0.0011544802691787,0.0030312100425362
1770448311598,-0.22589111328125,-0.9541778564453124,0.1891326904296875,-0.010038785636425,0.0025276062078773,0.0022295983508229
1770448311608,-0.224365234375,-0.954315185546875,0.1858673095703125,-0.0080089243128895,0.000761397765018,0.0010514160385355
1770448311618,-0.226318359375,-0.95440673828125,0.1819915771484375,-0.0087764477357268,0.0007808388327248,0.0028000476304441
1770448311628,-0.225616455078125,-0.9547119140625,0.1853790283203125,-0.0101873902603983,0.0020591560751199,0.0027001791168004
1770448311639,-0.2261199951171875,-0.9546966552734376,0.1872406005859375,-0.0131738586351275,0.0067074373364448,0.0029840720817446
1770448311649,-0.22625732421875,-0.9552001953125,0.187652587890625,-0.0143616283312439,0.0069367354735732,0.0011669971281662
1770448311659,-0.2275390625,-0.953887939453125,0.18536376953125,-0.0132516231387853,0.0047063380479812,0.003287139814347
1770448311669,-0.2262115478515625,-0.9538726806640624,0.18438720703125,-0.0109397331252694,0.0048245824873447,0.0023987090680748
1770448311679,-0.2272186279296875,-0.9545135498046876,0.1846160888671875,-0.0097024282440543,0.0038195056840777,-0.0001611212501302
1770448311689,-0.2261199951171875,-0.953704833984375,0.1831512451171875,-0.0064291371963918,0.0017294568242505,-0.0014674017438665
1770448311699,-0.2263031005859375,-0.953125,0.1816253662109375,-0.0018524948973208,2.103897168126423e-05,-0.0008117315010167
1770448311709,-0.22705078125,-0.9523773193359376,0.1798858642578125,0.0035262915771454,0.0028069717809557,-0.001929193851538
1770448311719,-0.2275238037109375,-0.95233154296875,0.1812744140625,0.0028391960076987,0.0029278793372213,-0.0008562062866985
1770448311729,-0.2276458740234375,-0.952728271484375,0.1852874755859375,0.0053068809211254,0.0036791570018976,0.0015462313313037
1770448311739,-0.2264404296875,-0.9526824951171876,0.1833343505859375,0.0060802628286182,0.0026109630707651,0.0017861821688711
1770448311749,-0.2261962890625,-0.9565582275390624,0.18463134765625,0.0037103160284459,0.0052727926522493,0.0039233691059052
1770448311759,-0.2265167236328125,-0.954132080078125,0.18707275390625,0.0039167110808193,0.0060786651447415,-8.57537888805382e-05
1770448311769,-0.226593017578125,-0.95391845703125,0.184326171875,0.0064480453729629,0.0013369068037718,-0.0005387574783526
1770448311779,-0.225067138671875,-0.960693359375,0.1829681396484375,0.0069468556903302,-0.0052224588580429,0.0029121665284037
1770448311789,-0.2234649658203125,-0.9640960693359376,0.18572998046875,0.0060379188507795,-0.0025435851421207,0.0063308663666248
1770448311799,-0.2243499755859375,-0.957916259765625,0.188995361328125,0.0038517299108207,0.0001898833870654,0.0036011263728141
1770448311809,-0.228118896484375,-0.9488525390625,0.188232421875,0.002738528419286,0.0023989754263311,0.0022367890924215
1770448311819,-0.2298431396484375,-0.9480133056640624,0.186370849609375,0.0010764497565105,0.0044980789534747,0.0035214978270232
1770448311829,-0.2289886474609375,-0.9515838623046876,0.187286376953125,0.0001512675517005,0.0032743564806878,0.0022210762836039
1770448311840,-0.2239837646484375,-0.9588165283203124,0.18743896484375,-0.0002868224401026,0.0048626656644046,0.0028029771056026
1770448311849,-0.223968505859375,-0.9557952880859376,0.1861572265625,0.0014852449530735,0.0059218048118054,0.0056917080655694
1770448311859,-0.22515869140625,-0.954681396484375,0.1845855712890625,0.0028541097417473,-0.0028751487843692,0.0067359334789216
1770448311870,-0.22589111328125,-0.9570465087890624,0.1869354248046875,0.0038277613930404,-0.0016924388473853,0.0050637344829738
1770448311880,-0.2276611328125,-0.9498138427734376,0.186126708984375,0.0089564770460128,-0.0014950985787436,-0.0022825952619314
1770448311890,-0.230194091796875,-0.946563720703125,0.18414306640625,0.015949672088027,-0.0075375447049736,-0.0017568873008713
1770448311900,-0.22528076171875,-0.9655914306640624,0.1819000244140625,0.0219905190169811,-0.0154860150068998,-0.0015520902816206
1770448311910,-0.2237701416015625,-0.95623779296875,0.181610107421875,0.0251567512750625,-0.0049979542382061,-0.0060363207012414
1770448311920,-0.232757568359375,-0.9379730224609376,0.1828765869140625,0.0288215279579162,-0.0005193164106458,-0.0095666069537401
1770448311930,-0.2349853515625,-0.9326171875,0.1856689453125,0.032271385192871,0.0049979542382061,-0.0154306218028068
1770448311940,-0.2342376708984375,-0.93548583984375,0.1865081787109375,0.0286146011203527,0.0048014130443334,-0.0145163582637906
1770448311950,-0.22802734375,-0.948883056640625,0.190185546875,0.027948010712862,-0.0007701861904934,-0.0081735076382756
1770448311960,-0.22265625,-0.9594268798828124,0.1898040771484375,0.0255357194691896,-0.0096821887418627,-0.0019859191961586
1770448311970,-0.222259521484375,-0.9617462158203124,0.1882171630859375,0.0263141617178916,-0.0123077984899282,0.0022887205705046
1770448311980,-0.2245941162109375,-0.9584197998046876,0.18341064453125,0.0311517938971519,-0.015115569345653,0.0049433596432209
1770448311990,-0.2267303466796875,-0.95916748046875,0.181854248046875,0.0292257964611053,-0.0080129187554121,0.0054570832289755
1770448312000,-0.22528076171875,-0.9588470458984376,0.183868408203125,0.0308276880532503,-0.00688480399549,0.0067074373364448
1770448312010,-0.2256927490234375,-0.9579925537109376,0.18109130859375,0.0330200009047985,-0.007505586836487,0.0056546898558735
1770448312020,-0.2269134521484375,-0.9580230712890624,0.186279296875,0.0299685522913932,-0.0029718214645981,0.0035955337807536
1770448312030,-0.2277069091796875,-0.955047607421875,0.191314697265625,0.0307440645992755,-0.0011347729014232,0.0019204054260626
1770448312040,-0.225830078125,-0.956024169921875,0.192474365234375,0.034230675548315,-0.0032543828710913,-0.0019843212794512
1770448312050,-0.228759765625,-0.9558563232421876,0.191162109375,0.0392065234482288,-0.0083665866404771,-0.00721130752936
1770448312060,-0.23028564453125,-0.9536895751953124,0.1912689208984375,0.0429767630994319,-0.0163858979940414,-0.0117884827777743
1770448312071,-0.231109619140625,-0.953521728515625,0.1943206787109375,0.0429762303829193,-0.018410699442029,-0.0113109778612852
1770448312081,-0.227508544921875,-0.953765869140625,0.199188232421875,0.0426752902567386,-0.0241676531732082,-0.0125277759507298
1770448312091,-0.227264404296875,-0.9513397216796876,0.19708251953125,0.0438164547085762,-0.0208490882068872,-0.0120420157909393
1770448312101,-0.2261810302734375,-0.9514617919921876,0.1937713623046875,0.0453142188489437,-0.0160522032529115,-0.0093716634437441
1770448312111,-0.2249298095703125,-0.9507904052734376,0.195709228515625,0.0417881943285465,-0.0072091771289706,-0.0071095749735832
1770448312121,-0.2229461669921875,-0.9505157470703124,0.196197509765625,0.0409721992909908,-0.0047971522435545,-0.0052869073115289
1770448312131,-0.2239227294921875,-0.9510040283203124,0.1945953369140625,0.0405780524015426,-0.0037657096982002,-0.0017678063595667
1770448312141,-0.222564697265625,-0.9546051025390624,0.1955413818359375,0.0356964766979217,-0.0063295350410044,0.0030980552546679
1770448312151,-0.2198944091796875,-0.9593048095703124,0.199371337890625,0.0279602613300085,-0.0056427055969834,0.0038378813769668
1770448312161,-0.2173614501953125,-0.9663848876953124,0.2023162841796875,0.0195795595645904,-0.0050440272316336,0.0059652146883308
1770448312171,-0.2198944091796875,-0.96173095703125,0.201202392578125,0.0140234073624014,-0.0004812332044821,0.0078970715403556
1770448312181,-0.225738525390625,-0.9492645263671876,0.200347900390625,0.00491379853338,0.0026200178544968,0.0047335023991763
1770448312191,-0.228271484375,-0.943572998046875,0.204742431640625,-0.0054669370874762,0.0058176754973828,0.0010652644559741
1770448312201,-0.2284393310546875,-0.940460205078125,0.206207275390625,-0.0110225575044751,0.007577758282423,-0.0011728560784831
1770448312211,-0.228118896484375,-0.9414215087890624,0.2045440673828125,-0.0138066262006759,0.0058818575926125,-0.00059042283101
1770448312221,-0.2264251708984375,-0.9489593505859376,0.2021331787109375,-0.014707307331264,0.0038994003552943,0.0014442323008552
1770448312231,-0.22564697265625,-0.9486083984375,0.1988067626953125,-0.0135158086195588,-4.5540054998127744e-05,-4.5273736759554595e-06
1770448312241,-0.228424072265625,-0.9504241943359376,0.19720458984375,-0.0125714521855115,-0.0036892769858241,0.0005534048541449
1770448312251,-0.2290191650390625,-0.9555816650390624,0.200103759765625,-0.0151896057650446,0.0004253068182151,0.0030826090369373
1770448312261,-0.225921630859375,-0.956939697265625,0.1987457275390625,-0.0175230670720338,0.0046690539456903,0.0028067054226994
1770448312272,-0.2244873046875,-0.9571380615234376,0.196075439453125,-0.0176458396017551,0.0080265011638402,0.002274605911225
1770448312281,-0.2256317138671875,-0.9572601318359376,0.19305419921875,-0.0135759962722659,0.00849468447268,0.0007424892974086
1770448312291,-0.2261199951171875,-0.9542999267578124,0.1909332275390625,-0.0108116352930665,0.0082866922020912,-0.0012466256739571
1770448312302,-0.2269744873046875,-0.9521942138671876,0.1917724609375,-0.0106254797428846,0.0079830912873148,-0.0016114787431433
1770448312312,-0.228271484375,-0.9488372802734376,0.1939697265625,-0.0062866578809916,0.0056530921719968,-0.0021726067643612
1770448312322,-0.228546142578125,-0.9470062255859376,0.1934356689453125,0.0001989381271414,-0.002004028763622,-0.0034730283077806
1770448312332,-0.2282562255859375,-0.948394775390625,0.192840576171875,0.0069678947329521,-0.0077031934633851,-0.0009131979313679
1770448312342,-0.2266082763671875,-0.951171875,0.1953887939453125,0.0088251829147338,-0.0076067871414124,0.0006870955694466
1770448312352,-0.226318359375,-0.9495697021484376,0.1975555419921875,0.0108161624521017,-0.0086600668728351,0.0008721852791495
1770448312362,-0.2256927490234375,-0.95263671875,0.19683837890625,0.0119695775210857,-0.0079149147495627,0.0027925907634198
1770448312372,-0.2256927490234375,-0.9516143798828124,0.197174072265625,0.01152562815696,-0.0069378009065985,-0.0011065434664487
1770448312382,-0.2267913818359375,-0.9530029296875,0.1966552734375,0.0064808023162186,-0.003956391941756,-0.0006601976347155
1770448312392,-0.2238616943359375,-0.9518585205078124,0.1991424560546875,0.002004028763622,0.0028365328907966,-0.0016056197928264
1770448312402,-0.2246246337890625,-0.9528961181640624,0.2008056640625,-0.0025153555907309,0.0073660369962453,-0.0039606532081961
1770448312412,-0.2252655029296875,-0.9520111083984376,0.200042724609375,-0.0067298081703484,0.0066605657339096,-0.0016588830621913
1770448312422,-0.226470947265625,-0.95257568359375,0.199371337890625,-0.008583634160459,0.0082246400415897,-0.0028586371336132
1770448312432,-0.2259521484375,-0.95330810546875,0.1974639892578125,-0.0091652683913707,0.0039734365418553,-0.0017006946727633
1770448312442,-0.2250823974609375,-0.9533538818359376,0.19793701171875,-0.0100683467462658,0.0011845740955322,-0.0009515474666841
1770448312452,-0.225738525390625,-0.9522247314453124,0.1993255615234375,-0.0107165602967143,-0.0003137203748337,0.0003022687742486
1770448312462,-0.22540283203125,-0.9496917724609376,0.1999969482421875,-0.0139416484162211,-0.0017840516520664,-0.000541686953511
1770448312473,-0.225799560546875,-0.951568603515625,0.1995086669921875,-0.0131906364113092,-0.0013635384384542,-0.0004948153509758
1770448312482,-0.2264862060546875,-0.951141357421875,0.197113037109375,-0.012834838591516,-0.0001866875973064,0.0009954896522685
1770448312492,-0.224945068359375,-0.9500732421875,0.1975250244140625,-0.0141800008714199,0.0008482168195769,0.0019848539959639
1770448312503,-0.226226806640625,-0.9499969482421876,0.1956024169921875,-0.011447331868112,0.0031212246976792,0.0011496866354718
1770448312516,-0.2280426025390625,-0.949859619140625,0.193756103515625,-0.0088720545172691,0.0044362936168909,0.0018604843644425
1770448312523,-0.2266998291015625,-0.94915771484375,0.194000244140625,-0.0085293063893914,0.0059175440110266,0.0021750037558376
1770448312533,-0.2261962890625,-0.94720458984375,0.1959228515625,-0.0101189464330673,0.0076536587439477,-7.137271313695237e-05
1770448312543,-0.2276611328125,-0.9470672607421876,0.197845458984375,-0.0100102899596095,0.0040823593735694,-0.0020711403340101
1770448312553,-0.22662353515625,-0.9566497802734376,0.1973724365234375,-0.008847021497786,-0.0028578380588442,0.0002173139364458
1770448312563,-0.2232666015625,-0.9637298583984376,0.197296142578125,-0.008748217485845,-0.002045574132353,0.0025811356026679
1770448312573,-0.224273681640625,-0.9609527587890624,0.1948394775390625,-0.0115357488393783,0.0003307645965833,0.0030045784078538
1770448312583,-0.2274627685546875,-0.95306396484375,0.1972808837890625,-0.0122284367680549,0.0067234165035188,-0.001750495750457
1770448312593,-0.2294158935546875,-0.94854736328125,0.19891357421875,-0.0163491461426019,0.0084861628711223,-0.0001121190798585
1770448312603,-0.2286224365234375,-0.9462738037109376,0.195953369140625,-0.0161185152828693,0.0094190677627921,-0.0005645901546813
1770448312613,-0.2288818359375,-0.9483795166015624,0.1939697265625,-0.0136140789836645,0.0070587084628641,-0.0040701092220842
1770448312623,-0.226226806640625,-0.9553680419921876,0.1906585693359375,-0.006843258626759,0.001865011639893,-0.0027465180028229
1770448312633,-0.2236328125,-0.9560546875,0.18902587890625,-0.0006346312584355,-5.512743518920615e-05,-0.0019957728218287
1770448312643,-0.22454833984375,-0.9589996337890624,0.1925811767578125,0.0019755328539758,-0.0056211338378489,-0.0020919130183756
1770448312653,-0.2267303466796875,-0.954193115234375,0.19476318359375,0.0051207263022661,-0.0003147856332361,-0.0083924196660518
1770448312663,-0.2291107177734375,-0.9431915283203124,0.1962738037109375,0.0074251592159271,-0.006140983197838,-0.0088353035971522
1770448312673,-0.2271881103515625,-0.959625244140625,0.19842529296875,0.0107916612178087,-0.0151206292212009,-0.0044011399149894
1770448312683,-0.2191619873046875,-0.96185302734375,0.196075439453125,0.0162085313349962,-0.0036924728192389,-0.0128702586516737
1770448312693,-0.2328338623046875,-0.944244384765625,0.1895294189453125,0.0132092786952853,-0.0083884242922067,-0.0110302809625864
1770448312703,-0.2276763916015625,-0.924560546875,0.2021942138671875,0.017565943300724,-0.0029609024059027,-0.0150481918826699
1770448312713,-0.22467041015625,-0.9347991943359376,0.1971893310546875,0.0142724132165312,5.193164179218002e-05,-0.0131821148097515
1770448312724,-0.2257232666015625,-0.94219970703125,0.2025604248046875,0.0092046838253736,-0.000429301551776,-0.0126862339675426
1770448312734,-0.223114013671875,-0.950531005859375,0.2051849365234375,0.0049457564018666,-0.0068949242122471,-0.0045185852795839
1770448312744,-0.2216644287109375,-0.9598541259765624,0.2049407958984375,-0.0031819448340684,-0.0050898334011435,-0.0006420881254598
1770448312754,-0.219085693359375,-0.9633636474609376,0.2056427001953125,-0.0094129424542188,0.0011853729374706,0.004269313532859
1770448312764,-0.21954345703125,-0.964263916015625,0.1995697021484375,-0.0214080866426229,0.0073284865356981,0.0076448703184723
1770448312774,-0.22137451171875,-0.9608306884765624,0.1987762451171875,-0.0326346419751644,0.0118260327726602,0.0071955947205424
1770448312784,-0.2245025634765625,-0.9600677490234376,0.1966094970703125,-0.0452588237822055,0.016728913411498,0.0107154948636889
1770448312794,-0.2241668701171875,-0.9586944580078124,0.198486328125,-0.0541567131876945,0.0219143535941839,0.0094464989379048
1770448312804,-0.225555419921875,-0.95550537109375,0.1981658935546875,-0.0546784251928329,0.0220046341419219,0.0091895032674074
1770448312815,-0.226287841796875,-0.9528350830078124,0.194976806640625,-0.0495995096862316,0.0158077254891395,0.0089295795187354
1770448312824,-0.2286834716796875,-0.9507904052734376,0.1915435791015625,-0.0434420146048069,0.0092172008007764,0.0057324543595314
1770448312834,-0.2299957275390625,-0.9503021240234376,0.1924896240234375,-0.0347214937210083,0.0005709817050956,0.0019699402619153
1770448312844,-0.231231689453125,-0.949310302734375,0.1917572021484375,-0.0235889498144388,-0.0032898029312491,6.684534309897572e-05
1770448312854,-0.2311859130859375,-0.9493865966796876,0.191009521484375,-0.0124223148450255,-0.003556917887181,-0.0062397862784564
1770448312864,-0.2304229736328125,-0.9525299072265624,0.185150146484375,0.0009821738349273,-0.0102680837735533,-0.0079308934509754
1770448312874,-0.228302001953125,-0.954254150390625,0.1813812255859375,0.0129637354984879,-0.0112936673685908,-0.011453989893198
1770448312884,-0.227935791015625,-0.9540863037109376,0.183837890625,0.0224738828837871,-0.0099064270034432,-0.0122303012758493
1770448312894,-0.225921630859375,-0.95458984375,0.185577392578125,0.0323534123599529,-0.0100513026118278,-0.0090334424749016
1770448312904,-0.222747802734375,-0.9547882080078124,0.1824951171875,0.0398424863815307,-0.0091117396950721,-0.0088587393984198
1770448312915,-0.2234039306640625,-0.954986572265625,0.186187744140625,0.0403791144490242,-0.006214752793312,-0.005953496787697
1770448312924,-0.2245025634765625,-0.953765869140625,0.19134521484375,0.039165511727333,-0.0037950044497847,-0.0038892803713679
1770448312935,-0.2228546142578125,-0.956878662109375,0.1967926025390625,0.0396206453442573,-0.0093429014086723,-0.0043292348273098
1770448312944,-0.22076416015625,-0.9618072509765624,0.19940185546875,0.033295638859272,-0.0093804523348808,-0.0006085322820581
1770448312955,-0.2187652587890625,-0.960052490234375,0.20391845703125,0.0193507950752973,-0.0058150123804807,0.0013957626651972
1770448312965,-0.225433349609375,-0.9494781494140624,0.20306396484375,0.0096113486215472,0.0004364920896477,0.0003225088003091
1770448312975,-0.228118896484375,-0.9445648193359376,0.2037200927734375,0.0038860845379531,0.0051659997552633,-0.0049649314023554
1770448312985,-0.2266082763671875,-0.940338134765625,0.2027435302734375,-0.0033473272342234,0.0108859371393918,-0.0084105292335152
1770448312995,-0.22369384765625,-0.9464111328125,0.2028656005859375,-0.0034514567814767,0.0098502337932586,-0.0070158313028514
1770448313005,-0.222015380859375,-0.9489898681640624,0.201080322265625,-0.0029316076543182,0.0094592813402414,-0.0087434239685535
1770448313015,-0.223663330078125,-0.9493560791015624,0.1990203857421875,0.0006556702428497,0.0063780043274164,-0.0055644088424742
1770448313025,-0.22650146484375,-0.95086669921875,0.1960906982421875,0.0016634104540571,0.0002338255435461,-0.000875913654454
1770448313035,-0.2238006591796875,-0.9549713134765624,0.2004852294921875,-0.0059771984815597,0.0062259379774332,-1.0386328540334944e-05
1770448313045,-0.222808837890625,-0.95404052734375,0.20623779296875,-0.0130441626533865,0.012908075004816,-8.362325752386823e-05
1770448313055,-0.224639892578125,-0.9544830322265624,0.2026519775390625,-0.0145997153595089,0.0120606571435928,-0.0002082591963699
1770448313065,-0.2254638671875,-0.9566497802734376,0.1968841552734375,-0.0121911522001028,0.0080768344923853,0.0011393002932891
1770448313075,-0.225189208984375,-0.955047607421875,0.1927337646484375,-0.0110068451613187,0.0045319013297557,0.000630370224826
1770448313085,-0.2256927490234375,-0.950164794921875,0.19647216796875,-0.0110824787989258,0.0078235678374767,0.0004564658156596
1770448313095,-0.226043701171875,-0.94647216796875,0.196807861328125,-0.010456102900207,0.0081660505384206,0.0008902947301976
1770448313105,-0.2278594970703125,-0.9492645263671876,0.1942138671875,-0.006663495209068,0.0032418658956885,0.0018988338997587
1770448313115,-0.2244110107421875,-0.9525146484375,0.19268798828125,-0.0020287961233407,0.0039393478073179,0.0012860405258834
1770448313125,-0.224273681640625,-0.9530029296875,0.1940765380859375,0.0030956584960222,0.0003230414295103,0.0027403926942497
1770448313135,-0.22314453125,-0.951141357421875,0.195770263671875,0.0058363173156976,-0.0034671693574637,0.0042000710964202
1770448313145,-0.223724365234375,-0.949615478515625,0.1956634521484375,0.0073399380780756,-0.0017901768442243,0.0074954666197299
1770448313155,-0.2253875732421875,-0.9518280029296876,0.19696044921875,0.0088483523577451,0.0009771138429641,0.0088579403236508
1770448313166,-0.22576904296875,-0.9509735107421876,0.1941986083984375,0.012261725962162,-0.0002314286975888,0.0082432823255658
1770448313176,-0.2252960205078125,-0.949432373046875,0.1936798095703125,0.0149736227467656,-0.0003579288604669,0.0092776538804173
1770448313186,-0.2265167236328125,-0.9493408203125,0.1917572021484375,0.0205444227904081,-8.309062832267955e-05,0.0059606870636343
1770448313196,-0.2259979248046875,-0.9537200927734376,0.190948486328125,0.0211391076445579,-0.0019659455865621,0.0079034632071852
1770448313206,-0.22027587890625,-0.9530029296875,0.1960906982421875,0.0211273897439241,0.0047513456083834,0.006598247680813
1770448313216,-0.2236328125,-0.955902099609375,0.1964874267578125,0.0196964722126722,0.0051558800041675,0.0077612502500414
1770448313226,-0.2227630615234375,-0.954315185546875,0.2019195556640625,0.0190360099077224,0.0121538685634732,0.001030909596011
1770448313236,-0.2283172607421875,-0.9561767578125,0.19781494140625,0.0212323181331157,0.0018610169645398,0.0017273263074457
1770448313246,-0.225860595703125,-0.946441650390625,0.200408935546875,0.0248334445059299,-0.0005185174522921,0.0030794132035225
1770448313256,-0.2262115478515625,-0.94842529296875,0.1995391845703125,0.0268358755856752,-0.0026796725578606,-0.0004769721417687
1770448313266,-0.2324981689453125,-0.9489898681640624,0.1997528076171875,0.0226789470762014,-0.0020817930344492,-0.0024575649295002
1770448313276,-0.2307281494140625,-0.9477081298828124,0.2063140869140625,0.0192519910633564,-0.0030439931433647,-0.0040378849953413
1770448313286,-0.2301788330078125,-0.951141357421875,0.2058563232421875,0.0126604018732905,0.005837382748723,-0.0033033851068466
1770448313296,-0.22283935546875,-0.9517669677734376,0.2048797607421875,0.0088808434084057,0.0052871736697852,-0.0025044367648661
1770448313306,-0.2219085693359375,-0.9478912353515624,0.200958251953125,0.0045907571911811,0.0091783180832862,-0.004366785287857
1770448313316,-0.2247772216796875,-0.9484710693359376,0.2056732177734375,0.0030381341930478,0.0110867395997047,-0.0056086173281073
1770448313326,-0.2241973876953125,-0.95050048828125,0.2032012939453125,0.0003917510039173,0.0084398239850997,-0.0018703379901126
1770448313336,-0.2217254638671875,-0.9597930908203124,0.2006988525390625,0.0001997370854951,0.0069029135629534,0.0038317560683935
1770448313346,-0.2198944091796875,-0.96038818359375,0.2015838623046875,0.0026088326703757,0.0061114220879971,0.0063790697604417
1770448313356,-0.2231292724609375,-0.95513916015625,0.1993560791015625,0.0023600934073328,0.0017022925894707,0.0064373929053545
1770448313367,-0.22784423828125,-0.949371337890625,0.203948974609375,-0.0049979542382061,0.0105280084535479,0.0097072217613458
1770448313377,-0.22564697265625,-0.9464569091796876,0.2085113525390625,-0.0103405220434069,0.0162471458315849,0.0090171974152326
1770448313387,-0.2286376953125,-0.944732666015625,0.2046966552734375,-0.015141668729484,0.0155270276591181,0.0038703719619661
1770448313397,-0.2312469482421875,-0.94866943359375,0.2040252685546875,-0.0153435366228222,0.0096273273229599,0.0041172471828758
1770448313407,-0.2291107177734375,-0.95599365234375,0.205169677734375,-0.0187649000436067,0.0049084722995758,0.006844856776297
1770448313417,-0.2235260009765625,-0.95751953125,0.2047882080078125,-0.0210954323410987,0.0091426316648721,0.0034653050824999
1770448313427,-0.224609375,-0.9541473388671876,0.2024688720703125,-0.0157968066632747,0.0050743869505822,-0.002045574132353
1770448313437,-0.227294921875,-0.944549560546875,0.1933746337890625,-0.0118880849331617,0.0035361452028155,-0.0026032398454844
1770448313447,-0.226593017578125,-0.951416015625,0.199371337890625,-0.0121711790561676,0.0015579492319375,0.0039808931760489
1770448313457,-0.217376708984375,-0.967498779296875,0.2023162841796875,-0.0044418862089514,0.0001677791442489,0.0052975597791373
1770448313467,-0.2179412841796875,-0.9495697021484376,0.1928558349609375,0.0035981968976557,0.0056235310621559,0.005257346201688
1770448313477,-0.226898193359375,-0.9332122802734376,0.192535400390625,0.0014482269762083,0.0248728599399328,0.0035939358640462
1770448313487,-0.23065185546875,-0.9341583251953124,0.20263671875,0.0157451406121253,0.0171749927103519,0.0027214842848479
1770448313497,-0.2340545654296875,-0.931304931640625,0.1877593994140625,0.0375734753906726,-0.0076459352858364,0.0006767092272639
1770448313507,-0.2333221435546875,-0.9424896240234376,0.18414306640625,0.036429114639759,-0.0083585977554321,0.0080821616575121
1770448313517,-0.2225799560546875,-0.95269775390625,0.2082977294921875,0.0332263968884944,-0.0042629218660295,0.0096049569547176
1770448313527,-0.2237396240234375,-0.9599761962890624,0.206817626953125,0.0283453557640314,-0.0117613179609179,0.0068797441199421
1770448313537,-0.22918701171875,-0.959716796875,0.20111083984375,0.0239311661571264,-0.0119306957349181,0.003476756857708
1770448313547,-0.2292327880859375,-0.9618988037109376,0.1984405517578125,0.0222754776477813,-0.0118002006784081,-0.0016532903537154
1770448313557,-0.2296905517578125,-0.9620208740234376,0.1949310302734375,0.01349663361907,-0.0036211002152413,-0.004995291121304
1770448313568,-0.22918701171875,-0.9603118896484376,0.19964599609375,0.0015409049810841,0.0104776741936802,-0.0061854580417275
1770448313577,-0.2231597900390625,-0.9610137939453124,0.2032470703125,-0.0058102183975279,0.013879862613976,-0.004285292699933
1770448313587,-0.226776123046875,-0.9544219970703124,0.205078125,-0.0073569826781749,0.0104941865429282,-0.0056184707209467
1770448313598,-0.231048583984375,-0.94921875,0.204193115234375,-0.0059007657691836,0.0047979508526623,-0.0046903593465685
1770448313608,-0.2298736572265625,-0.9483795166015624,0.2067718505859375,-0.0050184605643153,0.0026213494129478,-0.0044373590499162
1770448313618,-0.22808837890625,-0.948028564453125,0.2102203369140625,-0.0027891285717487,-0.0002916161320172,-0.0022892532870173
1770448313628,-0.2289886474609375,-0.9449920654296876,0.2078704833984375,0.0003046656202059,-0.0037518613971769,-0.0053297844715416
1770448313638,-0.2325592041015625,-0.9473724365234376,0.20648193359375,-0.0005427522119134,-0.0075231636874377,-0.0090510193258523
1770448313648,-0.2315216064453125,-0.94940185546875,0.2075042724609375,-0.0014053500490263,-0.0031664986163377,-0.0130862407386302
1770448313658,-0.225799560546875,-0.9518890380859376,0.2033843994140625,0.0033899378031492,0.0013891047565266,-0.0133405728265643
1770448313668,-0.223785400390625,-0.951324462890625,0.1976776123046875,0.0116550577804446,0.0028863339684903,-0.012419119477272
1770448313678,-0.2235260009765625,-0.9515533447265624,0.194061279296875,0.017536649480462,-0.0012889700010418,-0.0119344238191843
1770448313688,-0.2237396240234375,-0.952667236328125,0.1954193115234375,0.0169787164777517,0.0014887070283293,-0.0041753039695322
1770448313698,-0.2189178466796875,-0.9542236328125,0.202239990234375,0.0125938225537538,0.0056032910943031,0.0013691311469301
1770448313708,-0.218780517578125,-0.9546661376953124,0.2086944580078125,0.0040133837610483,0.0022711437195539,0.0062925168313086
1770448313718,-0.2197113037109375,-0.9544677734375,0.2126312255859375,0.0008945558220148,-0.0037665087729692,0.0073050507344305
1770448313728,-0.222686767578125,-0.957611083984375,0.2118682861328125,-0.0083737773820757,-0.007971373386681,0.010522948578
1770448313738,-0.224884033203125,-0.950439453125,0.2100830078125,-0.0166961550712585,-0.0023331954143941,0.0098742023110389
1770448313749,-0.229339599609375,-0.9415740966796876,0.2075653076171875,-0.0224890634417533,-0.0015291870804503,0.005789179354906
1770448313758,-0.230133056640625,-0.9386444091796876,0.2060699462890625,-0.0238033328205347,0.0034346787724643,-0.0011342403013259
1770448313768,-0.227783203125,-0.9414215087890624,0.204498291015625,-0.0248345099389553,0.0015398397808894,-0.0027598338201642
1770448313778,-0.2231903076171875,-0.9487457275390624,0.2052001953125,-0.0215412452816963,0.0050594732165336,-0.0017161410069093
1770448313788,-0.2216339111328125,-0.954071044921875,0.2003173828125,-0.0168018825352191,0.0043199136853218,-0.0017411747248843
1770448313798,-0.22552490234375,-0.95404052734375,0.1954498291015625,-0.016891099512577,0.0079303607344627,-0.0005960154230706
1770448313809,-0.2260284423828125,-0.953277587890625,0.2011260986328125,-0.0180634222924709,0.016670323908329,0.0005118595436215
1770448313819,-0.2248992919921875,-0.9551239013671876,0.20281982421875,-0.0185955222696065,0.0157304927706718,0.0028016455471515
1770448313829,-0.22723388671875,-0.955810546875,0.2013397216796875,-0.0162303689867258,0.0070706927217543,0.0026136261876672
1770448313839,-0.228118896484375,-0.954803466796875,0.199798583984375,-0.0101860584691166,-0.0096321208402514,0.0006860303110443
1770448313850,-0.2349395751953125,-0.9506072998046876,0.1972503662109375,-0.0158652495592832,0.0184301398694515,0.0097381146624684
1770448313859,-0.221282958984375,-0.9534149169921876,0.2013702392578125,-0.0024426514282822,0.0121661182492971,-0.0046653253957629
1770448313869,-0.234161376953125,-0.954681396484375,0.1809844970703125,0.0120689133182168,-0.0197947435081005,-0.0022282667923718
1770448313879,-0.2361602783203125,-0.941314697265625,0.1931304931640625,0.0080978740006685,-0.000508930068463,-0.0022628880105912
1770448313889,-0.2232513427734375,-0.95074462890625,0.2068634033203125,0.0132090123370289,0.0027840686962008,-0.0048711877316236
1770448313899,-0.2278900146484375,-0.95025634765625,0.1939697265625,0.0267956610769033,-0.0095034902915358,-0.0062432484701275
1770448313909,-0.2292327880859375,-0.9489288330078124,0.1927642822265625,0.0313011966645717,-0.0114673050120472,-0.0032362733036279
1770448313919,-0.2252044677734375,-0.951171875,0.1985931396484375,0.0325363725423812,-0.006499710958451,-0.002601109445095
1770448313929,-0.223541259765625,-0.9512786865234376,0.20294189453125,0.0298202130943536,-0.0063729444518685,-0.0035031221341341
1770448313939,-0.227081298828125,-0.94842529296875,0.2075347900390625,0.0222405903041362,-0.0060291304253041,-0.0037491980474442
1770448313949,-0.2272796630859375,-0.9471588134765624,0.2082366943359375,0.017535850405693,-0.0052352421917021,-0.0045020738616585
1770448313959,-0.2261962890625,-0.947174072265625,0.210235595703125,0.0112364087253808,-0.0021467742044478,-0.0033462618011981
1770448313969,-0.2247314453125,-0.9482574462890624,0.21173095703125,0.005258944351226,-0.0009366337326355,-0.0043204464018344
1770448313979,-0.2257843017578125,-0.9479827880859376,0.2114410400390625,0.0023070964962244,0.0002657834847923,-0.0043502734042704
1770448313989,-0.226226806640625,-0.9477081298828124,0.211456298828125,0.0001565938728163,-0.0013851100811734,-0.0041223070584237
1770448313999,-0.2257537841796875,-0.9479522705078124,0.2095489501953125,-0.0038575888611376,-0.0016687366878613,-0.0041201766580343
1770448314009,-0.225616455078125,-0.94866943359375,0.213409423828125,-0.0103876600041985,0.0013659353135153,-0.0062855929136276
1770448314020,-0.224090576171875,-0.9504852294921876,0.2148284912109375,-0.0177505016326904,0.004734035115689,-0.0083671193569898
1770448314029,-0.223419189453125,-0.952850341796875,0.211456298828125,-0.02592134475708,0.0063817328773438,-0.0045537389814853
1770448314040,-0.22015380859375,-0.9530181884765624,0.21136474609375,-0.0328761897981166,0.0154034569859504,-0.0027622305788099
1770448314050,-0.219085693359375,-0.951751708984375,0.2094268798828125,-0.0380288735032081,0.0171611439436674,-0.0001070590733434
1770448314060,-0.2224273681640625,-0.9502105712890624,0.2054290771484375,-0.0407040193676948,0.01385775860399,0.0045827673748135
1770448314070,-0.2257843017578125,-0.949981689453125,0.2051544189453125,-0.0436201803386211,0.0122417528182268,0.00753008807078
1770448314080,-0.2260284423828125,-0.9467926025390624,0.206390380859375,-0.0427266918122768,0.0111208278685808,0.0082542011514306
1770448314090,-0.2269287109375,-0.945770263671875,0.204864501953125,-0.0405631400644779,0.0089476881548762,0.0073982612229883
1770448314100,-0.2274322509765625,-0.9466552734375,0.199493408203125,-0.0345505215227603,0.0096185384318232,0.0080360881984233
1770448314110,-0.2266387939453125,-0.9485626220703124,0.196319580078125,-0.0283256471157073,0.0116217685863375,0.0061582936905324
1770448314120,-0.2240753173828125,-0.9571685791015624,0.1983489990234375,-0.0278414841741323,0.0085388934239745,0.006778810173273
1770448314130,-0.2229766845703125,-0.963134765625,0.1984100341796875,-0.0265575740486383,0.0028996497858315,0.0100829945877194
1770448314140,-0.223724365234375,-0.96002197265625,0.1993865966796875,-0.0233556553721427,0.0043750409968197,0.0081697795540094
1770448314150,-0.2271728515625,-0.9536895751953124,0.1976165771484375,-0.0223540421575307,0.0049548111855983,0.0059210062026977
1770448314160,-0.2313079833984375,-0.9485626220703124,0.1960906982421875,-0.0188823454082012,0.0047068707644939,0.0051667988300323
1770448314170,-0.2324981689453125,-0.944000244140625,0.195343017578125,-0.0170681998133659,0.0073268888518214,0.0021648835390806
1770448314180,-0.2312164306640625,-0.94427490234375,0.1968536376953125,-0.0159432794898748,0.0053279199637472,-0.0008074704091995
1770448314190,-0.228668212890625,-0.9539642333984376,0.1985931396484375,-0.0118353543803095,0.0023209447972476,-5.805691034765914e-05
1770448314200,-0.225006103515625,-0.9584197998046876,0.19891357421875,-0.0106300078332424,0.0061281998641788,-0.0014612764352932
1770448314210,-0.224456787109375,-0.9590606689453124,0.197662353515625,-0.0101743405684828,0.0005456816870719,0.0002402171230642
1770448314220,-0.22515869140625,-0.9541778564453124,0.1987762451171875,-0.0104659562930464,0.0051699946634471,-0.006678675301373
1770448314230,-0.22955322265625,-0.94677734375,0.199432373046875,-0.0068288776092231,0.0084179854020476,-0.0111221596598625
1770448314241,-0.230224609375,-0.9470367431640624,0.1994171142578125,-0.0019076223252341,0.0059937103651463,-0.0085093323141336
1770448314251,-0.2230224609375,-0.9603729248046876,0.1986541748046875,0.0068136975169181,-0.0011345066595822,-0.0057497648522257
1770448314261,-0.22265625,-0.947662353515625,0.1932220458984375,0.012622051872313,0.0025379925500601,-0.0100816627964377
1770448314271,-0.232025146484375,-0.9313201904296876,0.19488525390625,0.0159624554216861,0.0030972564127296,-0.0131512219086289
1770448314281,-0.23358154296875,-0.933074951171875,0.2036590576171875,0.0115149756893515,0.0095684714615345,-0.0130396354943513
1770448314291,-0.2286529541015625,-0.934967041015625,0.20550537109375,0.0084984134882688,0.0090795150026679,-0.012661999091506
1770448314301,-0.224945068359375,-0.947967529296875,0.2033538818359375,0.0069002504460513,-0.0044639906845986,-0.0062072956934571
1770448314311,-0.2210693359375,-0.958251953125,0.203460693359375,0.0023917849175632,-0.0076185050420463,0.0019462381023913
1770448314321,-0.2208251953125,-0.9624176025390624,0.2057952880859375,-0.0070970579981803,-0.0097676757723093,0.0052693304605782
1770448314331,-0.2206268310546875,-0.9609375,0.20550537109375,-0.0149435298517346,-0.0149595085531473,0.0077612502500414
1770448314341,-0.2221221923828125,-0.9593505859375,0.1992645263671875,-0.0192985963076353,0.0028048411477357,0.0125317703932523
1770448314351,-0.2248382568359375,-0.9598541259765624,0.1993255615234375,-0.0266252197325229,0.0082281026989221,0.0130755882710218
1770448314361,-0.2266082763671875,-0.956146240234375,0.204803466796875,-0.0339933857321739,0.0136186070740222,0.009180448949337
1770448314371,-0.227325439453125,-0.952484130859375,0.203948974609375,-0.0414776690304279,0.0162484776228666,0.006664294283837
1770448314381,-0.2291412353515625,-0.9517974853515624,0.207794189453125,-0.0499798096716403,0.0177158806473016,0.0043707797303795
1770448314391,-0.2311859130859375,-0.947906494140625,0.21014404296875,-0.0524054169654846,0.021124193444848,0.0019033611752092
1770448314402,-0.2283172607421875,-0.9509429931640624,0.2054443359375,-0.0416047014296054,0.0134521592408418,-0.0024282701779156
1770448314411,-0.2281036376953125,-0.95245361328125,0.190826416015625,-0.0287403017282485,0.005553223658353,-0.0005661880713887
1770448314421,-0.2274627685546875,-0.946868896484375,0.19024658203125,-0.021200893446803,0.0029712887480854,-0.0031334753148257
1770448314431,-0.2291107177734375,-0.9500885009765624,0.1953887939453125,-0.0153568517416715,-0.002127865795046,-0.004750280175358
1770448314441,-0.2286834716796875,-0.952392578125,0.200927734375,-0.0132489595562219,-0.0040533309802412,-0.0068043763749301
1770448314452,-0.2275543212890625,-0.9514007568359376,0.1977996826171875,-0.0093876430764794,0.000135554902954,-0.0065441858023405
1770448314461,-0.2264251708984375,-0.95050048828125,0.1938629150390625,-0.0005536712124012,0.0027342673856765,-0.0066440543159842
1770448314472,-0.2265472412109375,-0.9536895751953124,0.1902313232421875,0.0055990298278629,0.0008199872681871,-0.0073228939436376
1770448314482,-0.225067138671875,-0.9537506103515624,0.1902618408203125,0.0045769084244966,0.003131611039862,-0.0040147150866687
1770448314492,-0.2225494384765625,-0.9538421630859376,0.1952056884765625,0.0014460964594036,0.0062014367431402,-0.0005930859479121
1770448314502,-0.2221527099609375,-0.958740234375,0.2007293701171875,-0.005111405160278,0.0044722463935613,0.0010205233702436
1770448314512,-0.220306396484375,-0.9629669189453124,0.2025604248046875,-0.0087950890883803,0.0012735236668959,0.0048520131967961
1770448314522,-0.2179107666015625,-0.9620819091796876,0.197967529296875,-0.0108633004128932,0.0053851781412959,0.0046024750918149
1770448314532,-0.2245025634765625,-0.9505157470703124,0.194305419921875,-0.0114670386537909,0.0077932081185281,0.0030072415247559
1770448314542,-0.228271484375,-0.944915771484375,0.1972198486328125,-0.0111479926854372,0.0077034598216414,0.0012125372886657
1770448314552,-0.2284698486328125,-0.940460205078125,0.1985931396484375,-0.0137560255825519,0.0082826968282461,-0.0030897995457053
1770448314562,-0.22857666015625,-0.942535400390625,0.2063140869140625,-0.0171757917851209,0.0147845391184091,-0.0028485171496868
1770448314572,-0.2223968505859375,-0.9531707763671876,0.201934814453125,-0.0098872520029544,0.0111354757100343,-0.0017928400775417
1770448314582,-0.222625732421875,-0.9540252685546876,0.18878173828125,-0.0057604173198342,0.0079362196847796,0.0004599279200192
1770448314592,-0.2261199951171875,-0.9517669677734376,0.1933746337890625,-0.007834487594664,0.0095897763967514,0.0035342811606824
1770448314602,-0.227020263671875,-0.9504547119140624,0.1986083984375,-0.0097668766975402,0.0096632800996303,0.003836017102003
1770448314612,-0.228302001953125,-0.95330810546875,0.200469970703125,-0.0124702518805861,0.0104744788259267,0.0040599890053272
1770448314622,-0.2267913818359375,-0.9556427001953124,0.1991424560546875,-0.0101469103246927,0.0105674229562282,0.0037792918737977
1770448314632,-0.2270355224609375,-0.9544830322265624,0.1930084228515625,-0.0030615699943155,0.0077266292646527,0.0041590584442019
1770448314642,-0.228790283203125,-0.9516754150390624,0.1904296875,-0.0001755023113219,0.004236290231347,0.0020607539918273
1770448314652,-0.229248046875,-0.9500274658203124,0.1933441162109375,0.0005278385360725,0.0044789044186472,-0.0001249022607225
1770448314662,-0.229461669921875,-0.94854736328125,0.200164794921875,-0.0001629854523343,0.0067828050814569,-0.0007041397620923
1770448314673,-0.228851318359375,-0.9485931396484376,0.1993865966796875,0.0020961740519851,0.0010349043877795,0.0017654094845056
1770448314683,-0.2284393310546875,-0.949310302734375,0.1973876953125,0.0006913566030561,-0.0010543455136939,0.0004929511342197
1770448314693,-0.2280120849609375,-0.9495697021484376,0.2014312744140625,-0.0032131038606166,-0.0025806031189858,-0.0003717772779054
1770448314703,-0.2284088134765625,-0.95196533203125,0.20440673828125,-0.0089309103786945,-0.0008335694437846,0.0003443467139732
1770448314713,-0.2266387939453125,-0.9495391845703124,0.2052764892578125,-0.013695572502911,-0.0017353157745674,-0.0004423510399647
1770448314723,-0.2261505126953125,-0.9506683349609376,0.20458984375,-0.0184868648648262,-0.000670850276947,0.0023249397054314
1770448314733,-0.2251739501953125,-0.951202392578125,0.20166015625,-0.0219223424792289,0.0023859259672462,0.004342284053564
1770448314743,-0.2223052978515625,-0.95306396484375,0.19964599609375,-0.0237455423921346,0.0061889202333986,0.0076893451623618
1770448314753,-0.221832275390625,-0.95440673828125,0.196563720703125,-0.0218078270554542,0.0055026235058903,0.009318133816123
1770448314763,-0.225921630859375,-0.950714111328125,0.1970672607421875,-0.024093085899949,0.004627242218703,0.0085380943492054
1770448314773,-0.2271270751953125,-0.94903564453125,0.199676513671875,-0.0266177617013454,0.0087415594607591,0.0074621774256229
1770448314783,-0.2266082763671875,-0.9506378173828124,0.20111083984375,-0.0266441274434328,0.0093008233234286,0.0060030315071344
1770448314793,-0.2260284423828125,-0.9530487060546876,0.197418212890625,-0.0247231889516115,0.008191617205739,0.0071777515113353
1770448314803,-0.2259063720703125,-0.9524383544921876,0.1905059814453125,-0.019136942923069,0.0054190000519156,0.0048525459133088
1770448314813,-0.2264862060546875,-0.9531402587890624,0.190521240234375,-0.0171142723411321,0.009221994318068,0.0028626318089663
1770448314823,-0.2281951904296875,-0.9502716064453124,0.190887451171875,-0.0104166883975267,0.0086384955793619,0.0012993563432246
1770448314833,-0.230072021484375,-0.949981689453125,0.190093994140625,-0.0064400560222566,0.0065250108018517,0.0017323862994089
1770448314843,-0.229248046875,-0.951385498046875,0.1906890869140625,-0.0036567864008247,0.0056459014303982,0.0039998018182814
1770448314853,-0.22857666015625,-0.9516448974609376,0.1913299560546875,-0.0018133464036509,0.0056536244228482,-0.0011259844759479
1770448314863,-0.23260498046875,-0.9505462646484376,0.1928558349609375,0.0003368898760527,0.0016498282784596,0.0014953649369999
1770448314873,-0.230682373046875,-0.949859619140625,0.1963653564453125,-0.0013451626291498,0.0025276062078773,-0.0028194885235279
1770448314884,-0.22845458984375,-0.953582763671875,0.1962738037109375,0.000266049784841,0.0029055087361484,-0.0021358551457524
1770448314893,-0.2258453369140625,-0.959716796875,0.1938629150390625,0.0038621162530034,-0.0003882888704538,0.0011920308461412
1770448314904,-0.2231903076171875,-0.9629669189453124,0.192047119140625,0.0038674424868077,-0.0001334243715973,0.0022612900938838
1770448314914,-0.2246246337890625,-0.9569244384765624,0.1934814453125,0.0061987736262381,0.0003792341449297,0.0023465112317353
1770448314924,-0.2285614013671875,-0.947296142578125,0.1942291259765625,0.0053766560740768,0.0043718451634049,0.0037510623224079
1770448314934,-0.229095458984375,-0.94268798828125,0.1956024169921875,0.0049364352598786,0.005642439238727,0.0055793225765228
1770448314944,-0.2283477783203125,-0.9488067626953124,0.19818115234375,0.0020823257509618,0.0029494508635252,0.0080526005476713
1770448314954,-0.223876953125,-0.9545440673828124,0.1983795166015625,-0.0011736550368368,0.0003605920064728,0.0075873457826673
1770448314964,-0.2262115478515625,-0.9476165771484376,0.1980743408203125,-5.9388490626588464e-05,-0.001341700553894,0.0086456863209605
1770448314974,-0.22906494140625,-0.95269775390625,0.1994781494140625,-0.0055803875438869,-0.0016972325975075,0.0089884353801608
1770448314984,-0.2265777587890625,-0.955108642578125,0.20159912109375,-0.0050309775397181,0.0009347695158794,0.0044823666103184
1770448314994,-0.2271728515625,-0.9470367431640624,0.2011566162109375,-0.0036645096261054,0.002233859617263,-0.0031806132756173
1770448315004,-0.228790283203125,-0.944305419921875,0.2021636962890625,-0.0051316451281309,4.713794987765141e-05,-0.0020961740519851
1770448315014,-0.22467041015625,-0.9639739990234376,0.205078125,-0.0106212189421057,-0.0029236183036118,-0.0006455502589233
1770448315024,-0.2244110107421875,-0.9532623291015624,0.201904296875,-0.0141467116773128,0.0062115569598972,-0.0049550775438547
1770448315035,-0.23388671875,-0.9340362548828124,0.199249267578125,-0.017618941143155,0.0079205073416233,-0.011134410277009
1770448315044,-0.2347869873046875,-0.9297637939453124,0.1974639892578125,-0.019202722236514,0.016414126381278,-0.0142449820414185
1770448315054,-0.2320709228515625,-0.9358367919921876,0.1959075927734375,-0.0238275676965713,0.0149765526875853,-0.0123338978737592
1770448315064,-0.2273406982421875,-0.9496002197265624,0.196044921875,-0.0236137174069881,0.0073314160108566,-0.0060437778010964
1770448315074,-0.225128173828125,-0.955841064453125,0.194793701171875,-0.0272806230932474,-0.0011124024167656,-0.0016615461790934
1770448315084,-0.225433349609375,-0.9594879150390624,0.19854736328125,-0.0286976918578147,0.0026844663079828,0.0064094299450516
1770448315094,-0.2245025634765625,-0.9617462158203124,0.1977386474609375,-0.033668216317892,0.0038253646343946,0.008853412233293
1770448315105,-0.22540283203125,-0.963653564453125,0.1930084228515625,-0.0337883234024047,0.0080936131998896,0.0115970009937882
1770448315115,-0.2244110107421875,-0.9623565673828124,0.1874542236328125,-0.0302369985729455,0.0051976912654936,0.0127930268645286
1770448315125,-0.224517822265625,-0.9598388671875,0.1870574951171875,-0.0323129333555698,0.0091181304305791,0.0110465260222554
1770448315136,-0.228057861328125,-0.95623779296875,0.1907501220703125,-0.0289187338203191,0.0128292459994554,0.0103154880926013
1770448315145,-0.228759765625,-0.953521728515625,0.1918182373046875,-0.0278859604150056,0.0123464148491621,0.0076232985593378
1770448315155,-0.230743408203125,-0.9533538818359376,0.1916656494140625,-0.0232693701982498,0.0110145676881074,0.0046839676797389
1770448315165,-0.23046875,-0.9525299072265624,0.193023681640625,-0.0142106274142861,0.002756371628493,0.0018570221727713
1770448315175,-0.2317962646484375,-0.953887939453125,0.1897430419921875,-0.0053484262898564,-0.0010066748363897,-0.0024272049777209
1770448315185,-0.232421875,-0.9540252685546876,0.1890106201171875,0.0040120519697666,-0.0061537660658359,-0.0041638524271547
1770448315195,-0.2320404052734375,-0.9534912109375,0.1882171630859375,0.0126606673002243,-0.0085207838565111,-0.0072991917841136
1770448315205,-0.2327423095703125,-0.953765869140625,0.188018798828125,0.0188637021929025,-0.0082438150420784,-0.0096321208402514
1770448315215,-0.2302398681640625,-0.954254150390625,0.187652587890625,0.0248329117894172,-0.0046650590375065,-0.0090377032756805
1770448315225,-0.2285614013671875,-0.95361328125,0.1876678466796875,0.0285160634666681,-0.0003552656853571,-0.0087610008195042
1770448315235,-0.227874755859375,-0.9487457275390624,0.185394287109375,0.03377341106534,0.0018921759910881,-0.0071761538274586
1770448315245,-0.2275238037109375,-0.9505157470703124,0.188018798828125,0.0351369492709636,-0.0002106560423271,-0.0018423747969791
1770448315255,-0.2237548828125,-0.9574127197265624,0.1931915283203125,0.0302138291299343,0.0006197175825946,-4.6072687837295234e-05
1770448315265,-0.223602294921875,-0.96173095703125,0.1975555419921875,0.0283711869269609,-0.0041452101431787,0.0035683694295585
1770448315275,-0.2213134765625,-0.963653564453125,0.19903564453125,0.0264707561582326,-0.0072664348408579,0.0044706487096846
1770448315285,-0.221435546875,-0.9533538818359376,0.1960601806640625,0.02029674872756,-0.0057617491111159,0.0046962182968854
1770448315295,-0.22796630859375,-0.9446258544921876,0.19805908203125,0.0154236974194645,-0.0041268342174589,0.0040890173986554
1770448315305,-0.2315521240234375,-0.9430999755859376,0.2000274658203125,0.011316037736833,0.0016397082945331,0.0026359967887401
1770448315316,-0.2273101806640625,-0.940673828125,0.202423095703125,0.0094651412218809,0.0053340452723205,-0.0008948221220634
1770448315326,-0.227752685546875,-0.9437408447265624,0.1984710693359375,0.0107967210933566,0.0008753810543566,0.0014242585748434
1770448315335,-0.227142333984375,-0.9504241943359376,0.1962738037109375,0.00978525262326,-0.0018463695887476,0.0011725898366421
1770448315346,-0.2275848388671875,-0.9503173828125,0.2002410888671875,0.0066837351769208,0.0034562505315989,0.0017222663154825
1770448315356,-0.2294464111328125,-0.95037841796875,0.2041473388671875,0.0024852619972079,0.0049119344912469,0.0009875000687316
1770448315366,-0.229888916015625,-0.9540557861328124,0.2025299072265625,0.0001334243715973,0.0032216259278357,0.0012136024888604
1770448315376,-0.227935791015625,-0.954345703125,0.2002410888671875,0.0004229099722579,0.0016769925132393,0.0018224010709673
1770448315386,-0.2285614013671875,-0.9560546875,0.2008056640625,-0.0051944958977401,0.0001936118060257,0.0012258529895916
1770448315396,-0.2297210693359375,-0.9537353515625,0.200469970703125,-0.007341003511101,0.0019313243683427,0.0008056062506511
1770448315406,-0.2276763916015625,-0.950714111328125,0.1988677978515625,-0.0101245390251278,0.0063146213069558,0.0008972189389169
1770448315416,-0.229583740234375,-0.9502105712890624,0.1978607177734375,-0.0085335671901702,0.0039609195664525,0.0009744506096467
1770448315426,-0.228668212890625,-0.9493408203125,0.196929931640625,-0.0068533788435161,0.0034884747583419,0.0028053738642483
1770448315436,-0.2289276123046875,-0.9484100341796876,0.19671630859375,-0.0062432484701275,0.0008881642133928,0.0024341291282325
1770448315446,-0.2277069091796875,-0.9517669677734376,0.1977081298828125,-0.0087223853915929,0.0006202502408996,0.0030479878187179
1770448315456,-0.2275390625,-0.9513397216796876,0.20013427734375,-0.0127307092770934,0.0002724413643591,0.0030905983876436
1770448315466,-0.229217529296875,-0.949859619140625,0.20147705078125,-0.0160420835018157,0.0025497104506939,0.004153998568654
1770448315476,-0.2276763916015625,-0.949249267578125,0.200775146484375,-0.0167763177305459,0.006163886282593,0.0028312064241617
1770448315486,-0.2280731201171875,-0.9510650634765624,0.1966094970703125,-0.0120947463437914,0.0025963156949728,0.0050506847910583
1770448315496,-0.227325439453125,-0.9503021240234376,0.192657470703125,-0.0076110479421913,0.0001608549355296,0.0062752063386142
1770448315506,-0.2282562255859375,-0.9508819580078124,0.189056396484375,-0.0038144455756992,0.0006732470938004,0.0054150056093931
1770448315516,-0.2281494140625,-0.94927978515625,0.191558837890625,0.0012961605098098,0.0016080166678875,0.0047007454559206
1770448315526,-0.2295379638671875,-0.9509429931640624,0.194000244140625,0.0052762548439204,0.003051450010389,0.0037025928031653
1770448315537,-0.22943115234375,-0.9520111083984376,0.1930389404296875,0.0072243572212755,0.0001467401743866,0.0033712955191731
1770448315547,-0.2286224365234375,-0.9531097412109376,0.193267822265625,0.0145057057961821,-0.0022865901701152,0.0026623620651662
1770448315557,-0.23046875,-0.9534759521484376,0.1918792724609375,0.0170671343803405,-0.0036013927310705,-0.0007656587986275
1770448315567,-0.23199462890625,-0.94830322265625,0.1930084228515625,0.0209976937621831,-0.0016831178218126,-0.0030216225422918
1770448315577,-0.2313079833984375,-0.946929931640625,0.1945037841796875,0.0264539774507284,-0.0002194444678025,-0.0047108656726777
1770448315587,-0.2298736572265625,-0.9491424560546876,0.192840576171875,0.0312687084078788,0.0001307612110394,-0.0024359934031963
1770448315597,-0.2303009033203125,-0.9497833251953124,0.1927337646484375,0.0336594246327877,-0.0042306976392865,-0.0016213324852287
1770448315607,-0.2286529541015625,-0.947998046875,0.19561767578125,0.032935045659542,-0.0039049931801855,-0.0006924218614585
1770448315617,-0.227813720703125,-0.94757080078125,0.1999053955078125,0.0302881300449371,-0.0035015242174267,-0.0017728663515299
1770448315627,-0.2285614013671875,-0.951080322265625,0.2026824951171875,0.0264142975211143,-0.0058400458656251,-0.0013555489713326
1770448315637,-0.229522705078125,-0.9590606689453124,0.205780029296875,0.0229252893477678,-0.0070512513630092,0.0025382589083164
1770448315647,-0.225006103515625,-0.9601287841796876,0.2041168212890625,0.0212509594857692,-0.0040282974950969,0.0048682582564651
1770448315657,-0.223602294921875,-0.953582763671875,0.20257568359375,0.0173885766416788,0.0007078681956045,0.0033201628830283
1770448315667,-0.228851318359375,-0.945831298828125,0.201507568359375,0.0168458260595798,0.0040256343781948,0.0011531487107276
1770448315677,-0.2325286865234375,-0.9433441162109376,0.200531005859375,0.0132372416555881,0.0049582733772695,0.0014210627414286
1770448315687,-0.22808837890625,-0.948089599609375,0.2030792236328125,0.0105186868458986,0.0016354472609236,9.77380113909021e-05
1770448315697,-0.2268218994140625,-0.951141357421875,0.2023773193359375,0.0108939269557595,-0.0007957525085657,-0.0009297095239162
1770448315707,-0.2281341552734375,-0.951141357421875,0.2037506103515625,0.0061180801130831,-0.0044927527196705,0.0038541266694664
1770448315717,-0.225982666015625,-0.956085205078125,0.21063232421875,0.0025094966404139,-0.0036679718177765,0.0045028729364275
1770448315727,-0.22564697265625,-0.9472198486328124,0.2070465087890625,0.0024397219531238,0.0032916669733822,0.0020839234348386
1770448315738,-0.2318572998046875,-0.93975830078125,0.2031707763671875,0.0084328996017575,-0.0042125880718231,0.0026200178544968
1770448315747,-0.231658935546875,-0.9560699462890624,0.2025909423828125,0.0108132325112819,-0.0083580650389194,0.002836799249053
1770448315758,-0.2288818359375,-0.9471893310546876,0.2003936767578125,0.0189483910799026,-0.0039667785167694,-0.0039518647827208
1770448315768,-0.23345947265625,-0.934051513671875,0.1949005126953125,0.0224621649831533,-0.0008540757698938,-0.0102806007489562
1770448315778,-0.2358551025390625,-0.9357757568359376,0.200592041015625,0.0185308065265417,0.0075058531947433,-0.0147552443668246
1770448315788,-0.23248291015625,-0.93902587890625,0.20538330078125,0.0155187724158167,0.0100169479846954,-0.0162231791764497
1770448315798,-0.226837158203125,-0.9472503662109376,0.202178955078125,0.0159472748637199,0.0029398635961115,-0.0148852057754993
1770448315808,-0.225921630859375,-0.9532623291015624,0.201385498046875,0.0152929360046982,-0.004046939779073,-0.0108454572036862
1770448315818,-0.2261962890625,-0.9588623046875,0.204132080078125,0.0066075688228011,-0.0047987499274313,-0.0047039412893354
1770448315828,-0.2265625,-0.9605560302734376,0.2069549560546875,0.003295661881566,-0.0035534559283405,-0.0002181128947995
1770448315838,-0.225799560546875,-0.9581146240234376,0.204620361328125,-0.004176901653409,-0.005397162400186,0.0038304245099425
1770448315849,-0.224090576171875,-0.9565277099609376,0.2039337158203125,-0.0137083549052476,-0.0005635248962789,0.0051955608651041
1770448315858,-0.2263031005859375,-0.9536590576171876,0.203369140625,-0.0206437595188617,0.0030605047941207,0.0019241338595747
1770448315868,-0.2276763916015625,-0.9507904052734376,0.203460693359375,-0.0256595574319362,0.0124193849042057,0.0035249600186944
1770448315878,-0.2276458740234375,-0.953399658203125,0.205047607421875,-0.0314292944967746,0.0159914828836917,0.0022959110792726
1770448315888,-0.226165771484375,-0.95294189453125,0.2052154541015625,-0.0299989115446805,0.015100922435522,-0.0022045646328479
1770448315898,-0.2284088134765625,-0.95233154296875,0.2047576904296875,-0.0252808555960655,0.0115527929738163,-0.0037947380915284
1770448315908,-0.2308197021484375,-0.9505767822265624,0.202667236328125,-0.0145762795582413,0.0041438788175582,-0.0067657604813575
1770448315918,-0.231414794921875,-0.949249267578125,0.1971435546875,-0.0061098239384591,-0.0051023503765463,-0.0039132488891482
