timestamp_ms,acc_x,acc_y,acc_z,gyro_x,gyro_y,gyro_z
1769158622882,0.060455322265625,-0.3179779052734375,-0.9499969482421876,-0.0365446954965591,0.0510658472776412,-0.0141549678519368
1769158622889,0.0593414306640625,-0.3161163330078125,-0.95001220703125,-0.032056737691164,0.0757885053753852,-0.0151954647153615
1769158622899,0.0606842041015625,-0.31695556640625,-0.943603515625,-0.0275714397430419,0.0690243393182754,-0.0089255841448903
1769158622908,0.0696563720703125,-0.316009521484375,-0.941162109375,-0.0349627770483493,0.0688967779278755,-0.0058168764226138
1769158622919,0.0791473388671875,-0.3150482177734375,-0.9346771240234376,-0.0441616028547287,0.0655811429023742,-0.0014777880860492
1769158622929,0.072357177734375,-0.3126068115234375,-0.9245452880859376,-0.0520418956875801,0.0689385905861854,-0.0067138290032744
1769158622939,0.0666046142578125,-0.3072357177734375,-0.9239349365234376,-0.0621467269957065,0.0668069943785667,-0.014509966596961
1769158622949,0.073333740234375,-0.3056640625,-0.9238128662109376,-0.0638969540596008,0.0594920888543129,-0.0200850274413824
1769158622959,0.07147216796875,-0.30865478515625,-0.9262542724609376,-0.0680368393659591,0.0535084977746009,-0.0199691802263259
1769158622970,0.0741729736328125,-0.31292724609375,-0.9286956787109376,-0.0783347487449646,0.0776884034276008,-0.0163246449083089
1769158622979,0.0738372802734375,-0.317626953125,-0.9286041259765624,-0.0954873710870742,0.1021676436066627,-0.020110061392188
1769158622989,0.065643310546875,-0.3180084228515625,-0.919647216796875,-0.1145095378160476,0.0975720956921577,-0.0190360099077224
1769158622999,0.0699462890625,-0.31390380859375,-0.9240570068359376,-0.1359005719423294,0.0707791000604629,-0.0242808386683464
1769158623009,0.0816192626953125,-0.3082427978515625,-0.9319610595703124,-0.129556655883789,0.0352501310408115,-0.0333430431783199
1769158623019,0.080780029296875,-0.3028106689453125,-0.9532470703125,-0.1118074879050254,0.0259658209979534,-0.0311379451304674
1769158623029,0.0824737548828125,-0.30181884765625,-0.9589080810546876,-0.0954948291182518,0.0266276150941848,-0.018612565472722
1769158623039,0.07684326171875,-0.3011322021484375,-0.9628448486328124,-0.076089970767498,0.0200733095407485,-0.0147270141169428
1769158623049,0.069427490234375,-0.2988128662109375,-0.972015380859375,-0.053924486041069,0.0270412042737007,-0.0163534060120582
1769158623059,0.0716705322265625,-0.2975006103515625,-0.9812164306640624,-0.0297504384070634,0.0252574197947978,-0.012141884304583
1769158623069,0.082275390625,-0.3002166748046875,-0.9855804443359376,-0.0011922972043976,0.0055617457255721,-0.012181032449007
1769158623079,0.084869384765625,-0.3055267333984375,-0.9833526611328124,0.0166679266840219,0.0111274858936667,-0.0086078690364956
1769158623089,0.0821380615234375,-0.3109588623046875,-0.972259521484375,0.0191451981663703,0.0091932322829961,-0.0084653897210955
1769158623099,0.070556640625,-0.3124542236328125,-0.952362060546875,0.0200163181871175,0.0071599087677896,-0.0081514036282897
1769158623110,0.06951904296875,-0.3099212646484375,-0.9472808837890624,0.0181627590209245,0.0104345316067337,-0.0090733896940946
1769158623119,0.0722808837890625,-0.3076171875,-0.9439239501953124,0.0151419350877404,0.012408466078341,-0.0075500616803765
1769158623129,0.0763702392578125,-0.3077392578125,-0.9417266845703124,0.0136268623173236,0.0088819088414311,-0.0055694687180221
1769158623140,0.079132080078125,-0.3079376220703125,-0.940399169921875,0.0121775707229971,0.0063590961508452,-0.0060230051167309
1769158623149,0.074859619140625,-0.3077850341796875,-0.939422607421875,0.0183654241263866,0.007791344076395,0.0032631712965667
1769158623160,0.079345703125,-0.3059234619140625,-0.9460296630859376,0.0231772251427173,-0.0045726476237177,0.0049931607209146
1769158623170,0.076324462890625,-0.303070068359375,-0.946502685546875,0.0278811659663915,-0.0038107172586023,-0.0004556668573059
1769158623180,0.0729522705078125,-0.30029296875,-0.9486846923828124,0.0383575074374675,-0.0090030822902917,-0.0026088326703757
1769158623190,0.0770416259765625,-0.29742431640625,-0.9571380615234376,0.0237468741834163,0.0054461644031107,-0.005723665934056
1769158623200,0.080535888671875,-0.2982177734375,-0.94622802734375,0.031651135534048,-0.0157006662338972,-0.0097796600311994
1769158623210,0.0768280029296875,-0.307769775390625,-0.9472808837890624,0.0391423441469669,-0.0154740307480096,-0.0063324645161628
1769158623220,0.083526611328125,-0.3048248291015625,-0.9529266357421876,0.0358152538537979,0.0028676919173449,0.0028818065766245
1769158623230,0.0870819091796875,-0.309844970703125,-0.939910888671875,0.0361244492232799,0.0030162963084876,0.0110129695385694
1769158623240,0.086700439453125,-0.3157196044921875,-0.9387359619140624,0.0344112366437912,-0.0050312438979744,0.0144244795665144
1769158623250,0.0909423828125,-0.3123626708984375,-0.946380615234375,0.0266116373240947,-0.0136183407157659,0.0139541653916239
1769158623260,0.085906982421875,-0.3154296875,-0.939056396484375,0.021894646808505,-0.0058853197842836,0.0253133457154035
1769158623270,0.0854339599609375,-0.316558837890625,-0.9427032470703124,0.0306268855929374,-0.0134881120175123,0.0221319328993558
1769158623280,0.07183837890625,-0.30621337890625,-0.9558258056640624,0.049973152577877,-0.0181640908122062,0.0149547150358557
1769158623291,0.0677490234375,-0.302886962890625,-0.9639892578125,0.0492711439728736,-0.0210685338824987,0.0199843607842922
1769158623300,0.07720947265625,-0.303009033203125,-0.947784423828125,0.0690397843718528,-0.0397751107811927,0.0339920558035373
1769158623310,0.079742431640625,-0.305816650390625,-0.961456298828125,0.0930007770657539,-0.0413972400128841,0.0204698555171489
1769158623320,0.0712890625,-0.289276123046875,-0.9770660400390624,0.1215067207813263,-0.0360719822347164,0.0150234242901206
1769158623330,0.0689544677734375,-0.2975006103515625,-0.971221923828125,0.1290842145681381,-0.0182980466634035,0.0240209139883518
1769158623341,0.0783538818359375,-0.3126068115234375,-0.956024169921875,0.134576991200447,0.0095367794856429,0.0295882523059844
1769158623351,0.0780792236328125,-0.317626953125,-0.943817138671875,0.1206814125180244,0.0076331524178385,0.0270942021161317
1769158623361,0.0648040771484375,-0.3195037841796875,-0.9243011474609376,0.092153362929821,0.0342650301754474,0.0170338451862335
1769158623371,0.0520477294921875,-0.3194732666015625,-0.90814208984375,0.06441280990839,0.0618673637509346,0.004946022760123
1769158623381,0.04669189453125,-0.319580078125,-0.8956756591796875,0.0110603738576173,0.0263557080179452,-0.0065564364194869
1769158623391,0.0551605224609375,-0.3233642578125,-0.88037109375,-0.0327326469123363,0.0305262170732021,-0.0150894708931446
1769158623401,0.066802978515625,-0.317840576171875,-0.894775390625,-0.0506437346339225,-0.0047715855762362,-0.0084155891090631
1769158623411,0.0821533203125,-0.32366943359375,-0.9059295654296876,-0.0760628059506416,-0.0224046409130096,-0.0021345235873013
1769158623421,0.0804443359375,-0.32135009765625,-0.9127349853515624,-0.0817156359553337,-0.019594207406044,0.0062091602012515
1769158623431,0.0885467529296875,-0.3186492919921875,-0.9343414306640624,-0.0862123817205429,0.0153280897065997,0.0241905581206083
1769158623447,0.105194091796875,-0.3205413818359375,-0.941070556640625,-0.0748500078916549,0.0117104519158601,0.0346791520714759
1769158623451,0.094970703125,-0.3145294189453125,-0.955596923828125,-0.0748500078916549,0.0117104519158601,0.0346791520714759
1769158623461,0.0753631591796875,-0.309295654296875,-0.96563720703125,-0.0478229150176048,0.0505177676677703,0.0355705097317695
1769158623471,0.0686492919921875,-0.3104248046875,-0.9701080322265624,-0.0240526050329208,0.0481645986437797,0.0309142395853996
1769158623481,0.0647430419921875,-0.3177490234375,-0.967864990234375,-0.0035566515289247,0.0195385478436946,0.020804613828659
1769158623491,0.0576019287109375,-0.3163909912109375,-0.969024658203125,0.029258020222187,0.0013275857781991,0.01119140163064
1769158623502,0.0630950927734375,-0.3141326904296875,-0.9790191650390624,0.070391871035099,-0.0580707602202892,0.0108667621389031
1769158623511,0.069854736328125,-0.320220947265625,-0.982757568359375,0.0910297781229019,-0.0526743978261947,0.0219803992658853
1769158623521,0.06744384765625,-0.3175201416015625,-0.9710845947265624,0.0843348577618599,-0.0239034686237573,0.0255485028028488
1769158623531,0.068572998046875,-0.3265228271484375,-0.93988037109375,0.0665433406829834,-0.0035585158038884,0.026611104607582
1769158623542,0.0726776123046875,-0.32452392578125,-0.9263458251953124,0.0428412072360515,0.0133568178862333,0.0134843830019235
1769158623552,0.0788421630859375,-0.3203582763671875,-0.9261322021484376,0.0272963363677263,0.0186423938721418,0.0054411045275628
1769158623561,0.0712432861328125,-0.317352294921875,-0.9339599609375,0.0253202710300683,0.0213367138057947,-0.0068765482865273
1769158623572,0.065643310546875,-0.3162689208984375,-0.9363250732421876,0.0261652916669845,0.0360757112503051,-0.0018093516118824
1769158623582,0.067352294921875,-0.3204498291015625,-0.9381561279296876,0.0171992275863885,0.0405540838837623,0.0065306033939123
1769158623592,0.07440185546875,-0.3215789794921875,-0.93060302734375,0.0173180028796196,0.0484290532767772,0.0049327067099511
1769158623602,0.072967529296875,-0.31494140625,-0.9334716796875,-0.0041438788175582,0.0158577933907508,0.0048693236894905
1769158623612,0.07440185546875,-0.31304931640625,-0.9152679443359376,-0.0257109552621841,0.0131999580189585,-0.0102172177284955
1769158623622,0.068206787109375,-0.3081817626953125,-0.9150848388671876,-0.0423874035477638,-0.0064400560222566,-0.021851236000657
1769158623632,0.06854248046875,-0.3100128173828125,-0.9220428466796876,-0.0413162820041179,-0.0070688282139599,-0.028343491256237
1769158623642,0.0753631591796875,-0.3152618408203125,-0.9417572021484376,-0.0449104830622673,-0.0023185480386018,-0.0204687900841236
1769158623652,0.078216552734375,-0.3204498291015625,-0.94317626953125,-0.0346117727458477,-0.0015600797487422,-0.0254800599068403
1769158623662,0.0723419189453125,-0.32220458984375,-0.9552154541015624,-0.0189358741044998,0.0032887374982237,-0.0283834375441074
1769158623672,0.074615478515625,-0.3190155029296875,-0.9617767333984376,-0.0084355622529983,-0.0031798142008483,-0.0245913621038198
1769158623682,0.082977294921875,-0.3249969482421875,-0.958221435546875,-0.0092667350545525,0.0222991798073053,-0.0101996408775448
1769158623692,0.0846405029296875,-0.3277130126953125,-0.9583740234375,0.0215111505240201,0.002813097089529,-0.0088515486568212
1769158623702,0.0750885009765625,-0.3302764892578125,-0.962158203125,0.0395322293043136,0.025570074096322,0.0026780748739838
1769158623712,0.08026123046875,-0.3195953369140625,-0.9632568359375,0.0526253953576087,0.0379039719700813,0.0032439965289086
1769158623722,0.0769195556640625,-0.3214569091796875,-0.954864501953125,0.0514195151627063,0.035032819956541,0.0023670175578445
1769158623732,0.0767364501953125,-0.3217620849609375,-0.9408721923828124,0.0540664307773113,0.0353215038776397,0.0051705273799598
1769158623742,0.0796966552734375,-0.3244171142578125,-0.9440460205078124,0.0536078326404094,0.037368144840002,0.0045303031802177
1769158623752,0.0789031982421875,-0.324462890625,-0.93743896484375,0.0355143174529075,0.0189973935484886,0.0087247816845774
1769158623762,0.077239990234375,-0.31927490234375,-0.9162750244140624,0.0088153295218944,0.004817125853151,-0.0035047200508415
1769158623773,0.0732574462890625,-0.324188232421875,-0.9061737060546876,-0.0216669458895921,-0.004015780519694,-0.0064248759299516
1769158623782,0.0765838623046875,-0.3249969482421875,-0.9041900634765624,-0.0414531677961349,-0.0109301460906863,-0.0089367693290114
1769158623793,0.0728759765625,-0.3218231201171875,-0.9103851318359376,-0.0527945049107074,-0.0166716538369655,-0.0150159671902656
1769158623803,0.072845458984375,-0.31927490234375,-0.9202880859375,-0.0576526448130607,-0.017485249787569,-0.0142838647589087
1769158623813,0.0792694091796875,-0.318695068359375,-0.932952880859375,-0.0531348586082458,-0.003867708845064,-0.0084233125671744
1769158623823,0.0799102783203125,-0.319244384765625,-0.9456939697265624,-0.040584709495306,0.0071114390157163,-0.0057092849165201
1769158623833,0.0753021240234375,-0.3169708251953125,-0.9561309814453124,-0.0253793932497501,0.0117480028420686,-0.0062997075729072
1769158623843,0.077545166015625,-0.3202056884765625,-0.9557647705078124,-0.0156772304326295,0.0032639701385051,-0.0164601989090442
1769158623853,0.0769195556640625,-0.321563720703125,-0.9534149169921876,-0.013562680222094,-0.00112971290946,-0.0209614746272563
1769158623863,0.0762481689453125,-0.324371337890625,-0.9543914794921876,-0.0145152928307652,-0.0029252162203192,-0.0218949131667614
1769158623873,0.0775909423828125,-0.326873779296875,-0.9467620849609376,-0.0113677028566598,-0.0001664475712459,-0.0160452798008918
1769158623883,0.0775604248046875,-0.324066162109375,-0.9470977783203124,-0.0079253008589148,-0.0114284232258796,-0.0038791603874415
1769158623893,0.0823211669921875,-0.324249267578125,-0.9407806396484376,-0.0196735691279172,-0.0259197484701871,-0.0031356059480458
1769158623903,0.0791015625,-0.3195037841796875,-0.9278717041015624,-0.0346338786184787,-0.0124862305819988,-0.0037420075386762
1769158623913,0.0711822509765625,-0.3158111572265625,-0.9234619140625,-0.0454215444624424,-0.0013052152935415,-0.0076014604419469
1769158623923,0.0731048583984375,-0.3136444091796875,-0.91986083984375,-0.065316155552864,0.0108012482523918,-0.0053990264423191
1769158623933,0.0823822021484375,-0.3132476806640625,-0.922454833984375,-0.0721945688128471,0.016757408156991,-0.0086403600871562
1769158623943,0.0807647705078125,-0.3127899169921875,-0.932586669921875,-0.0738422647118568,0.0261554382741451,-0.011903797276318
1769158623953,0.08331298828125,-0.3161163330078125,-0.9394378662109376,-0.0701657757163047,0.0217899847775697,-0.0058786617591977
1769158623963,0.0880889892578125,-0.316925048828125,-0.9490509033203124,-0.0580015182495117,0.0044112601317465,-0.0050637344829738
1769158623973,0.0857391357421875,-0.3144073486328125,-0.959014892578125,-0.0490463711321353,-0.0171907041221857,-0.0094880443066358
1769158623983,0.0696258544921875,-0.3135528564453125,-0.956573486328125,-0.0412318594753742,-0.0095461010932922,-0.0091191958636045
1769158623994,0.07000732421875,-0.32080078125,-0.9567413330078124,-0.0349529236555099,-0.0024349282030016,-0.0057750646956264
1769158624004,0.0763397216796875,-0.327178955078125,-0.956756591796875,-0.0191507916897535,0.0255490355193614,0.0078043933026492
1769158624014,0.085052490234375,-0.324951171875,-0.9670867919921876,0.0022208099253475,0.0423080436885356,0.0183289404958486
1769158624024,0.0843658447265625,-0.3231201171875,-0.9696502685546876,0.023614514619112,0.0555940195918083,0.0219393875449895
1769158624033,0.0830535888671875,-0.31884765625,-0.9664459228515624,0.04148406162858,0.0440079383552074,0.0231210310012102
1769158624044,0.077056884765625,-0.31060791015625,-0.960723876953125,0.0420467853546142,0.0190844777971506,0.0259471777826547
1769158624054,0.070098876953125,-0.3103790283203125,-0.94659423828125,0.0356517359614372,0.0056000952608883,0.0075420723296701
1769158624064,0.0595550537109375,-0.3061065673828125,-0.937530517578125,0.0396542027592659,0.0230403374880552,-0.0043393545784056
1769158624074,0.068023681640625,-0.30914306640625,-0.94256591796875,0.0416148230433464,0.036331906914711,0.0079276980832219
1769158624084,0.081329345703125,-0.3141326904296875,-0.937042236328125,0.0483419671654701,0.0311171729117631,0.0120830284431576
1769158624099,0.0827178955078125,-0.3117828369140625,-0.9369354248046876,0.0466705672442913,0.0294814594089984,0.0072432653978466
1769158624104,0.0659027099609375,-0.308380126953125,-0.93017578125,0.0324783138930797,0.0465235598385334,0.0031771510839462
1769158624114,0.05841064453125,-0.305145263671875,-0.925567626953125,0.0145720187574625,0.0431157797574996,-0.0004167847218923
1769158624124,0.0620574951171875,-0.3094940185546875,-0.9221343994140624,-0.0097564905881881,0.0308649707585573,-0.0127725200727581
1769158624134,0.0665435791015625,-0.3116302490234375,-0.9195709228515624,-0.031374167650938,0.0146865341812372,-0.021305289119482
1769158624144,0.07611083984375,-0.3157958984375,-0.921600341796875,-0.0418664887547493,0.0046690539456903,-0.0261911246925592
1769158624154,0.0853271484375,-0.3188018798828125,-0.93048095703125,-0.047486025840044,-0.0114127108827233,-0.0311589837074279
1769158624165,0.0887603759765625,-0.3203125,-0.9330291748046876,-0.0572254732251167,-0.016139555722475,-0.0326359719038009
1769158624174,0.0891876220703125,-0.31976318359375,-0.9369354248046876,-0.0572254732251167,-0.016139555722475,-0.0326359719038009
1769158624184,0.0820465087890625,-0.316497802734375,-0.9452362060546876,-0.038144189864397,0.0003936151915695,-0.0288415011018514
1769158624194,0.08349609375,-0.3127288818359375,-0.9605712890625,-0.0187198910862207,0.0085695199668407,-0.0189688969403505
1769158624205,0.0881195068359375,-0.3108978271484375,-0.9695281982421876,0.0062653529457747,0.0118547948077321,-0.0123868947848677
1769158624214,0.0837554931640625,-0.3079376220703125,-0.971038818359375,0.0225905291736125,0.0079572591930627,-0.0127631993964314
1769158624225,0.0792694091796875,-0.3118438720703125,-0.96246337890625,0.0319265089929103,-0.00103064335417,-0.0161568652838468
1769158624234,0.080322265625,-0.31475830078125,-0.9530029296875,0.0325241200625896,-0.0128153972327709,-0.0212882440537214
1769158624244,0.0783233642578125,-0.3159637451171875,-0.9427642822265624,0.0275266990065574,-0.0105706192553043,-0.0241577997803688
1769158624255,0.0743408203125,-0.320068359375,-0.9313201904296876,0.0195766314864158,0.0024072313681244,-0.0231375433504581
1769158624265,0.0771331787109375,-0.3231201171875,-0.92572021484375,0.0053521548397839,0.0106419920921325,-0.0173462331295013
1769158624275,0.082977294921875,-0.3286285400390625,-0.9201507568359376,-0.0110324108973145,-0.0030916635878384,-0.0088060088455677
1769158624285,0.0866546630859375,-0.327972412109375,-0.9228057861328124,-0.0229881405830383,-0.0097317229956388,-0.007620901800692
1769158624295,0.08282470703125,-0.3229522705078125,-0.9302215576171876,-0.0280433520674705,-0.0220440495759248,-0.014110492542386
1769158624305,0.0752105712890625,-0.3123016357421875,-0.93768310546875,-0.0235961396247148,-0.0177792627364397,-0.0187680944800376
1769158624315,0.0723876953125,-0.3112030029296875,-0.94647216796875,-0.0187827423214912,-0.0148740205913782,-0.0145709533244371
1769158624325,0.0800018310546875,-0.3139190673828125,-0.9480743408203124,-0.0072275530546903,-0.0136561570689082,-0.0118465395644307
1769158624335,0.08807373046875,-0.3124542236328125,-0.951934814453125,-0.0018751317402347,-0.0055790562182664,-0.0090853739529848
1769158624345,0.085723876953125,-0.31243896484375,-0.951446533203125,0.0057777278125286,0.0064906561747193,-0.0027060380671173
1769158624355,0.0824432373046875,-0.3135223388671875,-0.9492645263671876,0.0121168503537774,0.0084949508309364,-0.0078501999378204
1769158624365,0.075927734375,-0.3140106201171875,-0.944610595703125,0.0137965055182576,0.0100132189691066,-0.012909673154354
1769158624375,0.076934814453125,-0.313720703125,-0.9478759765625,0.0155611168593168,-0.0141451135277748,-0.015777364373207
1769158624385,0.087066650390625,-0.3125457763671875,-0.94854736328125,0.0123858293518424,-0.0266260188072919,-0.0230824165046215
1769158624395,0.084228515625,-0.3152923583984375,-0.9473114013671876,0.0108843389898538,-0.0156801603734493,-0.0265248175710439
1769158624406,0.080230712890625,-0.318878173828125,-0.9448699951171876,0.017272463068366,-0.0107738180086016,-0.0202948860824108
1769158624415,0.0820465087890625,-0.32122802734375,-0.94537353515625,0.0192511919885873,-0.0163499452173709,-0.0227487217634916
1769158624426,0.0829010009765625,-0.320892333984375,-0.9433441162109376,0.0132183339446783,-0.0177547615021467,-0.0227029155939817
1769158624436,0.0807037353515625,-0.32220458984375,-0.941986083984375,0.0127959558740258,-0.0231575164943933,-0.0247591417282819
1769158624446,0.0780792236328125,-0.3213043212890625,-0.942169189453125,0.0214813239872455,0.0068296766839921,-0.0225412622094154
1769158624456,0.0770416259765625,-0.320587158203125,-0.9474334716796876,0.0264182910323143,0.011863050982356,-0.0168383680284023
1769158624466,0.0822601318359375,-0.3211517333984375,-0.9415740966796876,0.0256771333515644,0.003213902702555,-0.0159342251718044
1769158624476,0.0850677490234375,-0.317657470703125,-0.940185546875,0.0183558370918035,-0.0063055665232241,-0.0224413927644491
1769158624487,0.0791015625,-0.3169097900390625,-0.934783935546875,0.019114838913083,-0.00581288151443,-0.0224805418401956
1769158624496,0.0811614990234375,-0.315887451171875,-0.9405059814453124,0.0226464569568634,-0.0102696819230914,-0.0175638142973184
1769158624506,0.087554931640625,-0.316192626953125,-0.9419403076171876,0.021874938160181,-0.001979527529329,-0.0077466028742492
1769158624516,0.0921630859375,-0.3218994140625,-0.9347381591796876,0.0120529346168041,0.0084518082439899,0.0008090683259069
1769158624526,0.09027099609375,-0.3222808837890625,-0.9290618896484376,0.0026359967887401,0.0172791220247745,0.012330169789493
1769158624536,0.092041015625,-0.3215789794921875,-0.9272003173828124,-0.012411662377417,0.0133975641801953,0.020633639767766
1769158624546,0.0879974365234375,-0.3210906982421875,-0.9205169677734376,-0.0325193256139755,0.0070643010549247,0.0188573114573955
1769158624556,0.08062744140625,-0.317840576171875,-0.91632080078125,-0.04828817024827,0.0044131241738796,0.0164881628006696
1769158624566,0.08197021484375,-0.315338134765625,-0.922607421875,-0.0547961369156837,0.0065886606462299,0.0188381355255842
1769158624576,0.083831787109375,-0.31451416015625,-0.9299163818359376,-0.0541921332478523,0.0033593112602829,0.0159230399876832
1769158624586,0.08251953125,-0.3146820068359375,-0.9374237060546876,-0.0542794838547706,-0.0091873733326792,0.0147507162764668
1769158624596,0.0803070068359375,-0.315887451171875,-0.938690185546875,-0.0567719377577304,-0.0090134683996438,0.0094978976994752
1769158624607,0.0752716064453125,-0.3176422119140625,-0.93890380859375,-0.0565615445375442,-0.0060176788829267,0.0065135592594742
1769158624616,0.07183837890625,-0.31494140625,-0.941253662109375,-0.051307663321495,-0.0044959485530853,0.0042344261892139
1769158624627,0.07183837890625,-0.3145294189453125,-0.9442596435546876,-0.0483337119221687,-0.0016743293963372,0.0038876824546605
1769158624636,0.0717620849609375,-0.312347412109375,-0.9455413818359376,-0.050355315208435,0.0013731258222833,0.002551042009145
1769158624646,0.07281494140625,-0.310394287109375,-0.9421234130859376,-0.0517287068068981,0.0010828413069248,0.0015784555580466
1769158624657,0.0727081298828125,-0.311187744140625,-0.9423828125,-0.0491667464375495,0.0012040151050314,0.0048930258490145
1769158624667,0.07763671875,-0.312530517578125,-0.94415283203125,-0.0429027266800403,0.0093391733244061,0.0075194351375103
1769158624677,0.0766143798828125,-0.311737060546875,-0.946380615234375,-0.0366104766726493,0.0070278155617415,0.0036647759843617
1769158624687,0.0713348388671875,-0.3114471435546875,-0.947509765625,-0.0306684300303459,0.0008210525847971,-0.0037148434203118
1769158624697,0.071990966796875,-0.309356689453125,-0.953277587890625,-0.021870944648981,-0.0084006749093532,-0.0016125440597534
1769158624707,0.08026123046875,-0.31341552734375,-0.9528350830078124,-0.0250899065285921,-0.012132029980421,0.0005693838465958
1769158624717,0.0794219970703125,-0.317413330078125,-0.943359375,-0.0330104157328605,-0.0002889529860112,-0.0030985879711806
1769158624727,0.079742431640625,-0.3216705322265625,-0.9341888427734376,-0.0358914211392402,0.0075258268043398,0.0095807220786809
1769158624737,0.08929443359375,-0.3238677978515625,-0.935028076171875,-0.0352045930922031,0.0001632517669349,0.0186003167182207
1769158624747,0.0867919921875,-0.31451416015625,-0.939056396484375,-0.0381577722728252,0.0097839208319783,0.016275642439723
1769158624757,0.07196044921875,-0.312530517578125,-0.9393310546875,-0.0330152064561843,0.0146636310964822,0.0100145507603883
1769158624767,0.06866455078125,-0.307647705078125,-0.945648193359375,-0.0236866865307092,-0.0066493805497884,0.0031233553308993
1769158624777,0.0662384033203125,-0.308837890625,-0.95379638671875,-0.0223487149924039,-0.0130335101857781,-0.0106023102998733
1769158624787,0.06817626953125,-0.30792236328125,-0.9536590576171876,0.0008847020799294,0.003393666120246,-0.0118217719718813
1769158624797,0.068115234375,-0.3086090087890625,-0.9611053466796876,0.0128609370440244,0.0116598522290587,-0.0082994755357503
1769158624807,0.07281494140625,-0.310394287109375,-0.9535980224609376,0.0185603685677051,0.009589510038495,-0.0097128143534064
1769158624817,0.0791778564453125,-0.3061370849609375,-0.9514617919921876,0.0297067631036043,0.0082944147288799,-0.0090201264247298
1769158624827,0.0756988525390625,-0.2985382080078125,-0.95123291015625,0.026664899662137,0.0046301716938614,-0.0130138024687767
1769158624838,0.0670166015625,-0.298614501953125,-0.9352264404296876,0.0028692898340523,-0.01207503862679,-0.0193388108164072
1769158624847,0.0651092529296875,-0.30255126953125,-0.9207000732421876,-0.026071548461914,-0.0255724713206291,-0.0303989183157682
1769158624858,0.0692138671875,-0.3040924072265625,-0.91748046875,-0.0465089119970798,-0.0073133064433932,-0.0333326570689678
1769158624868,0.0792999267578125,-0.309722900390625,-0.9196014404296876,-0.0572696812450885,0.0179691463708877,-0.0202719811350107
1769158624878,0.08740234375,-0.31610107421875,-0.9232635498046876,-0.0652325302362442,0.0237854905426502,-0.0174439717084169
1769158624888,0.08843994140625,-0.3172149658203125,-0.9307861328125,-0.0757882371544838,0.0152047853916883,-0.0219774711877107
1769158624898,0.0861358642578125,-0.3150787353515625,-0.9370880126953124,-0.0759972929954528,0.0053239255212247,-0.0262816715985536
1769158624908,0.0835113525390625,-0.3115997314453125,-0.948760986328125,-0.0658354684710502,-0.0133610786870121,-0.0261514429003
1769158624918,0.081146240234375,-0.3079681396484375,-0.964447021484375,-0.0468937382102012,-0.0179534349590539,-0.0235239677131176
1769158624928,0.085845947265625,-0.3040313720703125,-0.972747802734375,-0.0265988539904356,-0.012678244151175,-0.0114111127331852
1769158624938,0.0894317626953125,-0.3021087646484375,-0.9717254638671876,-0.0035113778430968,-7.962851668708026e-05,0.0018330537714064
1769158624948,0.089691162109375,-0.30419921875,-0.9692535400390624,0.0083372918888926,0.0085846995934844,0.0065055699087679
1769158624958,0.0820465087890625,-0.3063507080078125,-0.9559783935546876,0.0124926222488284,0.0173030905425548,0.0074954666197299
1769158624968,0.084259033203125,-0.3079071044921875,-0.9461669921875,0.0103977797552943,0.016441024839878,0.0112196309491992
1769158624978,0.0863494873046875,-0.30987548828125,-0.9425048828125,0.0094057526439428,0.0211098119616508,0.0106265451759099
1769158624988,0.0823211669921875,-0.308837890625,-0.940826416015625,0.0061596250161528,0.0196517314761877,0.0081633878871798
1769158624998,0.0738983154296875,-0.3084564208984375,-0.938018798828125,-0.0001917476038215,0.0205018129199743,0.0079657807946205
1769158625008,0.0784149169921875,-0.3116912841796875,-0.9358978271484376,-0.0059979711659252,0.015690280124545,0.0151150366291403
1769158625018,0.080108642578125,-0.3116302490234375,-0.940093994140625,-0.0052184639498591,0.009746903553605,0.0048725195229053
1769158625028,0.0728912353515625,-0.3023681640625,-0.9501800537109376,0.0053604105487465,0.0100534334778785,-0.0027755463961511
1769158625038,0.070281982421875,-0.2993316650390625,-0.9567108154296876,0.0136785274371504,0.0071806809864938,0.0012876383261755
1769158625048,0.081512451171875,-0.30596923828125,-0.951171875,0.0198115222156047,0.0178106892853975,0.0054008904844522
1769158625058,0.0865631103515625,-0.30499267578125,-0.9509124755859376,0.0191561169922351,0.0131810493767261,0.0073157036677002
1769158625068,0.0867462158203125,-0.301727294921875,-0.9483489990234376,0.0151856103911995,0.0075620459392666,0.0049540121108293
1769158625079,0.0817718505859375,-0.3031158447265625,-0.9418487548828124,0.0057769292034208,0.0090632699429988,0.0032921996898949
1769158625089,0.080169677734375,-0.3057708740234375,-0.933837890625,-0.0059681441634893,0.0166799109429121,-0.0013009541435167
1769158625099,0.07696533203125,-0.3054351806640625,-0.9284820556640624,-0.0198773015290498,0.0205452218651771,-0.0013227921444922
1769158625109,0.0770111083984375,-0.3092803955078125,-0.923980712890625,-0.0377873256802558,0.0020133496727794,0.0010823087068274
1769158625119,0.0843353271484375,-0.3117218017578125,-0.92156982421875,-0.0583621077239513,-0.0011438276851549,-0.0029784792568534
1769158625129,0.0839080810546875,-0.3135986328125,-0.923431396484375,-0.0680240616202354,-0.0009430253412574,-0.0052054147236049
1769158625139,0.083038330078125,-0.3120269775390625,-0.9380950927734376,-0.0620503202080726,-0.0049628005363047,0.0010785802733153
1769158625149,0.091339111328125,-0.309295654296875,-0.95709228515625,-0.0620503202080726,-0.0049628005363047,0.0010785802733153
1769158625159,0.0927734375,-0.3109130859375,-0.9633941650390624,-0.0369502939283847,0.0108704911544919,0.0148742869496345
1769158625169,0.0859222412109375,-0.310394287109375,-0.9633026123046876,-0.0237636528909206,0.0260885916650295,0.0195057913661003
1769158625179,0.0847320556640625,-0.308349609375,-0.967132568359375,-0.0088456897065043,0.0224991831928491,0.0183566361665725
1769158625189,0.0830535888671875,-0.305633544921875,-0.96771240234375,-0.0108377337455749,0.0205705221742391,0.0166295766830444
1769158625199,0.0789947509765625,-0.3077850341796875,-0.9542236328125,0.0009049421059899,0.0133584160357713,0.0058839879930019
1769158625209,0.07275390625,-0.30902099609375,-0.9541473388671876,0.0052301818504929,-0.0111690312623977,0.0016732640797272
1769158625219,0.0832977294921875,-0.3062896728515625,-0.9492950439453124,0.0035156388767063,-0.0169526189565658,-0.0034533210564404
1769158625229,0.0804443359375,-0.304290771484375,-0.9423828125,-0.0036983317695558,-0.0031880701426416,0.0025920546613633
1769158625239,0.0777740478515625,-0.308197021484375,-0.93060302734375,-0.0124830352142453,0.0040746363811194,0.0031617048662155
1769158625249,0.0767822265625,-0.3058929443359375,-0.9268035888671876,-0.0263892635703086,0.0099916476756334,0.0011179950088262
1769158625259,0.0753936767578125,-0.304443359375,-0.9306182861328124,-0.0297927837818861,0.0147853372618556,0.0006165218073874
1769158625270,0.0814056396484375,-0.3034820556640625,-0.9437103271484376,-0.0212573520839214,0.0244784448295831,0.0045087318867444
1769158625279,0.0861053466796875,-0.3026580810546875,-0.9574432373046876,-0.0069156968966126,0.0301302056759595,0.0066736154258251
1769158625290,0.083709716796875,-0.3048248291015625,-0.96051025390625,0.0012777847005054,0.0290859807282686,0.0061737401410937
1769158625301,0.0810699462890625,-0.306488037109375,-0.9560394287109376,0.0007099987124092,0.0167787130922079,0.0069681610912084
1769158625310,0.08209228515625,-0.30670166015625,-0.9499359130859376,0.0007099987124092,0.0167787130922079,0.0069681610912084
1769158625320,0.07684326171875,-0.3061370849609375,-0.936431884765625,-0.020045081153512,0.0140479085966944,0.0029201561119407
1769158625330,0.0753326416015625,-0.3083038330078125,-0.927642822265625,-0.0336343944072723,0.0157137159258127,0.0081506045535206
1769158625340,0.0812835693359375,-0.307647705078125,-0.924407958984375,-0.0467326194047927,0.0156692415475845,0.0109048457816243
1769158625350,0.0853118896484375,-0.3072967529296875,-0.9255218505859376,-0.0542137026786804,0.0156798940151929,0.014888135716319
1769158625360,0.087554931640625,-0.3057708740234375,-0.9334259033203124,-0.0592063330113887,0.0234488677233457,0.0143384588882327
1769158625370,0.083770751953125,-0.302703857421875,-0.9397125244140624,-0.0541721582412719,0.0195782277733087,0.0166104026138782
1769158625380,0.08050537109375,-0.3038330078125,-0.946044921875,-0.0468157082796096,0.013171462342143,0.0150852091610431
1769158625390,0.0798797607421875,-0.3015594482421875,-0.9539642333984376,-0.0361441560089588,0.0090672643855214,0.0104462495073676
1769158625400,0.0774078369140625,-0.29913330078125,-0.9620361328125,-0.027893416583538,0.0071428641676902,0.0101407850161194
1769158625410,0.07354736328125,-0.2999420166015625,-0.9635009765625,-0.0175153445452451,0.0100859235972166,0.0049284459091722
1769158625421,0.0738677978515625,-0.30126953125,-0.9571380615234376,-0.0115016596391797,0.0131155354902148,0.0026101642288267
1769158625430,0.07879638671875,-0.30633544921875,-0.9527130126953124,-0.0045617287978529,0.0093138730153441,0.0059010321274399
1769158625440,0.0851287841796875,-0.3019561767578125,-0.9556121826171876,-0.0025331987999379,-0.0009661948424763,0.0114257596433162
1769158625450,0.0894927978515625,-0.3019561767578125,-0.9527740478515624,-0.0040512005798518,-0.0021345235873013,0.0135815888643264
1769158625460,0.083953857421875,-0.305755615234375,-0.9451141357421876,-0.0131634725257754,-0.0045963497832417,0.0074816183187067
1769158625470,0.0841522216796875,-0.3090972900390625,-0.9387054443359376,-0.0194839518517255,-0.0013646037550643,0.0178024321794509
1769158625480,0.0949554443359375,-0.3112030029296875,-0.9402618408203124,-0.0176431760191917,-0.0072456621564924,0.0217929128557443
1769158625490,0.0830535888671875,-0.3028717041015625,-0.946319580078125,-0.0154892113059759,0.0020434434991329,0.0105122961103916
1769158625501,0.071044921875,-0.3006744384765625,-0.9471282958984376,-0.0151975946500897,0.0095583517104387,0.0196056589484214
1769158625511,0.0827484130859375,-0.301727294921875,-0.9437713623046876,-0.0203183218836784,-0.0092813828960061,0.0232134442776441
1769158625521,0.077117919921875,-0.3042755126953125,-0.9371490478515624,-0.0271613132208585,-0.0094459662213921,0.002510828198865
1769158625531,0.0614776611328125,-0.2929229736328125,-0.9438323974609376,-0.0204818397760391,0.0123645244166255,-0.0072488579899072
1769158625541,0.0672760009765625,-0.2949371337890625,-0.95263671875,-0.0121043333783745,0.0017694041598588,0.0015249260468408
1769158625551,0.0862884521484375,-0.30224609375,-0.9503021240234376,-0.0102470451965928,-0.0048285773955285,0.0018056231783702
1769158625561,0.085296630859375,-0.300079345703125,-0.9493865966796876,-0.0066906595602631,-0.0011760519118979,-0.0083348955959081
1769158625571,0.07183837890625,-0.2915191650390625,-0.9556121826171876,0.0032296155113726,0.0017227989155799,-0.0179454442113637
1769158625581,0.0687713623046875,-0.2897491455078125,-0.9561920166015624,0.0027593011036515,0.0010173275368288,-0.0228869393467903
1769158625591,0.068389892578125,-0.296630859375,-0.945281982421875,-0.0125538753345608,-0.0002790992730297,-0.0305717568844556
1769158625601,0.071990966796875,-0.30322265625,-0.932464599609375,-0.0280081983655691,-0.0015342470724135,-0.0296777337789535
1769158625611,0.082733154296875,-0.3052978515625,-0.9300689697265624,-0.0335789993405342,-0.0047582699917256,-0.0207939613610506
1769158625621,0.090728759765625,-0.3076934814453125,-0.933624267578125,-0.0428721010684967,-0.0098579572513699,-0.0158484708517789
1769158625631,0.0921630859375,-0.3103790283203125,-0.9246368408203124,-0.06647889316082,-0.0081572625786066,-0.0111131044104695
1769158625641,0.087799072265625,-0.3076324462890625,-0.9217376708984376,-0.076074793934822,-0.0163957513868808,-0.0115213673561811
1769158625651,0.0817718505859375,-0.2979888916015625,-0.9351043701171876,-0.0724899098277092,-0.0137179428711533,-0.0061939801089465
1769158625661,0.0857696533203125,-0.2957763671875,-0.949615478515625,-0.0661617070436477,-0.0109799467027187,-0.0066070361062884
1769158625671,0.0811920166015625,-0.297119140625,-0.9515533447265624,-0.0599008835852146,-0.0026469158474355,-0.0049332394264638
1769158625681,0.0762176513671875,-0.294342041015625,-0.9603729248046876,-0.0514384247362613,-0.0087729850783944,-0.0110020507127046
1769158625691,0.074554443359375,-0.2935333251953125,-0.962982177734375,-0.0433884859085083,-0.0163819026201963,-0.0176234692335128
1769158625701,0.0717620849609375,-0.292144775390625,-0.9625396728515624,-0.0306338090449571,-0.0160053316503763,-0.0190573148429393
1769158625712,0.071533203125,-0.2951812744140625,-0.9640350341796876,-0.0183305367827415,-0.0056485645473003,-0.0175318550318479
1769158625722,0.079742431640625,-0.300537109375,-0.9585723876953124,-0.0180615577846765,0.0038823562208563,-0.0150460610166192
1769158625732,0.0818023681640625,-0.301971435546875,-0.9527740478515624,-0.0177164133638143,0.0088483523577451,-0.0099604884162545
1769158625742,0.0807342529296875,-0.300262451171875,-0.95166015625,-0.0150641705840826,0.0097152115777134,-0.0087263798341155
1769158625752,0.0845794677734375,-0.2996978759765625,-0.9538421630859376,-0.0141914524137973,0.0130079435184597,-0.0067766797728836
1769158625762,0.0871124267578125,-0.3001861572265625,-0.9537200927734376,-0.0159126538783311,0.007062969263643,-0.0035228293854743
1769158625772,0.08953857421875,-0.29937744140625,-0.9535369873046876,-0.0184820722788572,0.013626329600811,-0.0011150655336678
1769158625782,0.08782958984375,-0.299713134765625,-0.9483489990234376,-0.0128545463085174,0.0222613625228405,0.0010599381057545
1769158625792,0.079620361328125,-0.292724609375,-0.95281982421875,-0.0058648134581744,0.0267099067568779,-0.0010535465553402
1769158625802,0.081298828125,-0.29376220703125,-0.955780029296875,-0.0061577609740197,0.0120686469599604,0.0006684534018859
1769158625812,0.0875091552734375,-0.2926788330078125,-0.9508209228515624,-0.0048999502323567,0.0088230529800057,-0.0079583246260881
1769158625822,0.076812744140625,-0.282806396484375,-0.9533843994140624,0.0024636902380734,0.0264262817800045,-0.013767210766673
1769158625832,0.0711212158203125,-0.2854461669921875,-0.9515533447265624,-0.0046751792542636,0.0242693871259689,-0.0086222505196928
1769158625842,0.0826416015625,-0.293426513671875,-0.9422454833984376,-0.0156623162329196,0.013776266016066,-0.0088510159403085
1769158625852,0.08831787109375,-0.2947235107421875,-0.937744140625,-0.0263032428920269,0.0015393070643767,-0.0113128423690795
1769158625862,0.082427978515625,-0.29571533203125,-0.9335784912109376,-0.0354714430868625,0.0120547981932759,-0.0063287359662353
1769158625872,0.0844879150390625,-0.297149658203125,-0.9395294189453124,-0.0346442647278308,0.0043843621388077,-0.0060046291910111
1769158625882,0.0933380126953125,-0.297088623046875,-0.9387969970703124,-0.0346442647278308,0.0043843621388077,-0.0060046291910111
1769158625892,0.0876007080078125,-0.29718017578125,-0.938232421875,-0.0442558787763118,-0.0006889597862027,-0.0008799084462225
1769158625902,0.082122802734375,-0.2967071533203125,-0.9460906982421876,-0.0428816862404346,0.0247399676591157,0.0050757187418639
1769158625912,0.0869598388671875,-0.2961273193359375,-0.954833984375,-0.0327150709927082,0.0372661463916301,0.0086430227383971
1769158625922,0.088348388671875,-0.294525146484375,-0.964813232421875,-0.0162479449063539,0.0305208917707204,0.0149152996018528
1769158625932,0.0875091552734375,-0.2897491455078125,-0.972625732421875,0.0028932581190019,0.0049758502282202,0.0147637659683823
1769158625943,0.086517333984375,-0.2891845703125,-0.9707183837890624,0.0148894675076007,0.00473323604092,0.0152047853916883
1769158625952,0.0871734619140625,-0.2910003662109375,-0.96893310546875,0.0203529428690671,0.0161470118910074,0.0184509120881557
1769158625963,0.0863494873046875,-0.293792724609375,-0.959136962890625,0.0242416895925998,0.0152649730443954,0.0212035551667213
1769158625973,0.08612060546875,-0.2924041748046875,-0.9535369873046876,0.025085911154747,0.0059372512623667,0.0179145522415637
1769158625983,0.0837554931640625,-0.2917327880859375,-0.9471435546875,0.0161478109657764,0.0087980190292,0.0165203865617513
1769158625993,0.0822296142578125,-0.2933807373046875,-0.936431884765625,0.0033111080992966,0.0006609965930692,0.0158564615994691
1769158626003,0.0784149169921875,-0.294464111328125,-0.9299774169921876,-0.0009464874165132,-0.0019318570848554,0.0133970314636826
1769158626013,0.0755615234375,-0.287078857421875,-0.9419097900390624,-0.0082406196743249,-0.0040059266611933,0.0019323896849527
1769158626023,0.073394775390625,-0.28826904296875,-0.9398040771484376,-0.0142708150669932,0.0108917960897088,0.0050940946675837
1769158626033,0.0841064453125,-0.293548583984375,-0.941497802734375,-0.0158806964755058,0.0178058948367834,0.0094603467732667
1769158626043,0.0882415771484375,-0.2949371337890625,-0.943634033203125,-0.0200243089348077,0.0139200761914253,0.0101578291505575
1769158626054,0.0862884521484375,-0.29656982421875,-0.9420166015625,-0.0235806927084922,-9.214537567459048e-05,0.0065947859548032
1769158626063,0.084014892578125,-0.2931671142578125,-0.9452667236328124,-0.0243966858834028,-0.0110856741666793,0.0075332839041948
1769158626075,0.08465576171875,-0.29278564453125,-0.9506988525390624,-0.0256403815001249,-0.0169664658606052,0.0052448292262852
1769158626083,0.0825653076171875,-0.2932281494140625,-0.95391845703125,-0.0201063342392444,-0.0166665948927402,0.0052914349362254
1769158626093,0.08001708984375,-0.294647216796875,-0.9550018310546876,-0.0164005439728498,-0.0098539618775248,0.0028200212400406
1769158626103,0.0827789306640625,-0.2970733642578125,-0.9530181884765624,-0.0127357691526412,-0.0057548247277736,0.0074414047412574
1769158626113,0.089019775390625,-0.2988433837890625,-0.950714111328125,-0.0121642546728253,-0.0106265451759099,0.0119171133264899
1769158626124,0.0917816162109375,-0.2979736328125,-0.9509735107421876,-0.0162034705281257,-0.012344017624855,0.0092978943139314
1769158626133,0.085235595703125,-0.292999267578125,-0.9476470947265624,-0.0165321044623851,-0.0032088428270071,0.0026759442407637
1769158626144,0.0780029296875,-0.2906036376953125,-0.947723388671875,-0.019945478066802,-0.000373907823814,-0.0001190433031297
1769158626153,0.080718994140625,-0.2918701171875,-0.947906494140625,-0.0192144401371479,0.0016761935548856,0.0008679241873323
1769158626163,0.0826416015625,-0.28839111328125,-0.954498291015625,-0.0125288413837552,0.0040868869982659,0.0062009040266275
1769158626174,0.0831298828125,-0.2876129150390625,-0.9592437744140624,-0.0013816480059176,0.0087612671777606,0.0094539551064372
1769158626184,0.083587646484375,-0.2861480712890625,-0.9600372314453124,0.0051769185811281,0.0041207089088857,0.0074786888435482
1769158626194,0.0815582275390625,-0.2880706787109375,-0.9599151611328124,0.0045092641375958,-0.0012498215073719,0.0098566254600882
1769158626204,0.0855560302734375,-0.29302978515625,-0.9518890380859376,-0.0017853832105174,-0.0022287995088845,0.0110419988632202
1769158626214,0.0870513916015625,-0.3011627197265625,-0.9433746337890624,-0.0105045726522803,-0.0108968559652566,0.0158676467835903
1769158626224,0.0888214111328125,-0.304962158203125,-0.9378204345703124,-0.0192037876695394,-0.0057135457172989,0.0159709770232439
1769158626234,0.083465576171875,-0.2968597412109375,-0.9407806396484376,-0.0195691734552383,0.0081727085635066,0.0119533324614167
1769158626244,0.076385498046875,-0.29290771484375,-0.9532012939453124,-0.0110166985541582,0.0189470592886209,0.0181963145732879
1769158626254,0.085296630859375,-0.2913665771484375,-0.95709228515625,-0.0049012815579771,0.0154684381559491,0.0286974254995584
1769158626264,0.0805511474609375,-0.287872314453125,-0.9589080810546876,-0.0022319953422993,0.0011155981337651,0.0095037566497921
1769158626274,0.0655059814453125,-0.27935791015625,-0.9576416015625,0.0108356038108468,0.0105847334489226,-0.0064246095716953
1769158626284,0.062530517578125,-0.279571533203125,-0.96307373046875,0.0194551907479763,0.0033249566331505,-0.0059902481734752
1769158626294,0.0765533447265625,-0.2890472412109375,-0.9503021240234376,0.0149866724386811,-0.0038959383964538,-0.006727943662554
1769158626304,0.082000732421875,-0.2974395751953125,-0.936767578125,0.0017702031182125,-0.0041838260367512,-0.0079647153615951
1769158626314,0.074920654296875,-0.2950592041015625,-0.9301605224609376,-0.0097130807116627,-0.0009113337146118,-0.0117701068520545
1769158626324,0.06671142578125,-0.2906341552734375,-0.9309844970703124,-0.0196522641927003,-0.0145640289410948,-0.0189073774963617
1769158626334,0.0668182373046875,-0.284088134765625,-0.9315643310546876,-0.0389442034065723,-0.0278545338660478,-0.026951989158988
1769158626344,0.0692138671875,-0.2843170166015625,-0.9308013916015624,-0.0553628578782081,-0.0282654594630002,-0.03361601755023
1769158626354,0.0763702392578125,-0.2889251708984375,-0.9323883056640624,-0.0646362528204917,-0.0195574555546045,-0.0366909019649028
1769158626364,0.0829925537109375,-0.293121337890625,-0.9311676025390624,-0.0703758969902992,-0.011927499435842,-0.0278888884931802
1769158626375,0.090576171875,-0.2953033447265625,-0.9414520263671876,-0.0681992918252945,-0.0088403634727001,-0.0203785076737403
1769158626385,0.0926513671875,-0.292724609375,-0.95159912109375,-0.0666687786579132,-0.0070118368603289,-0.0170650035142898
1769158626395,0.090362548828125,-0.294464111328125,-0.9521636962890624,-0.0657664984464645,-0.0129453595727682,-0.0145528437569737
1769158626405,0.0845184326171875,-0.29315185546875,-0.9524993896484376,-0.0752926245331764,-0.0375748053193092,-0.0167656634002923
1769158626415,0.0796051025390625,-0.291656494140625,-0.94677734375,-0.0678309798240661,-0.0105405254289507,-0.01638163626194
1769158626425,0.0736236572265625,-0.2835845947265625,-0.9658660888671876,-0.0457941181957721,-0.0073905382305383,-0.0095841838046908
1769158626435,0.0843353271484375,-0.28436279296875,-0.973297119140625,-0.0239178501069545,-0.027769312262535,0.0020663465838879
1769158626445,0.0904998779296875,-0.281829833984375,-0.9760589599609376,-0.0079671125859022,-0.0242392923682928,0.0039510657079517
1769158626455,0.084075927734375,-0.282745361328125,-0.9722442626953124,-0.0012325108982622,-0.0251514259725809,0.0042035332880914
1769158626465,0.0780029296875,-0.2875518798828125,-0.956939697265625,-0.0029888655990362,-0.0221183523535728,0.0012311793398112
1769158626475,0.0772247314453125,-0.2901458740234375,-0.9505767822265624,-0.0061516356654465,-0.0140937147662043,-0.0002929477195721
1769158626485,0.07708740234375,-0.2893524169921875,-0.9506683349609376,-0.0040847565978765,-0.0039659794420003,0.0009720537927933
1769158626495,0.0791168212890625,-0.2890777587890625,-0.95941162109375,0.0010916297324001,0.0056307213380932,0.0032674323301762
1769158626505,0.0820159912109375,-0.2908477783203125,-0.958465576171875,0.0034107104875147,0.0037670412566512,0.0084960162639617
1769158626515,0.085784912109375,-0.2941131591796875,-0.954681396484375,0.0012626046082004,-0.0056480318307876,0.0117250988259911
1769158626525,0.081756591796875,-0.2900543212890625,-0.9546966552734376,0.0059979711659252,-0.0025433187838643,-0.0009012137306854
1769158626535,0.0717926025390625,-0.2794952392578125,-0.963165283203125,0.0141533697023987,-0.0038437403272837,-0.0047113983891904
1769158626545,0.0796051025390625,-0.279876708984375,-0.964935302734375,0.0190509222447872,0.001866076956503,0.0027017768006771
1769158626555,0.087127685546875,-0.2814178466796875,-0.959014892578125,0.0271346811205148,0.0109975235536694,0.0003254382754676
1769158626565,0.0804443359375,-0.2781829833984375,-0.9581756591796876,0.0254382491111755,0.0074888090603053,0.0019640813115984
1769158626575,0.077789306640625,-0.2809295654296875,-0.9500732421875,0.0129959592595696,0.0069082397967576,-0.0001131843455368
1769158626585,0.0805816650390625,-0.2855224609375,-0.9411163330078124,0.0024237427860498,0.0118931448087096,-0.0008974852971732
1769158626596,0.07965087890625,-0.2883758544921875,-0.939697265625,-0.0069969231262803,0.0145728178322315,0.0018756643403321
1769158626606,0.081787109375,-0.2903900146484375,-0.939239501953125,-0.0142859946936368,0.0039689089171588,0.0027877970132976
1769158626616,0.085479736328125,-0.28778076171875,-0.9404754638671876,-0.0257298648357391,-0.0046709179878234,0.0002495381922926
1769158626626,0.083587646484375,-0.2890472412109375,-0.9389495849609376,-0.0383777506649494,-0.0133717320859432,0.0025433187838643
1769158626636,0.08380126953125,-0.2917938232421875,-0.933135986328125,-0.0507766269147396,-0.0178322605788707,0.0059321913868188
1769158626646,0.0818023681640625,-0.289215087890625,-0.93603515625,-0.0539713576436042,-0.0103498427197337,0.0110747553408145
1769158626656,0.080352783203125,-0.285369873046875,-0.9499969482421876,-0.0504724942147731,-0.0003326288133393,0.0109229553490877
1769158626666,0.07958984375,-0.284027099609375,-0.959930419921875,-0.0305808130651712,0.0149342082440853,0.0158109217882156
1769158626676,0.0828399658203125,-0.2812957763671875,-0.9755401611328124,-0.0084267742931842,0.0208975579589605,0.0198453441262245
1769158626686,0.0841064453125,-0.2830352783203125,-0.9796600341796876,0.0053529539145529,0.0303264800459146,0.0236179772764444
1769158626696,0.0846710205078125,-0.28753662109375,-0.96917724609375,0.0111951306462287,0.0427927374839782,0.0314061269164085
1769158626706,0.0858612060546875,-0.2908477783203125,-0.9600372314453124,0.0147869354113936,0.0424598418176174,0.0333864539861679
1769158626716,0.081268310546875,-0.286865234375,-0.95538330078125,0.0153190353885293,0.0332572907209396,0.0285416301339864
1769158626726,0.0794219970703125,-0.28564453125,-0.953399658203125,0.0138463070616126,0.0103090964257717,0.0236043948680162
1769158626736,0.079071044921875,-0.2847747802734375,-0.9519195556640624,0.009329586289823,-0.0042757051996886,0.020316457375884
1769158626747,0.0771942138671875,-0.2830657958984375,-0.94952392578125,0.0081942798569798,0.0047031426802277,0.0170636717230081
1769158626756,0.0735931396484375,-0.2836151123046875,-0.943878173828125,0.0038661109283566,0.0110023170709609,0.0185662265866994
1769158626767,0.0751495361328125,-0.2839813232421875,-0.94256591796875,-0.003296194365248,0.011723767966032,0.0186668951064348
1769158626777,0.0745391845703125,-0.28643798828125,-0.94195556640625,-0.0124012762680649,0.0082358252257108,0.0090041477233171
1769158626788,0.06964111328125,-0.287109375,-0.938873291015625,-0.0169297140091657,0.0078619178384542,0.0034772893413901
1769158626796,0.0696258544921875,-0.2902984619140625,-0.942779541015625,-0.0195699725300073,0.0021632856223732,0.001301220501773
1769158626807,0.0760955810546875,-0.290374755859375,-0.950714111328125,-0.0201548021286726,-0.0125488145276904,0.0023750071413815
1769158626816,0.0766448974609375,-0.288360595703125,-0.9521942138671876,-0.0187688935548067,-0.0094371773302555,1.6245283404714428e-05
1769158626827,0.0782318115234375,-0.288299560546875,-0.9569091796875,-0.0152359446510672,-0.0081751057878136,0.0027489147614687
1769158626837,0.0799713134765625,-0.2882537841796875,-0.95867919921875,-0.0093234609812498,-0.0034485273063182,0.0080667147412896
1769158626847,0.0825042724609375,-0.28955078125,-0.9614410400390624,0.0002239718451164,0.0039044604636728,0.0133333820849657
1769158626857,0.0824127197265625,-0.2888641357421875,-0.9622802734375,0.0051529505290091,-0.0052951630204916,0.0133999614045023
1769158626867,0.0805816650390625,-0.2906036376953125,-0.958343505859375,0.0095500955358147,-0.0045718485489487,0.0112505238503217
1769158626877,0.0790252685546875,-0.286285400390625,-0.9560089111328124,0.0152236940339207,-0.0090544810518622,0.0123605290427804
1769158626887,0.0811920166015625,-0.286376953125,-0.9550933837890624,0.0150487245991826,-0.0088419606909155,0.0088768480345606
1769158626897,0.07586669921875,-0.2867279052734375,-0.9473876953125,0.0101740742102265,-0.0031931300181895,0.006532734259963
1769158626907,0.0703887939453125,-0.2871246337890625,-0.9405364990234376,0.0063545685261487,0.0096507631242275,0.0056988983415067
1769158626917,0.07403564453125,-0.2870941162109375,-0.941680908203125,0.0039286953397095,0.0178170800209045,0.0087330378592014
1769158626927,0.07867431640625,-0.2839202880859375,-0.947174072265625,0.0032831449061632,0.016325443983078,0.008526642806828
1769158626937,0.077392578125,-0.2856597900390625,-0.9475860595703124,-0.0036695697344839,0.0027798074297606,0.0036922064609825
1769158626947,0.07879638671875,-0.28741455078125,-0.94830322265625,-0.0093258572742342,-0.0107692908495664,0.0040392163209617
1769158626957,0.08807373046875,-0.292724609375,-0.9503021240234376,-0.0097956387326121,-0.0163014754652977,0.0167488865554332
1769158626967,0.0955047607421875,-0.2968902587890625,-0.9531402587890624,-0.0087229181081056,-0.0181039031594991,0.0232635103166103
1769158626977,0.089019775390625,-0.292510986328125,-0.951171875,-0.009155947715044,-0.0067961206659674,0.0147342048585414
1769158626987,0.0694580078125,-0.2893218994140625,-0.9474945068359376,-0.0112425340339541,0.0020791299175471,0.0170402359217405
1769158626997,0.07574462890625,-0.289215087890625,-0.9434967041015624,-0.0088523477315902,-0.0048853028565645,0.0275203082710504
1769158627008,0.076171875,-0.2868804931640625,-0.949554443359375,-0.0162868276238441,-0.0018620821647346,0.016138756647706
1769158627018,0.0669403076171875,-0.279449462890625,-0.948883056640625,-0.0051942295394837,0.010523747652769,-0.0002918824611697
1769158627028,0.0610809326171875,-0.273681640625,-0.9635772705078124,0.0033627734519541,0.0162391569465398,0.0048560081049799
1769158627039,0.0831146240234375,-0.28424072265625,-0.961700439453125,0.0060134176164865,0.0027425233274698,0.0116619821637868
1769158627048,0.089691162109375,-0.2899627685546875,-0.9517822265625,0.0033420007675886,-0.0007832356495782,0.0072880065999925
1769158627058,0.076202392578125,-0.284210205078125,-0.94964599609375,0.0050794472917914,0.001294029993005,0.0002439455565763
1769158627068,0.065582275390625,-0.282623291015625,-0.9481658935546876,0.0051582767628133,0.0046325684525072,-0.001496696495451
1769158627078,0.0647735595703125,-0.284088134765625,-0.94329833984375,-0.00497158896178,0.0081210434436798,-0.0032224250026047
1769158627088,0.065521240234375,-0.28253173828125,-0.9417877197265624,-0.0242017433047294,0.0058014299720525,-0.0129687953740358
1769158627098,0.06768798828125,-0.2856292724609375,-0.937164306640625,-0.0384443290531635,0.0015446334145963,-0.0120950127020478
1769158627108,0.0814971923828125,-0.2900238037109375,-0.9376983642578124,-0.0423386693000793,0.0066041066311299,-0.0020250675734132
1769158627118,0.09014892578125,-0.2905731201171875,-0.9482879638671876,-0.0417413227260112,0.0065955845639109,0.0005656554130837
1769158627128,0.087677001953125,-0.2913055419921875,-0.9502105712890624,-0.0418537072837352,0.0005195827106945,-0.0018546254141256
1769158627138,0.0849456787109375,-0.290863037109375,-0.9517822265625,-0.0398424863815307,-0.0007619303651154,0.00054035539506
1769158627148,0.0832061767578125,-0.29083251953125,-0.9566497802734376,-0.0329339802265167,-0.0042014028877019,0.001294029993005
1769158627158,0.0770111083984375,-0.2879638671875,-0.960906982421875,-0.0191779546439647,0.0064451158978044,0.0067391293123364
1769158627168,0.077117919921875,-0.2867584228515625,-0.9679107666015624,-0.0063987770117819,0.0159318279474973,0.0094744618982076
1769158627178,0.073883056640625,-0.2847137451171875,-0.968658447265625,0.0028863339684903,0.023886689916253,0.0081071946769952
1769158627189,0.070556640625,-0.2841033935546875,-0.9661407470703124,0.0151504566892981,0.0207742545753717,0.0092361085116863
1769158627198,0.0710906982421875,-0.285858154296875,-0.9624786376953124,0.0217420477420091,0.0034035197459161,0.0077282269485294
1769158627209,0.0741119384765625,-0.2856292724609375,-0.958160400390625,0.0239101257175207,-0.0083780381828546,0.0012349077733233
1769158627218,0.0762176513671875,-0.286285400390625,-0.95306396484375,0.0174351837486028,-0.0064517739228904,-0.0013965616235509
1769158627229,0.0736083984375,-0.288818359375,-0.9425506591796876,0.0105884624645113,-0.000695351336617,0.0001661812566453
1769158627239,0.0737457275390625,-0.292083740234375,-0.9359893798828124,-0.0031923311762511,0.0054120761342346,0.0029614351224154
1769158627249,0.0765228271484375,-0.2924652099609375,-0.933074951171875,-0.0214826557785272,0.0011840413790196,0.00281229801476
1769158627259,0.0807952880859375,-0.2904205322265625,-0.9338836669921876,-0.0302836038172245,-0.0065702847205102,0.0007645935402251
1769158627269,0.0777587890625,-0.2844390869140625,-0.9443511962890624,-0.0269389394670724,-0.0044171190820634,-0.0104776741936802
1769158627279,0.0690460205078125,-0.2785491943359375,-0.956939697265625,-0.0185933914035558,0.001039165421389,-0.0091474251821637
1769158627289,0.07757568359375,-0.281097412109375,-0.963470458984375,-0.0070730894804,0.0046922233887016,-0.0044008735567331
1769158627299,0.0811920166015625,-0.2811431884765625,-0.9636993408203124,0.0021539647132158,0.0072834794409573,-0.0085841668769717
1769158627309,0.071990966796875,-0.277130126953125,-0.966552734375,0.0062802662141621,0.0076432721689343,-0.0078009315766394
1769158627319,0.076812744140625,-0.2805328369140625,-0.9604949951171876,0.0005555353709496,0.0049132658168673,-0.0055715991184115
1769158627329,0.082122802734375,-0.2856903076171875,-0.9503936767578124,-0.0045942193828523,0.0070504527539014,-0.0054482948035001
1769158627341,0.0790863037109375,-0.28546142578125,-0.947265625,-0.0081167826429009,0.016921192407608,-0.0034091125708073
1769158627349,0.0818939208984375,-0.2877197265625,-0.945068359375,-0.0116460034623742,0.0270622447133064,0.0043140547350049
1769158627359,0.088104248046875,-0.28759765625,-0.9430389404296876,-0.0184943228960037,0.0222698859870433,0.0081466101109981
1769158627369,0.0850067138671875,-0.2888946533203125,-0.9421234130859376,-0.0225306097418069,0.0140002379193902,0.0064592310227453
1769158627379,0.08221435546875,-0.2893829345703125,-0.946258544921875,-0.0262742135673761,0.0102619584649801,0.0059835901483893
1769158627389,0.0814971923828125,-0.2879791259765625,-0.9487457275390624,-0.0289070159196853,0.0046269758604466,0.0031526500824838
1769158627399,0.0740966796875,-0.2882843017578125,-0.9490203857421876,-0.0289443004876375,-0.0025707494933158,-0.0014514228096231
1769158627409,0.07220458984375,-0.287078857421875,-0.950653076171875,-0.030843399465084,0.0007856325246393,-0.0048096687532961
1769158627419,0.077056884765625,-0.2882537841796875,-0.9526214599609376,-0.0247508864849805,0.0017622136510908,-0.0014990933705121
1769158627429,0.0802001953125,-0.2882843017578125,-0.9568023681640624,-0.0147067746147513,-0.0014628743520006,-0.000638626050204
1769158627440,0.080352783203125,-0.28533935546875,-0.9653778076171876,-0.0065966499969363,-6.604639202123508e-05,3.222424857085571e-05
1769158627449,0.081634521484375,-0.2840423583984375,-0.9685516357421876,0.0061995727010071,-0.0051518850959837,0.0015947008505463
1769158627460,0.0840301513671875,-0.2845001220703125,-0.9684600830078124,0.0101469103246927,-0.014282532967627,0.0049252500757575
1769158627470,0.0792999267578125,-0.2870635986328125,-0.9600830078125,0.0109261507168412,-0.0009262474486604,0.0079412795603275
1769158627480,0.0738372802734375,-0.28631591796875,-0.9484710693359376,0.0022461100015789,0.0096558229997754,0.0052757221274077
1769158627490,0.0687103271484375,-0.2860107421875,-0.935272216796875,-0.007554855197668,0.0111178988590836,0.0004663194995373
1769158627500,0.0721435546875,-0.28515625,-0.93511962890625,-0.0187790133059024,0.0010958907660096,-0.0073218285106122
1769158627510,0.0743255615234375,-0.2815093994140625,-0.93975830078125,-0.0220094285905361,0.0017132115317508,-0.0096185384318232
1769158627520,0.0780181884765625,-0.281280517578125,-0.94476318359375,-0.0263439901173114,0.0009001484140753,-0.0101024350151419
1769158627530,0.0783233642578125,-0.2837982177734375,-0.9448089599609376,-0.028830848634243,0.0012724583502858,-0.0060357884503901
1769158627540,0.07757568359375,-0.2807464599609375,-0.954132080078125,-0.0223335344344377,-0.0041872882284224,-0.0066003785468637
1769158627550,0.08209228515625,-0.280548095703125,-0.9577484130859376,-0.0180836617946624,-0.011634019203484,-0.0083215795457363
1769158627560,0.0825958251953125,-0.2836456298828125,-0.9561309814453124,-0.0178748704493045,-0.0041697113774716,-0.010348510928452
1769158627570,0.078765869140625,-0.28521728515625,-0.9555511474609376,-0.0164018757641315,0.0031047132797539,-0.0089221224188804
1769158627580,0.0790863037109375,-0.2870025634765625,-0.9537200927734376,-0.0135075533762574,-0.0044674528762698,-0.007424094248563
1769158627590,0.079742431640625,-0.285736083984375,-0.955810546875,-0.0124779753386974,-0.0119314938783645,-0.0119863552972674
1769158627600,0.0792388916015625,-0.285552978515625,-0.957244873046875,-0.0157355535775423,-0.0084643252193927,-0.0106124309822916
1769158627610,0.077117919921875,-0.28753662109375,-0.952789306640625,-0.0120049975812435,-0.0065148910507559,-0.0057263290509581
1769158627620,0.0760040283203125,-0.284149169921875,-0.952789306640625,-0.0119333583861589,0.0080805635079741,-0.0046552056446671
1769158627630,0.075469970703125,-0.2823486328125,-0.9530029296875,-0.0083410209044814,0.0124292392283678,-0.0034687672741711
1769158627641,0.0770416259765625,-0.28192138671875,-0.9516754150390624,-0.0062592276372015,0.0101058976724743,-0.0016034892760217
1769158627650,0.080322265625,-0.2807159423828125,-0.9523773193359376,-0.005765211302787,0.0047838361933827,-0.0029284118209034
1769158627661,0.081817626953125,-0.27886962890625,-0.9529876708984376,-0.0057553574442863,0.0143019743263721,-0.0025867284275591
1769158627671,0.078155517578125,-0.2791900634765625,-0.95098876953125,-0.0101098921149969,0.0183843336999416,0.0010663296561688
1769158627681,0.081024169921875,-0.282562255859375,-0.946136474609375,-0.017428258433938,0.014011955820024,-0.0003073287953156
1769158627691,0.08367919921875,-0.28118896484375,-0.9506378173828124,-0.0265964567661285,0.0161528699100017,-0.0002031991898547
1769158627701,0.0832672119140625,-0.28338623046875,-0.947052001953125,-0.0348317511379718,0.0167052112519741,0.0007241134881041
1769158627711,0.086883544921875,-0.287017822265625,-0.9451751708984376,-0.0323062725365161,0.0032868734560906,0.0121650537475943
1769158627721,0.095458984375,-0.286651611328125,-0.955474853515625,-0.0262941885739564,-0.0009222526568919,0.0130468262359499
1769158627731,0.08544921875,-0.28106689453125,-0.9640960693359376,-0.0214658770710229,0.0192810203880071,0.0067282100208103
1769158627741,0.07525634765625,-0.28302001953125,-0.962127685546875,-0.0110273510217666,0.0311416741460561,0.0160623230040073
1769158627751,0.0843048095703125,-0.2813873291015625,-0.961883544921875,-0.0082499403506517,0.0107197556644678,0.0224552415311336
1769158627761,0.0758209228515625,-0.277435302734375,-0.96197509765625,-0.007816644385457,0.0029515814967453,0.0024959144648164
1769158627771,0.0606231689453125,-0.2657470703125,-0.9604949951171876,0.0055630770511925,0.0169014856219291,-0.0102880578488111
1769158627781,0.062225341796875,-0.26898193359375,-0.9675140380859376,0.0167408976703882,0.0193475987762212,0.0008343683439306
1769158627791,0.08404541015625,-0.2797088623046875,-0.9586334228515624,0.0172029547393322,0.0008372978190891,0.0022285331506282
1769158627801,0.083953857421875,-0.2844696044921875,-0.947845458984375,0.013610883615911,0.0043500075116753,-0.0024077638518065
1769158627811,0.072357177734375,-0.2778778076171875,-0.9459991455078124,0.0148178283125162,0.0262462515383958,-0.0044967476278543
1769158627821,0.0641326904296875,-0.2747802734375,-0.9460601806640624,0.0129948947578668,0.0214206036180257,-0.0056917080655694
1769158627831,0.0679473876953125,-0.2762603759765625,-0.9413299560546876,-0.0080597903579473,0.0075601814314723,-0.0140489740297198
1769158627841,0.0711669921875,-0.27813720703125,-0.9391326904296876,-0.0223045069724321,-0.0001904160162666,-0.0186844710260629
1769158627851,0.0781097412109375,-0.28082275390625,-0.942047119140625,-0.0245466213673353,-0.0039324234239757,-0.0141826644539833
1769158627862,0.0848388671875,-0.2844696044921875,-0.94781494140625,-0.0225772149860858,0.0070352726615965,-0.0087253144010901
1769158627873,0.087890625,-0.28741455078125,-0.9496307373046876,-0.0244952235370874,0.0004412857815623,-0.003915645647794
1769158627882,0.08709716796875,-0.28765869140625,-0.9494171142578124,-0.0248424988240003,-0.0071686971932649,-0.0028541097417473
1769158627892,0.0826568603515625,-0.287689208984375,-0.951568603515625,-0.0292822550982236,-0.0029332055710256,-0.0006897587445564
1769158627902,0.081329345703125,-0.2844085693359375,-0.951629638671875,-0.0270686354488134,-0.0030663637444376,0.000507065851707
1769158627912,0.08135986328125,-0.28057861328125,-0.9576263427734376,-0.0206882338970899,0.002274605911225,0.004702609963715
1769158627922,0.0792694091796875,-0.2798309326171875,-0.9639129638671876,-0.0109184281900525,0.0069210231304168,0.0061527010984718
1769158627932,0.0789794921875,-0.2761383056640625,-0.968017578125,0.0020516992080956,-5.858954409632133e-06,0.0043063312768936
1769158627942,0.0769500732421875,-0.275787353515625,-0.967315673828125,0.0098084220662713,-0.0066123628057539,-0.0034748925827443
1769158627952,0.073150634765625,-0.27935791015625,-0.960784912109375,0.014388526789844,-0.0069156968966126,-0.0056624128483235
1769158627962,0.072296142578125,-0.2822418212890625,-0.958221435546875,0.0167414285242557,-0.0087764477357268,-0.0055076833814382
1769158627972,0.07354736328125,-0.2845458984375,-0.957244873046875,0.018473282456398,-0.0153414057567715,-0.0072951973415911
1769158627982,0.0729217529296875,-0.28607177734375,-0.950714111328125,0.011256649158895,-0.0085958847776055,-0.0057343184016644
1769158627992,0.0756683349609375,-0.2853546142578125,-0.946258544921875,0.0061023673042654,-0.0023443805985152,-0.0028493159916251
1769158628002,0.08050537109375,-0.285491943359375,-0.9438323974609376,-0.0030107034835964,-0.0013438310706987,-0.001873267465271
1769158628012,0.0831146240234375,-0.283782958984375,-0.9436798095703124,-0.008854211308062,0.0040914141573011,-0.0057745319791138
1769158628023,0.0803985595703125,-0.2792816162109375,-0.947174072265625,-0.0064057013951241,0.0085676554590463,-0.0048373658210039
1769158628032,0.0829620361328125,-0.2760162353515625,-0.95660400390625,0.0010439591715112,0.00107964547351,-0.0010157296201214
1769158628042,0.0884552001953125,-0.2783203125,-0.960662841796875,0.0069617694243788,-0.0018343853298574,-0.0058387145400047
1769158628052,0.081512451171875,-0.273345947265625,-0.9578704833984376,0.0068760155700147,-0.0007038734620437,-0.0070869377814233
1769158628062,0.074005126953125,-0.2723388671875,-0.953765869140625,0.0024762072134763,-0.0004476773901842,-0.0079055940732359
1769158628073,0.0735321044921875,-0.2774200439453125,-0.94488525390625,-0.0108593059703707,0.0016056197928264,-0.0081050647422671
1769158628082,0.079437255859375,-0.2825927734375,-0.939361572265625,-0.0203771777451038,0.0047817057929933,-0.0060690776444971
1769158628093,0.084747314453125,-0.2830352783203125,-0.9453582763671876,-0.020837103947997,0.0080877542495727,-0.0034961977507919
1769158628103,0.089935302734375,-0.2823486328125,-0.95458984375,-0.0168418306857347,0.0134793231263756,0.0026389262638986
1769158628113,0.0888519287109375,-0.2836761474609375,-0.9594573974609376,-0.0137834567576646,0.0105003118515014,-0.0011848403373733
1769158628123,0.085174560546875,-0.2845916748046875,-0.9586181640625,-0.0137975709512829,0.0077529945410788,0.0020514330826699
1769158628133,0.0806427001953125,-0.28448486328125,-0.95709228515625,-0.0071117053739726,-0.0014508900931105,0.0021310613956302
1769158628143,0.0791473388671875,-0.28387451171875,-0.9581451416015624,-0.0022623552940785,0.0008793757879175,0.0012072109384462
1769158628153,0.080474853515625,-0.2826690673828125,-0.9615478515625,0.0037510623224079,0.002266083844006,0.002591788303107
1769158628163,0.0797576904296875,-0.28143310546875,-0.963287353515625,0.013759221881628,0.0080965422093868,0.0019190738676115
1769158628173,0.078643798828125,-0.2828216552734375,-0.9639434814453124,0.0227907989174127,0.0164072029292583,0.0059199407696723
1769158628183,0.080902099609375,-0.2822418212890625,-0.9614105224609376,0.0308042522519826,0.0137035613879561,0.0088182585313916
1769158628193,0.0811309814453125,-0.285308837890625,-0.958953857421875,0.03186472132802,0.0165813732892274,0.0097967041656374
1769158628203,0.0812835693359375,-0.28509521484375,-0.954559326171875,0.030299050733447,0.0082752406597137,0.0093642072752118
1769158628213,0.0793304443359375,-0.2828369140625,-0.9521026611328124,0.0244254488497972,0.0004034689045511,0.0052853096276521
1769158628223,0.07562255859375,-0.281036376953125,-0.9443511962890624,0.0147166280075907,-0.0065399245359003,0.0014181332662701
1769158628233,0.074951171875,-0.281982421875,-0.93701171875,-1.5446334145963192e-05,-0.0110864732414484,0.0008452873444184
1769158628243,0.0769805908203125,-0.2801361083984375,-0.9365997314453124,-0.0056240637786686,-0.0047420244663953,0.0027848675381392
1769158628253,0.075775146484375,-0.2798004150390625,-0.9405975341796876,-0.0124462833628058,-0.0048104678280651,-0.0010295780375599
1769158628263,0.0768585205078125,-0.2790069580078125,-0.94439697265625,-0.0158047955483198,0.0015275891637429,-0.0016924388473853
1769158628273,0.0777740478515625,-0.279693603515625,-0.9476776123046876,-0.0233159754425287,-0.0019438412273302,-0.003360110335052
1769158628283,0.080535888671875,-0.2854766845703125,-0.9473724365234376,-0.0256750024855136,-0.0099953757598996,-0.005036836490035
1769158628293,0.077972412109375,-0.285003662109375,-0.9485015869140624,-0.0273533277213573,0.0004977448261342,-0.005707686766982
1769158628303,0.0756683349609375,-0.283843994140625,-0.9539947509765624,-0.0208490882068872,0.0094318510964512,-0.0023454460315406
1769158628314,0.0803680419921875,-0.2840423583984375,-0.9555511474609376,-0.0177193414419889,0.0035691685043275,0.0009595369338057
1769158628324,0.0830230712890625,-0.2841644287109375,-0.95416259765625,-0.0171137396246194,-0.0034953989088535,-0.0004021373169962
1769158628334,0.0863189697265625,-0.2843475341796875,-0.9569549560546876,-0.012089685536921,-0.0141807999461889,-0.0005970807396806
1769158628344,0.084228515625,-0.2844085693359375,-0.961212158203125,-0.0083932187408208,-0.0159600581973791,-0.0004759068833664
1769158628354,0.0832672119140625,-0.2840728759765625,-0.9627685546875,-0.0027502465527504,-0.0023768711835145,0.0036935380194336
1769158628364,0.0803070068359375,-0.2827301025390625,-0.9635772705078124,0.0047079361975193,0.001275121467188,0.0074275564402341
1769158628374,0.080841064453125,-0.2831878662109375,-0.9617156982421876,0.0103479782119393,0.0044791707769036,0.0084438184276223
1769158628384,0.0841064453125,-0.283233642578125,-0.9593505859375,0.0151177002117037,0.0077820229344069,0.0088182585313916
1769158628394,0.082489013671875,-0.2821502685546875,-0.9578857421875,0.0164428893476724,0.0104382596909999,0.0110539821907877
1769158628404,0.075958251953125,-0.2808074951171875,-0.9510040283203124,0.0142388567328453,0.0084179854020476,0.0077697723172605
1769158628414,0.0758514404296875,-0.280670166015625,-0.9470367431640624,0.0033957967534661,0.0017979000695049,0.0033116408158093
1769158628424,0.0772247314453125,-0.2816009521484375,-0.9402008056640624,-0.0086853671818971,0.0025238776579499,0.0053598778322339
1769158628434,0.076263427734375,-0.282684326171875,-0.9372711181640624,-0.0177699420601129,0.0073505910113453,0.0047521446831524
1769158628444,0.075775146484375,-0.2828369140625,-0.93792724609375,-0.0302521772682666,0.0119754364714026,0.0020711403340101
1769158628454,0.078460693359375,-0.287506103515625,-0.93792724609375,-0.0407647415995597,0.0069929282180964,0.0079175774008035
1769158628464,0.0872802734375,-0.289886474609375,-0.93853759765625,-0.0490415766835212,0.0042256377637386,0.0153914727270603
1769158628474,0.08734130859375,-0.288787841796875,-0.944488525390625,-0.0488706044852733,0.002984870923683,0.0052834451198577
1769158628484,0.072265625,-0.283935546875,-0.956146240234375,-0.0466809533536434,0.0058171427808701,-0.0004042678629048
1769158628494,0.077911376953125,-0.2820587158203125,-0.9624176025390624,-0.0285229869186878,0.0044562672264873,0.0095876464620232
1769158628504,0.0842132568359375,-0.2774200439453125,-0.9725799560546876,-0.0188583768904209,-0.0082059977576136,0.008485896512866
1769158628515,0.0683135986328125,-0.2737274169921875,-0.972747802734375,-0.0005613943794742,-0.0001810949470382,-0.0147051764652132
1769158628525,0.055267333984375,-0.26617431640625,-0.9762420654296876,0.0181441158056259,0.0192562527954578,-0.0195816904306411
1769158628535,0.06610107421875,-0.2760162353515625,-0.972900390625,0.0329012237489223,0.0209345761686563,-0.0080312946811318
1769158628545,0.08624267578125,-0.2844696044921875,-0.9672393798828124,0.0381340682506561,0.004153998568654,-0.0027694210875779
1769158628555,0.0861358642578125,-0.2828826904296875,-0.9620513916015624,0.0416182838380336,0.0056640109978616,-0.0105106979608535
1769158628565,0.072509765625,-0.2779083251953125,-0.9538726806640624,0.0353393480181694,0.009517072699964,-0.0105210840702056
1769158628575,0.06817626953125,-0.2756805419921875,-0.9435882568359376,0.0201252419501543,0.0078723039478063,-0.0132209965959191
1769158628585,0.067535400390625,-0.2768402099609375,-0.93218994140625,-0.0082962792366743,-0.0062379222363233,-0.0198759697377681
1769158628595,0.07061767578125,-0.2793731689453125,-0.9234619140625,-0.0346136353909969,-0.0084036048501729,-0.0226629674434661
1769158628605,0.0799560546875,-0.284637451171875,-0.927520751953125,-0.043872382491827,-0.0190661028027534,-0.0178801976144313
1769158628615,0.092071533203125,-0.2863922119140625,-0.9348602294921876,-0.0505995266139507,-0.0216520316898822,-0.0114167053252458
1769158628625,0.0921478271484375,-0.2863616943359375,-0.9409332275390624,-0.0578822083771228,-0.0031766186002641,-0.0085953520610928
1769158628635,0.08642578125,-0.2870941162109375,-0.9436798095703124,-0.0580633021891117,0.0053950315341353,-0.0064509748481214
1769158628645,0.0778656005859375,-0.285430908203125,-0.9494781494140624,-0.055706936866045,-0.0004530037112999,-0.0083759082481265
1769158628655,0.077667236328125,-0.281005859375,-0.9624176025390624,-0.043060652911663,-0.0045665223151445,-0.0098323905840516
1769158628665,0.077606201171875,-0.277374267578125,-0.974761962890625,-0.0283054076135158,-0.0051601408049464,-0.0110654346644878
1769158628675,0.07611083984375,-0.277191162109375,-0.9792938232421876,-0.0020029633305966,-0.0063356603495776,-0.0105631621554493
1769158628685,0.0741424560546875,-0.276458740234375,-0.98480224609375,0.0183547716587781,-0.0179955121129751,-0.0106702214106917
1769158628695,0.072113037109375,-0.2756805419921875,-0.9808349609375,0.036653883755207,-0.0125725166872143,-0.0138023644685745
1769158628705,0.070404052734375,-0.2767181396484375,-0.977081298828125,0.0488343834877014,-0.000517185893841,-0.013749367557466
1769158628715,0.0722503662109375,-0.2796478271484375,-0.966033935546875,0.0516259111464023,0.0095729986205697,-0.0076411417685449
1769158628726,0.0828704833984375,-0.2862091064453125,-0.9554290771484376,0.0511073917150497,0.0095418393611907,0.001603755634278
1769158628735,0.088104248046875,-0.2877044677734375,-0.94873046875,0.0421567745506763,0.0021963089238852,0.0012615394080057
1769158628746,0.081146240234375,-0.28741455078125,-0.9410400390625,0.0264768805354833,0.0058016963303089,0.003835484618321
1769158628755,0.083038330078125,-0.2876129150390625,-0.9386749267578124,0.0138074252754449,0.0029129656031727,0.0063250074163079
1769158628766,0.0829315185546875,-0.2848968505859375,-0.9358062744140624,-0.0010841728653758,0.0188908670097589,0.0005366269615478
1769158628776,0.0757293701171875,-0.2799835205078125,-0.9342193603515624,-0.0046469499357044,0.0169765874743461,0.0058003650046885
1769158628786,0.081207275390625,-0.2774200439453125,-0.9460601806640624,-0.0044296355918049,0.0085130603983998,0.0103884590789675
1769158628796,0.083740234375,-0.2747955322265625,-0.9528045654296876,-0.0027246801182627,0.0094222640618681,-0.0042173820547759
1769158628806,0.0671539306640625,-0.269866943359375,-0.9561309814453124,0.0028738172259181,0.0113983293995261,-0.007717574480921
1769158628816,0.0709228515625,-0.27423095703125,-0.9613800048828124,0.0045420210808515,0.002550242934376,-0.005470132920891
1769158628826,0.0792694091796875,-0.2813262939453125,-0.9584503173828124,0.0032336101867258,0.0021971079986542,-0.0077418093569576
1769158628836,0.07989501953125,-0.284027099609375,-0.955047607421875,-0.0024418523535132,0.0072541842237114,-0.0046956855803728
1769158628846,0.0808563232421875,-0.285491943359375,-0.9500885009765624,-0.0017989652696996,0.0208890363574028,-0.0003440804139245
1769158628857,0.08282470703125,-0.286102294921875,-0.9519805908203124,-0.0028599686920642,0.0215953066945076,0.0048368331044912
1769158628867,0.085662841796875,-0.2837982177734375,-0.9533538818359376,-0.0004162520635873,0.0162516739219427,-0.0017387778498232
1769158628876,0.079620361328125,-0.282562255859375,-0.9590301513671876,0.0081937480717897,0.0160018689930439,-0.0033915357198566
1769158628886,0.0794677734375,-0.2848968505859375,-0.96209716796875,0.0229324791580438,0.0160828288644552,0.0014317154418677
1769158628896,0.0845947265625,-0.28668212890625,-0.9645538330078124,0.028989041224122,0.0061068944633007,0.0014503574930131
1769158628906,0.0799407958984375,-0.2873687744140625,-0.9618682861328124,0.0337813980877399,0.0062222094275057,-0.0002593918761704
1769158628916,0.0786895751953125,-0.286285400390625,-0.9642791748046876,0.0416081622242927,0.0039505329914391,0.0020018981304019
1769158628927,0.079345703125,-0.284942626953125,-0.9618682861328124,0.0394901521503925,0.0003036003618035,0.0012498215073719
1769158628936,0.0758819580078125,-0.2879638671875,-0.9498138427734376,0.0335574261844158,0.0095447693020105,0.0020676781423389
1769158628946,0.0777587890625,-0.2893524169921875,-0.941680908203125,0.0217084903270006,0.0235719047486782,0.0052741239778697
1769158628956,0.07843017578125,-0.2899017333984375,-0.934234619140625,0.0084291715174913,0.0257160160690546,0.0016223976854234
1769158628967,0.0753936767578125,-0.2847137451171875,-0.93072509765625,-0.0040330910123884,0.0175486337393522,-0.0037995318416506
1769158628977,0.079193115234375,-0.2794952392578125,-0.935211181640625,-0.0177840571850538,0.0063433833420276,-0.0052727926522493
1769158628987,0.0826263427734375,-0.2797698974609375,-0.935394287109375,-0.0262624956667423,-0.0045603970065712,-0.0105245457962155
1769158628997,0.079132080078125,-0.2833709716796875,-0.9387359619140624,-0.027875306084752,0.0007731156656518,-0.0135155422613024
1769158629007,0.0774383544921875,-0.2823028564453125,-0.9463043212890624,-0.025971146300435,0.0066648270003497,-0.0172445010393857
1769158629017,0.077545166015625,-0.2832489013671875,-0.9556427001953124,-0.0166980195790529,0.0004609931784216,-0.0146569730713963
1769158629027,0.081695556640625,-0.2832183837890625,-0.9620361328125,-0.0157328899949789,-0.0081913508474826,-0.0178778003901243
1769158629037,0.08294677734375,-0.2842254638671875,-0.9625244140625,-0.0084416875615715,-0.0127285784110426,-0.01758405379951
1769158629047,0.080291748046875,-0.2862548828125,-0.9622650146484376,-0.0032029838766902,-0.0058570900000631,-0.0118337562307715
1769158629057,0.0830841064453125,-0.2892913818359375,-0.96221923828125,0.0041374871507287,0.0069897323846817,-0.004448277875781
1769158629067,0.085113525390625,-0.2892913818359375,-0.9611358642578124,0.0088704572990536,0.0160466115921735,-0.0010269149206578
1769158629077,0.081787109375,-0.28778076171875,-0.95880126953125,0.0149216912686824,0.0203526765108108,0.0008575378451496
1769158629087,0.088531494140625,-0.286285400390625,-0.957275390625,0.0200064647942781,0.0067218183539807,0.001531051355414
1769158629097,0.0865325927734375,-0.286590576171875,-0.9517822265625,0.0136380475014448,-0.0043369578197598,-0.003402987262234
1769158629107,0.076904296875,-0.2846527099609375,-0.9439239501953124,0.0018767296569421,-0.0065401908941566,-0.0084398239850997
1769158629117,0.0727386474609375,-0.284088134765625,-0.936920166015625,-0.0065393918193876,-0.008763930760324,-0.0110313454642891
1769158629127,0.0790252685546875,-0.282989501953125,-0.9383392333984376,-0.0153930708765983,-0.0108268149197101,-0.0125639950856566
1769158629137,0.078948974609375,-0.28228759765625,-0.9406890869140624,-0.0183675549924373,-0.0049974215216934,-0.0118039287626743
1769158629147,0.078277587890625,-0.2800445556640625,-0.948211669921875,-0.0133874444290995,-0.0011808456620201,-0.0091245220974087
1769158629158,0.0834503173828125,-0.28057861328125,-0.9550323486328124,-0.0075737638399004,0.0023454460315406,-0.0093535538762807
1769158629167,0.0830841064453125,-0.2821197509765625,-0.95635986328125,-0.0047915591858327,0.0094441017135977,-0.0065654912032186
1769158629178,0.0821533203125,-0.2835540771484375,-0.9579010009765624,-0.0058086207136511,0.0131472274661064,-0.0039507993496954
1769158629188,0.083648681640625,-0.2868194580078125,-0.9575958251953124,-0.0014021543320268,0.0066251456737518,-0.0002468750171829
1769158629198,0.0918426513671875,-0.293060302734375,-0.9573822021484376,-0.0014069479657337,0.00197100546211,0.0099511677399277
1769158629208,0.0944976806640625,-0.2928924560546875,-0.956512451171875,0.0034360103309154,-0.0037582528311759,0.0140068959444761
1769158629218,0.0850372314453125,-0.2887115478515625,-0.9582672119140624,0.0093578156083822,0.0081370221450924,0.0107850031927227
1769158629228,0.078125,-0.282745361328125,-0.95703125,0.0127698574215173,0.0129528166726231,0.0149320773780345
1769158629238,0.0753631591796875,-0.2816009521484375,-0.9549407958984376,0.0109767513349652,0.012197277508676,0.0135176731273531
1769158629248,0.0731353759765625,-0.2798309326171875,-0.960540771484375,0.0152244931086897,0.0170716606080532,-0.0023403859231621
1769158629258,0.0737457275390625,-0.2772979736328125,-0.96197509765625,0.0343734212219715,0.0301405917853117,-0.0001296959380852
1769158629268,0.0770721435546875,-0.27899169921875,-0.96533203125,0.0408185347914695,0.0302457865327596,0.0016421051695942
1769158629278,0.0802154541015625,-0.2837371826171875,-0.95098876953125,0.0349657051265239,0.0175076201558113,0.0001408812240697
1769158629288,0.0782318115234375,-0.282989501953125,-0.9430694580078124,0.0257048308849334,0.0105485143139958,-0.0070592411793768
1769158629298,0.0706329345703125,-0.276275634765625,-0.94049072265625,0.0137445740401744,0.0117349531501531,-0.011127752251923
1769158629308,0.06414794921875,-0.2765655517578125,-0.935546875,-0.0045617287978529,0.0016468988033011,-0.0178940463811159
1769158629318,0.063751220703125,-0.277801513671875,-0.9322357177734376,-0.0214267279952764,-0.0045939530245959,-0.0255064256489276
1769158629328,0.0683746337890625,-0.279571533203125,-0.9386138916015624,-0.0254710055887699,-0.0007262440049089,-0.0271421391516923
1769158629338,0.07861328125,-0.285308837890625,-0.9459075927734376,-0.0266478564590215,0.0016540893120691,-0.024093884974718
1769158629348,0.0907135009765625,-0.29046630859375,-0.9493560791015624,-0.0250387731939554,-0.0060243364423513,-0.0179505050182342
1769158629358,0.0950469970703125,-0.294403076171875,-0.95050048828125,-0.0287592094391584,-0.005454153753817,-0.0121733089908957
1769158629368,0.0920562744140625,-0.2908477783203125,-0.956695556640625,-0.0150484582409262,0.0014162691077217,-0.0090566119179129
1769158629378,0.088226318359375,-0.2858123779296875,-0.96728515625,0.0017765947850421,0.0020943097770214,-0.0061247376725077
1769158629389,0.085540771484375,-0.28387451171875,-0.969879150390625,0.010078732855618,0.0038197718095034,-0.0034855452831834
1769158629399,0.081451416015625,-0.282867431640625,-0.9654388427734376,0.0157350208610296,0.0105543732643127,-0.0020903151016682
1769158629409,0.08099365234375,-0.2830963134765625,-0.9626312255859376,0.0195124484598636,0.0165542084723711,-0.0006271744496189
1769158629419,0.0783538818359375,-0.2860870361328125,-0.95697021484375,0.0186945926398038,0.0108561096712946,-0.0041452101431787
1769158629429,0.0755462646484375,-0.286956787109375,-0.949737548828125,0.0150852091610431,0.0040775658562779,-0.009515474550426
1769158629439,0.0778350830078125,-0.2876129150390625,-0.946044921875,0.0083093289285898,0.0010436928132548,-0.0116542587056756
1769158629449,0.0798187255859375,-0.2913360595703125,-0.9402008056640624,0.0019899138715118,0.0009768474847078,-0.0119605222716927
1769158629459,0.0789642333984375,-0.29180908203125,-0.9433135986328124,-0.0005246427026577,0.007563377264887,-0.0100046973675489
1769158629469,0.0796051025390625,-0.290374755859375,-0.9454498291015624,-0.0024434502702206,0.0035851474385708,-0.0079000005498528
1769158629479,0.082000732421875,-0.2925262451171875,-0.945281982421875,-0.0065053035505115,0.0045105959288775,-0.0044445493258535
1769158629489,0.0854034423828125,-0.2930145263671875,-0.9476776123046876,-0.0084962826222181,0.0070075755938887,-0.0021281319204717
1769158629499,0.08447265625,-0.285369873046875,-0.9550323486328124,0.0024218787439167,0.0207305792719125,-0.0109546463936567
1769158629509,0.074859619140625,-0.27880859375,-0.9673919677734376,0.0213913079351186,0.0147874681279063,-0.0087884319946169
1769158629519,0.0839691162109375,-0.28094482421875,-0.9707489013671876,0.0213913079351186,0.0147874681279063,-0.0087884319946169
1769158629529,0.0921478271484375,-0.282623291015625,-0.9669952392578124,0.0337808653712272,0.0086307721212506,-0.0026676885318011
1769158629539,0.085601806640625,-0.28472900390625,-0.955169677734375,0.0342067070305347,0.0148737542331218,-0.0001747033675201
1769158629549,0.0793914794921875,-0.2851715087890625,-0.942718505859375,0.0268896706402301,0.0222778748720884,-0.0047161919064819
1769158629559,0.0758514404296875,-0.2836761474609375,-0.9392547607421876,0.0198682472109794,0.0181110929697752,-0.0119176460430026
1769158629569,0.077972412109375,-0.28436279296875,-0.9398040771484376,0.0105682220309972,-0.0027984497137367,-0.0099911149591207
1769158629579,0.0877685546875,-0.288421630859375,-0.9390716552734376,-0.0036093820817768,-0.0117338877171278,-0.0084611289203166
1769158629589,0.0869140625,-0.2930908203125,-0.93414306640625,-0.0140700126066803,-8.468852320220321e-05,-0.004514324478805
1769158629599,0.09088134765625,-0.2913665771484375,-0.93975830078125,-0.0160785689949989,-0.0040567931719124,-0.0007038734620437
1769158629609,0.0943145751953125,-0.2902984619140625,-0.9490966796875,-0.0163600649684667,-0.003410177771002,0.0008665926288813
1769158629620,0.0929107666015625,-0.291748046875,-0.952850341796875,-0.0143088977783918,0.0095418393611907,0.0053689326159656
1769158629630,0.090179443359375,-0.2932891845703125,-0.9560089111328124,-0.0080035980790853,0.012490757741034,0.0087170591577887
1769158629640,0.0922393798828125,-0.2943115234375,-0.95733642578125,-0.0056501626968383,0.0078366175293922,0.0112699652090668
1769158629650,0.091705322265625,-0.292388916015625,-0.9606475830078124,0.0056480318307876,0.0056544234976172,0.0107535785064101
1769158629660,0.0890350341796875,-0.2893524169921875,-0.966461181640625,0.0135802570730447,-0.0009416937828063,0.0081324949860572
1769158629670,0.0857391357421875,-0.2887115478515625,-0.9619293212890624,0.0179566293954849,0.0046022087335586,0.0115674398839473
1769158629680,0.0865020751953125,-0.286163330078125,-0.960296630859375,0.0286295134574174,0.0093993609771132,0.0156111838296055
1769158629691,0.087371826171875,-0.2866058349609375,-0.9598388671875,0.0357124581933021,0.0063127567991614,0.0146894641220569
1769158629700,0.0840911865234375,-0.286163330078125,-0.9528656005859376,0.0354804955422878,-0.0059361858293414,0.0097255976870656
1769158629710,0.0782928466796875,-0.28570556640625,-0.94769287109375,0.0308766886591911,-0.0108177606016397,0.0060190102085471
1769158629720,0.0806732177734375,-0.28594970703125,-0.9443359375,0.0222698859870433,-0.0099951094016432,-0.0001613875647308
1769158629730,0.0789947509765625,-0.2906341552734375,-0.933929443359375,0.006507433950901,-0.0045257760211825,-6.897587445564568e-05
1769158629741,0.078033447265625,-0.291839599609375,-0.9270477294921876,-0.0069838734343647,0.0008937568636611,-0.0041958102956414
1769158629750,0.0801544189453125,-0.2928619384765625,-0.9289703369140624,-0.0203095320612192,-0.0007635282818228,-0.0069306101649999
1769158629760,0.0824432373046875,-0.291778564453125,-0.93182373046875,-0.0286835767328739,-0.0108992531895637,-0.0083615267649292
1769158629770,0.08502197265625,-0.291412353515625,-0.934295654296875,-0.0335331931710243,-0.0237391516566276,-0.0058733355253934
1769158629780,0.0845489501953125,-0.29022216796875,-0.9409637451171876,-0.035044003278017,-0.0281956847757101,-0.0031603733077645
1769158629790,0.0847930908203125,-0.2908477783203125,-0.94757080078125,-0.0386171676218509,-0.0253684725612401,-0.0027766118291765
1769158629800,0.07989501953125,-0.290313720703125,-0.9471282958984376,-0.0312814898788929,-0.0097407782450318,0.0059191416949033
1769158629810,0.082244873046875,-0.2858428955078125,-0.9586029052734376,-0.0198714435100555,0.0015680692158639,0.0054650730453431
1769158629820,0.081878662109375,-0.2855682373046875,-0.9597320556640624,-0.0132660046219825,0.00824860855937,0.0050176619552075
1769158629831,0.083709716796875,-0.2869720458984375,-0.962738037109375,-0.0045031388290226,0.0146516468375921,0.0034458641894161
1769158629841,0.084564208984375,-0.283477783203125,-0.96771240234375,0.0089823100715875,0.0169057473540306,0.0052267201244831
1769158629851,0.0849456787109375,-0.28680419921875,-0.967987060546875,0.0188842080533504,0.0146718872711062,0.0069519155658781
1769158629861,0.0838470458984375,-0.2886505126953125,-0.9596710205078124,0.0206892993301153,0.0182146895676851,0.006826214492321
1769158629871,0.0795135498046875,-0.2882232666015625,-0.9531402587890624,0.022407304495573,0.0137578900903463,0.0087780449539422
1769158629881,0.0795745849609375,-0.2850341796875,-0.9517059326171876,0.0184690225869417,-0.0025582325179129,0.0057694721035659
1769158629892,0.0775146484375,-0.2860870361328125,-0.945404052734375,0.0044663874432444,-0.0179113559424877,-0.0017294568242505
1769158629901,0.07501220703125,-0.2871551513671875,-0.937042236328125,-0.0062150191515684,-0.0122542697936296,-0.0071135694161057
1769158629911,0.0818023681640625,-0.2955780029296875,-0.9372711181640624,-0.0102137550711631,-0.0072352760471403,0.0057367151603102
1769158629921,0.0955047607421875,-0.2992401123046875,-0.942108154296875,-0.0128617361187934,-0.0082970783114433,0.0204831715673208
1769158629931,0.094146728515625,-0.2971343994140625,-0.9449920654296876,-0.0154103813692927,-0.0137626836076378,0.0191598460078239
1769158629941,0.0770263671875,-0.29388427734375,-0.9471893310546876,-0.0174735318869352,-0.0052506881766021,0.0123661225661635
1769158629951,0.07623291015625,-0.287933349609375,-0.9517364501953124,-0.0110164321959018,-0.0052349758334457,0.0138279311358928
1769158629961,0.077789306640625,-0.290313720703125,-0.9569244384765624,-0.0086944214999675,-0.0100494381040334,0.0112065821886062
1769158629971,0.081573486328125,-0.2878875732421875,-0.9578704833984376,0.0105583686381578,0.0004002731002401,0.0069505842402577
1769158629981,0.0778961181640625,-0.2827911376953125,-0.970947265625,0.0303227510303258,0.0148306116461753,0.0032069785520434
1769158629991,0.07318115234375,-0.2835845947265625,-0.96942138671875,0.040335439145565,0.0100646186619997,-0.0005560680292546
1769158630001,0.0747222900390625,-0.2855682373046875,-0.9606170654296876,0.0459014438092708,0.0054903728887438,-0.0015986956423148
1769158630011,0.07666015625,-0.2843475341796875,-0.9567413330078124,0.0412723384797573,0.0033182986080646,-0.0049888994544744
1769158630021,0.0698394775390625,-0.2842864990234375,-0.9464569091796876,0.0265919286757707,0.006591323763132,-0.0093351788818836
1769158630032,0.0676116943359375,-0.2871551513671875,-0.934112548828125,0.0033989925868809,-0.0045111286453902,-0.0161896217614412
1769158630041,0.069427490234375,-0.28826904296875,-0.92724609375,-0.0136558907106518,-0.0097415773198008,-0.0239468775689601
1769158630052,0.0750885009765625,-0.2907867431640625,-0.9251708984375,-0.0312173068523406,-0.0044349622912704,-0.0212427042424678
1769158630062,0.0863189697265625,-0.2976837158203125,-0.9237823486328124,-0.0472053289413452,-0.0115234982222318,-0.0188818126916885
1769158630072,0.08966064453125,-0.2993927001953125,-0.9246978759765624,-0.0580752864480018,-0.0148529820144176,-0.0195292271673679
1769158630082,0.086822509765625,-0.2974090576171875,-0.935546875,-0.0600894354283809,-0.0108467889949679,-0.0179409179836511
1769158630092,0.0860443115234375,-0.2923583984375,-0.9456634521484376,-0.0602090135216712,-0.0015595471486449,-0.016741694882512
1769158630102,0.080780029296875,-0.2897186279296875,-0.9594268798828124,-0.0449190065264701,-0.0039036613889038,-0.0149105060845613
1769158630112,0.081329345703125,-0.283599853515625,-0.9785308837890624,-0.0184091012924909,0.0041310954838991,-0.0137973045930266
1769158630122,0.0811004638671875,-0.28240966796875,-0.98883056640625,0.0050139334052801,0.0098086884245276,-0.0091942977160215
1769158630132,0.081634521484375,-0.286834716796875,-0.9814300537109376,0.0230296850204467,0.0090233227238059,-0.0058845207095146
1769158630142,0.084259033203125,-0.2906494140625,-0.9726409912109376,0.033733993768692,0.0012631373247131,0.001700428314507
1769158630152,0.0885009765625,-0.2905731201171875,-0.960906982421875,0.030866302549839,-0.00369593501091,0.0048509477637708
1769158630162,0.0838165283203125,-0.295318603515625,-0.9412384033203124,0.011951201595366,-0.0072414013557136,0.0041843587532639
1769158630172,0.0775146484375,-0.29827880859375,-0.9222564697265624,-0.0134444357827305,-0.0043081957846879,0.0006378270918503
1769158630182,0.072479248046875,-0.2972259521484375,-0.91436767578125,-0.0327283851802349,0.0033670344855636,0.0007275756215676
1769158630192,0.0756378173828125,-0.29412841796875,-0.924774169921875,-0.0438433550298213,-0.0062440475448966,-0.0004775047709699
1769158630202,0.0793914794921875,-0.2926025390625,-0.935546875,-0.0562028177082538,-0.0154703026637434,-0.0034453314729034
1769158630212,0.07537841796875,-0.288970947265625,-0.9398040771484376,-0.0636769831180572,-0.0251530241221189,-0.0212243292480707
1769158630222,0.06829833984375,-0.283111572265625,-0.947418212890625,-0.0579660981893539,-0.0095516936853528,-0.0305869374424219
1769158630232,0.07977294921875,-0.2821502685546875,-0.958465576171875,-0.0486996285617351,-0.0432715751230716,-0.0087143955752253
1769158630243,0.09375,-0.2882843017578125,-0.953643798828125,-0.0467872135341167,0.0008072041091509,-0.0093980291858315
1769158630252,0.084716796875,-0.28094482421875,-0.96014404296875,-0.0421565063297748,-0.0080962758511304,-0.0104832667857408
1769158630263,0.0686187744140625,-0.28070068359375,-0.9615936279296876,-0.0235580559819936,-6.578007742064074e-05,-0.0136191397905349
1769158630273,0.088623046875,-0.2820892333984375,-0.968475341796875,-0.0161166526377201,-0.0140899866819381,-0.0157288964837789
1769158630283,0.0778656005859375,-0.2782440185546875,-0.963226318359375,-0.001743305241689,-0.0309371426701545,-0.018286595121026
1769158630293,0.0803985595703125,-0.2862091064453125,-0.978363037109375,0.0074600465595722,-0.0113048525527119,-0.0131743913516402
1769158630303,0.0745849609375,-0.28375244140625,-0.964141845703125,0.0059574912302196,-0.0090696616098284,-0.0142545700073242
1769158630313,0.0785064697265625,-0.2946014404296875,-0.95013427734375,0.0013824469642713,-0.02136867120862,-0.0172793883830308
1769158630323,0.0782928466796875,-0.2900848388671875,-0.9526824951171876,0.00337715446949,-0.0220925193279981,-0.0176447741687297
1769158630333,0.0846405029296875,-0.2896881103515625,-0.954986572265625,0.0047401604242622,-0.0304862707853317,-0.0199540015310049
1769158630343,0.086700439453125,-0.29229736328125,-0.953216552734375,0.0054546864703297,-0.0177297294139862,-0.0147339385002851
1769158630353,0.0862274169921875,-0.2943572998046875,-0.95172119140625,0.0123243108391761,-0.0210951659828424,-0.00444907695055
1769158630363,0.085723876953125,-0.2952117919921875,-0.949127197265625,0.0156503319740295,-0.0064067663624882,-0.0036991306114941
1769158630375,0.0800018310546875,-0.290008544921875,-0.95050048828125,0.0147326067090034,-0.0252073518931865,-0.0070989220403134
1769158630383,0.0777740478515625,-0.288726806640625,-0.9577178955078124,0.0214190054684877,-0.010603642091155,-0.0112944664433598
1769158630393,0.07147216796875,-0.2834320068359375,-0.9601287841796876,0.027198864147067,-0.0146646965295076,-0.0087681915611028
1769158630403,0.0767059326171875,-0.2861785888671875,-0.9640655517578124,0.0419865995645523,-0.0344384014606475,-0.0179142858833074
1769158630413,0.077301025390625,-0.2801971435546875,-0.973388671875,0.050932690501213,-0.0574704818427562,-0.0277275014668703
1769158630424,0.0784912109375,-0.2855224609375,-0.9693145751953124,0.0604644082486629,-0.065196581184864,-0.0256310608237981
1769158630433,0.08331298828125,-0.2900543212890625,-0.9651336669921876,0.0578582398593425,-0.0484293177723884,-0.0239418186247348
1769158630444,0.07763671875,-0.2955169677734375,-0.947265625,0.0559639334678649,-0.0385990589857101,-0.0016663399292156
1769158630453,0.083831787109375,-0.2973175048828125,-0.9362945556640624,0.0434481427073478,-0.0070358053781092,0.0034807515330612
1769158630463,0.075225830078125,-0.294342041015625,-0.930084228515625,0.0295925140380859,0.0162985455244779,0.0079761678352952
1769158630474,0.0702362060546875,-0.2927703857421875,-0.9286041259765624,0.0161864273250103,0.0281759779900312,0.0122476117685437
1769158630483,0.0723419189453125,-0.2923583984375,-0.9264678955078124,-0.0051585431210696,0.0238619223237037,0.0060509680770337
1769158630494,0.068756103515625,-0.289825439453125,-0.922576904296875,-0.0196109861135482,0.0042384206317365,-0.0085748462006449
1769158630504,0.0725555419921875,-0.2861785888671875,-0.93328857421875,-0.0318143889307975,0.0016402408946305,-0.012533102184534
1769158630514,0.0775146484375,-0.287933349609375,-0.9384307861328124,-0.0352306924760341,0.0009787116432562,-0.0118111195042729
1769158630524,0.080596923828125,-0.2914886474609375,-0.94097900390625,-0.0289480276405811,-0.0202794391661882,-0.0085623292252421
1769158630534,0.0826873779296875,-0.289093017578125,-0.9533233642578124,-0.026852386072278,-0.0466428697109222,-0.0093985619023442
1769158630544,0.0793914794921875,-0.2911834716796875,-0.9560089111328124,-0.0231793541461229,-0.0228877384215593,-0.0054839812219142
1769158630554,0.0730743408203125,-0.2887725830078125,-0.9587554931640624,-0.0132337799295783,-0.0004942826926708,0.0005752427969127
1769158630564,0.0709075927734375,-0.2895660400390625,-0.9613037109375,-0.0035039209760725,0.0231362115591764,0.0011885687708854
1769158630575,0.0719451904296875,-0.28814697265625,-0.960296630859375,-0.0026458504144102,0.0159182455390691,0.0021206750534474
1769158630584,0.0714874267578125,-0.2882537841796875,-0.9526824951171876,-0.0043279030360281,0.0029656961560249,-0.0017568873008713
1769158630594,0.0714111328125,-0.2883758544921875,-0.94970703125,-0.0065463162027299,0.0003390203928574,-0.0053329798392951
1769158630604,0.07275390625,-0.2867889404296875,-0.95123291015625,-0.001889779116027,-0.0127347037196159,-0.0109674297273159
1769158630614,0.0764312744140625,-0.285125732421875,-0.9506683349609376,-0.0042578619904816,-0.0358602628111839,-0.0084078656509518
1769158630624,0.0773773193359375,-0.2895050048828125,-0.9437103271484376,-0.0122137889266014,-0.0340887270867824,-0.0030794132035225
1769158630634,0.08172607421875,-0.297027587890625,-0.9474639892578124,-0.0180525034666061,-0.0461022481322288,0.0025228124577552
1769158630644,0.08526611328125,-0.29669189453125,-0.9478302001953124,-0.0217260681092739,-0.0325302444398403,0.0123821012675762
1769158630654,0.0823974609375,-0.30230712890625,-0.94268798828125,-0.0293688084930181,-0.0132596129551529,0.0202261749655008
1769158630664,0.0749053955078125,-0.2961578369140625,-0.94427490234375,-0.0202568024396896,0.006639793049544,0.0216799955815076
1769158630675,0.0687408447265625,-0.2894439697265625,-0.96002197265625,-0.0122468126937747,0.0134279243648052,0.0264691580086946
1769158630684,0.074432373046875,-0.2863006591796875,-0.9620208740234376,-0.008608934469521,0.004751079250127,0.0333603546023368
1769158630695,0.068450927734375,-0.28900146484375,-0.9504547119140624,-0.0185156278312206,0.0005584649043157,0.0144873298704624
1769158630705,0.0542144775390625,-0.2815399169921875,-0.94183349609375,-0.0197811610996723,-0.001455950201489,-0.0171358436346054
1769158630715,0.0532379150390625,-0.276123046875,-0.94720458984375,-0.0252105481922626,-0.0041795647703111,-0.020267454907298
1769158630725,0.0680999755859375,-0.284515380859375,-0.9401702880859376,-0.0443078093230724,-0.0027057717088609,-0.0209990255534648
1769158630735,0.077484130859375,-0.2906341552734375,-0.9293212890625,-0.0502855405211448,0.0075884112156927,-0.0245104022324085
1769158630745,0.065185546875,-0.2884063720703125,-0.9480438232421876,-0.0414574295282363,0.0216821264475584,-0.0240707155317068
1769158630755,0.0632171630859375,-0.283599853515625,-0.9492340087890624,-0.0427115112543106,0.0301363300532102,-0.01659682020545
1769158630765,0.059356689453125,-0.2821197509765625,-0.947235107421875,-0.0599371045827865,0.0298143550753593,-0.0222264751791954
1769158630775,0.0606536865234375,-0.283447265625,-0.9401702880859376,-0.0760316476225853,0.0126340361312031,-0.025751968845725
1769158630785,0.0663299560546875,-0.284912109375,-0.9434661865234376,-0.07598477602005,0.0007888282998465,-0.0263980515301227
1769158630795,0.0789031982421875,-0.28631591796875,-0.9572601318359376,-0.0703255608677864,-0.0010564760304987,-0.0228131711483001
1769158630805,0.0885467529296875,-0.28790283203125,-0.9588775634765624,-0.0612292699515819,0.001089232857339,-0.0167238526046276
1769158630815,0.091217041015625,-0.28924560546875,-0.9608917236328124,-0.0503185652196407,-0.0025334651581943,-0.0189896691590547
1769158630825,0.0850982666015625,-0.2868194580078125,-0.964813232421875,-0.0380557738244533,-0.0039851544424891,-0.0209867749363183
1769158630835,0.0796661376953125,-0.283660888671875,-0.9720001220703124,-0.0236856210976839,-0.0054288539104163,-0.0216182097792625
1769158630845,0.0772552490234375,-0.282470703125,-0.9752197265625,-0.0100659495219588,0.0077340858988463,-0.0173395760357379
1769158630855,0.0701904296875,-0.2841949462890625,-0.968597412109375,-0.0052842441946268,0.0135562885552644,-0.0125128626823425
1769158630865,0.0651092529296875,-0.2867584228515625,-0.9591522216796876,-0.001913481275551,0.0149483233690261,-0.0076954700052738
1769158630875,0.0660552978515625,-0.2851715087890625,-0.9559173583984376,-0.0015528892399743,0.0099426452070474,-0.0076217008754611
1769158630885,0.0685882568359375,-0.2834625244140625,-0.9562835693359376,0.0064608287066221,0.011234545148909,-0.003573429537937
1769158630895,0.07806396484375,-0.28057861328125,-0.9644012451171876,0.0180434491485357,0.0139200761914253,-0.0010540791554376
1769158630906,0.07611083984375,-0.2832183837890625,-0.958251953125,0.0185832716524601,0.008370847441256,-0.000883636821527
1769158630916,0.0720367431640625,-0.2881011962890625,-0.946929931640625,0.0125187216326594,0.0013768542557954,-0.0025020397733896
1769158630926,0.0712432861328125,-0.2877960205078125,-0.9427337646484376,0.0006601976347155,-0.0121682491153478,-0.0068081049248576
1769158630936,0.0699920654296875,-0.285858154296875,-0.939422607421875,-0.0091879060491919,-0.0166988186538219,-0.0083056008443236
1769158630946,0.0740814208984375,-0.2866973876953125,-0.9407196044921876,-0.0188570450991392,-0.0047758468426764,-0.0082888221368193
1769158630956,0.07757568359375,-0.2894287109375,-0.9412078857421876,-0.0286798477172851,0.0027664916124194,-0.0050110039301216
1769158630966,0.07958984375,-0.2851715087890625,-0.9431304931640624,-0.0272984653711318,0.0151371415704488,-0.0105077680200338
1769158630976,0.0763702392578125,-0.276580810546875,-0.95745849609375,-0.0198450777679681,0.0188924651592969,-0.004652542527765
1769158630986,0.079620361328125,-0.2772216796875,-0.9617767333984376,-0.0157408807426691,0.011005513370037,-0.0082014705985784
1769158630996,0.07586669921875,-0.2745361328125,-0.9607086181640624,-0.0084110619500279,0.0155304903164505,-0.0146116996183991
1769158631006,0.0632781982421875,-0.268463134765625,-0.966339111328125,0.005142830312252,0.0192685034126043,-0.0168157313019037
1769158631016,0.0636749267578125,-0.27490234375,-0.961639404296875,0.0030900659039616,0.0036650423426181,-0.0188951268792152
1769158631026,0.0727691650390625,-0.2801666259765625,-0.9526214599609376,-0.0071074441075325,-0.015434349887073,-0.022300511598587
1769158631036,0.078369140625,-0.2823944091796875,-0.9521484375,-0.0071074441075325,-0.015434349887073,-0.022300511598587
1769158631046,0.078216552734375,-0.2844085693359375,-0.9560699462890624,-0.0075641763396561,-0.0037047234363853,-0.0191555842757225
1769158631056,0.078826904296875,-0.2849273681640625,-0.95220947265625,-0.0050216563977301,0.0358325652778148,0.0021811288315802
1769158631066,0.088348388671875,-0.289276123046875,-0.9458465576171876,-0.0129336416721344,0.0344679616391658,0.004628840368241
1769158631076,0.083770751953125,-0.2911376953125,-0.9439544677734376,-0.0209012869745492,0.0236818939447402,0.0033854104112833
1769158631086,0.077911376953125,-0.285308837890625,-0.9453125,-0.0271192360669374,0.0078749675303697,0.0011888351291418
1769158631096,0.0758056640625,-0.285125732421875,-0.9441070556640624,-0.0341281443834304,0.0020873856265097,-0.0004596615908667
1769158631106,0.0776824951171875,-0.28375244140625,-0.9481964111328124,-0.0326458290219306,-0.0058048921637237,0.0007824367494322
1769158631116,0.0800933837890625,-0.2809600830078125,-0.957000732421875,-0.0245016142725944,-0.0039808931760489,0.001334510045126
1769158631127,0.0803375244140625,-0.2813568115234375,-0.96246337890625,-0.0187097713351249,-0.0056184707209467,0.0019686087034642
1769158631137,0.0776519775390625,-0.2819366455078125,-0.963775634765625,-0.0055460329167544,-0.0055119446478784,0.001145159243606
1769158631147,0.0778961181640625,-0.2815399169921875,-0.970428466796875,0.0064208814874291,0.0032879386562854,-0.0005235774442553
1769158631158,0.07720947265625,-0.28033447265625,-0.9719696044921876,0.0134814539924263,0.0229481924325227,0.0040069920942187
1769158631167,0.0795440673828125,-0.280181884765625,-0.9639434814453124,0.0149741554632782,0.0319219790399074,0.0131783857941627
1769158631177,0.081634521484375,-0.282989501953125,-0.9547119140625,0.0127054089680314,0.0230869427323341,0.0110864732414484
1769158631187,0.0753631591796875,-0.2771148681640625,-0.949371337890625,0.0046307044103741,0.0139363221824169,0.0047305729240179
1769158631197,0.0722808837890625,-0.2776031494140625,-0.943695068359375,-0.0066967848688364,-0.0003872236120514,-0.0024367924779653
1769158631207,0.0745849609375,-0.2784271240234375,-0.9374847412109376,-0.0201396234333515,-0.0161243751645088,-0.0084824347868561
1769158631217,0.0769500732421875,-0.2789154052734375,-0.9413604736328124,-0.024817731231451,-0.0320295728743076,-0.0138281974941492
1769158631227,0.075592041015625,-0.277099609375,-0.9459686279296876,-0.0301022417843341,-0.0352823585271835,-0.0180642213672399
1769158631237,0.073577880859375,-0.280853271484375,-0.9480133056640624,-0.0335555635392665,-0.0223455186933279,-0.0194485317915678
1769158631247,0.0717620849609375,-0.2825164794921875,-0.9509735107421876,-0.0335441119968891,-0.0059748017229139,-0.0178730059415102
1769158631257,0.0712738037109375,-0.2840576171875,-0.955108642578125,-0.029898777604103,-0.0005824333056807,-0.0124960839748382
1769158631267,0.0782318115234375,-0.2862396240234375,-0.959625244140625,-0.0223742816597223,0.0047896951436996,-0.0028320054989308
1769158631277,0.0823211669921875,-0.2862396240234375,-0.963470458984375,-0.0185188222676515,0.0014929680619388,0.0037984666414558
1769158631287,0.0765228271484375,-0.2831268310546875,-0.9611358642578124,-0.0106862001121044,0.0020373181905597,0.0001091896047
1769158631297,0.07269287109375,-0.2788238525390625,-0.9619293212890624,-0.0026897927746176,0.0031108383554965,-0.0002559297718107
1769158631307,0.0757293701171875,-0.2764739990234375,-0.965301513671875,0.0064810686744749,-0.0042144525796175,-0.0035784894134849
1769158631317,0.071624755859375,-0.27490234375,-0.9647369384765624,0.0159110557287931,-0.0032186964526772,-0.0038946068380028
1769158631327,0.0734405517578125,-0.276275634765625,-0.96588134765625,0.0238025356084108,0.0053774546831846,-0.0003344930300954
1769158631337,0.0787506103515625,-0.2789154052734375,-0.961273193359375,0.0264819413423538,0.006860302761197,0.0038293593097478
1769158631347,0.07647705078125,-0.2822723388671875,-0.9502105712890624,0.0209095422178506,0.0093953656032681,0.0034035197459161
1769158631358,0.0729217529296875,-0.2834930419921875,-0.941192626953125,0.006656571291387,0.0118041951209306,0.002871686592698
1769158631368,0.0727996826171875,-0.28656005859375,-0.9349517822265624,-0.009091499261558,0.0016181366518139,0.0046352320350706
1769158631378,0.076934814453125,-0.2855072021484375,-0.939361572265625,-0.0180626232177019,-0.0179680809378623,0.0081615233793854
1769158631388,0.0839691162109375,-0.286163330078125,-0.943145751953125,-0.020272247493267,-0.0186557099223136,0.0175616834312677
1769158631398,0.0915069580078125,-0.288055419921875,-0.947265625,-0.0169981587678194,-0.0138388499617576,0.0216544289141893
1769158631408,0.080047607421875,-0.2813262939453125,-0.9564056396484376,-0.0110590429976582,-0.0066533754579722,0.0121828969568014
1769158631418,0.0706634521484375,-0.2782135009765625,-0.9586944580078124,-0.012426309287548,0.0088326400145888,0.0194253623485565
1769158631428,0.07354736328125,-0.282470703125,-0.95159912109375,-0.0137216709554195,0.0146756153553724,0.0282657258212566
1769158631438,0.068359375,-0.2808685302734375,-0.95123291015625,-0.012476110830903,0.0082645881921052,0.0101450458168983
1769158631448,0.060638427734375,-0.2709197998046875,-0.9600372314453124,0.0007478156476281,0.0133496271446347,-0.0087194554507732
1769158631458,0.059356689453125,-0.2677459716796875,-0.9698333740234376,0.0129568111151456,0.0171907041221857,-0.0057542920112609
1769158631468,0.0730743408203125,-0.277191162109375,-0.961944580078125,0.0151142375543713,-0.0037657096982002,-0.0050749196670949
1769158631478,0.0826568603515625,-0.2817230224609375,-0.954010009765625,0.0029694247059524,-0.0110180303454399,-0.01168302167207
1769158631488,0.0726470947265625,-0.280792236328125,-0.9459228515625,0.0018628811230883,-0.0056586847640573,-0.0187598392367362
1769158631498,0.0652008056640625,-0.2759246826171875,-0.9482269287109376,0.0062381885945796,-0.0042733084410429,-0.0194472018629312
1769158631508,0.061676025390625,-0.2723541259765625,-0.9521331787109376,0.000406132050557,-0.0033688987605273,-0.0221511088311672
1769158631518,0.0640869140625,-0.275848388671875,-0.946563720703125,-0.0137248672544956,-0.0076118470169603,-0.0219660196453332
1769158631528,0.0722808837890625,-0.2808685302734375,-0.937225341796875,-0.0301528424024581,-0.0039025961887091,-0.0197153817862272
1769158631538,0.0798492431640625,-0.2855682373046875,-0.93536376953125,-0.0419232137501239,-0.0080933468416333,-0.0155307566747069
1769158631549,0.0870361328125,-0.2883758544921875,-0.93829345703125,-0.0475811026990413,-0.0038911446463316,-0.0099839242175221
1769158631559,0.0885162353515625,-0.2873687744140625,-0.943511962890625,-0.0527319200336933,0.0018421085551381,-0.0050304448232054
1769158631569,0.080841064453125,-0.2862701416015625,-0.94549560546875,-0.0534709468483924,0.0085338335484266,-0.0002948119363281
1769158631579,0.0791015625,-0.281646728515625,-0.952301025390625,-0.0492903180420398,0.0089010829105973,0.0064376592636108
1769158631589,0.0754852294921875,-0.2752685546875,-0.96441650390625,-0.0407988280057907,0.0028802086599171,0.0012322446564212
1769158631599,0.06622314453125,-0.271728515625,-0.96832275390625,-0.0281027406454086,0.0097967041656374,1.5712650565546937e-05
1769158631609,0.070648193359375,-0.2741851806640625,-0.9718475341796876,-0.0163057371973991,0.0101418504491448,0.0017406421247869
1769158631619,0.0743408203125,-0.2767181396484375,-0.9720611572265624,-0.0026988473255187,-0.0034160367213189,0.0018085526535287
1769158631629,0.074676513671875,-0.2778472900390625,-0.9687957763671876,-0.0005688511882908,0.0012729909503832,0.0014375743921846
1769158631639,0.0718231201171875,-0.2804107666015625,-0.9608917236328124,0.0025244103744626,0.0165957547724246,0.004095409065485
1769158631649,0.0747833251953125,-0.2831268310546875,-0.953704833984375,0.0037726340815424,0.0199609249830245,0.007890679873526
1769158631659,0.0786285400390625,-0.2836151123046875,-0.950775146484375,-0.00384187605232,0.0195385478436946,0.0088155958801507
1769158631669,0.072296142578125,-0.2827301025390625,-0.9476165771484376,-0.0094648748636245,0.0057537592947483,0.0064983791671693
1769158631679,0.07080078125,-0.2809295654296875,-0.9499969482421876,-0.0140007706359028,-0.0024237427860498,-0.0005885586142539
1769158631689,0.07281494140625,-0.2815399169921875,-0.9474945068359376,-0.0235479362308979,-0.0045185852795839,-0.0011733887949958
1769158631699,0.0742645263671875,-0.283660888671875,-0.948394775390625,-0.022594790905714,-0.006330067757517,-0.0002639192680362
1769158631710,0.0751953125,-0.2794952392578125,-0.952606201171875,-0.020912205800414,-0.0008093346259556,-0.0088459560647606
1769158631719,0.0661468505859375,-0.2701416015625,-0.958648681640625,-0.0102062989026308,0.0022929816041141,-0.0062618907541036
1769158631729,0.075286865234375,-0.267669677734375,-0.9652557373046876,-0.0003667172859422,-0.0053178002126514,-0.0039534624665975
1769158631739,0.0804595947265625,-0.2664794921875,-0.9657440185546876,0.0066917249932885,-0.0070089073851704,-0.005510879214853
1769158631749,0.074859619140625,-0.26727294921875,-0.966644287109375,0.0110073769465088,-0.0029510487802326,-0.0048773130401968
1769158631759,0.075225830078125,-0.271209716796875,-0.9563751220703124,0.0056126117706298,0.0051031494513154,-0.0011523497523739
1769158631769,0.074249267578125,-0.27838134765625,-0.94891357421875,-0.000990163302049,0.0099924467504024,0.0017851168522611
1769158631780,0.073638916015625,-0.27813720703125,-0.9469451904296876,-0.0068392637185752,0.0101098921149969,0.0040714405477046
1769158631790,0.0754852294921875,-0.279754638671875,-0.9452056884765624,-0.020504742860794,0.0117717050015926,0.003974235150963
1769158631800,0.0777435302734375,-0.2814788818359375,-0.93731689453125,-0.0385042503476142,0.0043556001037359,0.0036847495939582
1769158631810,0.0770721435546875,-0.2819976806640625,-0.9337615966796876,-0.0497880615293979,-0.0004079962673131,0.0040112533606588
1769158631820,0.0806732177734375,-0.2807464599609375,-0.941314697265625,-0.054336741566658,-0.0055130096152424,0.0059937103651463
1769158631830,0.0837860107421875,-0.278228759765625,-0.9521636962890624,-0.0479776449501514,0.0032812808640301,0.0086582032963633
1769158631840,0.0818328857421875,-0.2759246826171875,-0.9630889892578124,-0.0340620949864387,0.0147134326398372,0.0129402996972203
1769158631850,0.0804595947265625,-0.275299072265625,-0.9716644287109376,-0.0219084937125444,0.0151296844705939,0.0152588477358222
1769158631860,0.0809478759765625,-0.2757568359375,-0.9716796875,-0.0131387049332261,0.0225881338119506,0.019095130264759
1769158631870,0.0784454345703125,-0.2779541015625,-0.968017578125,-0.0074414047412574,0.0175212025642395,0.0174865815788507
1769158631880,0.0750732421875,-0.2809295654296875,-0.9608154296875,-0.0067740166559815,0.0135376462712883,0.0182048361748456
1769158631890,0.076416015625,-0.280120849609375,-0.962890625,-0.0050243195146322,0.0038115161005407,0.016571519896388
1769158631900,0.0719146728515625,-0.277313232421875,-0.9587249755859376,-0.0028543761000037,0.0042256377637386,0.007521831896156
1769158631910,0.06829833984375,-0.2747344970703125,-0.9569854736328124,-0.0033156354911625,0.0055486960336565,0.0031111047137528
1769158631920,0.064483642578125,-0.2738037109375,-0.9529266357421876,-0.0013670006301254,0.0114686368033289,0.0019520970527082
1769158631930,0.065582275390625,-0.2757110595703125,-0.95355224609375,-0.0019526296528056,0.0105173559859395,-0.0001936118060257
1769158631940,0.070281982421875,-0.276275634765625,-0.9507293701171876,-0.0091474251821637,0.0034354778472334,-0.0011558119440451
1769158631950,0.0751190185546875,-0.274810791015625,-0.948150634765625,-0.0129011515527963,-0.0007414240390062,0.0009550095419399
1769158631961,0.08270263671875,-0.276123046875,-0.95062255859375,-0.0169025510549545,0.0045585329644382,0.0045968824997544
1769158631970,0.082763671875,-0.2775115966796875,-0.9497833251953124,-0.021205686032772,0.0017052220646291,0.002487126039341
1769158631981,0.0776214599609375,-0.2765045166015625,-0.9438934326171876,-0.0320921577513217,0.0095935054123401,0.0009201221400871
1769158631991,0.0767059326171875,-0.27783203125,-0.9430999755859376,-0.0365952961146831,0.0173134766519069,0.0042639872990548
1769158632001,0.0753936767578125,-0.2775115966796875,-0.9495849609375,-0.0351673066616058,0.0131932999938726,0.0044520064257085
1769158632011,0.07275390625,-0.276397705078125,-0.9538421630859376,-0.0314572602510452,0.0024988439399749,0.0016743293963372
1769158632021,0.07513427734375,-0.2756195068359375,-0.9598388671875,-0.0269935335963964,0.0025648903101682,0.0017438378417864
1769158632031,0.074249267578125,-0.2753448486328125,-0.9658203125,-0.0218251384794712,-0.0039947414770722,-0.0012551478575915
1769158632041,0.0688934326171875,-0.277435302734375,-0.959625244140625,-0.0181358605623245,-0.0051526841707527,-0.0016178702935576
1769158632051,0.074188232421875,-0.2769622802734375,-0.9610748291015624,-0.0113048525527119,-0.0086720511317253,-0.0030490530189126
1769158632061,0.0731353759765625,-0.2738800048828125,-0.9662017822265624,0.0001416801678715,-0.0039281626231968,-0.0023145533632487
1769158632071,0.0748291015625,-0.271270751953125,-0.9721221923828124,0.0110710272565484,-0.0053473613224923,0.0009619337506592
1769158632081,0.0745849609375,-0.272918701171875,-0.9637603759765624,0.0155920088291168,0.0025124261155724,-0.0004370247188489
1769158632091,0.0714263916015625,-0.2720794677734375,-0.953887939453125,0.0078509990125894,0.0068954564630985,-0.0005997438565827
1769158632101,0.0723724365234375,-0.2731170654296875,-0.9489288330078124,0.0021875204984098,0.0097005637362599,0.0027113643009215
1769158632111,0.0721588134765625,-0.2732696533203125,-0.94708251953125,-0.0095061538740992,0.0097141461446881,0.0031704932916909
1769158632121,0.0755615234375,-0.2768707275390625,-0.9388580322265624,-0.0296492390334606,0.0010748518398031,0.0011749867117032
1769158632131,0.079193115234375,-0.27886962890625,-0.9360504150390624,-0.045358158648014,0.0007411577389575,0.0045699845068156
1769158632141,0.0836334228515625,-0.2804107666015625,-0.939910888671875,-0.0472522005438804,0.0026650251820683,0.0149866724386811
1769158632151,0.08697509765625,-0.2749786376953125,-0.95269775390625,-0.0384754873812198,0.0116974022239446,0.0059545617550611
1769158632161,0.0757293701171875,-0.272430419921875,-0.967315673828125,-0.0258068293333053,0.011175156570971,0.0084888255223631
1769158632171,0.088653564453125,-0.270172119140625,-0.9746551513671876,-0.0052807820029556,-0.0096212020143866,0.0192495938390493
1769158632181,0.0866851806640625,-0.2696533203125,-0.98162841796875,0.0011978897964581,-0.0197321586310863,0.0165235828608274
1769158632192,0.0691375732421875,-0.2665863037109375,-0.9746856689453124,0.0196253657341003,0.005781456362456,0.0010343717876821
1769158632201,0.0516815185546875,-0.2595977783203125,-0.980377197265625,0.0443805158138275,0.0168495532125234,-0.0088994856923818
1769158632212,0.0599212646484375,-0.2635650634765625,-0.975830078125,0.0467264913022518,0.0077045247890055,-0.0042786346748471
1769158632222,0.081695556640625,-0.2758941650390625,-0.9574127197265624,0.0342466533184051,0.0017273263074457,-0.0027007116004824
1769158632232,0.0805816650390625,-0.28076171875,-0.9418792724609376,0.0217481721192598,0.0211167372763156,-0.0026852653827518
1769158632243,0.0719451904296875,-0.274749755859375,-0.9378662109375,0.0111698303371667,0.0315874889492988,-0.0024932513479143
1769158632252,0.065643310546875,-0.270263671875,-0.93170166015625,-0.0061369882896542,0.0252467673271894,-0.0087524792179465
