timestamp_ms,acc_x,acc_y,acc_z,gyro_x,gyro_y,gyro_z
1769244462677,0.097137451171875,-0.9439239501953124,-0.2936553955078125,0.026069151237607,0.0071982578374445,-0.0195209700614213
1769244462685,0.1124725341796875,-0.9522552490234376,-0.2805023193359375,0.0161728449165821,0.0048988847993314,-0.009894442744553
1769244462695,0.1198883056640625,-0.958892822265625,-0.279449462890625,0.0049068741500377,0.0107738180086016,-0.0022996396292001
1769244462705,0.1217803955078125,-0.951141357421875,-0.278167724609375,0.0147184925153851,0.0159526020288467,-0.0069311428815126
1769244462715,0.110626220703125,-0.9393310546875,-0.2830047607421875,0.0399085320532321,0.0224384628236293,-0.0206727869808673
1769244462725,0.09881591796875,-0.9387969970703124,-0.2857208251953125,0.0503340102732181,0.0254369173198938,-0.0334535650908947
1769244462738,0.101043701171875,-0.9442138671875,-0.2747650146484375,0.0376054309308528,0.0177004337310791,-0.0353622511029243
1769244462745,0.1120758056640625,-0.951904296875,-0.2623291015625,0.012853480875492,0.0016532903537154,-0.0253748651593923
1769244462755,0.123138427734375,-0.9585113525390624,-0.2552032470703125,-0.0187718234956264,-0.002314020646736,-0.0152149051427841
1769244462765,0.12921142578125,-0.959808349609375,-0.25689697265625,-0.0395998731255531,0.0036884781438857,-0.0057087522000074
1769244462775,0.1278839111328125,-0.9576263427734376,-0.2615509033203125,-0.0522991567850112,0.0060584251768887,0.0023680827580392
1769244462785,0.1227264404296875,-0.955596923828125,-0.27154541015625,-0.0492652840912342,0.0066435215994715,0.003353452309966
1769244462795,0.117523193359375,-0.9536285400390624,-0.2812652587890625,-0.0380629636347293,0.0087088029831647,0.004088751040399
1769244462805,0.113800048828125,-0.9503021240234376,-0.2873992919921875,-0.0260893907397985,0.0142329977825284,0.0055662728846073
1769244462816,0.11376953125,-0.9475250244140624,-0.2895660400390625,-0.0155589859932661,0.0084283724427223,0.0072714951820671
1769244462825,0.1096954345703125,-0.944183349609375,-0.2875518798828125,-0.011969044804573,0.005568669643253,0.0055012917146086
1769244462835,0.1065216064453125,-0.9445343017578124,-0.28759765625,-0.0112252235412597,0.0012351741315796,-0.0002876213984563
1769244462846,0.1045989990234375,-0.9444427490234376,-0.285552978515625,-0.0156817585229873,0.0028924592770636,-0.0036730316933244
1769244462856,0.1023406982421875,-0.947021484375,-0.28369140625,-0.0195033941417932,0.0018197379540652,-0.0089948261156678
1769244462866,0.1055145263671875,-0.94940185546875,-0.282135009765625,-0.0226190257817506,0.0020200076978653,-0.0093644736334681
1769244462876,0.1108245849609375,-0.9524078369140624,-0.2837677001953125,-0.023022761568427,0.0049260491505265,-0.0061042313463985
1769244462886,0.1139373779296875,-0.9529876708984376,-0.286895751953125,-0.0179845932871103,0.0086592677980661,-0.0039417445659637
1769244462896,0.1182708740234375,-0.9529876708984376,-0.288604736328125,-0.0164074692875146,0.0081822965294122,7.590009045088664e-05
1769244462906,0.12115478515625,-0.953155517578125,-0.2901611328125,-0.0069617694243788,0.0070491209626197,0.0009576727170497
1769244462916,0.123199462890625,-0.951751708984375,-0.29315185546875,0.0007121292874217,0.0074043865315616,0.0021076255943626
1769244462926,0.122528076171875,-0.95013427734375,-0.294647216796875,0.0089261168614029,0.0067180902697145,0.0036242958158254
1769244462936,0.1184234619140625,-0.9481048583984376,-0.292236328125,0.0135168740525841,0.0019089538836851,0.002951315138489
1769244462946,0.11578369140625,-0.947662353515625,-0.2871246337890625,0.013777065090835,0.0005938849062658,0.0007542071980424
1769244462956,0.1148681640625,-0.94732666015625,-0.2828521728515625,0.011068363673985,0.0036301547661423,0.0007491472060792
1769244462966,0.1143341064453125,-0.94696044921875,-0.2819671630859375,0.007375091779977,0.0036344157997518,0.0007566040731035
1769244462976,0.114166259765625,-0.9466400146484376,-0.2780609130859375,0.0005896238726563,-0.0009291769238188,0.0028855351265519
1769244462986,0.1172332763671875,-0.9500732421875,-0.27374267578125,-0.0112494584172964,-0.0027137610595673,0.0057055563665926
1769244462996,0.1203765869140625,-0.9519805908203124,-0.27056884765625,-0.021820344030857,-0.0048554753884673,0.0112848784774541
1769244463006,0.1209869384765625,-0.9493865966796876,-0.273651123046875,-0.0229663029313087,-0.0100912498310208,0.0121064642444252
1769244463016,0.1152496337890625,-0.946258544921875,-0.278076171875,-0.013791712000966,-0.0020394488237798,0.0060935788787901
1769244463026,0.1082305908203125,-0.9437713623046876,-0.2838134765625,-0.0112678343430161,0.0016128103015944,0.0005163869354873
1769244463036,0.106414794921875,-0.9474945068359376,-0.282470703125,-0.0143126267939805,-0.0112380068749189,-0.0008418252109549
1769244463046,0.1159820556640625,-0.9496612548828124,-0.2776947021484375,-0.0209473595023155,-0.0152825498953461,0.0030112362001091
1769244463057,0.116058349609375,-0.9515838623046876,-0.2802581787109375,-0.0236384831368923,-0.0083993440493941,0.0047420244663953
1769244463067,0.1144256591796875,-0.9490509033203124,-0.2818145751953125,-0.0245721880346536,-0.0079250345006585,0.0026511768810451
1769244463077,0.11248779296875,-0.947479248046875,-0.2832183837890625,-0.0222384594380855,-0.0001997370854951,0.0012333098566159
1769244463087,0.1116943359375,-0.9501800537109376,-0.285614013671875,-0.017372865229845,0.0030296121258288,0.0011496866354718
1769244463097,0.1113739013671875,-0.9493865966796876,-0.2869415283203125,-0.0114111127331852,0.0067167584784328,0.0010591391474008
1769244463107,0.1111602783203125,-0.9493408203125,-0.291290283203125,-0.002551042009145,0.0059359199367463,0.0001395496365148
1769244463117,0.1124725341796875,-0.9485931396484376,-0.2921905517578125,0.0045406897552311,0.0077181071974337,-2.450108149787411e-05
1769244463127,0.1140594482421875,-0.9496307373046876,-0.2929534912109375,0.0079394159838557,0.010701379738748,0.0020048276055604
1769244463137,0.1142730712890625,-0.9483489990234376,-0.2909393310546875,0.011272894218564,0.0102659529075026,0.0019172097090631
1769244463147,0.112518310546875,-0.9487457275390624,-0.2883148193359375,0.0127384318038821,0.0110941966995596,0.0013475595042109
1769244463157,0.11041259765625,-0.950408935546875,-0.2886199951171875,0.0140756051987409,0.014070545323193,-1.3582121027866378e-05
1769244463167,0.110565185546875,-0.9491119384765624,-0.2850189208984375,0.0122018046677112,0.0125424237921834,-0.0026290726382285
1769244463177,0.10986328125,-0.950714111328125,-0.28314208984375,0.011632421053946,0.0091940313577651,-0.0049585397355258
1769244463187,0.1118011474609375,-0.95050048828125,-0.2826690673828125,0.0090283825993537,0.0097865844145417,-0.004089550115168
1769244463197,0.11163330078125,-0.9494781494140624,-0.28509521484375,0.0090646017342805,0.0098473047837615,-0.0064227455295622
1769244463207,0.1126251220703125,-0.9479522705078124,-0.2859344482421875,0.0124289728701114,0.0058509646914899,-0.0019438412273302
1769244463217,0.1132659912109375,-0.948760986328125,-0.2858123779296875,0.0138492360711097,0.0070880032144486,-0.0011861718958243
1769244463227,0.1132965087890625,-0.9476165771484376,-0.28643798828125,0.0157837569713592,0.0075631109066307,-0.0036597158759832
1769244463237,0.1121673583984375,-0.946685791015625,-0.2838592529296875,0.0172865781933069,0.0073567163199186,-0.0055894423276185
1769244463247,0.111328125,-0.9479827880859376,-0.2826690673828125,0.0167454238981008,0.0107628991827368,-0.0071734907105565
1769244463258,0.112060546875,-0.9484405517578124,-0.2799835205078125,0.0159384869039058,0.0084187844768166,-0.0087234508246183
1769244463267,0.1131134033203125,-0.94879150390625,-0.279541015625,0.0163558032363653,0.0106491819024086,-0.0083332974463701
1769244463278,0.115814208984375,-0.9476470947265624,-0.27923583984375,0.0154681717976927,0.0104619618505239,-0.0058016963303089
1769244463288,0.114990234375,-0.9493865966796876,-0.2781829833984375,0.0141333956271409,0.0100880544632673,-0.0051212585531175
1769244463298,0.1145782470703125,-0.9496002197265624,-0.276458740234375,0.0097002983093261,0.0098262652754783,-0.0061228736303746
1769244463308,0.1161041259765625,-0.950103759765625,-0.275970458984375,0.0086760465055704,0.012565060518682,-0.0049476204439997
1769244463318,0.1155548095703125,-0.9498138427734376,-0.277099609375,0.0073684342205524,0.01346574164927,-0.005100485868752
1769244463328,0.1148223876953125,-0.95025634765625,-0.2762603759765625,0.005354018881917,0.0110611729323863,-0.0008913599886
1769244463338,0.115081787109375,-0.9495849609375,-0.2766265869140625,0.0019933760631829,0.0127110015600919,-0.003458913648501
1769244463348,0.1164398193359375,-0.9504547119140624,-0.2769775390625,-0.0004740426666103,0.0130348419770598,-0.001463406952098
1769244463358,0.115447998046875,-0.950592041015625,-0.2789764404296875,0.0004599279200192,0.0099013661965727,-0.0014764565275982
1769244463368,0.1160430908203125,-0.9515380859375,-0.2805328369140625,0.002264752285555,0.008633435703814,0.0009720537927933
1769244463378,0.1163787841796875,-0.951446533203125,-0.2819671630859375,0.0030463899020105,0.008315454237163,0.0010386328212916
1769244463388,0.115997314453125,-0.9504241943359376,-0.281463623046875,0.0044610612094402,0.0125698540359735,0.0029324067290872
1769244463398,0.11572265625,-0.9482879638671876,-0.281036376953125,0.005347094964236,0.0151720289140939,0.0027185548096895
1769244463408,0.11431884765625,-0.9496002197265624,-0.2823028564453125,0.006597182713449,0.0110433297231793,0.0025020397733896
1769244463418,0.11224365234375,-0.948516845703125,-0.2799835205078125,0.0059867859818041,0.0078523308038711,0.0003973436250817
1769244463428,0.113616943359375,-0.95013427734375,-0.280792236328125,0.0055862464942038,0.0122457472607493,-0.0004532700113486
1769244463438,0.1146240234375,-0.9493408203125,-0.2815093994140625,0.0058368500322103,0.0099975066259503,-0.001186704612337
1769244463449,0.113494873046875,-0.94891357421875,-0.279754638671875,0.0035156388767063,0.0062344600446522,-0.0014088122406974
1769244463458,0.11407470703125,-0.9495697021484376,-0.2762908935546875,0.0013017531018704,0.0082302326336503,-0.0020128171890974
1769244463468,0.1149444580078125,-0.9512481689453124,-0.27740478515625,0.0009938917355611,0.0069947927258908,-0.0017089504981413
1769244463479,0.114349365234375,-0.9499664306640624,-0.2792205810546875,-0.000998685369268,0.0058584217913448,-0.0009281116072088
1769244463489,0.1139068603515625,-0.9510955810546876,-0.2802886962890625,-0.0012498215073719,0.0076691047288477,-0.0031830100342631
1769244463499,0.1129608154296875,-0.9485931396484376,-0.2803955078125,-0.0015030881622806,0.0093889739364385,-0.0028668928425759
1769244463509,0.11285400390625,-0.9494171142578124,-0.27935791015625,-0.0016314524691551,0.0066621638834476,-0.0021795309148728
1769244463519,0.115264892578125,-0.9496612548828124,-0.2792205810546875,-0.0023502395488321,0.0096749980002641,-0.003336408175528
1769244463529,0.11279296875,-0.9505157470703124,-0.2793426513671875,-0.0034168355632573,0.0077854851260781,-0.0051641357131302
1769244463539,0.1123046875,-0.95025634765625,-0.27703857421875,-0.0018216022290289,0.0110206929966807,-0.0020021644886583
1769244463549,0.114898681640625,-0.950531005859375,-0.2791900634765625,-0.00159443449229,0.010522149503231,-0.0015393070643767
1769244463559,0.115875244140625,-0.9507598876953124,-0.2778778076171875,-0.0059508332051336,0.0030447919853031,-0.0035329493694007
1769244463569,0.1170806884765625,-0.9503631591796876,-0.27642822265625,-0.0040203081443905,0.0073226275853812,-0.0006234460161067
1769244463579,0.1157989501953125,-0.9505462646484376,-0.278900146484375,-0.0016972325975075,0.0085724489763379,-0.0012327772565186
1769244463590,0.115875244140625,-0.9490203857421876,-0.279296875,0.0039289616979658,0.0063356603495776,-0.0031595742329955
1769244463599,0.115264892578125,-0.9484405517578124,-0.2798614501953125,0.0048592034727334,0.0122172515839338,-0.0039646481163799
1769244463609,0.11468505859375,-0.9494781494140624,-0.28155517578125,0.0066459183581173,0.0143813360482454,-0.0010298443958163
1769244463619,0.1170501708984375,-0.9517974853515624,-0.280426025390625,0.0029515814967453,0.0079961409792304,0.0003621898940764
1769244463629,0.118194580078125,-0.95233154296875,-0.2766571044921875,0.0011693940032273,0.0051745218224823,0.0044477451592683
1769244463639,0.11981201171875,-0.9520263671875,-0.2766265869140625,-0.000989097985439,0.0066310046240687,0.0050139334052801
1769244463649,0.117828369140625,-0.952178955078125,-0.2768096923828125,-0.0036970002111047,0.0070105050690472,0.0083748428151011
1769244463659,0.120361328125,-0.9533843994140624,-0.2751312255859375,-0.0118625182658433,0.0065545719116926,0.0155035918578505
1769244463670,0.1240997314453125,-0.9543609619140624,-0.27801513671875,-0.0069194249808788,0.0039840890094637,0.0170908365398645
1769244463679,0.1197662353515625,-0.94677734375,-0.28167724609375,0.0028567728586494,-0.0047627971507608,0.0105959186330437
1769244463690,0.104034423828125,-0.9373321533203124,-0.2827301025390625,0.016007462516427,0.0099093560129404,-0.0080201094970107
1769244463700,0.0911865234375,-0.9371795654296876,-0.2858123779296875,0.0227066446095705,0.0267975255846977,-0.0235239677131176
1769244463710,0.0965728759765625,-0.942901611328125,-0.2823486328125,0.0134833185002207,0.017586451023817,-0.0208807811141014
1769244463720,0.11676025390625,-0.9560394287109376,-0.2718048095703125,-0.0051151332445442,0.0007840346079319,-0.0060464409179985
1769244463730,0.12872314453125,-0.9600982666015624,-0.2698211669921875,-0.00997353810817,0.0007307713967747,0.0033297503832727
1769244463740,0.1261138916015625,-0.9528045654296876,-0.276275634765625,-0.0002394181792624,0.0045425537973642,-0.0008753810543566
1769244463751,0.1136322021484375,-0.9408721923828124,-0.2830963134765625,0.0259210783988237,0.0198107231408357,-0.0172037538141012
1769244463760,0.0986328125,-0.935516357421875,-0.2877349853515625,0.0404805801808834,0.0242904257029294,-0.0324450246989727
1769244463770,0.0989532470703125,-0.9390716552734376,-0.2799072265625,0.0376722775399684,0.0220887903124094,-0.0380411259829998
1769244463780,0.1103973388671875,-0.951568603515625,-0.271270751953125,0.0177374519407749,0.0196948759257793,-0.0310649741441011
1769244463790,0.1235809326171875,-0.9591064453125,-0.2655487060546875,-0.0042290999554097,0.0209963619709014,-0.017565943300724
1769244463800,0.130889892578125,-0.9610443115234376,-0.2681884765625,-0.0173600818961858,0.0213849171996116,-0.0057364488020539
1769244463810,0.129974365234375,-0.959075927734375,-0.2735748291015625,-0.0130087425932288,0.0230169016867876,0.0012088088551536
1769244463820,0.1263275146484375,-0.95556640625,-0.28387451171875,-0.0001392833219142,0.0260494444519281,0.001603755634278
1769244463830,0.1208343505859375,-0.954376220703125,-0.288543701171875,0.016139555722475,0.0283155273646116,-0.0002356897603021
1769244463840,0.11590576171875,-0.9535675048828124,-0.286834716796875,0.0275642499327659,0.0230206307023763,-0.0005376922199502
1769244463850,0.1119384765625,-0.9517822265625,-0.28338623046875,0.0330389104783535,0.013318202458322,-0.0004042678629048
1769244463860,0.1103973388671875,-0.9479827880859376,-0.27838134765625,0.0314862877130508,0.0126457540318369,-0.0031827439088374
1769244463870,0.1078033447265625,-0.9470062255859376,-0.2752685546875,0.0249290522187948,0.0143049033358693,-0.0079029304906725
1769244463880,0.104827880859375,-0.9472198486328124,-0.27099609375,0.0146979857236146,0.0077892136760056,-0.0136902453377842
1769244463890,0.108673095703125,-0.9501495361328124,-0.2677154541015625,0.003442401997745,0.0039531961083412,-0.017217868939042
1769244463900,0.1138458251953125,-0.953460693359375,-0.266754150390625,-0.0037750308401882,0.0068235513754189,-0.0168879032135009
1769244463912,0.1188201904296875,-0.953277587890625,-0.2696990966796875,-0.0094584831967949,0.0077141122892498,-0.0127141969278454
1769244463921,0.1243438720703125,-0.9545440673828124,-0.2717742919921875,-0.0096707371994853,0.0065332665108144,-0.007407050114125
1769244463931,0.128997802734375,-0.9543609619140624,-0.2753143310546875,-0.0040189763531088,0.0083543360233306,-0.0022248048335313
1769244463941,0.1327362060546875,-0.9539642333984376,-0.2802276611328125,0.0031284152064472,0.0090033486485481,0.006794789340347
1769244463951,0.1323699951171875,-0.95184326171875,-0.28009033203125,0.011585016734898,0.0034037861041724,0.0110196275636553
1769244463961,0.1300506591796875,-0.949554443359375,-0.27813720703125,0.0159123875200748,0.0043934169225394,0.0124715836718678
1769244463971,0.125762939453125,-0.9510498046875,-0.276092529296875,0.0158902835100889,0.0115666408091783,0.0144748128950595
1769244463981,0.1240997314453125,-0.9502410888671876,-0.27288818359375,0.0140154175460338,0.0115866148844361,0.0118481377139687
1769244463991,0.1187591552734375,-0.9489288330078124,-0.2694244384765625,0.0109346732497215,0.009468869306147,0.0114752948284149
1769244464001,0.1152496337890625,-0.947235107421875,-0.2660675048828125,0.0054634748958051,0.0025265410076826,0.0089966906234622
1769244464011,0.1142425537109375,-0.9491424560546876,-0.263702392578125,-0.0037731665652245,-0.0039188414812088,0.0076504629105329
1769244464021,0.1150360107421875,-0.9534759521484376,-0.2618560791015625,-0.0222006440162658,-0.0052213934250175,0.0093104112893342
1769244464031,0.1185760498046875,-0.9553070068359376,-0.26263427734375,-0.0316647179424762,-0.0087535437196493,0.0107035106047987
1769244464041,0.1183624267578125,-0.9514312744140624,-0.267547607421875,-0.0273946058005094,-0.0086882971227169,0.0105157578364014
1769244464051,0.113372802734375,-0.9487457275390624,-0.275177001953125,-0.0195803586393594,-0.0074182352982461,0.0073468624614179
1769244464061,0.108734130859375,-0.9468994140625,-0.278106689453125,-0.0143304700031876,-0.0019299928098917,0.0011707255616784
1769244464071,0.107757568359375,-0.94622802734375,-0.2791748046875,-0.0063566989265382,0.0002439455565763,-0.0035942022223025
1769244464081,0.10894775390625,-0.9483489990234376,-0.2792205810546875,-0.0096566220745444,0.0003837615076918,-0.002117745578289
1769244464091,0.115264892578125,-0.9522552490234376,-0.2770233154296875,-0.0117842210456728,-0.0020762004423886,0.0017667410429567
1769244464102,0.1168365478515625,-0.9524383544921876,-0.277252197265625,-0.0088832397013902,-0.0019060244085267,0.0021486382465809
1769244464112,0.1159820556640625,-0.9511260986328124,-0.27960205078125,-0.0028032432310283,0.0021068267524242,0.0016117451013997
1769244464122,0.112060546875,-0.9511566162109376,-0.2824859619140625,0.0026796725578606,0.0037553233560174,-0.0018285263795405
1769244464132,0.11358642578125,-0.9527130126953124,-0.2809295654296875,0.0063231433741748,0.0065098307095468,-0.0028639633674174
1769244464142,0.115966796875,-0.952728271484375,-0.2804718017578125,0.0113961985334753,0.0069290124811232,-0.0034940673504024
1769244464152,0.114501953125,-0.95257568359375,-0.2772369384765625,0.0140646863728761,0.006654973141849,-0.000101466437627
1769244464162,0.116668701171875,-0.9518280029296876,-0.2756195068359375,0.0138431116938591,0.0044618602842092,-0.0009717874927446
1769244464172,0.118560791015625,-0.9521026611328124,-0.27392578125,0.0126737169921398,0.0058831889182329,0.0005776396137662
1769244464182,0.1173095703125,-0.950958251953125,-0.2731170654296875,0.0120047312229871,0.0022887205705046,0.0001832254783948
1769244464192,0.117706298828125,-0.950164794921875,-0.2721710205078125,0.0097796600311994,0.0029984530992805,0.0010186590952798
1769244464202,0.1189422607421875,-0.9513397216796876,-0.2718658447265625,0.0056112804450094,-0.0037982002831995,0.0005550027708522
1769244464212,0.11712646484375,-0.9520263671875,-0.2693023681640625,0.0033720945939421,-0.0065146246924996,0.0012282498646527
1769244464222,0.1189727783203125,-0.9518890380859376,-0.2693634033203125,0.0014008227735757,-0.0028168254066258,0.0008210525847971
1769244464232,0.1194305419921875,-0.9532012939453124,-0.27020263671875,-0.001995506696403,0.0021241372451186,0.0023036343045532
1769244464242,0.119110107421875,-0.9522857666015624,-0.2695770263671875,-0.0052256546914577,-0.000940095866099,0.0031710257753729
1769244464252,0.118682861328125,-0.9511566162109376,-0.267303466796875,-0.0088009480386972,-0.0045622610487043,0.003320695599541
1769244464262,0.1211395263671875,-0.9516448974609376,-0.2671356201171875,-0.0131072802469134,-0.0030860709957778,0.0053652040660381
1769244464272,0.1213226318359375,-0.951141357421875,-0.2692108154296875,-0.0139424474909901,-0.0025305356830358,0.0057212687097489
1769244464282,0.1165618896484375,-0.9499053955078124,-0.2712249755859375,-0.012581305578351,-0.0038948729634284,0.0049324408173561
1769244464292,0.1156005859375,-0.94976806640625,-0.2718353271484375,-0.0105983158573508,1.1717908819264268e-05,0.0052482914179563
1769244464303,0.1171112060546875,-0.95068359375,-0.2732086181640625,-0.0096449041739106,0.0010543455136939,0.0066035743802785
1769244464312,0.115875244140625,-0.9495849609375,-0.27587890625,-0.0066216834820806,0.0030708911363035,0.0062328623607754
1769244464323,0.1145172119140625,-0.9498748779296876,-0.2771148681640625,-0.0050829090178012,0.0011126686586067,0.0079644499346613
1769244464333,0.1142730712890625,-0.9508514404296876,-0.2765960693359375,-0.0036658411845564,-0.0013528858544304,0.0063343285582959
1769244464343,0.114013671875,-0.9512176513671876,-0.27557373046875,-0.00318886898458,-0.0002727076935116,0.0055886437185108
1769244464353,0.11358642578125,-0.9512786865234376,-0.2758331298828125,-0.0024841965641826,-0.0002434129273751,0.0034277546219527
1769244464363,0.1139373779296875,-0.9526214599609376,-0.27471923828125,-0.0020666129421442,-0.0032796829473227,0.0023377228062599
1769244464373,0.1146087646484375,-0.9528961181640624,-0.2723236083984375,-0.0046006105840206,-0.0023065637797117,0.0033305492252111
1769244464383,0.1164093017578125,-0.95172119140625,-0.2711334228515625,-0.0074912058189511,-0.0009864348685368,0.0018439727136865
1769244464393,0.115753173828125,-0.9511566162109376,-0.2721405029296875,-0.0101852593943476,-0.0021225393284112,0.0054014232009649
1769244464403,0.1150054931640625,-0.9522705078125,-0.2722320556640625,-0.0115306880325078,-0.0057380469515919,0.0043689156882464
1769244464413,0.114105224609375,-0.9517669677734376,-0.271636962890625,-0.0130180642008781,-0.0048035434447228,0.004316717851907
1769244464423,0.1154327392578125,-0.950469970703125,-0.2749176025390625,-0.0129160648211836,0.0047351005487143,0.0025563682429492
1769244464433,0.115478515625,-0.9510498046875,-0.276611328125,-0.0108129661530256,0.0006572681595571,0.0053766560740768
1769244464443,0.1151123046875,-0.9516448974609376,-0.277099609375,-0.0065053035505115,-0.0046647931449115,0.0061500379815697
1769244464453,0.1158447265625,-0.9516754150390624,-0.2756500244140625,-0.0051287156529724,-0.0022913836874067,0.0045798378996551
1769244464463,0.1164398193359375,-0.951904296875,-0.2756805419921875,-0.0063492422923445,0.0013824469642713,0.0035065840929746
1769244464473,0.1168060302734375,-0.9517669677734376,-0.2727203369140625,-0.0050733219832181,0.0061202105134725,0.007121292874217
1769244464484,0.1180572509765625,-0.95068359375,-0.27215576171875,-0.0072568478062748,0.0025398568250238,0.0059758671559393
1769244464493,0.11651611328125,-0.9492950439453124,-0.270172119140625,-0.0094145406037569,-0.0041412152349948,0.0042410842142999
1769244464503,0.1146392822265625,-0.9496002197265624,-0.2700653076171875,-0.0102542350068688,-0.0086605995893478,0.0041236383840441
1769244464513,0.114837646484375,-0.948486328125,-0.2695465087890625,-0.0137733360752463,-0.0035489285364747,0.0038772961124777
1769244464523,0.114898681640625,-0.94879150390625,-0.269622802734375,-0.0183505117893219,-0.0014253237750381,0.005379319190979
1769244464534,0.115966796875,-0.9504547119140624,-0.2689208984375,-0.0242741797119379,-0.0054333810694515,0.0079822922125458
1769244464544,0.1176605224609375,-0.9532318115234376,-0.26812744140625,-0.0310689695179462,-0.0057106162421405,0.0108475880697369
1769244464554,0.1186370849609375,-0.9539794921875,-0.26898193359375,-0.0355555973947048,-0.0068107680417597,0.0137091539800167
1769244464564,0.117706298828125,-0.954742431640625,-0.2711639404296875,-0.0371913090348243,-0.002797916997224,0.0150543171912431
1769244464574,0.1186065673828125,-0.957427978515625,-0.2731781005859375,-0.0448548234999179,-0.0038767636287957,0.0218760035932064
1769244464584,0.12188720703125,-0.9553985595703124,-0.27703857421875,-0.0357830300927162,-0.0110366716980934,0.0225766822695732
1769244464594,0.113494873046875,-0.9471588134765624,-0.2826385498046875,-0.0183760784566402,-0.0173180028796196,0.0113735618069767
1769244464604,0.098480224609375,-0.93890380859375,-0.2869720458984375,-0.0075647090561687,0.0004828310920856,-0.0070421970449388
1769244464614,0.089324951171875,-0.940155029296875,-0.28619384765625,0.0004596615908667,0.011928298510611,-0.0229676328599452
1769244464624,0.0975189208984375,-0.944244384765625,-0.2823333740234375,-0.0073905382305383,-0.0028027107473462,-0.0193542558699846
1769244464634,0.115081787109375,-0.9558868408203124,-0.275665283203125,-0.0242707189172506,-0.0158545970916748,-0.003506850451231
1769244464644,0.1271514892578125,-0.960601806640625,-0.2721099853515625,-0.0306631047278642,-0.0120294988155364,0.0047939564101397
1769244464654,0.127044677734375,-0.95654296875,-0.2757720947265625,-0.0246353056281805,-0.0057497648522257,0.0063689495436847
1769244464664,0.117279052734375,-0.9440765380859376,-0.2826080322265625,0.0038575888611376,0.0068951901048421,-0.004946022760123
1769244464674,0.102447509765625,-0.937347412109375,-0.289215087890625,0.0271637104451656,0.0117432083934545,-0.0234938748180866
1769244464684,0.0993194580078125,-0.9376220703125,-0.28582763671875,0.0319105274975299,0.014444719068706,-0.0333856530487537
1769244464694,0.10455322265625,-0.9443206787109376,-0.2774810791015625,0.0189555808901786,0.0081548653542995,-0.0276388190686702
1769244464704,0.1168212890625,-0.955078125,-0.2661590576171875,-0.0097431745380163,0.0037736992817372,-0.0181755423545837
1769244464714,0.1267242431640625,-0.959503173828125,-0.2620849609375,-0.0314657799899578,0.0046030078083276,-0.005468534771353
1769244464724,0.129730224609375,-0.9579925537109376,-0.266845703125,-0.0364589430391788,0.0039316248148679,0.0015920377336442
1769244464735,0.1253204345703125,-0.954559326171875,-0.274078369140625,-0.0325049459934234,0.0081783011555671,0.0054197991266846
1769244464745,0.12078857421875,-0.95318603515625,-0.2811431884765625,-0.0219132881611585,0.0065188854932785,0.0055068843066692
1769244464755,0.1146392822265625,-0.95391845703125,-0.282562255859375,-0.0136489672586321,-0.0005025385180488,0.0065356637351214
1769244464765,0.1123809814453125,-0.9514007568359376,-0.2816925048828125,-0.0092030856758356,0.0013118730857968,0.0055713327601552
1769244464775,0.1102294921875,-0.95074462890625,-0.2812652587890625,-0.0117069901898503,-0.0032977922819554,0.0038352182600647
1769244464785,0.1067047119140625,-0.9506072998046876,-0.276275634765625,-0.0183622296899557,-0.0077881482429802,-0.0002394181792624
1769244464795,0.1054534912109375,-0.950927734375,-0.27301025390625,-0.026479011401534,-0.0124097978696227,-0.0058088870719075
1769244464805,0.103515625,-0.9506378173828124,-0.270843505859375,-0.0368893072009086,-0.0128263160586357,-0.0089759184047579
1769244464815,0.1058197021484375,-0.9525299072265624,-0.27117919921875,-0.043634295463562,-0.0063457801006734,-0.0085961511358618
1769244464825,0.1115264892578125,-0.952972412109375,-0.27685546875,-0.0414260029792785,-0.001128381351009,-0.0097546260803937
1769244464835,0.1156158447265625,-0.9531707763671876,-0.281524658203125,-0.0370307229459285,-0.0020077570807188,-0.0069772158749401
1769244464845,0.1219940185546875,-0.9520721435546876,-0.28643798828125,-0.0257341247051954,-0.003450391581282,-0.0005278385360725
1769244464855,0.124542236328125,-0.9502105712890624,-0.289764404296875,-0.0134300552308559,-0.0027284084353595,0.0033678335603326
1769244464865,0.123809814453125,-0.9487762451171876,-0.290069580078125,-0.0021723404061049,-0.0010495517635717,0.0066110310144722
1769244464875,0.123046875,-0.9486541748046876,-0.2871551513671875,0.0023497070651501,-0.0009627327090129,0.0099828597158193
1769244464885,0.119964599609375,-0.9470672607421876,-0.282745361328125,0.0039830235764384,-0.0036045885644853,0.0075782909989356
1769244464895,0.1170806884765625,-0.9473114013671876,-0.27691650390625,7.5101139373146e-05,-0.0076872142963111,0.0073529877699911
1769244464905,0.114532470703125,-0.9470672607421876,-0.271636962890625,-0.0096544912084937,-0.0030160299502313,0.007145260926336
1769244464915,0.11297607421875,-0.9467926025390624,-0.26922607421875,-0.0174208022654056,-7.590009045088664e-05,0.0054216631688177
1769244464925,0.112579345703125,-0.947784423828125,-0.2687835693359375,-0.0255186762660741,-0.0040088561363518,0.0046623959206044
1769244464935,0.1153106689453125,-0.9495849609375,-0.269744873046875,-0.0370522923767566,-0.0159438122063875,0.008797219954431
1769244464945,0.1177215576171875,-0.9526824951171876,-0.2679901123046875,-0.0477986820042133,-0.0161701813340187,0.0109354723244905
1769244464956,0.11981201171875,-0.952972412109375,-0.27239990234375,-0.05009725689888,-0.0175968371331691,0.0103932525962591
1769244464965,0.114166259765625,-0.9494476318359376,-0.2795867919921875,-0.0457123592495918,-0.0185702219605445,0.0093652717769145
1769244464976,0.108489990234375,-0.9474029541015624,-0.2828369140625,-0.03459233045578,-0.008823319338262,0.0020548950415104
1769244464986,0.1033782958984375,-0.945648193359375,-0.2883453369140625,-0.0271599814295768,-0.0029901971574872,-0.0054062171839177
1769244464996,0.10614013671875,-0.947235107421875,-0.28857421875,-0.0268340110778808,-0.0053207296878099,-0.0038490667939186
1769244465006,0.1112518310546875,-0.94952392578125,-0.28466796875,-0.0301579013466835,-0.007610781583935,0.0004063983797095
1769244465016,0.113006591796875,-0.9481353759765624,-0.28314208984375,-0.0312455371022224,-0.0081191789358854,0.0007323693134821
1769244465026,0.111083984375,-0.94793701171875,-0.285491943359375,-0.0282590687274932,-0.002182993106544,0.0004319647268857
1769244465036,0.11181640625,-0.948577880859375,-0.2877044677734375,-0.0234137140214443,0.0018485001055523,0.0010159959783777
1769244465046,0.1123504638671875,-0.948516845703125,-0.28924560546875,-0.0170442312955856,-0.0004002731002401,0.0010082727530971
1769244465056,0.1137237548828125,-0.950408935546875,-0.2890472412109375,-0.013513677753508,0.0045185852795839,0.0018674085149541
1769244465066,0.116668701171875,-0.951263427734375,-0.2899017333984375,-0.0062605589628219,0.009141300804913,0.0043641221709549
1769244465076,0.116180419921875,-0.9510498046875,-0.2895660400390625,-0.0053156693466007,0.003181678475812,0.0050616040825843
1769244465086,0.1143035888671875,-0.949676513671875,-0.285888671875,-0.0043161851353943,-0.0038136467337608,0.0032676986884325
1769244465096,0.11376953125,-0.9487762451171876,-0.28216552734375,-0.0095261270180344,-0.0012921657180413,0.0036016590893268
1769244465106,0.1108245849609375,-0.9490203857421876,-0.2812042236328125,-0.0176764652132987,-0.0005145227187313,0.0011797803454101
1769244465117,0.1095733642578125,-0.9499664306640624,-0.2775421142578125,-0.026503512635827,-0.0034032536204904,-0.0005091963685117
1769244465126,0.110260009765625,-0.9496307373046876,-0.2775726318359375,-0.0305339414626359,0.0023049658630043,-0.0001035969689837
1769244465136,0.1119537353515625,-0.9509429931640624,-0.281707763671875,-0.02703507989645,0.0058491006493568,0.0017981663113459
1769244465146,0.112579345703125,-0.9491424560546876,-0.28692626953125,-0.0219029020518064,-0.0004961469094268,0.0010993528412654
1769244465156,0.113983154296875,-0.9481048583984376,-0.287933349609375,-0.0142553681507706,0.0018176074372604,0.0028993834275752
1769244465166,0.112335205078125,-0.9484100341796876,-0.2917022705078125,-0.0084174536168575,0.0011219898005947,0.0019078885670751
1769244465177,0.1114959716796875,-0.94708251953125,-0.2904815673828125,-0.0044844970107078,-0.0035875441972166,0.0004799016169272
1769244465187,0.1108245849609375,-0.948028564453125,-0.288055419921875,-0.0003850930952467,-0.0070150326937437,-0.0021901836153119
1769244465197,0.111236572265625,-0.94769287109375,-0.285858154296875,-0.0006410228670574,0.0008279767935164,-0.0035896748304367
1769244465207,0.110992431640625,-0.94793701171875,-0.2845306396484375,-0.0025531724095344,-0.0010186590952798,-0.0024711471050977
1769244465217,0.1123046875,-0.9492034912109376,-0.28143310546875,-0.0019041601335629,-0.00059042283101,-0.0021007014438509
1769244465227,0.112457275390625,-0.9479522705078124,-0.281951904296875,-0.0036458675749599,0.0016261261189356,-0.0032610406633466
1769244465237,0.1126251220703125,-0.9471282958984376,-0.28314208984375,-0.0038722362369298,0.0042453450150787,-0.0001408812240697
1769244465247,0.114227294921875,-0.948699951171875,-0.2827606201171875,-0.005479454062879,0.0055913068354129,0.0002045307774096
1769244465257,0.1133880615234375,-0.9482574462890624,-0.28399658203125,-0.0061271348968148,-0.002527339849621,-0.0015017564874142
1769244465267,0.1115875244140625,-0.9498138427734376,-0.281646728515625,-0.010513893328607,-0.0019222697010263,-0.0010610034223645
1769244465277,0.1125335693359375,-0.9503326416015624,-0.2804107666015625,-0.01316240709275,0.0039377501234412,0.0004394215648062
1769244465287,0.1128997802734375,-0.9490203857421876,-0.2809906005859375,-0.0164974834769964,-0.0010365023044869,-0.0022527680266648
1769244465297,0.1110382080078125,-0.9483642578125,-0.281524658203125,-0.0192535892128944,-0.0049846386536955,0.000524909060914
1769244465307,0.1114349365234375,-0.9491424560546876,-0.28302001953125,-0.0221681520342826,-0.0017108146566897,-0.0002705771767068
1769244465317,0.1124725341796875,-0.9486541748046876,-0.28509521484375,-0.022897059097886,-0.0008900284301489,-0.0001866875973064
1769244465327,0.1115264892578125,-0.948638916015625,-0.285308837890625,-0.0223319362848997,-0.0020383833907544,-0.0002245044743176
1769244465338,0.11236572265625,-0.9488372802734376,-0.287872314453125,-0.0198991391807794,0.0015984292840585,-0.0037321539130061
1769244465347,0.1124267578125,-0.94970703125,-0.289031982421875,-0.0165621992200613,0.0023481091484427,-0.0012860405258834
1769244465358,0.1126708984375,-0.9483489990234376,-0.291961669921875,-0.0112843457609415,0.0022586269769817,-0.0022692794445902
1769244465367,0.111968994140625,-0.947723388671875,-0.2932281494140625,-0.0057393782772123,0.0046948865056037,-0.0029374666046351
1769244465378,0.112548828125,-0.9483642578125,-0.29296875,0.0007611314067617,0.0045441519469022,-0.0014194648247212
1769244465388,0.1129608154296875,-0.94720458984375,-0.2915191650390625,0.0028897961601614,0.0034530546981841,-0.0003075950953643
1769244465398,0.1136932373046875,-0.946990966796875,-0.2899322509765625,0.0034610440488904,0.0046184537932276,-0.0003747067530639
1769244465408,0.1138763427734375,-0.947265625,-0.2873382568359375,0.0043963463976979,0.0019286612514406,0.0010924286907538
1769244465418,0.114776611328125,-0.948272705078125,-0.284332275390625,0.0012407667236402,0.0020426444243639,-0.0009190568816848
1769244465428,0.11322021484375,-0.9484710693359376,-0.28289794921875,-0.0002356897603021,0.0041979406960308,-0.0015161376213654
1769244465438,0.1124114990234375,-0.9476470947265624,-0.282501220703125,-0.0020509003661572,0.0063833305612206,-0.0008247809601016
1769244465448,0.1144866943359375,-0.9491424560546876,-0.2818450927734375,-0.0042690471746027,0.0065764100290834,-0.0003400856803636
1769244465458,0.11309814453125,-0.947662353515625,-0.281463623046875,-0.0047494815662503,0.0045108622871339,0.0005528722540475
1769244465468,0.11083984375,-0.94732666015625,-0.281982421875,-0.0084054693579673,0.0012985573848709,-0.0021853898651897
1769244465478,0.11151123046875,-0.947967529296875,-0.2808685302734375,-0.0117842210456728,0.0011174624087288,-0.0025694177020341
1769244465488,0.1129302978515625,-0.950347900390625,-0.2828216552734375,-0.018557172268629,-0.000646349217277,0.0020256002899259
1769244465498,0.113922119140625,-0.949462890625,-0.28216552734375,-0.0226014498621225,-0.0023046995047479,0.0028698223177343
1769244465508,0.11419677734375,-0.9500732421875,-0.2838134765625,-0.0227077100425958,-0.0007142598042264,0.0063566989265382
1769244465518,0.114013671875,-0.9516143798828124,-0.286285400390625,-0.0246707256883382,-0.0033225596416741,0.0086475498974323
1769244465528,0.1158599853515625,-0.9535064697265624,-0.287353515625,-0.0226600393652915,-0.0040256343781948,0.0102126896381378
1769244465538,0.1154327392578125,-0.9489898681640624,-0.2891693115234375,-0.0143760098144412,-0.0091346427798271,0.0059649483300745
1769244465548,0.1064605712890625,-0.9395904541015624,-0.2902679443359375,-0.0029981867410242,-0.0101836612448096,-0.0047705206088721
1769244465558,0.0947113037109375,-0.9337310791015624,-0.294464111328125,0.0062424493953585,0.0096076196059584,-0.0228603091090917
1769244465568,0.0925750732421875,-0.9384613037109376,-0.294921875,0.0036770266015082,0.0100012347102165,-0.0275123175233602
1769244465578,0.1069183349609375,-0.947784423828125,-0.285552978515625,-0.0092462291941046,0.0011411645682528,-0.0155043909326195
1769244465588,0.1226043701171875,-0.9551239013671876,-0.2817840576171875,-0.0181643571704626,0.0023007048293948,-0.0070592411793768
1769244465599,0.1283721923828125,-0.95782470703125,-0.2855377197265625,-0.0179438460618257,0.0028951223939657,0.0017832526937127
1769244465609,0.1256561279296875,-0.9469757080078124,-0.288116455078125,0.0018026937032118,0.002273806836456,-0.0014998923288658
1769244465619,0.108978271484375,-0.936553955078125,-0.2971649169921875,0.0280574671924114,0.0150726931169629,-0.018419487401843
1769244465629,0.099456787109375,-0.93603515625,-0.29718017578125,0.0369412414729595,0.0249423682689666,-0.0273029934614896
1769244465639,0.105316162109375,-0.9426727294921876,-0.2866668701171875,0.0265860706567764,0.0195145793259143,-0.0281927548348903
1769244465649,0.1134796142578125,-0.9494781494140624,-0.2744903564453125,0.0038394792936742,0.0142942508682608,-0.0169518198817968
1769244465659,0.123199462890625,-0.9563446044921876,-0.2686614990234375,-0.0234781615436077,0.012353072874248,-0.0064019728451967
1769244465669,0.1275482177734375,-0.956634521484375,-0.2706451416015625,-0.0364701263606548,0.0091618066653609,-0.0010029464028775
1769244465679,0.124359130859375,-0.9541473388671876,-0.2765960693359375,-0.0376818664371967,0.0077394125983119,0.0028935244772583
1769244465689,0.1193695068359375,-0.951934814453125,-0.28216552734375,-0.0329385101795196,0.0077524618245661,0.0044243093580007
1769244465699,0.11651611328125,-0.9511260986328124,-0.2864837646484375,-0.0247655343264341,0.0099844569340348,0.0013209278695285
1769244465709,0.11163330078125,-0.9488067626953124,-0.2918853759765625,-0.0140050314366817,0.008158859796822,0.0011041465913876
1769244465719,0.1062469482421875,-0.9461212158203124,-0.2959136962890625,-0.0060831923037767,0.0050078080967068,-0.000406132050557
1769244465729,0.1043243408203125,-0.9442901611328124,-0.29498291015625,-0.0002031991898547,0.0048725195229053,-0.005683185532689
1769244465739,0.10235595703125,-0.9445953369140624,-0.292999267578125,-0.0030117689166218,0.0016660735709592,-0.0086861662566661
1769244465749,0.102874755859375,-0.946380615234375,-0.290496826171875,-0.0058893142268061,0.0019619506783783,-0.0144271422177553
1769244465759,0.104827880859375,-0.947265625,-0.28814697265625,-0.0091367727145552,0.0039745015092194,-0.0175302568823099
1769244465769,0.1089324951171875,-0.9504547119140624,-0.2901611328125,-0.0075806877575814,0.0053758569993078,-0.0150175653398036
1769244465779,0.1135101318359375,-0.9499359130859376,-0.289093017578125,-0.0068166269920766,0.0055470983497798,-0.0113421371206641
1769244465789,0.119293212890625,-0.951629638671875,-0.2900238037109375,0.0002785666438285,0.007940481416881,-0.0080288983881473
1769244465799,0.1237945556640625,-0.952301025390625,-0.293914794921875,0.0075740301981568,0.0140857249498367,-0.0019116170005872
1769244465809,0.12615966796875,-0.9510345458984376,-0.295166015625,0.0161233097314834,0.0131323132663965,0.0025004418566823
1769244465820,0.1262054443359375,-0.948394775390625,-0.2935333251953125,0.0239143874496221,0.0067535103298723,0.0031268175225704
1769244465830,0.12335205078125,-0.948272705078125,-0.28924560546875,0.0256715416908264,0.0075908079743385,0.0045699845068156
1769244465840,0.1192626953125,-0.946563720703125,-0.28570556640625,0.0242866966873407,0.0106513127684593,0.0029622339643538
1769244465850,0.11566162109375,-0.9459075927734376,-0.281494140625,0.0183297395706176,0.0104300044476985,0.0024415859952569
1769244465860,0.115386962890625,-0.9446563720703124,-0.277984619140625,0.0109317433089017,0.0062120896764099,0.0010090717114508
1769244465870,0.11419677734375,-0.9454803466796876,-0.2740020751953125,0.0014234596164897,0.0076025258749723,0.0020631509833037
1769244465880,0.113983154296875,-0.9452667236328124,-0.27490234375,-0.0079474048689007,0.0048032770864665,0.0035902075469493
1769244465890,0.114654541015625,-0.949066162109375,-0.275787353515625,-0.0229489915072917,-0.0013659353135153,0.0055492287501692
1769244465900,0.1184234619140625,-0.9501953125,-0.2751007080078125,-0.0321398265659809,-0.0023252058308571,0.0083609940484166
1769244465910,0.11895751953125,-0.947906494140625,-0.2798919677734375,-0.0280252434313297,-0.0073055834509432,0.006476008798927
1769244465920,0.1125640869140625,-0.9442138671875,-0.28533935546875,-0.0192775577306747,-0.0073532541282474,0.0004157194343861
1769244465930,0.10589599609375,-0.9435882568359376,-0.288482666015625,-0.0086712520569562,0.0026546388398855,-0.0070528495125472
1769244465940,0.106109619140625,-0.947052001953125,-0.292022705078125,-0.0092579470947384,0.0066592344082891,-0.0062323296442627
1769244465950,0.11273193359375,-0.95013427734375,-0.2894134521484375,-0.0128899654373526,-2.8495824153651483e-05,-0.0013510215794667
1769244465960,0.1169281005859375,-0.948516845703125,-0.2892913818359375,-0.0105389272794127,2.4767397917457856e-05,0.0014764565275982
1769244465970,0.1154327392578125,-0.94830322265625,-0.2933197021484375,-0.0064672203734517,0.0148646999150514,-0.0013169331941753
1769244465980,0.1132049560546875,-0.9474639892578124,-0.297576904296875,0.0016253271605819,0.0160822961479425,0.0003723099071066
1769244465990,0.110870361328125,-0.9468536376953124,-0.2967987060546875,0.0126484176144003,0.0068584387190639,-0.0046970173716545
1769244466000,0.1112823486328125,-0.9485015869140624,-0.2974853515625,0.0230126418173313,0.0101450458168983,-0.0062698801048099
1769244466010,0.1118927001953125,-0.949676513671875,-0.296295166015625,0.029708094894886,0.020478643476963,-0.0072555160149931
1769244466020,0.11297607421875,-0.9486083984375,-0.2960052490234375,0.033585924655199,0.0229471269994974,-0.0046522761695086
1769244466031,0.115142822265625,-0.949005126953125,-0.2916717529296875,0.0355255044996738,0.0226198248565197,-0.0032362733036279
1769244466041,0.1175384521484375,-0.9485931396484376,-0.28936767578125,0.0345598421990871,0.0200125910341739,-0.0005185174522921
1769244466051,0.11614990234375,-0.9488983154296876,-0.2845001220703125,0.0337100252509117,0.0220302008092403,0.0006223807577043
1769244466061,0.11376953125,-0.948394775390625,-0.281158447265625,0.030409837141633,0.0241918880492448,-0.0022940470371395
1769244466071,0.1151275634765625,-0.9484405517578124,-0.2801666259765625,0.0244994834065437,0.0250206645578145,-0.0042807650752365
1769244466081,0.116302490234375,-0.9503326416015624,-0.279541015625,0.0233223661780357,0.0173113457858562,-0.0039358856156468
1769244466091,0.115997314453125,-0.94976806640625,-0.2772674560546875,0.0190376061946153,0.0125948879867792,-0.0016221314435824
1769244466101,0.11700439453125,-0.9482269287109376,-0.2789459228515625,0.0169454272836446,0.0125887626782059,-0.0017214673571288
1769244466111,0.1168212890625,-0.94781494140625,-0.280242919921875,0.0144444527104496,0.0116507969796657,-0.0017291904659941
1769244466121,0.1175384521484375,-0.9481201171875,-0.27899169921875,0.0105136269703507,0.0090731233358383,0.0003432814555708
1769244466131,0.1175994873046875,-0.94940185546875,-0.27734375,0.0086936233565211,0.0104614291340112,0.0022277343086898
1769244466141,0.116790771484375,-0.9494781494140624,-0.27880859375,0.0065468489192426,0.0090078758075833,0.0001459412305848
1769244466151,0.1161041259765625,-0.948883056640625,-0.2792205810546875,0.0048554753884673,0.0099924467504024,-0.0003299656673334
1769244466161,0.1163482666015625,-0.94775390625,-0.2798309326171875,0.0053071472793817,0.010064085945487,0.0022586269769817
1769244466171,0.1134033203125,-0.9472198486328124,-0.2821807861328125,0.0081519363448023,0.0102044343948364,-0.0011672634864225
1769244466181,0.112030029296875,-0.9470672607421876,-0.2827911376953125,0.0087274452671408,0.0070472569204866,-0.0001600559771759
1769244466191,0.1150360107421875,-0.9491424560546876,-0.281341552734375,0.0067481836304068,0.003042128868401,-0.0011795139871537
1769244466201,0.113983154296875,-0.948699951171875,-0.281036376953125,0.0059316586703062,0.0079346224665641,-0.0023417174816131
1769244466211,0.115386962890625,-0.94976806640625,-0.282012939453125,0.0054086139425635,0.0053068809211254,-0.0035316178109496
1769244466222,0.114044189453125,-0.949951171875,-0.2795562744140625,0.0051332428120076,0.0061005032621324,-0.0021443772129714
1769244466231,0.1170806884765625,-0.94976806640625,-0.28143310546875,0.00426851445809,0.0087649952620267,-0.0025182850658893
1769244466241,0.117034912109375,-0.9499664306640624,-0.2815399169921875,0.0060480386018753,0.0041806302033364,-0.0008077367674559
1769244466251,0.1171112060546875,-0.9493408203125,-0.2816314697265625,0.0042714439332485,0.0037183053791522,0.0011262508342042
1769244466262,0.1166839599609375,-0.94970703125,-0.28265380859375,0.0070374030619859,0.0087460875511169,0.0006130596739239
1769244466272,0.115753173828125,-0.9492950439453124,-0.2840118408203125,0.0101349260658025,0.0115964682772755,0.0004972121678292
1769244466282,0.1147918701171875,-0.9481964111328124,-0.28375244140625,0.01104546058923,0.0115040568634867,-0.0012559468159452
1769244466292,0.1151580810546875,-0.94744873046875,-0.282684326171875,0.0113261574879288,0.012599947862327,-0.0016554208705201
1769244466302,0.1158905029296875,-0.9487762451171876,-0.28167724609375,0.0127504160627722,0.0090803140774369,-0.0009736517095007
1769244466312,0.1161956787109375,-0.9490509033203124,-0.2818450927734375,0.0128542799502611,0.0091697964817285,-0.0043995422311127
1769244466322,0.1144256591796875,-0.9475555419921876,-0.2807464599609375,0.0131104756146669,0.0060184774920344,-0.0043183155357837
1769244466332,0.1151580810546875,-0.9486236572265624,-0.2804718017578125,0.0131493574008345,0.0062853265553712,-0.0065638930536806
1769244466342,0.117523193359375,-0.9497222900390624,-0.2803497314453125,0.0100675476714968,0.0094198668375611,-0.0031899344176054
1769244466352,0.1183013916015625,-0.9485321044921876,-0.2811737060546875,0.0124239129945635,0.0079202409833669,-0.0015640745405107
1769244466362,0.1185150146484375,-0.94940185546875,-0.27783203125,0.0107908621430397,0.0050408313982188,0.0011446266435086
1769244466372,0.11810302734375,-0.9493865966796876,-0.2773284912109375,0.0093559511005878,0.0065287393517792,0.002273806836456
1769244466382,0.1177520751953125,-0.9496002197265624,-0.2772369384765625,0.0080419471487402,0.0142822666093707,0.0011914982460439
1769244466392,0.1178741455078125,-0.949371337890625,-0.2752838134765625,0.0051383031532168,0.007757521700114,0.000598145998083
1769244466402,0.1171875,-0.9479217529296876,-0.2752685546875,0.006491987966001,0.0093136066570878,-0.0014442323008552
1769244466412,0.11492919921875,-0.948333740234375,-0.2770843505859375,0.0058277952484786,0.0148830758407711,-0.0014969628537073
1769244466422,0.1138763427734375,-0.949249267578125,-0.277069091796875,0.0057601509615778,0.0117900799959898,-0.0012482235906645
1769244466432,0.1154937744140625,-0.95025634765625,-0.2760162353515625,0.001316666835919,0.0112585136666893,0.0017749968683347
1769244466442,0.118316650390625,-0.952301025390625,-0.2764434814453125,-0.0024136228021234,0.0101517038419842,0.0041587925516068
1769244466453,0.1185760498046875,-0.9517669677734376,-0.2794036865234375,-0.0015353123890236,0.015376559458673,0.0056030247360467
1769244466462,0.1181488037109375,-0.952423095703125,-0.27978515625,-0.0037539917975664,0.014781342819333,0.0094970986247062
1769244466473,0.1204071044921875,-0.9545745849609376,-0.2778778076171875,-0.0032029838766902,0.0010977550409734,0.013154418207705
1769244466483,0.121795654296875,-0.954833984375,-0.278167724609375,0.0036368127912282,-0.0035172367934137,0.0134646762162446
1769244466493,0.115386962890625,-0.9461822509765624,-0.2827911376953125,0.0157834906131029,0.0013536848127841,0.0061761368997395
1769244466503,0.1016998291015625,-0.937591552734375,-0.2838592529296875,0.0247279834002256,0.0160362236201763,-0.0072395368479192
1769244466513,0.0936126708984375,-0.9378662109375,-0.2826995849609375,0.030417826026678,0.0219803992658853,-0.0231918711215257
1769244466523,0.1012115478515625,-0.9432525634765624,-0.279541015625,0.0172700677067041,0.0080877542495727,-0.016940101981163
1769244466533,0.1187744140625,-0.9562530517578124,-0.271820068359375,0.0012247877893969,0.00178378529381,-0.0040179109200835
1769244466543,0.129058837890625,-0.9595489501953124,-0.269744873046875,-0.0073223612271249,0.0010367685463279,0.0036762275267392
1769244466553,0.128753662109375,-0.9531097412109376,-0.274017333984375,0.0047244476154446,0.0032035163603723,-0.0003443467139732
1769244466563,0.1159210205078125,-0.940673828125,-0.2798919677734375,0.0288508236408233,0.0157608538866043,-0.0135256620123982
1769244466573,0.10247802734375,-0.9368896484375,-0.2845001220703125,0.0445261895656585,0.0303413942456245,-0.0301861315965652
1769244466583,0.1014556884765625,-0.9385528564453124,-0.2800750732421875,0.0388118438422679,0.0252158734947443,-0.0359148569405078
1769244466593,0.11090087890625,-0.9485015869140624,-0.2692108154296875,0.0208437629044055,0.0161970797926187,-0.0295096896588802
1769244466603,0.1247100830078125,-0.9581298828125,-0.2635040283203125,-0.0042517366819083,0.0111746238544583,-0.0188346747308969
1769244466613,0.131256103515625,-0.960662841796875,-0.2624664306640625,-0.0204962193965911,0.0128324413672089,-0.0065015750005841
1769244466623,0.13104248046875,-0.9581298828125,-0.2712554931640625,-0.0184035077691078,0.0196498669683933,-0.0021174794528633
1769244466633,0.1272430419921875,-0.9569091796875,-0.2817230224609375,-0.0053614759817719,0.0200173836201429,0.0009595369338057
1769244466643,0.1216583251953125,-0.9543304443359376,-0.28924560546875,0.0128737203776836,0.0209731925278902,0.0009853695519268
1769244466653,0.1165618896484375,-0.9534759521484376,-0.2924652099609375,0.0306388698518276,0.0242323689162731,0.002281796419993
1769244466663,0.1124725341796875,-0.9513702392578124,-0.2901611328125,0.041900310665369,0.0175014957785606,-0.003460245206952
1769244466674,0.1072998046875,-0.9479827880859376,-0.2821197509765625,0.0411887168884277,0.0038836877793073,-0.0054054181091487
1769244466684,0.104583740234375,-0.9474945068359376,-0.274810791015625,0.0316482074558734,-0.0003800330741796,-0.0107261473312973
1769244466694,0.10430908203125,-0.949005126953125,-0.269500732421875,0.020110860466957,0.0010040117194876,-0.0164982825517654
1769244466704,0.105712890625,-0.95269775390625,-0.2651824951171875,0.0064709489233791,-0.0014879080699756,-0.0211439002305269
1769244466714,0.113525390625,-0.9547576904296876,-0.2642974853515625,-0.0033723609521985,0.0019808590877801,-0.0179478414356708
1769244466724,0.1209716796875,-0.9570465087890624,-0.265228271484375,-0.0067665595561265,0.0048088701441884,-0.0140495058149099
1769244466734,0.1266632080078125,-0.95611572265625,-0.2693634033203125,-0.004800347611308,0.0069686933420598,-0.0068054418079555
1769244466744,0.1331024169921875,-0.95513916015625,-0.274505615234375,0.0019893813878297,0.0094203995540738,0.000157392816618
1769244466754,0.1324615478515625,-0.9537506103515624,-0.2794342041015625,0.0114537235349416,0.0068882661871612,0.0060919807292521
1769244466764,0.1305084228515625,-0.951080322265625,-0.2784881591796875,0.0180857926607131,0.0034879420418292,0.011460380628705
1769244466774,0.1286468505859375,-0.949249267578125,-0.274627685546875,0.0204160585999488,-0.0002101234131259,0.010954912751913
1769244466784,0.1265716552734375,-0.9495697021484376,-0.27008056640625,0.0161627251654863,0.0021246699616312,0.0129347071051597
1769244466794,0.12384033203125,-0.94879150390625,-0.2652587890625,0.007358846720308,0.005289570428431,0.0137552265077829
1769244466804,0.118804931640625,-0.947509765625,-0.26068115234375,-0.0014349111588671,0.0046663908287882,0.014453774318099
1769244466814,0.1156463623046875,-0.9455413818359376,-0.2625885009765625,-0.0110073769465088,0.0028969866689294,0.0104142911732196
1769244466824,0.11572265625,-0.9492034912109376,-0.2641448974609375,-0.0222568362951278,-0.0010940266074612,0.0104076331481337
1769244466834,0.1188201904296875,-0.9530029296875,-0.2636871337890625,-0.0356072634458541,-0.0101453121751546,0.0150077119469642
1769244466844,0.122589111328125,-0.955718994140625,-0.263885498046875,-0.0412925779819488,-0.0170298498123884,0.0173246618360281
1769244466854,0.122283935546875,-0.9534759521484376,-0.27142333984375,-0.0363292470574379,-0.01962829567492,0.0167701914906501
1769244466864,0.1160125732421875,-0.9486541748046876,-0.2764129638671875,-0.02425367385149,-0.0116145778447389,0.0112507902085781
1769244466874,0.11053466796875,-0.9468994140625,-0.28106689453125,-0.0159166492521762,-0.0036703685764223,0.003123088972643
1769244466884,0.1076812744140625,-0.9478607177734376,-0.2811737060546875,-0.0090273171663284,-0.0036157737486064,-0.0012234562309458
1769244466894,0.110626220703125,-0.9499053955078124,-0.279052734375,-0.0120462765917181,-0.0052528190426528,0.0017563547007739
1769244466905,0.11773681640625,-0.9508819580078124,-0.276397705078125,-0.0139435119926929,-0.0019603527616709,0.0030879352707415
1769244466915,0.1153411865234375,-0.9496612548828124,-0.2794036865234375,-0.0113000590354204,0.004038683604449,0.005070658866316
1769244466925,0.1125335693359375,-0.9500274658203124,-0.281951904296875,-0.0059058261103928,0.0052525526843965,0.0002287655370309
1769244466935,0.1114959716796875,-0.950897216796875,-0.28240966796875,-0.0001302285818383,0.0038682415615767,-0.0009443568997085
1769244466945,0.11553955078125,-0.9532470703125,-0.2817840576171875,0.0045382929965853,0.0074067837558686,0.0007214503129944
1769244466955,0.11944580078125,-0.9531707763671876,-0.2802886962890625,0.0095793902873992,0.0096212020143866,0.0032434638123959
1769244466965,0.1195220947265625,-0.9530029296875,-0.277923583984375,0.0130790499970316,0.0080328928306698,0.0040653152391314
1769244466975,0.121429443359375,-0.953033447265625,-0.2751922607421875,0.0113871442154049,0.0035270904190838,0.0059622852131724
1769244466985,0.1200714111328125,-0.952178955078125,-0.272552490234375,0.0087641971185803,0.000893224205356,0.0074730962514877
1769244466995,0.12060546875,-0.95159912109375,-0.270477294921875,0.0055580171756446,0.0034927357919514,0.0077796261757612
1769244467005,0.1188201904296875,-0.952392578125,-0.2689056396484375,-0.0004913532175123,0.0037089844699949,0.007995874620974
1769244467015,0.1170654296875,-0.9522552490234376,-0.26593017578125,-0.0068866680376231,0.0004008057294413,0.0071657677181065
1769244467025,0.1179962158203125,-0.953521728515625,-0.2667388916015625,-0.0125845009461045,0.0004000068001914,0.0088326400145888
1769244467035,0.1172027587890625,-0.9514923095703124,-0.2686767578125,-0.0149725582450628,0.0012559468159452,0.0100829945877194
1769244467045,0.11676025390625,-0.9501495361328124,-0.269866943359375,-0.0163771081715822,0.0026674221735447,0.0089452918618917
1769244467055,0.1170806884765625,-0.9510955810546876,-0.272430419921875,-0.017317472025752,0.0019800602458417,0.0096220010891556
1769244467065,0.1168212890625,-0.9498748779296876,-0.272613525390625,-0.0168655328452587,-0.0032077773939818,0.0095365131273865
1769244467075,0.1180267333984375,-0.9499664306640624,-0.2718505859375,-0.0138716073706746,-0.0035467979032546,0.0110590429976582
1769244467086,0.1164703369140625,-0.9508514404296876,-0.271697998046875,-0.0153592489659786,-0.003965713083744,0.0106174908578395
1769244467095,0.1163330078125,-0.950958251953125,-0.2714385986328125,-0.0157893486320972,-0.0034514567814767,0.0111072454601526
1769244467106,0.118438720703125,-0.949249267578125,-0.2702178955078125,-0.016563531011343,-0.0051284492947161,0.0122683839872479
1769244467116,0.115325927734375,-0.9496002197265624,-0.2718658447265625,-0.0194197706878185,-0.0092187980189919,0.0106728840619325
1769244467126,0.1147918701171875,-0.9489593505859376,-0.2713165283203125,-0.0202544052153825,-0.0089689940214157,0.0113181686028838
1769244467136,0.1150665283203125,-0.9505462646484376,-0.27362060546875,-0.0219641551375389,-0.008297611027956,0.0102584967389702
1769244467146,0.11358642578125,-0.9499359130859376,-0.2728271484375,-0.0234773624688386,-0.006516755092889,0.0082882894203066
1769244467156,0.1140594482421875,-0.950042724609375,-0.273895263671875,-0.0257136188447475,-0.0093924365937709,0.0076336846686899
1769244467166,0.1116943359375,-0.949432373046875,-0.2742462158203125,-0.0257644858211278,-0.0123980799689888,0.0082792351022362
1769244467176,0.113861083984375,-0.9508056640625,-0.274444580078125,-0.0277919508516788,-0.0092899044975638,0.0050751860253512
1769244467186,0.1146392822265625,-0.9516143798828124,-0.27740478515625,-0.025380190461874,-0.0056586847640573,0.005910353269428
1769244467196,0.11529541015625,-0.952239990234375,-0.279449462890625,-0.025589782744646,-0.0080723073333501,0.0075684376060962
1769244467206,0.11529541015625,-0.9504852294921876,-0.2796783447265625,-0.0209225919097661,-0.0081609906628727,0.0082659190520644
1769244467216,0.115692138671875,-0.9516448974609376,-0.2807159423828125,-0.0206384323537349,-0.0048863678239285,0.008445150218904
1769244467226,0.113922119140625,-0.9494171142578124,-0.280670166015625,-0.0169446282088756,-0.0074773575179278,0.0072826803661882
1769244467236,0.111053466796875,-0.94903564453125,-0.2794952392578125,-0.0170045495033264,-0.0063516390509903,0.0049398974515497
1769244467246,0.1107177734375,-0.9493255615234376,-0.281005859375,-0.0131600107997655,-0.0017496967921033,0.0023244069889187
1769244467256,0.11181640625,-0.9488983154296876,-0.28167724609375,-0.007529288996011,0.0013973605819046,0.0022857910953462
1769244467266,0.113433837890625,-0.9479522705078124,-0.2813262939453125,-0.0043095271103084,-0.0005049353349022,0.0001949433935806
1769244467276,0.113250732421875,-0.9487457275390624,-0.2794189453125,-0.0041910167783498,-0.0056789247319102,-0.0010998855577781
1769244467286,0.112335205078125,-0.94915771484375,-0.275604248046875,-0.0077995997853577,-0.0012013519881293,0.0013305152533575
1769244467296,0.114837646484375,-0.9506378173828124,-0.2761383056640625,-0.0117839546874165,-0.0034392061643302,0.0037601171061396
1769244467306,0.1159820556640625,-0.9515533447265624,-0.2718963623046875,-0.0153403403237462,-0.0038400120101869,0.0061742723919451
1769244467317,0.1180419921875,-0.952850341796875,-0.272216796875,-0.0175321213901042,-0.0045915558002889,0.0099535640329122
1769244467327,0.1195220947265625,-0.956451416015625,-0.271240234375,-0.0287078116089105,-0.0121562648564577,0.016867397353053
1769244467337,0.12322998046875,-0.9581756591796876,-0.2683868408203125,-0.0316047966480255,-0.0145816057920455,0.0209284517914056
1769244467347,0.122802734375,-0.9529266357421876,-0.272918701171875,-0.0233543254435062,-0.0124710509553551,0.0186093710362911
1769244467357,0.1086273193359375,-0.941558837890625,-0.278076171875,-0.0138359209522604,-0.006345513742417,0.0071125044487416
1769244467367,0.0910797119140625,-0.9376678466796876,-0.279296875,-0.0095777921378612,0.004694087896496,-0.0091873733326792
1769244467377,0.092529296875,-0.940887451171875,-0.2769775390625,-0.0186019130051136,-0.006068012677133,-0.0126673253253102
1769244467387,0.1067352294921875,-0.9500885009765624,-0.2714080810546875,-0.039090409874916,-0.0134870465844869,-0.0065188854932785
1769244467397,0.12054443359375,-0.9584197998046876,-0.2697296142578125,-0.0528112836182117,-0.0113823506981134,0.0066682891920208
1769244467407,0.12628173828125,-0.9582366943359376,-0.273040771484375,-0.0532632209360599,-0.0110878050327301,0.0105959186330437
1769244467417,0.1226654052734375,-0.94805908203125,-0.2824554443359375,-0.0343617014586925,-0.0085253110155463,0.0020953752100467
1769244467427,0.1078643798828125,-0.937896728515625,-0.2920379638671875,-0.0040815607644617,0.0027518442366272,-0.0137208718806505
1769244467437,0.0964508056640625,-0.935333251953125,-0.2963714599609375,0.0172682031989097,0.0091639375314116,-0.0286391023546457
1769244467447,0.0988311767578125,-0.9401702880859376,-0.2918853759765625,0.0180567651987075,0.0090443613007664,-0.0301014427095651
1769244467457,0.1105194091796875,-0.9510345458984376,-0.281036376953125,-0.0003371562052052,0.0004737763665616,-0.0213127452880144
1769244467467,0.1217193603515625,-0.9571990966796876,-0.272735595703125,-0.0195787604898214,-0.0001784317864803,-0.0092595443129539
1769244467477,0.1261749267578125,-0.9589080810546876,-0.2751617431640625,-0.0308196973055601,0.0040698428638279,-0.0018319884547963
1769244467487,0.12213134765625,-0.9551239013671876,-0.2791595458984375,-0.0295102223753929,0.0064557688310742,0.0008338357438333
1769244467497,0.1183319091796875,-0.953948974609375,-0.2861480712890625,-0.0180479753762483,0.0097058909013867,6.817692337790504e-05
1769244467507,0.1135711669921875,-0.9510498046875,-0.291229248046875,-0.0042283008806407,0.011356784030795,-0.000981907476671
1769244467517,0.1118621826171875,-0.951690673828125,-0.2918701171875,0.0065580341033637,0.0090438285842537,-0.0009763148264028
1769244467528,0.1112823486328125,-0.951019287109375,-0.2901153564453125,0.0137035613879561,0.0022511701099574,0.0012261193478479
1769244467537,0.1080780029296875,-0.9481201171875,-0.286590576171875,0.0120486728847026,-0.0030868700705468,-0.0041902177035808
1769244467548,0.1043701171875,-0.9477996826171876,-0.28057861328125,0.0073428675532341,-0.0052355085499584,-0.0081708440557122
1769244467558,0.104461669921875,-0.948333740234375,-0.275054931640625,-0.0025398568250238,-0.0028232170734554,-0.0123386913910508
1769244467568,0.1055908203125,-0.949920654296875,-0.2722625732421875,-0.0109543800354003,-0.0078435419127345,-0.0146231511607766
1769244467578,0.1108856201171875,-0.9521484375,-0.2701263427734375,-0.0179230738431215,-0.008110923692584,-0.0138790635392069
1769244467588,0.1162567138671875,-0.95361328125,-0.27264404296875,-0.0206054095178842,-0.0057108826003968,-0.0102667519822716
1769244467598,0.1225128173828125,-0.95318603515625,-0.2759552001953125,-0.0213814545422792,-0.0024764735717326,-0.0038394792936742
1769244467608,0.12469482421875,-0.9512176513671876,-0.2788238525390625,-0.0173331834375858,-0.0023888554424047,0.00091692636488
1769244467618,0.1268768310546875,-0.951141357421875,-0.280242919921875,-0.0126417595893144,-0.0066307382658123,0.0061343251727521
1769244467628,0.1250762939453125,-0.949371337890625,-0.281005859375,-0.0097575560212135,-0.0049284459091722,0.0069817430339753
1769244467638,0.1215972900390625,-0.9479827880859376,-0.279815673828125,-0.0078339548781514,-0.002077798359096,0.007274956908077
1769244467648,0.1179351806640625,-0.9482421875,-0.2777252197265625,-0.0101751396432518,-0.0026045716367661,0.009549562819302
1769244467658,0.11590576171875,-0.9476318359375,-0.277313232421875,-0.0147312758490443,-0.0067367320880293,0.0102004399523139
1769244467668,0.11346435546875,-0.9481353759765624,-0.2742462158203125,-0.0202040709555149,-0.0061098239384591,0.0085647264495491
1769244467678,0.113037109375,-0.9475555419921876,-0.273956298828125,-0.0234864167869091,-0.0025478461757302,0.0096017606556415
1769244467688,0.112152099609375,-0.948394775390625,-0.2754058837890625,-0.0336224101483821,-0.0052046156488358,0.0097759319469332
1769244467698,0.1143035888671875,-0.951263427734375,-0.273773193359375,-0.0480663292109966,-0.01272804569453,0.0127165941521525
1769244467708,0.117919921875,-0.9528656005859376,-0.2719879150390625,-0.054499726742506,-0.0158537980169057,0.016390424221754
1769244467718,0.1157989501953125,-0.9501495361328124,-0.2794952392578125,-0.0503321476280689,-0.0171201303601264,0.0123413549736142
1769244467729,0.108734130859375,-0.94842529296875,-0.2855224609375,-0.0396797694265842,-0.0069069080054759,0.0064307348802685
1769244467739,0.1023101806640625,-0.9441986083984376,-0.2902984619140625,-0.0282518770545721,0.0012026835465803,-0.0027305390685796
1769244467749,0.1027984619140625,-0.9461212158203124,-0.2926788330078125,-0.0243831034749746,-0.0073971962556242,-0.0017795242602005
1769244467759,0.1092987060546875,-0.9493408203125,-0.2893524169921875,-0.0265083070844411,-0.0106430565938353,-0.0003512709517963
1769244467769,0.1129608154296875,-0.9493408203125,-0.2900238037109375,-0.0230656377971172,-0.0090331761166453,0.0011012171162292
1769244467779,0.1096343994140625,-0.9469757080078124,-0.290740966796875,-0.0202024728059768,-0.0008471515611745,-0.0034951325505971
1769244467789,0.108245849609375,-0.94677734375,-0.293609619140625,-0.0157528631389141,0.0042349589057266,-0.0056605488061904
1769244467799,0.110260009765625,-0.94915771484375,-0.29302978515625,-0.0102371908724308,0.0049657300114631,-0.0065785404294729
1769244467809,0.1118011474609375,-0.9502410888671876,-0.29327392578125,0.0004729774082079,0.0080526005476713,-0.006130862981081
1769244467819,0.1159515380859375,-0.9493560791015624,-0.29327392578125,0.0071665663272142,0.0111567806452512,-0.0056975670158863
1769244467829,0.1160125732421875,-0.9498748779296876,-0.2900848388671875,0.0119687784463167,0.0092353103682398,0.0005691175465472
1769244467839,0.11712646484375,-0.949951171875,-0.2867889404296875,0.0135024925693869,0.0045638591982424,0.0030080403666943
1769244467849,0.117401123046875,-0.9489288330078124,-0.2821807861328125,0.0102230766788125,0.001849299063906,0.0034938009921461
1769244467859,0.1132965087890625,-0.9482421875,-0.2802734375,0.0048110005445778,0.0047438889741897,0.0031819448340684
1769244467869,0.110870361328125,-0.947784423828125,-0.278228759765625,-0.004259193316102,0.0037087181117385,0.0015555523568764
1769244467879,0.111358642578125,-0.950225830078125,-0.2743988037109375,-0.011977300979197,0.0011632688110694,0.0002577939885668
1769244467889,0.1130218505859375,-0.9492645263671876,-0.274749755859375,-0.0164724495261907,0.0019736685790121,0.0023931164760142
1769244467899,0.115325927734375,-0.9497528076171876,-0.2783966064453125,-0.0186522472649812,-0.001366734271869,0.0021555626299232
1769244467909,0.1146392822265625,-0.9499969482421876,-0.2796478271484375,-0.0199255049228668,-0.002362756524235,0.0035955337807536
1769244467919,0.113677978515625,-0.94818115234375,-0.280303955078125,-0.0227817445993423,-0.0092510227113962,0.0010125337867066
1769244467929,0.1121826171875,-0.9488677978515624,-0.2809600830078125,-0.0224704220890998,-0.009533317759633,0.0001209075126098
1769244467940,0.1118316650390625,-0.9476470947265624,-0.2822723388671875,-0.024097079411149,-0.0038488004356622,0.0001094559193006
1769244467949,0.11175537109375,-0.9474639892578124,-0.282501220703125,-0.0235870853066444,-0.0017973673529922,0.0015992282424122
1769244467960,0.1132659912109375,-0.9470977783203124,-0.28643798828125,-0.0218006372451782,-0.0002367550187045,0.0022690133191645
1769244467970,0.1123199462890625,-0.94818115234375,-0.2893829345703125,-0.0162572674453258,-0.0022005699574947,0.0013318468118086
1769244467980,0.1109771728515625,-0.94732666015625,-0.291229248046875,-0.0115165738388895,-0.0007741809240542,7.297061529243365e-05
1769244467990,0.1101226806640625,-0.94708251953125,-0.2903900146484375,-0.0067087691277265,0.0030740867368876,0.0013925669481977
1769244468000,0.1099700927734375,-0.9467315673828124,-0.290283203125,-0.0046552056446671,0.0026272083632647,0.0001976065541384
1769244468010,0.110015869140625,-0.9473876953125,-0.2888946533203125,-0.0019616845529526,0.0023486416321247,-0.0012610068079084
1769244468020,0.110565185546875,-0.9488677978515624,-0.28631591796875,-0.0036184368655085,0.004317516926676,-0.0033033851068466
1769244468030,0.1121673583984375,-0.9487152099609376,-0.2849578857421875,-0.0069282134063541,-0.0023078953381627,-0.0034783547744154
1769244468040,0.111480712890625,-0.94970703125,-0.2813262939453125,-0.0105551723390817,-0.0032682311721146,-0.0031113710720092
1769244468050,0.1124420166015625,-0.9485015869140624,-0.2843170166015625,-0.0118603873997926,0.0005195827106945,-0.0039473371580243
1769244468060,0.111236572265625,-0.9487457275390624,-0.285308837890625,-0.0149589758366346,0.0009472863748669,-0.0018817896489053
1769244468070,0.11309814453125,-0.9475250244140624,-0.2846832275390625,-0.013424196280539,0.002609631512314,-0.0013102752855047
1769244468080,0.113311767578125,-0.94818115234375,-0.2870330810546875,-0.0093679353594779,0.0035939358640462,-0.0023811322171241
1769244468090,0.114227294921875,-0.948577880859375,-0.289215087890625,-0.0063947825692594,0.0061031663790345,0.0006950850365683
1769244468100,0.1147613525390625,-0.9497833251953124,-0.290771484375,-0.0013020194601267,0.0014692660188302,0.0006764429272152
1769244468110,0.1154327392578125,-0.947113037109375,-0.289276123046875,-0.000834102043882,0.0012247877893969,0.0005107942852191
1769244468121,0.1132659912109375,-0.948089599609375,-0.2879486083984375,-0.0008034756756387,-0.0023465112317353,-0.0011395666515454
1769244468130,0.11126708984375,-0.9476165771484376,-0.28460693359375,-0.0014580807182937,-0.0071013187989592,-0.0002364887041039
1769244468140,0.1115264892578125,-0.9482269287109376,-0.282501220703125,-0.0051992894150316,-0.0021728731226176,-0.0031609057914465
1769244468151,0.1116485595703125,-0.94866943359375,-0.2839508056640625,-0.0051705273799598,0.0011776498286053,-0.0037992654833942
1769244468161,0.113250732421875,-0.947479248046875,-0.2836151123046875,-0.0040171123109757,0.0009619337506592,-0.0038970035966485
1769244468171,0.114044189453125,-0.9463348388671876,-0.2834625244140625,-0.0047161919064819,0.0024125576019287,-0.0024964471813291
1769244468181,0.1140594482421875,-0.948333740234375,-0.2841949462890625,-0.0089879026636481,0.0021848573815077,-0.0014421016676351
1769244468191,0.1145172119140625,-0.9493255615234376,-0.2837677001953125,-0.0111916679888963,-0.0007331682136282,0.0011499529937282
1769244468201,0.1161651611328125,-0.9500732421875,-0.2816009521484375,-0.016978183761239,0.0020133496727794,0.0056597497314214
1769244468211,0.1151885986328125,-0.9498748779296876,-0.2830810546875,-0.0210395045578479,-0.0050693270750343,0.0049015479162335
1769244468221,0.1135101318359375,-0.95233154296875,-0.2813568115234375,-0.0263743493705987,-0.0081370221450924,0.0088723208755254
1769244468231,0.117889404296875,-0.953826904296875,-0.2826690673828125,-0.0317965447902679,-0.00598572101444,0.0122843626886606
1769244468241,0.1156158447265625,-0.9498443603515624,-0.285552978515625,-0.0231173038482666,-0.0078853536397218,0.0082616582512855
1769244468251,0.10723876953125,-0.940582275390625,-0.291534423828125,-0.0093144057318568,0.0002508697798475,-0.0029803435318171
1769244468261,0.0933990478515625,-0.9364013671875,-0.2960205078125,0.0058973040431737,0.0194032583385705,-0.0189641043543815
1769244468271,0.0927276611328125,-0.9399261474609376,-0.297821044921875,0.0055604139342904,0.0158029310405254,-0.0209715943783521
1769244468281,0.105926513671875,-0.9456787109375,-0.28936767578125,-0.0038645130116492,0.0014783206861466,-0.0135885132476687
1769244468291,0.1168365478515625,-0.9536590576171876,-0.286041259765625,-0.0111876735463738,0.003328418591991,-0.0053699980489909
1769244468301,0.12091064453125,-0.9579315185546876,-0.2878875732421875,-0.014675348997116,0.0016956346808001,-9.906959166983142e-05
1769244468311,0.1207733154296875,-0.9462127685546876,-0.289031982421875,0.001898301183246,0.0014820491196587,-0.0047401604242622
1769244468321,0.10577392578125,-0.9368743896484376,-0.296478271484375,0.0305768176913261,0.0113669037818908,-0.021900238469243
1769244468331,0.0988006591796875,-0.9356536865234376,-0.296417236328125,0.037506628781557,0.0183196179568767,-0.0330178700387477
1769244468341,0.104278564453125,-0.9420166015625,-0.288330078125,0.0308165028691291,0.0173707343637943,-0.0339126922190189
1769244468351,0.11590576171875,-0.9490814208984376,-0.274658203125,0.0096861831843853,0.0096587529405951,-0.0224302075803279
1769244468361,0.1259307861328125,-0.957000732421875,-0.27044677734375,-0.012997823767364,0.0072390045970678,-0.0110419988632202
1769244468371,0.1270599365234375,-0.9559783935546876,-0.2712249755859375,-0.0276052616536617,0.0009768474847078,-0.002599777886644
1769244468381,0.1268768310546875,-0.953460693359375,-0.275482177734375,-0.0314167775213718,0.0044386903755366,-0.000646349217277
1769244468392,0.1212615966796875,-0.9528961181640624,-0.2823638916015625,-0.025376996025443,0.0056365802884101,-5.406216951087117e-05
1769244468402,0.115020751953125,-0.9508209228515624,-0.286773681640625,-0.0179374553263187,0.0048773130401968,-0.0015502260066568
1769244468412,0.1108551025390625,-0.947906494140625,-0.2889251708984375,-0.0122622586786746,0.0088720545172691,-0.0029987194575369
1769244468422,0.1090850830078125,-0.946197509765625,-0.291534423828125,-0.0055798552930355,0.0119485380128026,-0.0053697316907346
1769244468432,0.10845947265625,-0.9452972412109376,-0.2917633056640625,-0.0028224179986864,0.0047548078000545,-0.0043545346707105
1769244468442,0.1060028076171875,-0.944915771484375,-0.2888031005859375,-0.0048360340297222,0.0030706247780472,-0.0088025461882352
1769244468452,0.1046905517578125,-0.9453582763671876,-0.2885589599609375,-0.0074254255741834,0.0037372140213847,-0.0122944833710789
1769244468462,0.106842041015625,-0.946136474609375,-0.28826904296875,-0.0104997791349887,0.0030964573379606,-0.0115330852568149
1769244468472,0.1104583740234375,-0.9509429931640624,-0.286468505859375,-0.0104387924075126,0.0037784930318593,-0.0101948464289307
1769244468482,0.113922119140625,-0.950347900390625,-0.2881317138671875,-0.0076802903786301,0.0021896511316299,-0.008635033853352
1769244468492,0.1173248291015625,-0.951568603515625,-0.28912353515625,-0.0065601645037531,0.0023837955668568,-0.0035758262965828
1769244468502,0.1206512451171875,-0.9521026611328124,-0.2897186279296875,0.0008828379213809,0.0040349555201828,-0.0011725898366421
1769244468512,0.1242218017578125,-0.950958251953125,-0.292022705078125,0.006598247680813,0.009229983203113,0.0018876485992223
1769244468522,0.12420654296875,-0.949188232421875,-0.290191650390625,0.0122699821367859,0.0045984801836311,0.0033063145820051
1769244468532,0.121856689453125,-0.948272705078125,-0.287689208984375,0.0138495024293661,0.0037944719661027,0.0036701022181659
1769244468542,0.1197662353515625,-0.9459075927734376,-0.286224365234375,0.0138428453356027,0.0053995591588318,0.0044544031843543
1769244468552,0.1155853271484375,-0.9444580078125,-0.283294677734375,0.008519185706973,0.0090587427839636,0.0038871499709784
1769244468562,0.114227294921875,-0.94537353515625,-0.28009033203125,0.002837331732735,0.0045611960813403,0.0035124430432915
1769244468572,0.112335205078125,-0.9438323974609376,-0.2757720947265625,-0.0052179316990077,-0.0034354778472334,0.0047955540940165
1769244468582,0.113555908203125,-0.947662353515625,-0.2748565673828125,-0.0163472816348075,-0.0030029804911464,0.0070251524448394
1769244468593,0.116485595703125,-0.951080322265625,-0.27520751953125,-0.0321321040391922,-0.0051430966705083,0.0096257291734218
1769244468603,0.1195068359375,-0.9514312744140624,-0.27374267578125,-0.0389729663729667,-0.0136036928743124,0.0113000590354204
1769244468613,0.117889404296875,-0.9471588134765624,-0.2793121337890625,-0.035334289073944,-0.0127472206950187,0.0087516801431775
1769244468623,0.1112060546875,-0.944244384765625,-0.286285400390625,-0.0258664842694997,-0.0047380300238728,0.0022977753542363
1769244468633,0.1064300537109375,-0.9450836181640624,-0.2903289794921875,-0.0240715146064758,-0.0034642398823052,0.0030083067249506
1769244468643,0.11273193359375,-0.9482269287109376,-0.2877349853515625,-0.0271208342164754,-0.0075979987159371,0.0052464273758232
1769244468653,0.1160125732421875,-0.95013427734375,-0.288299560546875,-0.0275623854249715,-0.0077495323494076,0.0097213368862867
1769244468663,0.1137542724609375,-0.948638916015625,-0.2896575927734375,-0.0257176142185926,-0.0083793699741363,0.0108124343678355
1769244468673,0.108612060546875,-0.9462890625,-0.2910919189453125,-0.023847009986639,-0.0050600059330463,0.0051215249113738
1769244468683,0.1072540283203125,-0.9464874267578124,-0.2914276123046875,-0.0218024998903274,-0.0014793860027566,0.0025089641567319
1769244468693,0.1078948974609375,-0.9474945068359376,-0.29547119140625,-0.0147352702915668,0.0049793124198913,-0.0025877936277538
1769244468703,0.1085052490234375,-0.94854736328125,-0.2977447509765625,-0.0050626690499484,0.0044381581246852,-0.004718855023384
1769244468713,0.110504150390625,-0.9475250244140624,-0.297943115234375,0.0036988644860684,0.0061303302645683,-0.0045819687657058
1769244468723,0.114532470703125,-0.9479217529296876,-0.29766845703125,0.0102467788383364,0.0107868677005171,-0.0029403960797935
1769244468733,0.1137237548828125,-0.9477996826171876,-0.296966552734375,0.0144551061093807,0.0133621441200375,-0.0011789813870564
1769244468743,0.1114501953125,-0.946319580078125,-0.295562744140625,0.0186863355338573,0.0187494531273841,-0.0044251084327697
1769244468753,0.1125946044921875,-0.9470062255859376,-0.2938079833984375,0.0199028681963682,0.0150545835494995,-0.0042546661570668
1769244468763,0.112945556640625,-0.94769287109375,-0.289764404296875,0.02067331969738,0.0126438895240426,-0.0042725093662738
1769244468773,0.1127471923828125,-0.947784423828125,-0.28704833984375,0.0173259936273098,0.0125072700902819,-0.0036312201991677
1769244468783,0.11224365234375,-0.948486328125,-0.2864227294921875,0.0185369327664375,0.0154716344550251,-0.0056858491152524
1769244468793,0.11297607421875,-0.947662353515625,-0.2866973876953125,0.0161677841097116,0.0162852294743061,-0.0070752198807895
1769244468803,0.1159210205078125,-0.9486541748046876,-0.2849578857421875,0.0181257408112287,0.0122950160875916,-0.0018951054662466
1769244468814,0.1172027587890625,-0.9494171142578124,-0.285797119140625,0.0188511852174997,0.0120084593072533,-0.001923334901221
1769244468824,0.1162872314453125,-0.94866943359375,-0.2852783203125,0.019651997834444,0.0141211450099945,-0.0011864382540807
1769244468834,0.1162109375,-0.948455810546875,-0.284027099609375,0.0174828525632619,0.0148684279993176,-0.0005014732014387
1769244468844,0.113800048828125,-0.9475555419921876,-0.283447265625,0.0158503353595733,0.0059979711659252,-0.0026306705549359
1769244468856,0.1144561767578125,-0.9479522705078124,-0.2806854248046875,0.0113605121150612,0.006557501386851,-0.0010442254133522
1769244468864,0.11407470703125,-0.948150634765625,-0.2785491943359375,0.0059945094399154,0.0066645606420934,-0.0015547533985227
1769244468874,0.11260986328125,-0.949005126953125,-0.2797393798828125,0.0015006912872195,0.0083767063915729,-0.0019169433508068
1769244468884,0.11187744140625,-0.94842529296875,-0.2810516357421875,-7.936220208648592e-05,0.0083937514573335,-0.0023345269728451
1769244468894,0.114166259765625,-0.94610595703125,-0.282684326171875,0.0021981731988489,0.0048331045545637,-0.0032668996136635
1769244468904,0.1143646240234375,-0.947265625,-0.28277587890625,0.0022791333030909,0.0087631316855549,-0.0033712955191731
1769244468914,0.1154632568359375,-0.947021484375,-0.284271240234375,0.0024338630028069,0.0068363342434167,-0.0007400924805551
1769244468924,0.1144866943359375,-0.947418212890625,-0.28460693359375,-0.0003744404530152,0.0089753856882452,0.0012258529895916
1769244468934,0.1124420166015625,-0.9488983154296876,-0.2838287353515625,-0.0019068233668804,0.0089649986475706,0.0003012035158462
1769244468944,0.113067626953125,-0.947967529296875,-0.28448486328125,-0.0034871431998908,0.0080949440598487,-0.0009233179152943
1769244468954,0.112884521484375,-0.9485931396484376,-0.2843017578125,-0.0014674017438665,0.0088574076071381,-0.0015153386630117
1769244468964,0.114898681640625,-0.948150634765625,-0.286651611328125,0.0005331648280844,0.0138556277379393,-0.0003004045574925
1769244468974,0.1144561767578125,-0.9481964111328124,-0.2900390625,0.0057127466425299,0.0140063632279634,9.161273919744416e-05
1769244468984,0.11492919921875,-0.948272705078125,-0.2910919189453125,0.0099311936646699,0.0095130773261189,-2.8495824153651483e-05
1769244468994,0.11370849609375,-0.9478912353515624,-0.2896881103515625,0.0086880307644605,0.0058440407738089,-0.0008466189028695
1769244469004,0.114715576171875,-0.9492034912109376,-0.2881317138671875,0.0116625148802995,0.0065290057100355,-0.0017560884589329
1769244469014,0.113006591796875,-0.9493408203125,-0.28704833984375,0.0107530457898974,0.0068264808505773,-0.0016402408946305
1769244469025,0.11260986328125,-0.94854736328125,-0.2849273681640625,0.01066888961941,0.0076813553459942,-0.0038594531361013
1769244469035,0.1141357421875,-0.948822021484375,-0.2842559814453125,0.0108345383778214,0.0105301393195986,-0.0048754489980638
1769244469045,0.1136627197265625,-0.94805908203125,-0.284088134765625,0.0116047244518995,0.0147360693663358,-0.0050469567067921
1769244469055,0.1139373779296875,-0.94757080078125,-0.2857666015625,0.0146572394296526,0.0145741486921906,-0.0044562672264873
1769244469065,0.114410400390625,-0.947509765625,-0.28643798828125,0.0166732519865036,0.0182453170418739,-0.0053553506731987
1769244469075,0.1150054931640625,-0.9484100341796876,-0.2857513427734375,0.0177760683000087,0.0200006067752838,-0.0015305186389014
1769244469085,0.1176300048828125,-0.9487457275390624,-0.284637451171875,0.0183422546833753,0.0198887530714273,0.0004657868703361
1769244469095,0.1172637939453125,-0.9499664306640624,-0.28411865234375,0.0197438765317201,0.0220693498849868,0.0018346516881138
1769244469105,0.1174163818359375,-0.9519500732421876,-0.28192138671875,0.0147943925112485,0.0171614103019237,0.0075197014957666
1769244469115,0.118896484375,-0.95465087890625,-0.275482177734375,0.0077489996328949,0.0138508342206478,0.0104515757411718
1769244469125,0.12005615234375,-0.952178955078125,-0.2768402099609375,0.0113834161311388,0.0156476683914661,0.0097117498517036
1769244469135,0.11248779296875,-0.9437713623046876,-0.28076171875,0.0176759324967861,0.0112262889742851,0.0020671456586569
1769244469145,0.0982818603515625,-0.9376220703125,-0.279510498046875,0.0242491476237773,0.0233151763677597,-0.0148484548553824
1769244469156,0.093292236328125,-0.9393463134765624,-0.2823944091796875,0.0217729397118091,0.0233748313039541,-0.0249085463583469
1769244469165,0.10711669921875,-0.9451904296875,-0.27813720703125,0.0078547270968556,0.0080328928306698,-0.0171289201825857
1769244469175,0.12225341796875,-0.95550537109375,-0.2718048095703125,-0.0031281490810215,0.001479918602854,-0.0048637310974299
1769244469185,0.1291961669921875,-0.9598236083984376,-0.2716522216796875,-0.0114404074847698,-0.0002370213333051,0.0043619913049042
1769244469195,0.1303558349609375,-0.9535369873046876,-0.274932861328125,-0.0018628811230883,0.0069271484389901,0.0034306840971112
1769244469205,0.1173553466796875,-0.9407196044921876,-0.28424072265625,0.023284550756216,0.0184839349240064,-0.0119762355461716
1769244469215,0.102294921875,-0.9354248046875,-0.28863525390625,0.0386352762579917,0.0270241610705852,-0.0264771468937397
1769244469226,0.10205078125,-0.9383697509765624,-0.282379150390625,0.0309278219938278,0.0269216280430555,-0.0302644278854131
1769244469235,0.1114959716796875,-0.9480743408203124,-0.2723541259765625,0.0083761746063828,0.0238336939364671,-0.022457106038928
1769244469246,0.1238861083984375,-0.9574127197265624,-0.2682037353515625,-0.012198875658214,0.01590146869421,-0.0119253685697913
1769244469256,0.1294097900390625,-0.9582061767578124,-0.2681732177734375,-0.0261490456759929,0.0159544646739959,-0.000429301551776
1769244469266,0.12835693359375,-0.95611572265625,-0.27777099609375,-0.0244994834065437,0.0227748211473226,0.0014495585346594
1769244469276,0.1240234375,-0.954254150390625,-0.2872314453125,-0.0096773942932486,0.0191736947745084,0.0020482372492551
1769244469286,0.1196136474609375,-0.951416015625,-0.291717529296875,0.0068951901048421,0.0204946231096982,0.0042932820506393
1769244469296,0.1163330078125,-0.95068359375,-0.295623779296875,0.0228858739137649,0.0252289231866598,0.0032570459879934
1769244469306,0.1113433837890625,-0.947998046875,-0.2945404052734375,0.0341949872672557,0.0212743952870368,0.0024114924017339
1769244469316,0.10626220703125,-0.9455108642578124,-0.28948974609375,0.038689337670803,0.0166591368615627,-0.0036432044580578
1769244469326,0.1034393310546875,-0.9454803466796876,-0.283905029296875,0.0331723354756832,0.0157422106713056,-0.010187922976911
1769244469336,0.1047210693359375,-0.9470367431640624,-0.2793731689453125,0.0233665760606527,0.0152031872421503,-0.0142812011763453
1769244469346,0.1070098876953125,-0.950469970703125,-0.2727508544921875,0.0111192297190427,0.0046275085769593,-0.0153805539011955
1769244469356,0.11138916015625,-0.9513397216796876,-0.26861572265625,0.0029233519453555,0.0023105584550648,-0.0163917560130357
1769244469366,0.118682861328125,-0.95330810546875,-0.2729644775390625,-0.0005515406373888,0.0115634454414248,-0.0162016060203313
1769244469376,0.123504638671875,-0.953399658203125,-0.2765655517578125,0.0044429516419768,0.0130492225289344,-0.010497648268938
1769244469386,0.1279296875,-0.954010009765625,-0.279541015625,0.0111240241676568,0.009867544285953,-0.0020956413354724
1769244469396,0.1325531005859375,-0.9518890380859376,-0.282073974609375,0.0175230670720338,0.0087665934115648,0.0061737401410937
1769244469406,0.1326446533203125,-0.951019287109375,-0.28240966796875,0.0240534041076898,0.0071812137030065,0.0083135897293686
1769244469416,0.12896728515625,-0.9506683349609376,-0.278411865234375,0.0280244443565607,0.0011837751371785,0.010202569887042
1769244469426,0.125152587890625,-0.9494171142578124,-0.271484375,0.0224086362868547,0.0040578586049377,0.0106555735692381
1769244469436,0.120635986328125,-0.95013427734375,-0.2674407958984375,0.0134127447381615,0.0070240874774754,0.0089223887771368
1769244469447,0.11602783203125,-0.9484100341796876,-0.26446533203125,0.0029606360476464,0.0058219362981617,0.009385778568685
1769244469456,0.1162261962890625,-0.94854736328125,-0.2636871337890625,-0.0080267675220966,0.0068123661912977,0.00849468447268
1769244469467,0.11669921875,-0.9501953125,-0.2642974853515625,-0.0230161026120185,0.0069354041479527,0.0127291111275553
1769244469477,0.121002197265625,-0.9524688720703124,-0.266143798828125,-0.0351175069808959,-0.002166481455788,0.0145120974630117
1769244469487,0.12371826171875,-0.952392578125,-0.2692718505859375,-0.0346514545381069,-0.014444719068706,0.0159403514117002
1769244469497,0.1190643310546875,-0.94879150390625,-0.274200439453125,-0.0277962107211351,-0.0162897575646638,0.0138034299015998
1769244469507,0.1110687255859375,-0.946075439453125,-0.2785491943359375,-0.0192583836615085,-0.0059084892272949,0.0063588297925889
1769244469517,0.1070098876953125,-0.9457855224609376,-0.2828521728515625,-0.0147254168987274,0.0004213120846543,-0.0007648598402738
1769244469527,0.110107421875,-0.9485931396484376,-0.281707763671875,-0.016358733177185,0.002158758463338,0.0023377228062599
1769244469537,0.1154632568359375,-0.95037841796875,-0.2789764404296875,-0.0188439954072237,0.0020466393325477,0.0061574946157634
1769244469547,0.1156463623046875,-0.9488525390625,-0.2824249267578125,-0.0147216878831386,0.0067769461311399,0.0061558969318866
1769244469557,0.1125640869140625,-0.9490966796875,-0.2864837646484375,-0.0063375243917107,0.0125288413837552,0.0026136261876672
1769244469567,0.1124267578125,-0.9499969482421876,-0.2891387939453125,0.0016796556301414,0.006794789340347,-0.0002090581401716
1769244469577,0.11285400390625,-0.950408935546875,-0.2871246337890625,0.0076597840525209,0.0090440949425101,-0.0002617887221276
1769244469587,0.1165618896484375,-0.9514312744140624,-0.287811279296875,0.015057778917253,0.0117810256779193,-0.0017616810509935
1769244469597,0.1148834228515625,-0.95196533203125,-0.286590576171875,0.0200320314615964,0.0045433528721332,0.0001046622273861
1769244469607,0.1157379150390625,-0.9514617919921876,-0.2816925048828125,0.0213252622634172,0.0027031085919588,-0.0019832560792565
1769244469617,0.1162261962890625,-0.951446533203125,-0.2787628173828125,0.0184573046863079,-0.0001507349224993,-0.001432514283806
1769244469627,0.1182098388671875,-0.950653076171875,-0.274566650390625,0.0144252786412835,0.000333427771693,-2.956108801299706e-05
1769244469638,0.117950439453125,-0.9527740478515624,-0.2733001708984375,0.0107237510383129,0.0005589975044131,-0.0015438344562426
1769244469647,0.114837646484375,-0.9521942138671876,-0.271148681640625,0.0033047166652977,-0.000267914001597,-0.0010394317796453
1769244469658,0.1175537109375,-0.9515838623046876,-0.269622802734375,-0.001382180606015,0.0036253612488508,-5.619269722956233e-05
1769244469668,0.1182403564453125,-0.9525909423828124,-0.2717742919921875,-0.0012924320762977,0.0083516733720898,-0.0022066952660679
1769244469678,0.1180267333984375,-0.9495849609375,-0.2730255126953125,-0.0020104201976209,0.0072408686392009,0.0016034892760217
1769244469688,0.118560791015625,-0.9503021240234376,-0.273956298828125,-0.0031260184478014,0.0030818099621683,0.0042999400757253
1769244469698,0.119415283203125,-0.9507904052734376,-0.274169921875,-0.0013169331941753,0.0047625307925045,0.0071055800653994
1769244469708,0.1198883056640625,-0.948883056640625,-0.2775421142578125,0.0015070828376337,0.0075916070491075,0.0066986489109694
1769244469718,0.117889404296875,-0.949981689453125,-0.2780303955078125,0.0028245486319065,0.0088041443377733,0.0073372749611735
1769244469728,0.11724853515625,-0.94873046875,-0.276824951171875,0.005100485868752,0.0109666306525468,0.0058530955575406
1769244469738,0.1163330078125,-0.948089599609375,-0.2767791748046875,0.0074738953262567,0.0097271958366036,0.0048879659734666
1769244469748,0.114501953125,-0.948577880859375,-0.2769622802734375,0.0087578054517507,0.0055074170231819,0.0050735883414745
1769244469758,0.11505126953125,-0.9491119384765624,-0.27386474609375,0.0064307348802685,-0.0021193434949964,0.0028447885997593
1769244469768,0.1136474609375,-0.9504852294921876,-0.272003173828125,0.0019510318525135,0.0005331648280844,0.0033563817851245
1769244469778,0.1148529052734375,-0.9500274658203124,-0.2725982666015625,-0.0024578312877565,0.0071532507427036,0.0009161274065263
1769244469788,0.1152496337890625,-0.9498443603515624,-0.2733154296875,-0.0033989925868809,0.0090771177783608,0.0007094661123119
1769244469798,0.1152801513671875,-0.9503326416015624,-0.273406982421875,-0.0043492084369063,0.0004873584839515,0.0008266451768577
1769244469808,0.115447998046875,-0.9504241943359376,-0.2724609375,-0.0062994412146508,-0.0066222161985933,-6.817692337790504e-05
1769244469818,0.1151885986328125,-0.9503936767578124,-0.2735443115234375,-0.0093993609771132,-0.0043691820465028,-0.0001563275582157
1769244469828,0.11456298828125,-0.951202392578125,-0.2764434814453125,-0.0085372952744364,-0.0045942193828523,-0.0005917543894611
1769244469838,0.115081787109375,-0.95068359375,-0.275848388671875,-0.008707471191883,-0.010211625136435,0.0002809634897857
1769244469848,0.1144866943359375,-0.9505615234375,-0.276519775390625,-0.0090880375355482,-0.0036368127912282,0.0010594055056571
1769244469858,0.114532470703125,-0.9514617919921876,-0.27850341796875,-0.008061921223998,0.002640524180606,-0.0014218616997823
1769244469869,0.114166259765625,-0.9499053955078124,-0.279266357421875,-0.006582002621144,0.0053513557650148,-0.0027824707794934
1769244469879,0.11468505859375,-0.9507904052734376,-0.2808074951171875,-0.0014615427935495,0.0071471254341304,-0.0030708911363035
1769244469889,0.114959716796875,-0.9491729736328124,-0.280731201171875,0.0039529297500848,0.0075266258791089,-0.0017036241479218
1769244469899,0.1161956787109375,-0.9478912353515624,-0.2826995849609375,0.0080105224624276,0.008037419989705,-0.0042884880676865
1769244469909,0.1165771484375,-0.949127197265625,-0.28082275390625,0.0119525333866477,0.0065577677451074,-0.0021252024453133
1769244469919,0.117645263671875,-0.9507598876953124,-0.2790985107421875,0.0127445571124553,0.0037989993579685,-0.0013683321885764
1769244469929,0.120330810546875,-0.9532012939453124,-0.277679443359375,0.0134308543056249,-0.002355566015467,0.0034048515371978
1769244469939,0.119598388671875,-0.95166015625,-0.27398681640625,0.0123096629977226,-0.0034019220620393,0.0041739721782505
1769244469949,0.1200714111328125,-0.9550933837890624,-0.27239990234375,0.0036818201187998,-0.0084454165771603,0.0106321377679705
1769244469959,0.12261962890625,-0.9585113525390624,-0.267791748046875,-0.0083761746063828,-0.0100363884121179,0.0179552976042032
1769244469969,0.1245880126953125,-0.956207275390625,-0.266693115234375,-0.0074137076735496,-0.0107280118390917,0.0185041762888431
1769244469979,0.11651611328125,-0.9481964111328124,-0.2702178955078125,-0.0035550536122173,-0.0115424059331417,0.0108760837465524
1769244469989,0.101806640625,-0.9395599365234376,-0.27154541015625,-0.0015741945244371,0.0091016190126538,-0.0059982375241816
1769244469999,0.094940185546875,-0.9400634765625,-0.2733001708984375,7.430219557136297e-05,0.0129821114242076,-0.0179755389690399
1769244470009,0.10333251953125,-0.946136474609375,-0.2691802978515625,-0.0160783026367425,-0.005258944351226,-0.01284362655133
1769244470019,0.1205596923828125,-0.957489013671875,-0.263763427734375,-0.0350677073001861,-0.0107418606057763,0.0038035267498344
1769244470029,0.1316375732421875,-0.9625701904296876,-0.26513671875,-0.0431219041347503,-0.0127144632861018,0.0151714961975812
1769244470039,0.132080078125,-0.9560394287109376,-0.2732086181640625,-0.0339907221496105,-0.008591890335083,0.0152348792180418
1769244470049,0.1204376220703125,-0.943756103515625,-0.2835235595703125,-0.0038352182600647,0.0095602152869105,-0.0001344896299997
1769244470059,0.1038665771484375,-0.9351043701171876,-0.2925567626953125,0.0228126384317874,0.0233023930341005,-0.0161281041800975
1769244470069,0.097137451171875,-0.93505859375,-0.2906494140625,0.0365726575255394,0.0281549394130706,-0.026476614177227
1769244470080,0.1035614013671875,-0.9455718994140624,-0.281402587890625,0.0230440665036439,0.0273874159902334,-0.023422235623002
1769244470090,0.1167755126953125,-0.9552001953125,-0.27178955078125,0.00084235786926,0.0231929365545511,-0.0106252133846282
1769244470100,0.127960205078125,-0.9595184326171876,-0.268218994140625,-0.0136761311441659,0.0249455627053976,0.0005829659639857
1769244470110,0.1287689208984375,-0.956756591796875,-0.274261474609375,-0.0124207166954875,0.0284734535962343,0.0047388286329805
1769244470120,0.1239471435546875,-0.954620361328125,-0.2814178466796875,-0.0035007251426577,0.0280630588531494,0.0047870320267975
1769244470130,0.116668701171875,-0.9527587890625,-0.283660888671875,0.0073577812872827,0.0195462703704834,0.0052019525319337
1769244470140,0.1137542724609375,-0.954315185546875,-0.2814483642578125,0.0175390467047691,0.0035390746779739,0.0054557519033551
1769244470150,0.1115875244140625,-0.9528961181640624,-0.277587890625,0.0199835617095232,-0.0035981968976557,0.0005986785981804
1769244470160,0.1082305908203125,-0.9504547119140624,-0.2738189697265625,0.0149616384878754,-0.0060717407613992,0.0002545981842558
1769244470170,0.10595703125,-0.94915771484375,-0.270263671875,0.0043404200114309,-0.0072310147807002,-0.0080912159755826
1769244470180,0.1067047119140625,-0.9498443603515624,-0.2653656005859375,-0.0096667418256402,-0.0089823100715875,-0.0096776606515049
1769244470190,0.1089019775390625,-0.9506072998046876,-0.261688232421875,-0.0222081001847982,-0.010227071121335,-0.012671853415668
1769244470200,0.1128387451171875,-0.953125,-0.2635955810546875,-0.029934462159872,-0.006844856776297,-0.0129991555586457
1769244470210,0.1194915771484375,-0.954437255859375,-0.2673797607421875,-0.0310617797076702,-0.0087135965004563,-0.0073290192522108
1769244470220,0.12322998046875,-0.95477294921875,-0.2714691162109375,-0.0278414841741323,-0.0078949406743049,0.000283360335743
1769244470230,0.128082275390625,-0.9555511474609376,-0.2776031494140625,-0.0212658736854791,-0.0058304583653807,0.0082187810912728
1769244470240,0.1309356689453125,-0.953369140625,-0.278594970703125,-0.0147222205996513,-0.0075881448574364,0.0135171404108405
1769244470250,0.1293182373046875,-0.9525909423828124,-0.2798004150390625,-0.0065545719116926,-0.0072017200291156,0.0152585813775658
1769244470260,0.12799072265625,-0.9505462646484376,-0.278411865234375,-0.0034117756877094,-0.0066874637268483,0.0210807844996452
1769244470270,0.12359619140625,-0.947845458984375,-0.2747039794921875,-0.0013171994360163,-0.0016231966437771,0.0198759697377681
1769244470280,0.1180572509765625,-0.9485626220703124,-0.2733154296875,-0.005133509170264,-0.00773381954059,0.0177267994731664
1769244470290,0.114990234375,-0.9463958740234376,-0.26873779296875,-0.0104880612343549,-0.0087607344612479,0.0172863118350505
1769244470300,0.1123809814453125,-0.947662353515625,-0.2683258056640625,-0.0180871244519948,-0.0098933773115277,0.0153802875429391
1769244470311,0.1101531982421875,-0.9495086669921876,-0.2657623291015625,-0.0301355309784412,-0.0105011099949479,0.0142705487087368
1769244470321,0.1140899658203125,-0.9525146484375,-0.2642822265625,-0.0489904470741748,-0.0134918401017785,0.0161797683686018
1769244470331,0.1163177490234375,-0.95452880859375,-0.263031005859375,-0.054555919021368,-0.0155946724116802,0.0183901917189359
1769244470341,0.117218017578125,-0.9517669677734376,-0.2702484130859375,-0.0523742586374282,-0.0157419443130493,0.0163044054061174
1769244470351,0.111297607421875,-0.947052001953125,-0.278961181640625,-0.0451152808964252,-0.0106995161622762,0.0114092482253909
1769244470361,0.105010986328125,-0.945068359375,-0.28497314453125,-0.0321717858314514,-0.0040935450233519,0.0035856801550835
1769244470371,0.1043243408203125,-0.9473724365234376,-0.28741455078125,-0.0295895840972661,-0.0111043164506554,0.0020136160310357
1769244470381,0.109405517578125,-0.9504852294921876,-0.285003662109375,-0.0315163806080818,-0.015084677375853,0.0022381206508725
1769244470391,0.1139984130859375,-0.9503326416015624,-0.2841796875,-0.0300806704908609,-0.0100763365626335,0.0036847495939582
1769244470401,0.111175537109375,-0.9485321044921876,-0.286712646484375,-0.0266840755939483,-0.0110902013257145,0.0026237461715936
1769244470411,0.10797119140625,-0.9485321044921876,-0.286590576171875,-0.0197468064725399,-0.0072091771289706,-0.0013385047204792
1769244470421,0.1095733642578125,-0.94927978515625,-0.289276123046875,-0.0140007706359028,0.000316117220791,-0.0050006173551082
1769244470431,0.111328125,-0.9515533447265624,-0.2876739501953125,-0.0078856199979782,0.0008239820599555,-0.0049390983767807
1769244470441,0.1135101318359375,-0.952911376953125,-0.2864532470703125,-0.0002101234131259,-0.0023936491925269,-0.0037526602391153
1769244470451,0.1159820556640625,-0.9518280029296876,-0.286163330078125,0.003140133107081,-0.0027513117529451,-0.000868190487381
1769244470461,0.1174468994140625,-0.9520111083984376,-0.2826385498046875,0.0018096179701387,-0.0061215418390929,0.0006663228850811
1769244470471,0.117034912109375,-0.949920654296875,-0.27886962890625,-0.0016088156262412,-0.0123594645410776,0.0004838963795918
1769244470481,0.1137542724609375,-0.9508056640625,-0.27532958984375,-0.005339637864381,-0.0123107284307479,0.0001078580244211
1769244470491,0.11444091796875,-0.949493408203125,-0.2715911865234375,-0.0144170224666595,-0.0065180868841707,-0.0003041329910047
1769244470502,0.11419677734375,-0.95025634765625,-0.2698974609375,-0.0194501299411058,-0.0081948125734925,0.0008372978190891
1769244470512,0.1146697998046875,-0.950927734375,-0.2706756591796875,-0.0241141244769096,-0.0028389296494424,0.0001403485948685
1769244470522,0.1157684326171875,-0.9496612548828124,-0.2736053466796875,-0.0255168117582798,0.0014753912109881,0.0028647624421864
1769244470532,0.1159515380859375,-0.948822021484375,-0.2786865234375,-0.0235764328390359,0.0019409117521718,0.0041310954838991
1769244470542,0.1164398193359375,-0.9495391845703124,-0.2807159423828125,-0.0217931792140007,0.0013054815353825,0.0047910269349813
1769244470552,0.1145477294921875,-0.9489898681640624,-0.2808074951171875,-0.0179917830973863,-0.0087317060679197,0.0056453687138855
1769244470562,0.1150360107421875,-0.947998046875,-0.2788848876953125,-0.0162998773157596,-0.0125269768759608,0.0057819890789687
1769244470572,0.1138153076171875,-0.947845458984375,-0.2785797119140625,-0.0173821859061718,-0.0134905083104968,0.0034860777668654
1769244470582,0.11279296875,-0.94970703125,-0.2780914306640625,-0.0203548055142164,-0.0151174338534474,0.0010926949325948
1769244470592,0.111175537109375,-0.9485626220703124,-0.2782440185546875,-0.0212986301630735,-0.0121125895529985,0.0043220440857112
1769244470602,0.1110687255859375,-0.948150634765625,-0.27899169921875,-0.0237210411578416,-0.0048448224551975,0.003801928833127
1769244470612,0.1109619140625,-0.9485931396484376,-0.280731201171875,-0.0231599137187004,0.0021414477378129,0.0016626114957034
1769244470622,0.1118011474609375,-0.9487762451171876,-0.2819061279296875,-0.0224682912230491,0.0064850635826587,0.0029177593532949
1769244470632,0.1128387451171875,-0.949005126953125,-0.2848052978515625,-0.0198836922645568,0.0164351668208837,0.0027901937719434
1769244470642,0.113037109375,-0.9487762451171876,-0.28778076171875,-0.0131991589441895,0.0159701779484748,0.0010458233300596
1769244470652,0.113189697265625,-0.9496002197265624,-0.2867431640625,-0.0098230699077248,0.0043646548874676,0.0027819380629807
1769244470662,0.1131439208984375,-0.9485321044921876,-0.285369873046875,-0.0053273872472345,0.0057910438627004,0.0046208505518734
1769244470673,0.112396240234375,-0.94866943359375,-0.2890777587890625,-0.0036826191935688,0.0122356275096535,0.0018767296569421
1769244470682,0.111785888671875,-0.9498291015625,-0.2883148193359375,-0.000328367750626,0.0088981539011001,0.0011829761788249
1769244470692,0.1112518310546875,-0.9496307373046876,-0.2841644287109375,0.0024477113038301,0.0007044061203487,-0.0007765777409076
1769244470702,0.1115570068359375,-0.9493560791015624,-0.283447265625,0.0001065264441422,0.0045521412976086,6.631271389778703e-05
1769244470712,0.111358642578125,-0.9481658935546876,-0.2823944091796875,-8.442220860160887e-05,0.0066381953656673,-0.0005195827106945
1769244470723,0.111419677734375,-0.9484405517578124,-0.280975341796875,0.0001193096177303,0.0065106297843158,-0.0030905983876436
1769244470732,0.1117706298828125,-0.94866943359375,-0.28155517578125,-0.0016522251535207,0.0023337281309068,-0.00491379853338
1769244470743,0.1093597412109375,-0.9479217529296876,-0.280181884765625,-0.0008218514849431,-0.0032213595695793,-0.0083593958988785
1769244470753,0.1108551025390625,-0.9497528076171876,-0.27972412109375,-0.0035657063126564,-0.004376106429845,-0.0077897459268569
1769244470763,0.1136932373046875,-0.9500274658203124,-0.2796173095703125,-0.0083511406555771,-0.0056980992667376,-0.0074126427061855
1769244470773,0.115386962890625,-0.9503173828125,-0.2774658203125,-0.0115714352577924,-0.0114406738430261,-0.0004591289616655
1769244470783,0.11737060546875,-0.9510040283203124,-0.2758636474609375,-0.0150529853999614,-0.0110505204647779,0.0013004215434193
1769244470793,0.1184234619140625,-0.95135498046875,-0.279144287109375,-0.0187302771955728,-0.0105090998113155,0.0053609432652592
1769244470803,0.11676025390625,-0.9541778564453124,-0.277252197265625,-0.0250129420310258,-0.0159134529531002,0.0084563354030251
1769244470813,0.1194915771484375,-0.9534454345703124,-0.2762908935546875,-0.0295371189713478,-0.009394034743309,0.0097644804045557
1769244470823,0.114654541015625,-0.9466094970703124,-0.2810211181640625,-0.0196730364114046,-0.0085175884887576,0.0042879558168351
1769244470833,0.1033782958984375,-0.9384307861328124,-0.2852630615234375,-0.007684551179409,0.0039614522829651,-0.0100643523037433
1769244470843,0.0929107666015625,-0.9388580322265624,-0.2902679443359375,0.0035444011446088,0.0176050923764705,-0.0224075708538293
1769244470853,0.10015869140625,-0.942169189453125,-0.2872161865234375,-0.0018852517241612,0.002780872862786,-0.0180636886507272
1769244470863,0.1136932373046875,-0.95025634765625,-0.279327392578125,-0.0117575898766517,-0.0079798959195613,-0.0087567400187253
1769244470873,0.120819091796875,-0.95751953125,-0.2784881591796875,-0.0230746921151876,-0.0042711775749921,-0.0002596582053229
1769244470883,0.124908447265625,-0.957122802734375,-0.2794952392578125,-0.0251540895551443,-0.0011361044598743,0.0056858491152524
1769244470893,0.1215972900390625,-0.9471282958984376,-0.28424072265625,-0.0060634850524365,0.0036906085442751,-0.0017654094845056
1769244470903,0.105926513671875,-0.9382476806640624,-0.291717529296875,0.0166218541562557,0.0131498901173472,-0.0179656837135553
1769244470913,0.09698486328125,-0.9358673095703124,-0.290130615234375,0.0239572636783123,0.0113535886630415,-0.0292210020124912
1769244470924,0.100250244140625,-0.9416046142578124,-0.280670166015625,0.0126841031014919,0.0065428540110588,-0.0324018821120262
1769244470933,0.11053466796875,-0.9510040283203124,-0.2712249755859375,-0.0129568111151456,0.0029569077305495,-0.0245737861841917
1769244470943,0.121490478515625,-0.9560089111328124,-0.268341064453125,-0.0354256331920623,0.0002639192680362,-0.0133219305425882
1769244470954,0.126251220703125,-0.9564666748046876,-0.2716827392578125,-0.0430510640144348,0.0030437267851084,-0.005608350969851
1769244470964,0.125396728515625,-0.9546051025390624,-0.2807769775390625,-0.0399314388632774,0.0093663372099399,-0.0019204054260626
1769244470974,0.1226806640625,-0.954803466796875,-0.286651611328125,-0.0283203218132257,0.0074685690924525,0.0029997846577316
1769244470984,0.1170654296875,-0.952880859375,-0.292938232421875,-0.0145733496174216,0.0080078588798642,0.0012450277572497
1769244470994,0.113555908203125,-0.9495697021484376,-0.295501708984375,-0.001866076956503,0.012909673154354,0.0025875272694975
1769244471004,0.11053466796875,-0.947235107421875,-0.296661376953125,0.0094371773302555,0.0045292382128536,-0.0002652508555911
1769244471014,0.105865478515625,-0.945526123046875,-0.2924957275390625,0.0107610346749424,0.0014085458824411,-0.0072488579899072
1769244471024,0.1029815673828125,-0.945220947265625,-0.2889862060546875,0.0049398974515497,-0.0025704831350594,-0.0113956658169627
1769244471034,0.1022491455078125,-0.9455413818359376,-0.283843994140625,-0.0010034791193902,-0.0019824570044875,-0.0154540576040744
1769244471044,0.10498046875,-0.9491424560546876,-0.2802886962890625,-0.0073977289721369,-0.0008175904513336,-0.0170138701796531
1769244471054,0.1114501953125,-0.950408935546875,-0.2806854248046875,-0.0096976347267627,0.0018136126454919,-0.0136409774422645
1769244471064,0.115966796875,-0.9510345458984376,-0.2821044921875,-0.010578341782093,0.0005829659639857,-0.0105410581454634
1769244471074,0.1213836669921875,-0.9523162841796876,-0.2843780517578125,-0.0067588365636765,0.0020839234348386,-0.0048618670552968
1769244471084,0.12628173828125,-0.9516448974609376,-0.285064697265625,-0.0008540757698938,0.0073037194088101,0.0017033577896654
1769244471094,0.127166748046875,-0.949951171875,-0.286224365234375,0.0052703958936035,0.0087924264371395,0.0055510927923023
1769244471104,0.124847412109375,-0.949188232421875,-0.28656005859375,0.0081402184441685,0.0065548382699489,0.007154582068324
1769244471115,0.1214447021484375,-0.9494171142578124,-0.282257080078125,0.0071402010507881,0.0029252162203192,0.0085647264495491
1769244471124,0.1196746826171875,-0.9478607177734376,-0.2775115966796875,0.0021441110875457,-0.0002886866568587,0.0076925405301153
1769244471134,0.1165771484375,-0.9469757080078124,-0.2739105224609375,-0.0063793361186981,0.0027925907634198,0.0071537834592163
1769244471145,0.114105224609375,-0.9468536376953124,-0.2738189697265625,-0.0149163650348782,0.0010420948965474,0.0073473951779305
1769244471155,0.1138153076171875,-0.948089599609375,-0.272003173828125,-0.0228129047900438,-0.0060520335100591,0.0084062675014138
1769244471165,0.11529541015625,-0.948883056640625,-0.27288818359375,-0.0364711917936801,-0.0117346867918968,0.0091799162328243
1769244471175,0.11810302734375,-0.950958251953125,-0.2729644775390625,-0.0478282421827316,-0.0092347776517272,0.0121477432548999
1769244471185,0.11920166015625,-0.94903564453125,-0.277801513671875,-0.0484146699309349,-0.0120547981932759,0.0149784171953797
1769244471195,0.1140289306640625,-0.9444732666015624,-0.283294677734375,-0.0367127396166324,-0.0083647230640053,0.006172408349812
1769244471205,0.1062164306640625,-0.9446258544921876,-0.2888946533203125,-0.0286167301237583,-0.0011432950850576,0.0018873822409659
1769244471215,0.1080169677734375,-0.9471282958984376,-0.2894439697265625,-0.0291538909077644,-0.006059490609914,0.0048397625796496
1769244471225,0.1121063232421875,-0.94927978515625,-0.2881011962890625,-0.031243672594428,-0.0105439871549606,0.0053564156405627
1769244471235,0.1129302978515625,-0.9492034912109376,-0.2888031005859375,-0.0286058112978935,-0.0094401072710752,0.0074643078260123
1769244471245,0.1103363037109375,-0.9465179443359376,-0.2916107177734375,-0.0269975289702415,-0.0021510352380573,0.0032708945218473
1769244471255,0.1081085205078125,-0.9469757080078124,-0.293548583984375,-0.0231521911919116,-0.0004450142150744,-0.0014141384745016
1769244471265,0.1091461181640625,-0.9479217529296876,-0.29254150390625,-0.0180786028504371,0.0035017905756831,-0.0033747577108442
1769244471275,0.1119232177734375,-0.948211669921875,-0.2943115234375,-0.0122465463355183,0.005829659756273,-0.0031313446816056
1769244471285,0.1131439208984375,-0.9492645263671876,-0.297271728515625,-0.0030698257032781,0.0134540237486362,-0.0027102991007268
1769244471295,0.113372802734375,-0.94793701171875,-0.299041748046875,0.0074169035069644,0.0112065821886062,-0.0010972223244607
1769244471305,0.1147003173828125,-0.9481048583984376,-0.2942962646484375,0.0140737406909465,0.0018767296569421,0.0006032059900462
1769244471315,0.11309814453125,-0.9475860595703124,-0.2917022705078125,0.0133110117167234,-0.0013941648649051,-0.0016330503858625
1769244471325,0.1129608154296875,-0.9477691650390624,-0.2893524169921875,0.0126249818131327,0.0051889028400182,-0.0002812298189383
1769244471335,0.111907958984375,-0.9496612548828124,-0.286895751953125,0.011347196996212,0.0132649391889572,-0.0011622034944593
1769244471346,0.1126708984375,-0.9495391845703124,-0.2838897705078125,0.0067950556986033,0.0106489155441522,-0.0022639532107859
1769244471355,0.111968994140625,-0.9498291015625,-0.2822113037109375,0.0030953921377658,0.00444907695055,-0.0010498181218281
1769244471366,0.114044189453125,-0.94842529296875,-0.280548095703125,8.335694292327389e-05,0.0062440475448966,-0.0008910936885513
1769244471376,0.1149139404296875,-0.9505767822265624,-0.2807769775390625,-0.0031052457634359,0.0047635962255299,-0.003132942598313
1769244471386,0.114593505859375,-0.9485321044921876,-0.28125,-0.0048410943709313,0.0049713226035237,-0.0020287961233407
1769244471396,0.1162567138671875,-0.9478302001953124,-0.2822113037109375,-0.0034264230635017,0.0062855929136276,0.0013198626693338
1769244471406,0.1163482666015625,-0.947479248046875,-0.284637451171875,-0.0023190807551145,0.003696467494592,0.0026535736396908
1769244471416,0.117950439453125,-0.9473876953125,-0.282470703125,-0.0016540893120691,-4.5273736759554595e-05,0.0015089471125975
1769244471426,0.1147613525390625,-0.9474639892578124,-0.283660888671875,-0.0031830100342631,0.003516171593219,0.0024296017363667
1769244471436,0.1143035888671875,-0.948699951171875,-0.2842864990234375,-0.0025110945571213,0.0034306840971112,0.0026818031910806
1769244471446,0.11273193359375,-0.9486846923828124,-0.2815093994140625,-0.0050890343263745,-0.0015709986910223,-0.0001496696495451
1769244471456,0.111968994140625,-0.94696044921875,-0.281280517578125,-0.0089570097625255,0.0003041329910047,0.0019566244445741
1769244471466,0.110809326171875,-0.9476776123046876,-0.283050537109375,-0.0100611560046672,0.0056070191785693,-0.0006338323582895
1769244471476,0.1101226806640625,-0.947296142578125,-0.2840118408203125,-0.0132907712832093,0.0065524415113031,-0.0019193402258679
1769244471486,0.113250732421875,-0.947662353515625,-0.28521728515625,-0.0127283120527863,0.0081609906628727,-0.0029217540286481
1769244471496,0.113677978515625,-0.9492950439453124,-0.2877960205078125,-0.0084938863292336,0.0065881279297173,-0.0018498316640034
1769244471506,0.1129302978515625,-0.9477996826171876,-0.287872314453125,-0.0060003683902323,0.0022929816041141,-0.0009510148083791
1769244471516,0.1129302978515625,-0.9478302001953124,-0.288909912109375,-0.0033989925868809,0.0075540565885603,-0.0033627734519541
1769244471526,0.111297607421875,-0.9472198486328124,-0.2924957275390625,-0.0005616606795229,0.0111890053376555,-0.0040139164775609
1769244471536,0.11248779296875,-0.946624755859375,-0.2926177978515625,0.0057774614542722,0.0151275536045432,-0.0033635725267231
1769244471547,0.1126861572265625,-0.9490966796875,-0.2946014404296875,0.0105921905487775,0.019389409571886,-0.0043782368302345
1769244471556,0.1123199462890625,-0.9488525390625,-0.2947845458984375,0.0159115884453058,0.0177856553345918,-0.0073295519687235
1769244471566,0.1106414794921875,-0.947967529296875,-0.2946929931640625,0.0188368037343025,0.0216994360089302,-0.0070850737392902
1769244471576,0.112457275390625,-0.9484405517578124,-0.292510986328125,0.0265229530632495,0.0229351427406072,-0.0082177156582474
1769244471586,0.1127471923828125,-0.9484710693359376,-0.291748046875,0.0298742763698101,0.0228880047798156,-0.0073796194046735
1769244471597,0.1141815185546875,-0.9495086669921876,-0.29150390625,0.0345462597906589,0.0256406478583812,-0.0102752745151519
1769244471607,0.11346435546875,-0.9495086669921876,-0.289398193359375,0.0359630621969699,0.0231002587825059,-0.0121117904782295
1769244471617,0.1131439208984375,-0.94903564453125,-0.2859039306640625,0.0406227931380271,0.0194227006286382,-0.0111738247796893
1769244471627,0.1157989501953125,-0.9503021240234376,-0.2854766845703125,0.0375055633485317,0.0237767025828361,-0.0108393318951129
1769244471637,0.1168975830078125,-0.95111083984375,-0.282562255859375,0.0356860905885696,0.0211401730775833,-0.0108462562784552
1769244471647,0.118621826171875,-0.949859619140625,-0.2774810791015625,0.0322106666862964,0.0165422242134809,-0.0059905145317316
1769244471657,0.1202850341796875,-0.9516448974609376,-0.2744140625,0.0260419864207506,0.0135110151022672,-0.0038711710367351
1769244471667,0.1191253662109375,-0.9515228271484376,-0.2711639404296875,0.0204336363822221,0.0107860686257481,-0.0017403757665306
1769244471677,0.1207275390625,-0.9532318115234376,-0.2723846435546875,0.0096297245472669,0.0043055326677858,0.0033712955191731
1769244471687,0.1226348876953125,-0.953277587890625,-0.2674102783203125,0.0016900419723242,0.0063737435266375,0.0100481063127517
1769244471697,0.1215972900390625,-0.948760986328125,-0.27044677734375,0.0030330740846693,0.0072752232663333,0.0072999908588826
1769244471707,0.1116485595703125,-0.94091796875,-0.276641845703125,0.0079335570335388,0.0058738682419061,-0.0040911482647061
1769244471717,0.0989837646484375,-0.9357452392578124,-0.278228759765625,0.0127970213070511,0.0202107299119234,-0.0193143095821142
1769244471727,0.0988006591796875,-0.9402618408203124,-0.28167724609375,0.0045790392905473,0.0204573385417461,-0.0196807608008384
1769244471737,0.112884521484375,-0.9497222900390624,-0.27691650390625,-0.009851299226284,0.0100020337849855,-0.0085325017571449
1769244471747,0.122039794921875,-0.9571685791015624,-0.2747344970703125,-0.020348947495222,0.0074669709429144,0.0006825681775808
1769244471757,0.1279449462890625,-0.959320068359375,-0.2783660888671875,-0.0223319362848997,0.0059178103692829,0.0090105393901467
1769244471767,0.1259307861328125,-0.9508209228515624,-0.2849884033203125,-0.0032977922819554,0.0076246303506195,0.004555070772767
1769244471777,0.111328125,-0.9388580322265624,-0.2960052490234375,0.0284992847591638,0.0187135003507137,-0.0133722648024559
1769244471787,0.09765625,-0.935760498046875,-0.2991943359375,0.0472292974591255,0.0293008964508771,-0.0280145909637212
1769244471798,0.09844970703125,-0.939727783203125,-0.2919921875,0.0413594245910644,0.0177007000893354,-0.033585924655199
1769244471808,0.1092071533203125,-0.951507568359375,-0.2783660888671875,0.0216842554509639,0.013383449986577,-0.0270193666219711
1769244471817,0.122772216796875,-0.958404541015625,-0.271697998046875,0.0003422161971684,0.0162010733038187,-0.0181744769215583
1769244471828,0.1266326904296875,-0.9593658447265624,-0.2732086181640625,-0.0073479278944432,0.0242302380502223,-0.0089503517374396
1769244471838,0.1264801025390625,-0.95556640625,-0.28216552734375,-0.0003797667741309,0.0270483959466218,-0.0054163369350135
1769244471848,0.1236114501953125,-0.955535888671875,-0.288543701171875,0.0156455393880605,0.0289767906069755,-0.0029228192288428
1769244471858,0.1194610595703125,-0.9528350830078124,-0.2923431396484375,0.0335323922336101,0.0301573704928159,-0.0031771510839462
1769244471868,0.115631103515625,-0.9500274658203124,-0.29156494140625,0.0478418245911598,0.0293613504618406,-0.0028189560398459
1769244471878,0.1139373779296875,-0.94830322265625,-0.2878875732421875,0.0533076971769332,0.0276276320219039,-0.0062483083456754
1769244471888,0.108123779296875,-0.9456787109375,-0.2819061279296875,0.0529646798968315,0.0201113931834697,-0.0086805736646056
1769244471898,0.1065673828125,-0.9462127685546876,-0.2748260498046875,0.0394123867154121,0.015770174562931,-0.0152572495862841
1769244471908,0.108612060546875,-0.9492340087890624,-0.26898193359375,0.0268369410187006,0.0154825532808899,-0.0173438359051942
1769244471918,0.1107177734375,-0.950439453125,-0.267608642578125,0.0154780261218547,0.0133115444332361,-0.01938221976161
1769244471928,0.1158447265625,-0.9527130126953124,-0.2646636962890625,0.0082912193611264,0.0102419843897223,-0.0165414251387119
1769244471938,0.1225433349609375,-0.9547882080078124,-0.266387939453125,0.0029257487040013,0.0067284763790667,-0.0129735888913273
1769244471948,0.12811279296875,-0.954559326171875,-0.2677001953125,-0.0002000034000957,0.0083601949736475,-0.0032935312483459
1769244471958,0.13409423828125,-0.95513916015625,-0.27178955078125,0.0024921861477196,0.0096441050991415,0.0025816683191806
1769244471968,0.1354217529296875,-0.9533233642578124,-0.2732391357421875,0.0060488376766443,0.0095085501670837,0.0087873665615916
1769244471978,0.13165283203125,-0.95184326171875,-0.2729339599609375,0.0102118914946913,0.0070845410227775,0.0119195096194744
1769244471988,0.127349853515625,-0.9498748779296876,-0.2724456787109375,0.0077820229344069,0.0035180358681827,0.0127091370522975
1769244471998,0.1238861083984375,-0.9491729736328124,-0.2711334228515625,0.0036344157997518,0.0024349282030016,0.0150018529966473
1769244472008,0.1215667724609375,-0.94842529296875,-0.2685394287109375,-0.0021398498211055,0.0024064322933554,0.0158740375190973
1769244472018,0.1168365478515625,-0.9462127685546876,-0.26904296875,-0.0084070665761828,0.000221042369958,0.0148910647258162
1769244472029,0.1149139404296875,-0.94757080078125,-0.2696533203125,-0.0144897270947694,-0.0067769461311399,0.0145632298663258
1769244472039,0.1138458251953125,-0.9512176513671876,-0.2706146240234375,-0.0270673036575317,-0.0127309756353497,0.0130928987637162
1769244472049,0.1163330078125,-0.953460693359375,-0.270843505859375,-0.0330626107752323,-0.0179531686007976,0.0139805302023887
1769244472059,0.1160736083984375,-0.949676513671875,-0.2729034423828125,-0.0286793150007724,-0.016491625458002,0.0101170828565955
