timestamp_ms,acc_x,acc_y,acc_z,gyro_x,gyro_y,gyro_z
1770451529811,-0.136810302734375,-0.1670989990234375,-0.97430419921875,-0.0125765120610594,0.0094153396785259,0.0019760655704885
1770451529822,-0.13800048828125,-0.168182373046875,-0.975982666015625,-0.0105160241946578,0.0142934517934918,0.0022319953422993
1770451529828,-0.1367645263671875,-0.166412353515625,-0.97705078125,-0.0088648647069931,0.0132526885718107,0.0010631339391693
1770451529838,-0.1370697021484375,-0.165618896484375,-0.9853363037109376,-0.0116784935817122,0.0052685313858091,-0.0025614283513277
1770451529848,-0.135986328125,-0.1659698486328125,-0.9755096435546876,-0.0166828390210866,0.0163030736148357,-0.0026927222497761
1770451529858,-0.135223388671875,-0.163848876953125,-0.969451904296875,-0.0255469046533107,0.0177563596516847,-0.0051667988300323
1770451529869,-0.137542724609375,-0.1644287109375,-0.96832275390625,-0.0238984078168869,0.0188929978758096,-0.0060400492511689
1770451529879,-0.13909912109375,-0.1602630615234375,-0.9744720458984376,-0.0209921002388,0.010587397031486,-0.0074110445566475
1770451529889,-0.138702392578125,-0.1602935791015625,-0.979736328125,-0.0145357996225357,0.0019331886433064,-0.0074680363759398
1770451529900,-0.1389923095703125,-0.1595611572265625,-0.9838104248046876,-0.0035936695057898,0.002599777886644,-0.01124919205904
1770451529909,-0.1386260986328125,-0.1550750732421875,-0.987060546875,0.0108707575127482,0.0004980111261829,-0.0184738151729106
1770451529919,-0.138580322265625,-0.1541595458984375,-0.9925994873046876,0.025627065449953,-0.0204386953264474,-0.0228310134261846
1770451529929,-0.1389923095703125,-0.1591644287109375,-0.9906158447265624,0.0355476066470146,-0.0329584814608097,-0.0204416252672672
1770451529939,-0.136962890625,-0.15924072265625,-0.9841766357421876,0.0378597639501094,-0.0301168896257877,-0.0274760983884334
1770451529950,-0.1371917724609375,-0.1595611572265625,-0.9791717529296876,0.0379503108561039,-0.0220773387700319,-0.0279227104038
1770451529959,-0.1365814208984375,-0.1606903076171875,-0.9746246337890624,0.0335925817489624,-0.0174061544239521,-0.0268481262028217
1770451529969,-0.1357269287109375,-0.1605072021484375,-0.9767303466796876,0.0312258303165435,-0.0353641174733638,-0.0258230753242969
1770451529979,-0.1362152099609375,-0.162445068359375,-0.9827117919921876,0.022001439705491,-0.0412867181003093,-0.0257423818111419
1770451529989,-0.1357269287109375,-0.1627044677734375,-0.9745635986328124,0.0060544302687048,-0.0158202424645423,-0.0215950403362512
1770451529999,-0.1297760009765625,-0.1645355224609375,-0.960479736328125,-0.0091024180874228,0.0192996617406606,-0.0147911962121725
1770451530009,-0.1247711181640625,-0.1675567626953125,-0.9644012451171876,-0.014896391890943,0.0332445055246353,-0.0046080676838755
1770451530020,-0.1282501220703125,-0.164764404296875,-0.972442626953125,-0.0145539091899991,0.0299754757434129,0.0063641560263931
1770451530029,-0.1301422119140625,-0.1646728515625,-0.980255126953125,-0.0114699685946106,0.0207769181579351,0.0148923965170979
1770451530040,-0.127960205078125,-0.166015625,-0.9839019775390624,-0.0064302026294171,0.0132963638752698,0.0141227431595325
1770451530050,-0.1347808837890625,-0.16357421875,-0.9823150634765624,-0.0019821908790618,0.0153872119262814,0.0134407076984643
1770451530060,-0.1339263916015625,-0.161102294921875,-0.9825439453125,-0.0001041295981849,0.0144156906753778,0.0136755984276533
1770451530070,-0.132476806640625,-0.1629180908203125,-0.97833251953125,0.0007254450465552,0.0144628286361694,0.0138036962598562
1770451530080,-0.1322174072265625,-0.16265869140625,-0.979095458984375,0.0067713535390794,0.0087900292128324,0.0149656338617205
1770451530090,-0.1368865966796875,-0.1616058349609375,-0.985443115234375,0.0090366378426551,0.0069612367078661,0.0119341574609279
1770451530100,-0.1363983154296875,-0.1640472412109375,-0.9782257080078124,0.007234210614115,0.0109533155336976,0.0117599871009588
1770451530110,-0.1358489990234375,-0.1646575927734375,-0.9697723388671876,0.0080288983881473,0.0158439446240663,0.0112177673727273
1770451530120,-0.1358489990234375,-0.1630859375,-0.9745635986328124,0.0111045828089118,0.0249223932623863,0.0099671464413404
1770451530130,-0.136627197265625,-0.162078857421875,-0.9736480712890624,0.0134058203548192,0.0299429856240749,0.0132159367203712
1770451530140,-0.1353912353515625,-0.166595458984375,-0.9755706787109376,0.0196477379649877,0.0214432403445243,0.0135938394814729
1770451530150,-0.135528564453125,-0.168304443359375,-0.9789276123046876,0.0208770520985126,0.0162737779319286,0.019246133044362
1770451530160,-0.1350250244140625,-0.168365478515625,-0.97198486328125,0.0117282951250672,0.0175843201577663,0.0168711245059967
1770451530170,-0.1414031982421875,-0.1668701171875,-0.9652252197265624,0.0041196439415216,0.0269807502627372,0.0113743608817458
1770451530180,-0.146575927734375,-0.1626434326171875,-0.9619598388671876,-0.0009403621661476,0.03689756244421,0.0070869377814233
1770451530190,-0.1484832763671875,-0.1590423583984375,-0.965789794921875,-0.0013603427214547,0.0253535602241754,-0.0014788532862439
1770451530200,-0.1479644775390625,-0.1609344482421875,-0.9775543212890624,-0.0036456012167036,-0.0006247775745578,-0.000267914001597
1770451530210,-0.1446380615234375,-0.1652069091796875,-0.977447509765625,-0.0032165660522878,-0.0030535804107785,-0.0002689792599994
1770451530220,-0.139984130859375,-0.168670654296875,-0.9744415283203124,-0.0099879195913672,-0.0011422297684475,0.0083527388051152
1770451530230,-0.1330413818359375,-0.169403076171875,-0.9697418212890624,-0.014806643128395,0.0207481551915407,0.0126177910715341
1770451530241,-0.1342620849609375,-0.1708526611328125,-0.9686431884765624,-0.0139586925506591,0.0308314152061939,0.0161281041800975
1770451530251,-0.1322021484375,-0.1648101806640625,-0.9753570556640624,-0.0068802768364548,0.0247202608734369,0.0037204360123723
1770451530261,-0.143096923828125,-0.1540985107421875,-0.9715118408203124,-0.0149781508371233,0.016006663441658,-0.0065484466031193
1770451530271,-0.1465606689453125,-0.160675048828125,-0.9681243896484376,-0.0209801159799098,0.0105144260451197,-0.0068318070843815
1770451530281,-0.1410980224609375,-0.166839599609375,-0.9732666015625,-0.0260172188282012,0.0119328256696462,-0.0094078825786709
1770451530291,-0.1446075439453125,-0.16357421875,-0.9751434326171876,-0.0287296492606401,0.0178327932953834,-0.0060022324323654
1770451530301,-0.1362457275390625,-0.1682891845703125,-0.978271484375,-0.0266702268272638,0.016437828540802,-0.0042978092096745
1770451530311,-0.1305389404296875,-0.1665802001953125,-0.97894287109375,-0.0270585156977176,0.0246052108705043,-0.0116491988301277
1770451530321,-0.1323699951171875,-0.156219482421875,-0.9732818603515624,-0.0297557655721902,0.0355832949280738,-0.0191971305757761
1770451530331,-0.1303253173828125,-0.1576995849609375,-0.9732513427734376,-0.0321440882980823,0.0358514748513698,-0.0207111369818449
1770451530341,-0.132904052734375,-0.1658935546875,-0.9753570556640624,-0.0268446635454893,0.0258576963096857,-0.0153842829167842
1770451530351,-0.1339874267578125,-0.1663970947265625,-0.98248291015625,-0.0199185814708471,0.0177995041012763,-0.007039001211524
1770451530361,-0.130767822265625,-0.1685791015625,-0.9854736328125,-0.0182218812406063,0.0168783161789178,0.0035406725946813
1770451530371,-0.1271209716796875,-0.1702117919921875,-0.983612060546875,-0.0088137313723564,0.0295965075492858,0.0080518014729022
1770451530381,-0.126617431640625,-0.1674957275390625,-0.982269287109375,-0.0006716492353007,0.0486642085015773,0.0062006381340324
1770451530391,-0.13079833984375,-0.1625518798828125,-0.98223876953125,0.0089146653190255,0.0341353341937065,-0.0023489079903811
1770451530401,-0.13446044921875,-0.163726806640625,-0.9836578369140624,0.0223367307335138,0.0199721101671457,-0.0050600059330463
1770451530411,-0.13739013671875,-0.162628173828125,-0.9864349365234376,0.0338897891342639,0.0102861933410167,-0.0080025326460599
1770451530422,-0.136871337890625,-0.1597900390625,-0.9812164306640624,0.038426749408245,-0.0036831516772508,-0.011617774143815
1770451530431,-0.1362152099609375,-0.1632843017578125,-0.9735870361328124,0.0318660549819469,-0.0077332872897386,-0.0131142036989331
1770451530441,-0.1349334716796875,-0.1613616943359375,-0.965606689453125,0.0168492868542671,0.0016666061710566,-0.017798438668251
1770451530452,-0.1348419189453125,-0.160552978515625,-0.954498291015625,0.0006711165769957,0.0212666727602481,-0.019269036129117
1770451530462,-0.1311798095703125,-0.161956787109375,-0.95440673828125,-0.0150476591661572,0.0374078266322612,-0.0173600818961858
1770451530472,-0.1279296875,-0.1631011962890625,-0.960479736328125,-0.0245026797056198,0.0288734603673219,-0.0167424939572811
1770451530482,-0.128570556640625,-0.162689208984375,-0.9702606201171876,-0.0307744238525629,0.011461179703474,-0.0096177402883768
1770451530492,-0.125152587890625,-0.1640472412109375,-0.9721832275390624,-0.0359201841056346,0.0064152888953685,-0.0055095474235713
1770451530502,-0.1263275146484375,-0.164703369140625,-0.9754638671875,-0.0371606834232807,0.0086297066882252,-0.0033185649663209
1770451530512,-0.1243896484375,-0.1676177978515625,-0.97332763671875,-0.0355787649750709,0.0277437474578619,0.00202107289806
1770451530522,-0.1244964599609375,-0.1682891845703125,-0.9739227294921876,-0.0276172459125518,0.0426361449062824,0.0050709252245724
1770451530532,-0.128753662109375,-0.168121337890625,-0.98602294921875,-0.0147603042423725,0.0338748767971992,0.0052213934250175
1770451530542,-0.1317596435546875,-0.1660003662109375,-0.9898681640625,-0.004104730207473,0.0216544289141893,0.0038083202671259
1770451530552,-0.131072998046875,-0.1651611328125,-0.9920654296875,0.0041345576755702,0.0060126185417175,0.0008234494016505
1770451530562,-0.1320343017578125,-0.1598968505859375,-0.9918975830078124,0.0120372213423252,0.0123695842921733,-0.0060115535743534
1770451530572,-0.1361083984375,-0.161224365234375,-0.9828948974609376,0.0198099240660667,0.0055180699564516,-0.006598247680813
1770451530583,-0.1304473876953125,-0.16522216796875,-0.9853515625,0.0285016819834709,-0.0051691955886781,-0.0114686368033289
1770451530592,-0.13018798828125,-0.1613311767578125,-0.9852142333984376,0.0385561808943748,-0.0061609568074345,-0.0129919648170471
1770451530602,-0.126678466796875,-0.1643524169921875,-0.982574462890625,0.0450612194836139,-0.0152106443420052,-0.0138058271259069
1770451530612,-0.126068115234375,-0.16656494140625,-0.9818267822265624,0.0471195764839649,-0.0249775219708681,-0.015247662551701
1770451530622,-0.1278839111328125,-0.163055419921875,-0.9738922119140624,0.049822948873043,-0.0128867700695991,-0.0093764578923583
1770451530633,-0.1215667724609375,-0.16650390625,-0.971710205078125,0.0447403080761432,-0.0022106899414211,-0.0069476547650992
1770451530642,-0.1194915771484375,-0.1713104248046875,-0.965576171875,0.0299571007490158,0.0121943484991788,0.0017896442441269
1770451530653,-0.11962890625,-0.1713409423828125,-0.959716796875,0.0180330630391836,0.0291309878230094,0.0060874535702168
1770451530663,-0.12335205078125,-0.171783447265625,-0.9633636474609376,0.0085351653397083,0.021044299006462,0.005216599907726
1770451530673,-0.1292266845703125,-0.1702423095703125,-0.969482421875,-0.0080299628898501,0.0236408803611993,0.004620318301022
1770451530683,-0.1280975341796875,-0.1702423095703125,-0.9629974365234376,-0.017781127244234,0.0298788025975227,0.0066448533907532
1770451530693,-0.126434326171875,-0.17108154296875,-0.96417236328125,-0.0264949910342693,0.0265029799193143,0.0049023469910025
1770451530703,-0.1330108642578125,-0.1641845703125,-0.9674835205078124,-0.0319187827408313,0.0320253111422061,0.003678624285385
1770451530713,-0.132965087890625,-0.165985107421875,-0.97283935546875,-0.0310058519244194,0.0238411501049995,7.98948312876746e-05
1770451530723,-0.131988525390625,-0.168304443359375,-0.9745025634765624,-0.0257192123681306,0.0227974578738212,0.0025278725661337
1770451530733,-0.1296234130859375,-0.164215087890625,-0.980010986328125,-0.01804930716753,0.0127799771726131,0.000398408883484
1770451530743,-0.131011962890625,-0.1667938232421875,-0.980224609375,-0.0104329334571957,0.0108257494866848,-0.0008237157016992
1770451530753,-0.131500244140625,-0.164398193359375,-0.9819183349609376,-2.9294771593413316e-05,-0.0014452975010499,-0.0037928740493953
1770451530763,-0.1310882568359375,-0.163818359375,-0.9858245849609376,0.00811811350286,-0.0116460034623742,-0.0050962250679731
1770451530773,-0.1305694580078125,-0.1630096435546875,-0.983306884765625,0.0100563624873757,-0.0095298560336232,-0.005928196478635
1770451530783,-0.1275482177734375,-0.1661376953125,-0.9772186279296876,0.0040535973384976,0.0082352934405207,-0.0056528258137404
1770451530793,-0.124908447265625,-0.1685028076171875,-0.9686126708984376,0.0028674255590885,0.0253447704017162,-0.0060954429209232
1770451530803,-0.1255645751953125,-0.171661376953125,-0.974456787109375,0.008691226132214,0.0338074974715709,-0.0068698902614414
1770451530813,-0.1279754638671875,-0.1688995361328125,-0.977508544921875,0.0068632322363555,0.0179414507001638,-0.0022269352339208
1770451530823,-0.125274658203125,-0.1657867431640625,-0.9742279052734376,-0.0012961605098098,0.0149219576269388,-0.003189668059349
1770451530833,-0.1256103515625,-0.160919189453125,-0.9683990478515624,-0.0043883565813302,0.0131983598694205,-0.0052347094751894
1770451530843,-0.1272125244140625,-0.163909912109375,-0.975006103515625,-0.001538508106023,0.0086502134799957,-0.0040629184804856
1770451530854,-0.1301422119140625,-0.1654205322265625,-0.974395751953125,-0.0058280616067349,8.255799184553325e-05,-0.0091895032674074
1770451530863,-0.1326751708984375,-0.1630706787109375,-0.9664459228515624,-0.0159709770232439,-0.0047428235411643,-0.011904596351087
1770451530873,-0.1305694580078125,-0.16351318359375,-0.9621734619140624,-0.0315581932663917,-0.0017382452497258,-0.0127938259392976
1770451530884,-0.130218505859375,-0.1648712158203125,-0.95904541015625,-0.043650809675455,0.0146758817136287,-0.0106683569028973
1770451530894,-0.125946044921875,-0.163116455078125,-0.960693359375,-0.0492019020020961,0.0288385730236768,-0.0136465700343251
1770451530904,-0.1266021728515625,-0.165985107421875,-0.969696044921875,-0.0471440777182579,0.0369601473212242,-0.0071029169484972
1770451530914,-0.1243438720703125,-0.1628875732421875,-0.9769744873046876,-0.0408568866550922,0.0386115759611129,-0.0074805533513426
1770451530924,-0.125213623046875,-0.16180419921875,-0.9833831787109376,-0.0348522551357746,0.0263114981353282,-0.0069689597003161
1770451530934,-0.1250152587890625,-0.1649322509765625,-0.9850006103515624,-0.0239058658480644,0.0193678382784128,-0.0031185615807771
1770451530944,-0.12286376953125,-0.166900634765625,-0.98486328125,-0.0154042560607194,0.015846075490117,-0.0023816649336367
1770451530954,-0.12353515625,-0.1657867431640625,-0.9808197021484376,-0.0101027013733983,0.0201436169445514,-0.0067244814708828
1770451530964,-0.1295318603515625,-0.162322998046875,-0.9796905517578124,-0.002306830137968,0.010489392094314,-0.0095109473913908
1770451530974,-0.1327362060546875,-0.159881591796875,-0.98773193359375,-0.0014207963831722,-0.0064501762390136,-0.0120153836905956
1770451530984,-0.131439208984375,-0.15716552734375,-0.9838409423828124,0.00080320937559,-0.0143288718536496,-0.0071678981184959
1770451530994,-0.1227264404296875,-0.1611328125,-0.9797210693359376,-1.917476038215682e-05,-2.956108801299706e-05,-0.0048557417467236
1770451531004,-0.123077392578125,-0.1624603271484375,-0.97430419921875,-0.0039292280562222,0.0211790539324283,-0.0081231743097305
1770451531014,-0.1247406005859375,-0.1616668701171875,-0.969390869140625,-0.0016050871927291,0.037574540823698,-0.004938299767673
1770451531024,-0.12493896484375,-0.161590576171875,-0.974639892578125,0.0040328246541321,0.0335558280348777,-0.0011353056179359
1770451531034,-0.1259918212890625,-0.16326904296875,-0.984405517578125,0.0123482793569564,0.0022362563759088,-0.0041465419344604
1770451531044,-0.1261749267578125,-0.16192626953125,-0.9907073974609376,0.0135946385562419,-0.015018630772829,-0.0081045320257544
1770451531054,-0.125213623046875,-0.1613616943359375,-0.98187255859375,0.0058363173156976,-0.005134308245033,-0.0048213866539299
1770451531064,-0.1183319091796875,-0.1683502197265625,-0.9670257568359376,-0.004407531581819,0.0162575338035821,0.0043060649186372
1770451531074,-0.11669921875,-0.172027587890625,-0.9656524658203124,-0.0067740166559815,0.0162546038627624,0.0103607615455985
1770451531084,-0.125762939453125,-0.16143798828125,-0.9737091064453124,-0.0129075432196259,0.0185190886259078,0.0077348849736154
1770451531094,-0.1240997314453125,-0.1593475341796875,-0.975311279296875,-0.003639209549874,0.017051687464118,-0.0017867147689685
1770451531105,-0.1244049072265625,-0.142120361328125,-0.97320556640625,0.001301220501773,0.0295158140361309,-0.0207857061177492
1770451531115,-0.1287689208984375,-0.15521240234375,-0.972747802734375,0.0003536677977535,0.0190818160772323,-0.0053039514459669
1770451531125,-0.1147308349609375,-0.1768646240234375,-0.969970703125,-0.0051332428120076,0.0138114197179675,0.0097722029313445
1770451531135,-0.113433837890625,-0.1754608154296875,-0.9730224609375,-0.0050187269225716,0.0149965267628431,0.0196924787014722
1770451531145,-0.1140594482421875,-0.17083740234375,-0.9795989990234376,-0.006204632576555,0.0111197624355554,0.0238089263439178
1770451531155,-0.113677978515625,-0.1641693115234375,-0.97418212890625,-0.0089085400104522,0.0253386460244655,0.0155968023464083
1770451531165,-0.1205902099609375,-0.156707763671875,-0.9702301025390624,-0.0038306908681988,0.0279128570109605,0.0015773903578519
1770451531175,-0.128173828125,-0.15240478515625,-0.9770965576171876,-0.0034930021502077,0.01716567017138,-0.0077194385230541
1770451531185,-0.13690185546875,-0.1500701904296875,-0.9752044677734376,-0.0061537660658359,0.00913224555552,-0.0193603821098804
1770451531195,-0.1384124755859375,-0.1523895263671875,-0.978973388671875,-0.0085652582347393,-0.00819081813097,-0.0175273288041353
1770451531205,-0.13043212890625,-0.1656341552734375,-0.982757568359375,-0.0119354892522096,-0.0118262991309165,-0.0138337900862097
1770451531215,-0.12298583984375,-0.1677093505859375,-0.9801025390625,-0.0221263412386178,0.001472994335927,-0.0068334047682583
1770451531225,-0.115814208984375,-0.1672515869140625,-0.9706573486328124,-0.0219835955649614,0.0334535650908947,-0.0023315974976867
1770451531235,-0.1155853271484375,-0.1680145263671875,-0.9756317138671876,-0.0164074692875146,0.0352083221077919,0.0024759408552199
1770451531245,-0.115966796875,-0.1701812744140625,-0.9818572998046876,-0.0102094942703843,0.0308673679828643,0.0056749298237264
1770451531255,-0.1175994873046875,-0.166412353515625,-0.9776611328125,-0.0061263358220458,0.0249612759798765,0.0081498054787516
1770451531265,-0.121063232421875,-0.1652984619140625,-0.9759521484375,0.0010447581298649,0.0248179975897073,0.0127056753262877
1770451531275,-0.1190032958984375,-0.165679931640625,-0.9791412353515624,0.0096084186807274,0.0225348696112632,0.0105040399357676
1770451531285,-0.123016357421875,-0.16217041015625,-0.9786529541015624,0.0175704713910818,0.0056911753490567,0.0075444690883159
1770451531295,-0.130126953125,-0.15997314453125,-0.979034423828125,0.0128790466114878,-0.0046307044103741,-0.0029009813442826
1770451531305,-0.131378173828125,-0.1589813232421875,-0.9689483642578124,0.0022274679504334,-0.0048336372710764,-0.015395201742649
1770451531316,-0.1309967041015625,-0.161376953125,-0.965362548828125,-0.0065665561705827,-0.0040868869982659,-0.0178407821804285
1770451531326,-0.1248626708984375,-0.1659088134765625,-0.969482421875,-0.0141730764880776,-0.0061106230132281,-0.0168676637113094
1770451531336,-0.12042236328125,-0.1669464111328125,-0.9686126708984376,-0.0260374601930379,-0.0014474280178546,-0.0124087324365973
1770451531346,-0.1175537109375,-0.1652069091796875,-0.9635009765625,-0.0380009114742279,0.0125679895281791,-0.0086430227383971
1770451531356,-0.118499755859375,-0.162994384765625,-0.9667816162109376,-0.0399641953408718,0.0140769369900226,-0.0012109393719583
1770451531366,-0.1167144775390625,-0.165069580078125,-0.97796630859375,-0.0380517765879631,0.0174056217074394,0.0061297980137169
1770451531376,-0.113983154296875,-0.16357421875,-0.9837799072265624,-0.0285000838339328,0.0226360708475112,0.0052426988258957
1770451531388,-0.1180572509765625,-0.1634521484375,-0.990234375,-0.0127261811867356,0.0124934213235974,0.0107328053563833
1770451531396,-0.1174774169921875,-0.1680908203125,-0.998565673828125,0.0042826291173696,-0.0044501419179141,0.010774084366858
1770451531406,-0.1230926513671875,-0.1609039306640625,-0.998687744140625,0.0169089417904615,-0.0042943470180034,0.006948453374207
1770451531416,-0.122314453125,-0.166107177734375,-0.9932708740234376,0.0275986045598983,-0.0148926628753542,0.0066552395001053
1770451531426,-0.1190338134765625,-0.16754150390625,-0.9865264892578124,0.0302961207926273,-0.0043771713972091,0.0031989889685064
1770451531436,-0.1223907470703125,-0.1621856689453125,-0.97637939453125,0.0283410940319299,0.0049076732248067,0.0005816344055347
1770451531446,-0.11859130859375,-0.1656951904296875,-0.9724884033203124,0.0210538860410451,0.0176900476217269,-0.0028605014085769
1770451531456,-0.1173248291015625,-0.1654205322265625,-0.9649505615234376,0.0166250485926866,0.0240792371332645,-0.0011518171522766
1770451531466,-0.118438720703125,-0.166778564453125,-0.9701080322265624,0.0147637659683823,0.0170330461114645,0.0054376423358917
1770451531476,-0.1187744140625,-0.16595458984375,-0.9705963134765624,0.0117828901857137,0.0122060663998126,0.0108174942433834
1770451531487,-0.121368408203125,-0.1611785888671875,-0.9678497314453124,0.0132119422778487,0.0073870760388672,0.0114918062463402
1770451531496,-0.1219329833984375,-0.1617889404296875,-0.9734039306640624,0.0101759387180209,-0.0003304982965346,0.0126734506338834
1770451531506,-0.11932373046875,-0.1659393310546875,-0.9729766845703124,0.0002372876479057,0.0055875782854855,0.0137959737330675
1770451531517,-0.1147918701171875,-0.1698760986328125,-0.96856689453125,-0.0114238960668444,0.0141080953180789,0.0184620972722768
1770451531527,-0.117156982421875,-0.1694793701171875,-0.966888427734375,-0.0240696500986814,0.0208568125963211,0.0156623162329196
1770451531537,-0.1219482421875,-0.1669158935546875,-0.9663848876953124,-0.0331686064600944,0.0221106279641389,0.0170146692544221
1770451531547,-0.1233367919921875,-0.165130615234375,-0.9699554443359376,-0.0393498018383979,0.0128540135920047,0.0171832479536533
1770451531557,-0.123779296875,-0.1615447998046875,-0.9761505126953124,-0.0358069986104965,0.0050983554683625,0.0175457037985324
1770451531567,-0.12164306640625,-0.162994384765625,-0.98394775390625,-0.0278979446738958,0.0041601238772273,0.0184567719697952
1770451531577,-0.1195831298828125,-0.1656036376953125,-0.9835357666015624,-0.0160703137516975,0.0162607282400131,0.0150772202759981
1770451531587,-0.121795654296875,-0.16326904296875,-0.982025146484375,-0.0078283622860908,0.0134311206638813,0.0114438692107796
1770451531597,-0.124176025390625,-0.1622467041015625,-0.980621337890625,0.0005880259559489,0.0103969806805253,0.0100734066218137
1770451531607,-0.12139892578125,-0.161956787109375,-0.98394775390625,0.0055521582253277,0.0036330842413008,0.0081783011555671
1770451531618,-0.12115478515625,-0.162750244140625,-0.9852294921875,0.0074547203257679,0.0071692294441163,0.0084163881838321
1770451531627,-0.12091064453125,-0.164703369140625,-0.9805145263671876,0.0047641289420425,0.0159765686839818,0.0084400903433561
1770451531637,-0.1184234619140625,-0.1686248779296875,-0.9761962890625,0.0069252839311957,0.0172833818942308,0.0070352726615965
1770451531647,-0.1224212646484375,-0.1681671142578125,-0.9787750244140624,0.0046536074951291,0.0100118881091475,0.0075282235629856
1770451531657,-0.1222686767578125,-0.1647491455078125,-0.9799652099609376,0.0057409764267504,0.0045180525630712,0.0040035299025475
1770451531667,-0.1225738525390625,-0.1637725830078125,-0.9805755615234376,0.0100015010684728,-0.0015009575290605,0.0017976337112486
1770451531677,-0.1240081787109375,-0.16558837890625,-0.981903076171875,0.0150295495986938,-0.0168434288352727,0.000471645820653
1770451531687,-0.1240692138671875,-0.165008544921875,-0.9833221435546876,0.0222176872193813,-0.026427611708641,-0.0015654060989618
1770451531697,-0.1230010986328125,-0.164093017578125,-0.9817047119140624,0.0254534278064966,-0.0220355279743671,-0.0008839031797833
1770451531707,-0.11907958984375,-0.1625518798828125,-0.976318359375,0.0202626604586839,-0.0145571045577526,-0.0060075586661696
1770451531717,-0.1236114501953125,-0.1634674072265625,-0.96771240234375,0.0153142418712377,-0.0045263087376952,-0.0075173047371208
1770451531727,-0.118408203125,-0.167755126953125,-0.968292236328125,0.0084281060844659,0.0004223773430567,-0.0030365362763404
1770451531738,-0.1176300048828125,-0.1667633056640625,-0.9679718017578124,-0.0023827301338315,0.0044277715496718,-0.0011752529535442
1770451531748,-0.1214447021484375,-0.1580047607421875,-0.9644317626953124,-0.0235644485801458,0.0097040263935923,-0.003026416292414
1770451531757,-0.117828369140625,-0.1587066650390625,-0.9636688232421876,-0.0329339802265167,0.0170713942497968,-0.0048882323317229
1770451531768,-0.1170654296875,-0.1652679443359375,-0.96978759765625,-0.0344245508313179,0.0239990763366222,0.0006913566030561
1770451531778,-0.1151580810546875,-0.167694091796875,-0.976226806640625,-0.0304077062755823,0.0238408837467432,0.0024178838357329
1770451531788,-0.1168670654296875,-0.1644744873046875,-0.9776458740234376,-0.0258044321089983,0.0154375461861491,0.0055540222674608
1770451531798,-0.117706298828125,-0.1625823974609375,-0.9831085205078124,-0.020248545333743,0.008021174930036,0.0096451705321669
1770451531808,-0.11810302734375,-0.1629486083984375,-0.9819183349609376,-0.019062640145421,0.0131363086402416,0.009729859419167
1770451531818,-0.116363525390625,-0.1642303466796875,-0.9783935546875,-0.0098116183653473,0.0172767248004674,0.0113956658169627
1770451531828,-0.1196441650390625,-0.1661224365234375,-0.98291015625,0.0002623213513288,0.0126313725486397,0.0085255773738026
1770451531838,-0.1227874755859375,-0.1626739501953125,-0.9906005859375,0.0074584488756954,-0.002747849561274,0.0001736380945658
1770451531848,-0.1272430419921875,-0.157806396484375,-0.9846649169921876,0.0087271789088845,-0.0092073464766144,-0.000323840387864
1770451531858,-0.1234893798828125,-0.1595306396484375,-0.98150634765625,0.0140596264973282,-0.0111653031781315,0.0008695221040397
1770451531869,-0.1189422607421875,-0.1705474853515625,-0.982666015625,0.0135914422571659,-0.0216363202780485,0.0079260999336838
1770451531878,-0.11602783203125,-0.1765594482421875,-0.9770965576171876,0.0058528291992843,-0.023290142416954,0.0168109387159347
1770451531888,-0.1182098388671875,-0.1671600341796875,-0.96844482421875,-0.0102358600124716,0.0003648530691862,0.0149459261447191
1770451531898,-0.118560791015625,-0.1627655029296875,-0.96173095703125,-0.0119418809190392,0.0274265650659799,0.0053614759817719
1770451531908,-0.1247100830078125,-0.1478271484375,-0.9654998779296876,-0.0071844095364212,0.0429882146418094,-0.0118768997490406
1770451531918,-0.1268310546875,-0.1550750732421875,-0.9735260009765624,-0.0026186862960457,0.0054696002043783,-0.0032602418214082
1770451531928,-0.1196746826171875,-0.1744384765625,-0.9876251220703124,0.0015614113071933,-0.0164173226803541,0.0042290999554097
1770451531938,-0.118377685546875,-0.1706390380859375,-0.982879638671875,-0.0063372580334544,-0.0082728434354066,0.0066677564755082
1770451531948,-0.115753173828125,-0.16650390625,-0.9713592529296876,-0.0129988892003893,0.0170090775936841,0.009000951424241
1770451531959,-0.1134033203125,-0.168212890625,-0.9680328369140624,-0.0065875952132046,0.0238312967121601,0.0065902583301067
1770451531969,-0.1142120361328125,-0.164306640625,-0.978485107421875,0.0005850964807905,0.0166940260678529,-0.002927612978965
1770451531979,-0.1223602294921875,-0.1550445556640625,-0.983367919921875,0.0023576964158564,0.0040882187895476,-0.014708106406033
1770451531989,-0.12774658203125,-0.1531982421875,-0.978851318359375,0.00056485645473,-0.004431233741343,-0.0177153479307889
1770451531999,-0.1249237060546875,-0.158782958984375,-0.9751129150390624,-0.0034392061643302,-0.0103698167949914,-0.0141464453190565
1770451532009,-0.1223907470703125,-0.163055419921875,-0.970733642578125,-0.0130244558677077,-0.0069846725091338,-0.0040650488808751
1770451532019,-0.1181182861328125,-0.167572021484375,-0.9696807861328124,-0.0243029426783323,-0.002805906580761,0.00560915004462
1770451532029,-0.1129302978515625,-0.171234130859375,-0.969696044921875,-0.032108400017023,0.0085886940360069,0.0084113283082842
1770451532039,-0.1169586181640625,-0.167327880859375,-0.9743499755859376,-0.0345736891031265,0.0137182092294096,0.009155947715044
1770451532049,-0.1175689697265625,-0.16522216796875,-0.9780731201171876,-0.0325161330401897,0.0102542350068688,0.0090534156188368
1770451532059,-0.120330810546875,-0.16241455078125,-0.9804840087890624,-0.0265711564570665,0.0185348019003868,0.0020695424173027
1770451532069,-0.1244049072265625,-0.159210205078125,-0.9832916259765624,-0.0096899112686514,0.014274276793003,-0.0040133837610483
1770451532079,-0.1259002685546875,-0.1611328125,-0.992950439453125,0.0076091839000582,-0.0024429175537079,-0.0083498088642954
1770451532089,-0.1276092529296875,-0.161712646484375,-0.991180419921875,0.0205050092190504,-0.0050019491463899,-0.0121056651696562
1770451532099,-0.123016357421875,-0.1639862060546875,-0.9855499267578124,0.0300409886986017,-0.0082651199772953,-0.0106699550524353
1770451532109,-0.11944580078125,-0.168243408203125,-0.984283447265625,0.0269061829894781,-0.0066192867234349,-0.0135962357744574
1770451532119,-0.122222900390625,-0.1633148193359375,-0.973236083984375,0.0197721067816019,-0.0017723336350172,-0.0158644504845142
1770451532129,-0.1193695068359375,-0.163177490234375,-0.9700164794921876,0.0138979721814394,0.0004242415598127,-0.0138305947184562
1770451532139,-0.11669921875,-0.16876220703125,-0.9716949462890624,0.0084187844768166,0.0009656621841713,-0.0140111567452549
1770451532149,-0.1209259033203125,-0.16680908203125,-0.973388671875,0.0031819448340684,-0.0040943436324596,-0.0126542765647172
1770451532159,-0.1223907470703125,-0.1632843017578125,-0.972320556640625,-0.000630370224826,-0.0044330977834761,-0.0075324848294258
1770451532169,-0.1197052001953125,-0.164642333984375,-0.973419189453125,-0.0060488376766443,-0.0019126823171973,-0.0023001721128821
1770451532180,-0.11663818359375,-0.163238525390625,-0.9727630615234376,-0.0037763623986393,0.0055793225765228,0.0002402171230642
1770451532190,-0.118896484375,-0.160430908203125,-0.9790191650390624,-0.0067801419645547,-0.0001235706731677,0.0026876621413975
1770451532200,-0.11572265625,-0.166534423828125,-0.9800567626953124,-0.0074427360668778,-0.0109344068914651,0.0103375921025872
1770451532210,-0.11724853515625,-0.1697998046875,-0.97991943359375,-0.0086313048377633,-0.0105035072192549,0.006148706190288
1770451532220,-0.125762939453125,-0.159576416015625,-0.9785919189453124,-0.005396363325417,-0.0028996497858315,0.0038320224266499
1770451532230,-0.122894287109375,-0.1659393310546875,-0.98028564453125,-0.0050416300073266,-0.0092273205518722,0.0058091534301638
1770451532240,-0.116790771484375,-0.167572021484375,-0.97857666015625,-0.0053753242827951,0.0013062804937362,0.0031686290167272
1770451532250,-0.1201629638671875,-0.16119384765625,-0.9731597900390624,-0.009557019919157,0.0043143210932612,-0.0034019220620393
1770451532260,-0.1192779541015625,-0.1680908203125,-0.971893310546875,-0.0171965640038251,0.0073149045929312,-0.0011036139912903
1770451532270,-0.117767333984375,-0.1654052734375,-0.968231201171875,-0.0159131865948438,0.0101575627923011,-0.0005704491049982
1770451532280,-0.1182098388671875,-0.161102294921875,-0.9737701416015624,-0.0153091810643672,0.0023025691043585,0.0067231501452624
1770451532290,-0.1180267333984375,-0.161712646484375,-0.9755706787109376,-0.0164889618754386,0.0078861527144908,0.0143736125901341
1770451532300,-0.1150665283203125,-0.163665771484375,-0.9703369140625,-0.0130082098767161,0.0188277494162321,0.0164370294660329
1770451532310,-0.115997314453125,-0.1669464111328125,-0.97607421875,-0.0182229466736316,0.0118665127083659,0.0144593669101595
1770451532321,-0.1268768310546875,-0.1584625244140625,-0.9729461669921876,-0.0224914606660604,0.0115543901920318,0.0057457699440419
1770451532330,-0.126953125,-0.1590728759765625,-0.978057861328125,-0.0210879743099212,0.0035859462805092,0.0047295079566538
1770451532340,-0.11907958984375,-0.1705322265625,-0.9840545654296876,-0.0197846237570047,0.0074094468727707,0.0062360577285289
1770451532350,-0.1196746826171875,-0.1717376708984375,-0.9776458740234376,-0.0176769979298114,0.0164021421223878,0.0095751294866204
1770451532360,-0.1194915771484375,-0.1652069091796875,-0.9809112548828124,-0.0150242233648896,0.000679905002471,0.0068403291516005
1770451532370,-0.121429443359375,-0.1613616943359375,-0.9861907958984376,-0.0039433427155017,-0.0127538787201046,0.0091221258044242
1770451532380,-0.1218109130859375,-0.1587371826171875,-0.990753173828125,0.001882588607259,-0.0176229365170002,0.0093628754839301
1770451532390,-0.12103271484375,-0.1591949462890625,-0.981719970703125,0.0069183600135147,-0.0043926178477704,0.014461763203144
1770451532401,-0.1174163818359375,-0.163177490234375,-0.977752685546875,0.0148018496111035,0.0008761800127103,0.0130114061757922
1770451532411,-0.1199493408203125,-0.163482666015625,-0.98260498046875,0.0227303467690944,0.0046810382045805,0.0095556881278753
1770451532421,-0.1227264404296875,-0.1623992919921875,-0.9837493896484376,0.0259327962994575,-0.0005659217131324,0.0068573732860386
1770451532431,-0.120635986328125,-0.164031982421875,-0.982391357421875,0.0271634440869092,-0.0069037126377224,0.0044671865180134
1770451532441,-0.122222900390625,-0.1630401611328125,-0.976104736328125,0.0180948469787836,-0.0057875816710293,0.0053894389420747
1770451532452,-0.122711181640625,-0.164703369140625,-0.9657135009765624,0.0045015411451458,0.0048157940618693,0.006680273450911
1770451532461,-0.122467041015625,-0.1658477783203125,-0.96185302734375,-0.0049281795509159,0.0076046562753617,0.0065204836428165
1770451532471,-0.1226959228515625,-0.166595458984375,-0.9699554443359376,-0.011102451942861,-0.0023672839161008,0.0080265011638402
1770451532481,-0.1212310791015625,-0.1644439697265625,-0.9707794189453124,-0.0191712975502014,0.0032503881957381,0.0087940245866775
1770451532491,-0.119842529296875,-0.1628570556640625,-0.9662933349609376,-0.0225444566458463,0.0104667553678154,0.006900783162564
1770451532501,-0.1236572265625,-0.1641387939453125,-0.970916748046875,-0.0230432674288749,0.0121919512748718,0.0057388455606997
1770451532511,-0.1233062744140625,-0.163055419921875,-0.9764251708984376,-0.0150007875636219,0.0042424155399203,0.0047473507001996
1770451532521,-0.1233062744140625,-0.162628173828125,-0.9850921630859376,-0.0052416333928704,-0.0144926561042666,-0.0002881540276575
1770451532531,-0.125640869140625,-0.162841796875,-0.9897918701171876,-0.0027521105948835,-0.0141299339011311,-0.0036203011404722
1770451532541,-0.1249847412109375,-0.1638336181640625,-0.9759063720703124,-0.0022639532107859,-0.0005299690528772,-0.0028328043408691
1770451532551,-0.1209869384765625,-0.1654205322265625,-0.9726104736328124,-0.0002295644808327,0.0037649108562618,-0.0071465927176177
1770451532561,-0.1227264404296875,-0.1657562255859375,-0.98162841796875,0.003795270808041,-0.0057183392345905,-0.0042248386889696
1770451532571,-0.1218109130859375,-0.164031982421875,-0.983001708984375,0.0060525662265717,-0.0139842592179775,0.0020322583150118
1770451532581,-0.119842529296875,-0.166046142578125,-0.9788665771484376,0.0082328962162137,-0.0131344441324472,0.0026780748739838
1770451532592,-0.1223907470703125,-0.165008544921875,-0.9771728515625,0.0069295451976358,-0.0147802773863077,-0.0018101505702361
1770451532601,-0.125518798828125,-0.163177490234375,-0.972442626953125,0.0060704094357788,-0.0065292720682919,-0.0037079192698001
1770451532612,-0.1203155517578125,-0.16290283203125,-0.9709014892578124,0.0067351344041526,0.0088840387761592,-0.0058624162338674
1770451532622,-0.1208648681640625,-0.163604736328125,-0.9734649658203124,0.008591890335083,0.0051718587055802,-0.0081801656633615
1770451532632,-0.1222991943359375,-0.1656494140625,-0.977752685546875,0.0023323965724557,-0.0048959553241729,-0.0054461644031107
1770451532642,-0.121978759765625,-0.16552734375,-0.9700469970703124,-0.004440554883331,0.0022240057587623,-0.0027252128347754
1770451532653,-0.1202392578125,-0.1652069091796875,-0.97113037109375,-0.0052397693507373,0.0019923108629882,-0.0025041704066097
1770451532662,-0.120330810546875,-0.164031982421875,-0.97442626953125,-0.0124585339799523,0.0002380866062594,0.0008000136003829
1770451532672,-0.1192779541015625,-0.1619720458984375,-0.9689483642578124,-0.0119072590023279,0.0004194478678982,0.0050394996069371
1770451532682,-0.11859130859375,-0.16339111328125,-0.9748077392578124,-0.0097559578716754,-0.0051809134893119,0.00792982801795
1770451532692,-0.1181640625,-0.16455078125,-0.97821044921875,-0.0060669472441077,-0.006926349364221,0.0088289119303226
1770451532702,-0.1211700439453125,-0.16387939453125,-0.97662353515625,0.0010487528052181,-0.00509436102584,0.0095290569588541
1770451532712,-0.122344970703125,-0.1672210693359375,-0.97637939453125,2.0772657080669887e-05,-0.0118281636387109,0.0115269599482417
1770451532722,-0.1248016357421875,-0.1717987060546875,-0.974609375,-0.0001771002134773,-0.0158982723951339,0.013880661688745
1770451532732,-0.124664306640625,-0.16571044921875,-0.975921630859375,-0.0071242223493754,-0.01277039013803,0.0072057149372994
1770451532742,-0.128997802734375,-0.1647186279296875,-0.973724365234375,-0.0106060393154621,-0.0039225700311362,0.0009097357979044
1770451532752,-0.125518798828125,-0.150970458984375,-0.974090576171875,-0.0075157070532441,0.0056024920195341,-0.0159059949219226
1770451532762,-0.131500244140625,-0.1527252197265625,-0.9759979248046876,-0.0040767667815089,-0.011322695761919,-0.0182280056178569
1770451532772,-0.126220703125,-0.1713409423828125,-0.9789276123046876,-0.0036948695778846,-0.0228672325611114,-0.0095455683767795
1770451532782,-0.1190948486328125,-0.1729583740234375,-0.9740142822265624,-0.0084547372534871,-0.0141525706276297,-0.0033513219095766
1770451532792,-0.1165008544921875,-0.173248291015625,-0.9703521728515624,-0.0164191871881485,-0.0044442829675972,0.0081122545525431
1770451532802,-0.1130523681640625,-0.1734466552734375,-0.9695281982421876,-0.0203572027385234,0.0002404834376648,0.0148010505363345
1770451532812,-0.11126708984375,-0.166259765625,-0.969573974609375,-0.0247303806245327,0.0058642807416617,0.0100177470594644
1770451532823,-0.1166229248046875,-0.1519317626953125,-0.969879150390625,-0.025244902819395,0.0101109575480222,0.0010772485984489
1770451532832,-0.122039794921875,-0.1501007080078125,-0.975189208984375,-0.0289379078894853,0.0018317222129553,-0.0042884880676865
1770451532843,-0.126800537109375,-0.155181884765625,-0.970428466796875,-0.0352924764156341,0.0073814834468066,-0.0024788703303784
1770451532853,-0.126129150390625,-0.158477783203125,-0.9695892333984376,-0.0349771603941917,0.0088227866217494,0.0042293663136661
1770451532863,-0.1224212646484375,-0.164398193359375,-0.9787750244140624,-0.0348831489682197,-0.0007909588166512,0.0147690922021865
1770451532873,-0.1209564208984375,-0.1678314208984375,-0.9822235107421876,-0.0377087630331516,0.003384344978258,0.0199627894908189
1770451532885,-0.1187286376953125,-0.166534423828125,-0.97821044921875,-0.0424870066344738,0.0055122110061347,0.0189108401536941
1770451532893,-0.1233062744140625,-0.1632537841796875,-0.9807891845703124,-0.0359404236078262,0.0034724958240985,0.0139879873022437
1770451532903,-0.128082275390625,-0.161376953125,-0.9891357421875,-0.0258568972349166,-0.0030967236962169,0.0087602017447352
1770451532913,-0.127593994140625,-0.1616363525390625,-0.9879608154296876,-0.0147371347993612,0.0041372207924723,0.0023686154745519
1770451532923,-0.1290435791015625,-0.158294677734375,-0.984283447265625,-0.0004665858286898,0.0104587664827704,-0.0013454289874061
1770451532933,-0.1268768310546875,-0.1602325439453125,-0.9889373779296876,0.0085495458915829,-0.0081705776974558,-0.004931641742587
1770451532943,-0.1270751953125,-0.1636199951171875,-0.9858551025390624,0.0115884793922305,-0.0194045901298522,-0.0036852823104709
1770451532953,-0.12628173828125,-0.162017822265625,-0.9774932861328124,0.009975136257708,-0.0219684150069952,-0.0042171156965196
1770451532963,-0.126678466796875,-0.16339111328125,-0.973236083984375,0.0010349043877795,-0.0088014807552099,-0.0037705034483224
1770451532973,-0.1241302490234375,-0.1657867431640625,-0.967926025390625,0.0003134540456812,0.0108526479452848,-0.0035667715128511
1770451532983,-0.1204681396484375,-0.1660003662109375,-0.973052978515625,0.0006543386843986,0.0075231636874377,-0.0014796522445976
1770451532993,-0.123321533203125,-0.1606292724609375,-0.9777374267578124,-2.0506340661086145e-05,-0.0066262111067771,-0.0011195929255336
1770451533003,-0.1221923828125,-0.15960693359375,-0.979248046875,-0.0022024342324584,-0.02424968034029,0.0017875137273222
1770451533013,-0.1198883056640625,-0.162567138671875,-0.977264404296875,-0.0068246163427829,-0.017775535583496,0.0032493227627128
1770451533023,-0.122222900390625,-0.160369873046875,-0.96844482421875,-0.0150982588529586,0.0023784691002219,0.0029198897536844
1770451533033,-0.125518798828125,-0.15716552734375,-0.9685211181640624,-0.0158314276486635,0.0101884556934237,-0.0002980077115353
1770451533044,-0.1269683837890625,-0.157562255859375,-0.9787445068359376,-0.0113669037818908,0.0026394589804112,0.0041060615330934
1770451533054,-0.1264495849609375,-0.1602020263671875,-0.9846343994140624,-0.0107290772721171,-0.0186099037528038,0.0051564122550189
1770451533064,-0.1251220703125,-0.1578826904296875,-0.9853363037109376,-0.0043782368302345,-0.0161179825663566,0.0070445938035845
1770451533074,-0.1235198974609375,-0.1595916748046875,-0.98333740234375,-0.0012349077733233,-0.0187728889286518,0.0092978943139314
1770451533084,-0.123870849609375,-0.165618896484375,-0.9798431396484376,0.0071676317602396,-0.0151310162618756,0.0104811368510127
1770451533094,-0.1242828369140625,-0.1609039306640625,-0.9817962646484376,0.0137682761996984,-0.0173321180045604,0.0058403122238814
1770451533104,-0.12451171875,-0.1617584228515625,-0.9798736572265624,0.0110742226243019,-0.0140678817406296,0.0091764545068144
1770451533114,-0.123046875,-0.1630859375,-0.9730072021484376,0.0179667491465806,-0.0035470642615109,0.0088187912479043
1770451533124,-0.12738037109375,-0.1608734130859375,-0.979095458984375,0.027039872482419,-0.0131488246843218,0.0082012042403221
1770451533134,-0.1292877197265625,-0.15936279296875,-0.9798583984375,0.0272531919181346,-0.0221875943243503,0.0111325457692146
1770451533144,-0.12615966796875,-0.157989501953125,-0.97161865234375,0.0177209395915269,-0.016490826383233,0.0069404640235006
1770451533154,-0.1273193359375,-0.1597137451171875,-0.96539306640625,0.0066160908900201,-0.0184892620891332,0.0034868768416345
1770451533164,-0.1303558349609375,-0.1610260009765625,-0.9635162353515624,-0.0086685894057154,-0.0068872007541358,0.0053843790665268
1770451533174,-0.126861572265625,-0.1632080078125,-0.9628448486328124,-0.0225188918411731,0.0034639735240489,0.002265284769237
1770451533184,-0.1264801025390625,-0.1633758544921875,-0.9681243896484376,-0.0313249006867408,0.0081503381952643,0.0050227218307554
1770451533194,-0.1245574951171875,-0.1670989990234375,-0.972259521484375,-0.034325748682022,0.0135267274454236,0.0101093593984842
1770451533205,-0.1243133544921875,-0.16693115234375,-0.97796630859375,-0.0324295796453952,0.0001608549355296,0.0123759759590029
1770451533214,-0.124908447265625,-0.166900634765625,-0.9843292236328124,-0.0249338448047637,-0.0083410209044814,0.0164945535361766
1770451533224,-0.127166748046875,-0.163970947265625,-0.9862213134765624,-0.0180242732167243,-0.0093788541853427,0.0153155727311968
1770451533234,-0.125579833984375,-0.163665771484375,-0.9842529296875,-0.0136244660243391,-0.0008213188848458,0.0120113892480731
1770451533244,-0.12664794921875,-0.1608734130859375,-0.9849853515625,-0.0021001687273383,-0.0034210965968668,0.0112294852733612
1770451533254,-0.1297760009765625,-0.1607208251953125,-0.98876953125,0.0094499606639146,-0.0127083379775285,0.0030911311041563
1770451533265,-0.13446044921875,-0.1564178466796875,-0.9886016845703124,0.0081530008465051,-0.0186024457216262,0.0025031049735844
1770451533275,-0.130828857421875,-0.160980224609375,-0.97723388671875,0.0104467822238802,-0.00365572120063,0.0063473782502114
1770451533285,-0.1261138916015625,-0.170074462890625,-0.9784393310546876,0.0149906668812036,0.0006910903030075,0.0078520644456148
1770451533295,-0.127349853515625,-0.1681671142578125,-0.97967529296875,0.0124699855223298,-0.0081122545525431,0.0077114491723477
1770451533305,-0.128936767578125,-0.1646575927734375,-0.970733642578125,0.0046727824956178,-0.0057074204087257,0.0064706825651228
1770451533315,-0.1280975341796875,-0.16229248046875,-0.9676666259765624,-0.0020748688839375,-0.0053582801483571,0.008231564424932
1770451533325,-0.1279754638671875,-0.164215087890625,-0.9683380126953124,-0.0099413143470883,-0.004440554883331,0.0031891353428363
1770451533335,-0.1340484619140625,-0.1586456298828125,-0.9650421142578124,-0.0197401493787765,0.0030655646696686,-0.0006103964988142
1770451533345,-0.1302337646484375,-0.1577606201171875,-0.965850830078125,-0.0271591823548078,0.0043747746385633,0.0024674187880009
1770451533355,-0.1280517578125,-0.1591796875,-0.9701690673828124,-0.0268614422529935,1.4381069377122913e-05,0.0009779128013178
1770451533365,-0.129150390625,-0.160400390625,-0.9749908447265624,-0.0310748293995857,-0.0088803106918931,0.0047358991578221
1770451533375,-0.126922607421875,-0.1617584228515625,-0.97314453125,-0.0347257554531097,0.0104025732725858,0.00574736809358
1770451533385,-0.1246185302734375,-0.1587677001953125,-0.9719085693359376,-0.0300825349986553,0.0280372276902198,0.0077950726263225
1770451533395,-0.1243896484375,-0.1635284423828125,-0.981597900390625,-0.0134825194254517,0.0096651446074247,0.008592689409852
1770451533405,-0.1298370361328125,-0.1619415283203125,-0.9947662353515624,0.0021582257468253,-0.0144998468458652,0.0082688489928841
1770451533415,-0.132293701171875,-0.1599273681640625,-0.9916229248046876,0.0129533493891358,-0.0179872568696737,0.0067910607904195
1770451533425,-0.1298675537109375,-0.1631011962890625,-0.984588623046875,0.0169808473438024,-0.0096172075718641,0.0054144728928804
1770451533435,-0.1265106201171875,-0.1623382568359375,-0.97802734375,0.0203079339116811,0.0081215761601924,0.0009235842735506
1770451533445,-0.12921142578125,-0.16204833984375,-0.97833251953125,0.0203188546001911,-0.0028437233995646,-0.000695351336617
1770451533455,-0.1296539306640625,-0.1619720458984375,-0.9755859375,0.0157326236367225,-0.0086869653314352,0.0001592570333741
1770451533465,-0.1302490234375,-0.1600799560546875,-0.971588134765625,0.0117629161104559,-0.008838765323162,-0.0011012171162292
1770451533476,-0.1270904541015625,-0.1615447998046875,-0.9727325439453124,0.0091921668499708,-0.0030754182953387,0.0004167847218923
1770451533486,-0.1276092529296875,-0.1631011962890625,-0.9680023193359376,0.0021275994367897,0.0033678335603326,-0.0009672601008787
1770451533496,-0.1285247802734375,-0.1597900390625,-0.9665374755859376,-0.0076800240203738,-0.0040280311368405,0.002478603972122
1770451533506,-0.12646484375,-0.1601104736328125,-0.9675445556640624,-0.017190171405673,-0.0054091466590762,0.0051271175034344
1770451533516,-0.1274871826171875,-0.1625518798828125,-0.9666595458984376,-0.0299416538327932,-0.0100116217508912,0.0058235344476997
1770451533526,-0.1305999755859375,-0.1623077392578125,-0.9652252197265624,-0.0352922119200229,-0.0063524381257593,0.0033870083279907
1770451533536,-0.1295166015625,-0.1565399169921875,-0.9699859619140624,-0.0420795418322086,0.009851299226284,0.0033087113406509
1770451533546,-0.12945556640625,-0.1557769775390625,-0.976898193359375,-0.0346722267568111,0.0040432112291455,0.0009480853332206
1770451533556,-0.1302337646484375,-0.161834716796875,-0.9893798828125,-0.0267703607678413,-0.0182306692004203,0.006009423173964
1770451533566,-0.1303253173828125,-0.1702423095703125,-0.9888153076171876,-0.0196578577160835,-0.0266007184982299,0.0114657077938318
1770451533576,-0.1290740966796875,-0.1653900146484375,-0.984375,-0.0206456240266561,-0.0159930810332298,0.0091833779588341
1770451533586,-0.130828857421875,-0.16302490234375,-0.98187255859375,-0.0249737929552793,0.0034123081713914,0.0051239216700196
1770451533596,-0.1295318603515625,-0.156219482421875,-0.97576904296875,-0.0254417099058628,0.027697941288352,-0.0113051189109683
1770451533606,-0.136566162109375,-0.14703369140625,-0.9720458984375,-0.0254419762641191,0.0282127298414707,-0.0212445687502622
1770451533616,-0.13616943359375,-0.1576690673828125,-0.98211669921875,-0.0212980974465608,0.0135168740525841,-0.0220962464809417
1770451533626,-0.1352996826171875,-0.168060302734375,-0.9856109619140624,-0.0237117204815149,-0.0073985275812447,-0.0154250292107462
1770451533636,-0.1305389404296875,-0.1699981689453125,-0.9847564697265624,-0.0217271335422992,-0.0105248121544718,-0.0013574132462963
1770451533646,-0.1241912841796875,-0.1689453125,-0.9838714599609376,-0.0167712569236755,-0.0049018142744898,0.0016338493442162
1770451533656,-0.1224822998046875,-0.159515380859375,-0.98419189453125,-0.0109349396079778,0.0089833745732903,0.00154543237295
1770451533666,-0.1219329833984375,-0.1536102294921875,-0.9799041748046876,-0.0032732912804931,0.0289685353636741,-0.0088166613131761
1770451533677,-0.1266021728515625,-0.1528167724609375,-0.98211669921875,0.0076267607510089,0.0258710123598575,-0.0175526291131973
1770451533688,-0.1285247802734375,-0.1582183837890625,-0.985931396484375,0.0126132639124989,0.0187896657735109,-0.017158480361104
1770451533697,-0.130279541015625,-0.15673828125,-0.9820098876953124,0.0122809009626507,0.011102451942861,-0.011241203173995
1770451533707,-0.129241943359375,-0.15972900390625,-0.9788360595703124,0.0065135592594742,0.0132108768448233,-0.0014218616997823
1770451533717,-0.1268463134765625,-0.1622467041015625,-0.973114013671875,-0.0002189118386013,0.0252598170191049,0.0034533210564404
1770451533727,-0.124664306640625,-0.165771484375,-0.9773406982421876,-0.0011190603254362,0.0191744938492774,0.0063132895156741
1770451533737,-0.1264190673828125,-0.16546630859375,-0.9814605712890624,-0.0050754523836076,0.0138942440971732,0.0052267201244831
1770451533747,-0.131591796875,-0.15826416015625,-0.9799957275390624,-0.0064624268561601,0.0166026782244443,-0.0014301175251603
1770451533757,-0.1338653564453125,-0.1561431884765625,-0.978363037109375,-0.0068589714355766,0.0054991613142192,-0.0058363173156976
1770451533767,-0.135284423828125,-0.1568603515625,-0.9799346923828124,-0.0032882050145417,0.0012066783383488,-0.0100688794627785
1770451533777,-0.1379852294921875,-0.154296875,-0.9794158935546876,-0.0014900385867804,-0.0004559331864584,-0.0099407816305756
1770451533787,-0.130584716796875,-0.1597900390625,-0.9767608642578124,0.0002279665932292,-0.0012953615514561,-0.0086712520569562
1770451533797,-0.1290740966796875,-0.16156005859375,-0.9731597900390624,-0.0038152446504682,-0.0003190466959495,-0.0091295829042792
1770451533807,-0.1273651123046875,-0.161895751953125,-0.969085693359375,-0.0130249885842204,0.0105796735733747,-0.0091676656156778
1770451533817,-0.126739501953125,-0.1612396240234375,-0.9639434814453124,-0.0201097950339317,0.0233005285263061,-0.0132409706711769
1770451533827,-0.1287689208984375,-0.1607818603515625,-0.9672393798828124,-0.0209433641284704,0.0297664180397987,-0.0142838647589087
1770451533837,-0.130035400390625,-0.160552978515625,-0.97357177734375,-0.0214810576289892,0.0259184166789054,-0.0175925754010677
1770451533847,-0.1305389404296875,-0.1590728759765625,-0.9774932861328124,-0.0209236573427915,0.0241109281778335,-0.0150247560814023
1770451533857,-0.1271820068359375,-0.1602020263671875,-0.9784393310546876,-0.0209835786372423,0.0238755047321319,-0.0137432422488927
1770451533867,-0.12664794921875,-0.1582183837890625,-0.9809417724609376,-0.0145429903641343,0.0187262836843729,-0.0121008716523647
1770451533877,-0.127105712890625,-0.1559295654296875,-0.9859771728515624,-0.0077793598175048,0.0077476683072745,-0.0102965794503688
1770451533888,-0.1278839111328125,-0.1564483642578125,-0.9871673583984376,-0.00042663840577,-0.0018975022248923,-0.0092915026471018
1770451533897,-0.1250762939453125,-0.1597137451171875,-0.984649658203125,0.0033459956757724,0.0006466155173256,-0.0086494144052267
1770451533908,-0.12548828125,-0.1555328369140625,-0.9861602783203124,0.0102915195748209,-0.0011965582380071,-0.0101343933492898
1770451533919,-0.1272735595703125,-0.156829833984375,-0.989715576171875,0.0123844975605607,-0.0072046495042741,-0.0052309809252619
1770451533927,-0.1216888427734375,-0.1636199951171875,-0.982147216796875,0.0083940178155899,0.0011781824287027,-0.0003299656673334
1770451533937,-0.117431640625,-0.1633148193359375,-0.974609375,0.0065127601847052,0.0001973402395378,-0.002265284769237
1770451533948,-0.1261444091796875,-0.159942626953125,-0.972015380859375,-6.125270738266408e-05,0.0016354472609236,-0.0009174589649774
1770451533958,-0.123443603515625,-0.1608428955078125,-0.96820068359375,-0.0079761678352952,0.0122047346085309,0.0014096111990511
1770451533968,-0.124755859375,-0.1558990478515625,-0.9687042236328124,-0.0125610651448369,0.0205705221742391,-0.0033095101825892
1770451533978,-0.1292877197265625,-0.1543121337890625,-0.9710845947265624,-0.0161677841097116,0.0179209429770708,-0.006541256327182
1770451533988,-0.1294708251953125,-0.15447998046875,-0.9728546142578124,-0.0171089451760053,0.0067646955139935,-0.007637146860361
1770451533998,-0.129638671875,-0.153961181640625,-0.977569580078125,-0.0191241595894098,0.0046501457691192,-0.0058645470999181
1770451534008,-0.127838134765625,-0.1551361083984375,-0.9736785888671876,-0.023072563111782,0.0199614576995372,-0.0055774580687284
1770451534018,-0.12347412109375,-0.1598663330078125,-0.972076416015625,-0.0214062221348285,0.0375883877277374,-0.0047092675231397
1770451534028,-0.122802734375,-0.162841796875,-0.978546142578125,-0.0146886650472879,0.0337041690945625,-0.0023126890882849
1770451534038,-0.1235809326171875,-0.1635589599609375,-0.982025146484375,-0.0095524927601218,0.0237135849893093,-0.0013688647886738
1770451534048,-0.1242218017578125,-0.1630859375,-0.98504638671875,-0.0047814394347369,0.0152146387845277,-0.0046837013214826
1770451534058,-0.1288299560546875,-0.1600799560546875,-0.984130859375,-0.0006692523602396,0.005788114387542,-0.0025427863001823
1770451534068,-0.127471923828125,-0.15814208984375,-0.9837493896484376,-0.0033750240691006,0.0023350596893578,-0.0012753878254443
1770451534078,-0.1274261474609375,-0.157989501953125,-0.9760284423828124,-0.0070896008983254,-0.0003073287953156,-2.370213405811228e-05
1770451534088,-0.1267547607421875,-0.156341552734375,-0.9759979248046876,-0.0090193273499608,0.005257346201688,-0.0022772690281271
1770451534098,-0.126495361328125,-0.1568603515625,-0.974822998046875,-0.0187268164008855,0.0088997520506381,0.0012287824647501
1770451534108,-0.1219024658203125,-0.158782958984375,-0.9664764404296876,-0.025326395407319,0.0222102310508489,-0.000997353810817
1770451534118,-0.1266021728515625,-0.15435791015625,-0.9684600830078124,-0.0305733550339937,0.0288500245660543,-0.0049574743025004
1770451534129,-0.1270904541015625,-0.156219482421875,-0.9723052978515624,-0.0299278050661087,0.0288372412323951,-0.0040069920942187
1770451534139,-0.1240692138671875,-0.1589813232421875,-0.9746856689453124,-0.0276854243129491,0.0323345027863979,-0.003198190126568
1770451534149,-0.127197265625,-0.1558074951171875,-0.97723388671875,-0.0231463313102722,0.0213188715279102,-0.0037065874785184
1770451534159,-0.127685546875,-0.155731201171875,-0.9808807373046876,-0.0194386783987283,0.0095932390540838,-0.0061953114345669
1770451534169,-0.1258392333984375,-0.155059814453125,-0.9798431396484376,-0.0188423972576856,0.0058504324406385,-0.0063308663666248
1770451534179,-0.1249847412109375,-0.1553955078125,-0.975616455078125,-0.0186969880014657,0.0207324419170618,-0.006901049055159
1770451534189,-0.12554931640625,-0.155731201171875,-0.9759979248046876,-0.0171765908598899,0.0219308659434318,-0.0094638094305992
1770451534199,-0.122314453125,-0.15899658203125,-0.978546142578125,-0.0189774185419082,0.0169899016618728,-0.0084661887958645
1770451534209,-0.12188720703125,-0.1599884033203125,-0.9796142578125,-0.0133126098662614,0.0065425876528024,-0.0117120500653982
1770451534219,-0.1270751953125,-0.15826416015625,-0.983062744140625,-0.0143933203071355,0.0050826431252062,-0.014968829229474
1770451534229,-0.125732421875,-0.159332275390625,-0.9806671142578124,-0.0190434660762548,0.0122593296691775,-0.0165720526129007
1770451534239,-0.1218109130859375,-0.1577301025390625,-0.97430419921875,-0.0269682351499795,0.0199388209730386,-0.0168261174112558
1770451534249,-0.121734619140625,-0.1558074951171875,-0.9725494384765624,-0.0288138054311275,0.0205614678561687,-0.016243951395154
1770451534259,-0.1204071044921875,-0.157073974609375,-0.9794158935546876,-0.0272321533411741,0.0138159468770027,-0.0108007164672017
1770451534269,-0.119171142578125,-0.15618896484375,-0.982666015625,-0.0266760848462581,0.008822520263493,-0.0107698235660791
1770451534279,-0.120941162109375,-0.153900146484375,-0.9803009033203124,-0.0245077405124902,0.0053670685738325,-0.0085359634831547
1770451534289,-0.119964599609375,-0.1527252197265625,-0.9802703857421876,-0.0207249857485294,0.0095373122021555,-0.0062909191474318
1770451534299,-0.1175994873046875,-0.1572113037109375,-0.9804840087890624,-0.0189910009503364,0.0097700729966163,-0.0042085936293005
1770451534309,-0.118682861328125,-0.1559906005859375,-0.979766845703125,-0.0105993812903761,0.0073292856104671,-0.0006295712664723
1770451534320,-0.119384765625,-0.1561126708984375,-0.98394775390625,-0.0039870184846222,0.0030154972337186,0.0022703448776155
1770451534330,-0.11798095703125,-0.152984619140625,-0.982513427734375,-0.0007009439868852,0.009280583821237,0.0017454357584938
1770451534340,-0.118621826171875,-0.1540374755859375,-0.9770050048828124,-0.00291243288666,0.0194232333451509,0.0005470133037306
1770451534350,-0.1207733154296875,-0.156524658203125,-0.971710205078125,-0.0060871872119605,0.0184008441865444,-0.0020988371688872
1770451534360,-0.125091552734375,-0.1559906005859375,-0.9727783203125,-0.0128345722332596,0.023510918021202,-0.001570466090925
1770451534370,-0.1219329833984375,-0.1537017822265625,-0.9694061279296876,-0.0243780445307493,0.0280390921980142,-0.005690642632544
1770451534380,-0.12176513671875,-0.15338134765625,-0.970977783203125,-0.029633792117238,0.027356257662177,-0.00299286050722
1770451534390,-0.119659423828125,-0.1598663330078125,-0.9779815673828124,-0.02491813339293,0.0167784467339515,0.0075500616803765
1770451534400,-0.116546630859375,-0.1648712158203125,-0.9884033203125,-0.0170708615332841,0.0089586079120635,0.0120079265907406
1770451534410,-0.119110107421875,-0.15576171875,-0.985076904296875,-0.0149395344778895,0.0136420428752899,0.0140242064371705
1770451534420,-0.116424560546875,-0.1584625244140625,-0.9835052490234376,-0.00099042954389,0.0139270005747675,0.0091029508039355
1770451534430,-0.121612548828125,-0.1384124755859375,-0.9843597412109376,0.0144601659849286,0.0292178057134151,-0.0148931955918669
1770451534440,-0.12628173828125,-0.1424407958984375,-0.9832000732421876,0.0170133374631404,0.0045611960813403,-0.0119775673374533
1770451534450,-0.1179046630859375,-0.1658935546875,-0.984130859375,0.0201002079993486,-0.0057857176288962,-0.0078952070325613
1770451534460,-0.1185150146484375,-0.1613922119140625,-0.9826202392578124,0.0135022262111306,0.0004087952256668,-0.0058000986464321
1770451534470,-0.1201019287109375,-0.156982421875,-0.97637939453125,0.0123378923162817,0.0073881414718925,-0.000638626050204
1770451534480,-0.1131591796875,-0.160125732421875,-0.978363037109375,0.0157201066613197,0.0059971725568175,0.0020857877098023
1770451534490,-0.112152099609375,-0.1554718017578125,-0.9753570556640624,0.014314224012196,0.0132068824023008,-0.007996673695743
1770451534500,-0.119354248046875,-0.143768310546875,-0.970184326171875,0.0063708140514791,0.0211873110383749,-0.0191129744052886
1770451534510,-0.1205596923828125,-0.1457672119140625,-0.967864990234375,-0.0030368026345968,0.0161818992346525,-0.0232696365565061
1770451534520,-0.1222076416015625,-0.149993896484375,-0.96697998046875,-0.0175393130630254,0.0113874105736613,-0.0208168644458055
1770451534530,-0.1240234375,-0.15374755859375,-0.9653778076171876,-0.0319914892315864,0.0217851903289556,-0.0104837995022535
1770451534540,-0.116485595703125,-0.1590118408203125,-0.966827392578125,-0.0417256094515323,0.0270316172391176,0.0025427863001823
1770451534551,-0.1115570068359375,-0.1638946533203125,-0.97271728515625,-0.047729704529047,0.0298660192638635,0.0057700048200786
1770451534561,-0.113525390625,-0.1590118408203125,-0.97857666015625,-0.0486783236265182,0.0405871085822582,0.0066347331739962
1770451534571,-0.1164398193359375,-0.153900146484375,-0.9801483154296876,-0.0387780219316482,0.0480125322937965,0.0030056436080485
1770451534581,-0.12091064453125,-0.15350341796875,-0.9923858642578124,-0.0166745837777853,0.0304551105946302,-0.0055953012779355
1770451534591,-0.127716064453125,-0.1516876220703125,-1.0013580322265625,0.0070669641718268,-0.0003547330561559,-0.0074999942444264
1770451534601,-0.1281280517578125,-0.150421142578125,-0.9973602294921876,0.0258007049560546,-0.0143451169133186,-0.0120396185666322
1770451534611,-0.123321533203125,-0.1524658203125,-0.9903106689453124,0.0371742658317089,-0.0183084327727556,-0.0154663082212209
1770451534621,-0.1231842041015625,-0.1548614501953125,-0.98651123046875,0.0433493368327617,-0.0253908447921276,-0.0177883189171552
1770451534631,-0.1240386962890625,-0.153289794921875,-0.9772491455078124,0.0365654677152633,-0.0319954827427864,-0.0208102073520421
1770451534641,-0.1213836669921875,-0.15386962890625,-0.9681854248046876,0.0228786841034889,-0.0184280090034008,-0.0225894656032323
1770451534654,-0.1194915771484375,-0.154510498046875,-0.965667724609375,0.0080344909802079,-0.0018189389957115,-0.0199856925755739
1770451534661,-0.1152801513671875,-0.15997314453125,-0.9601287841796876,-0.0103202816098928,0.008771919645369,-0.0142929190769791
1770451534671,-0.1143341064453125,-0.1575469970703125,-0.9562225341796876,-0.0301352646201849,0.0183398593217134,-0.0105538405478
1770451534681,-0.1147308349609375,-0.1564788818359375,-0.9616546630859376,-0.044351752847433,0.0185577049851417,-0.0057516288943588
1770451534691,-0.115234375,-0.1563568115234375,-0.9696807861328124,-0.0554539375007152,0.0193321518599987,-0.0044267061166465
1770451534701,-0.1185455322265625,-0.1520843505859375,-0.969696044921875,-0.0583551861345768,0.0253921747207641,-0.0048434911295771
1770451534711,-0.121307373046875,-0.146331787109375,-0.9804229736328124,-0.0580374710261821,0.0167528819292783,-0.0108558433130383
1770451534721,-0.1246490478515625,-0.15234375,-0.9871063232421876,-0.0550360865890979,0.0077703050337731,-0.0117448065429925
1770451534731,-0.12225341796875,-0.151947021484375,-0.986419677734375,-0.0436577312648296,0.0104355970397591,-0.0128982216119766
1770451534741,-0.1183319091796875,-0.153106689453125,-0.99017333984375,-0.0329097472131252,0.009130647405982,-0.0062208781018853
1770451534752,-0.1123199462890625,-0.16058349609375,-0.9902191162109376,-0.0235077235847711,0.0098616853356361,-0.0049114017747342
1770451534762,-0.110992431640625,-0.1551666259765625,-0.9875030517578124,-0.0161161199212074,0.0121051324531435,-0.0035886096302419
1770451534772,-0.1120758056640625,-0.15399169921875,-0.98577880859375,-0.0097327884286642,0.0180469118058681,-0.0049625341780483
1770451534782,-0.11456298828125,-0.1530914306640625,-0.9835968017578124,0.0016061523929238,0.0135648110881447,-0.0079194419085979
1770451534792,-0.11712646484375,-0.1496124267578125,-0.9869232177734376,0.0053492253646254,0.0027177559677511,-0.010645986534655
1770451534802,-0.12066650390625,-0.147705078125,-0.9837646484375,0.0096126794815063,0.0062067629769444,-0.0114217652007937
1770451534812,-0.116546630859375,-0.150634765625,-0.979217529296875,0.0088121332228183,0.0094952341169118,-0.0083444826304912
1770451534822,-0.11419677734375,-0.1548004150390625,-0.977630615234375,0.0068728197365999,0.0077434070408344,-0.0045087318867444
1770451534832,-0.1169891357421875,-0.1546478271484375,-0.9775543212890624,-0.0017219999572262,-0.0022578279022127,-0.0025928535033017
1770451534842,-0.1150054931640625,-0.1562042236328125,-0.9732666015625,-0.0089354384690523,-0.0062150191515684,-0.0014317154418677
1770451534852,-0.11578369140625,-0.1554107666015625,-0.97381591796875,-0.0157259665429592,0.0037207023706287,0.0016362462192773
1770451534862,-0.1141815185546875,-0.1530609130859375,-0.9753875732421876,-0.0179294664412736,0.0135427070781588,0.0032155006192624
1770451534872,-0.11407470703125,-0.153350830078125,-0.9783172607421876,-0.0105772772803902,0.0125674568116664,0.000492152175866
1770451534882,-0.1169891357421875,-0.1515655517578125,-0.99139404296875,-0.0019140138756483,0.001807753695175,0.0012860405258834
1770451534892,-0.115997314453125,-0.1521148681640625,-0.9870758056640624,0.000867391587235,0.0079769659787416,0.0011033476330339
1770451534902,-0.11431884765625,-0.1543426513671875,-0.97900390625,0.0025451830588281,0.0155749646946787,-0.0001041295981849
1770451534912,-0.1167755126953125,-0.1549530029296875,-0.976470947265625,-0.0013286510948091,0.0113173695281147,0.0018594190478324
1770451534922,-0.1201019287109375,-0.153228759765625,-0.975372314453125,-0.0022429141681641,0.001929193851538,0.0009693906176835
1770451534932,-0.1200103759765625,-0.149383544921875,-0.9781341552734376,-0.0076251626014709,-0.0019619506783783,-0.0023214775137603
1770451534942,-0.1226654052734375,-0.1482696533203125,-0.9748077392578124,-0.0103647569194436,-0.0022695458028465,-0.0061271348968148
1770451534953,-0.12030029296875,-0.1531982421875,-0.9760284423828124,-0.0130058135837316,-0.0018000305863097,-0.00464508542791
1770451534962,-0.1190338134765625,-0.15234375,-0.9731597900390624,-0.0201734453439712,0.0013872405979782,-0.0031222901307046
1770451534972,-0.1209564208984375,-0.14862060546875,-0.97052001953125,-0.0244094692170619,0.0057119480334222,-0.0044315000995993
1770451534983,-0.119781494140625,-0.1519927978515625,-0.97503662109375,-0.0217638853937387,0.0086906934157013,-0.0034876756835728
1770451534993,-0.1171112060546875,-0.1541900634765625,-0.97845458984375,-0.0220658872276544,0.0157696418464183,-0.0017204020405188
1770451535003,-0.1166534423828125,-0.1527099609375,-0.9781646728515624,-0.0152527224272489,0.0202754437923431,-0.0038314899429678
1770451535013,-0.11566162109375,-0.1543121337890625,-0.98284912109375,-0.0073471288196742,0.0104632936418056,-0.0048136636614799
1770451535023,-0.116058349609375,-0.154754638671875,-0.9859771728515624,-0.0044863610528409,0.0007749798824079,-0.0058469702489674
1770451535033,-0.119964599609375,-0.1511688232421875,-0.9813232421875,-0.0065713501535356,-0.008665126748383,-0.0057287258096039
1770451535043,-0.1211700439453125,-0.1498870849609375,-0.9738922119140624,-0.0087000150233507,-0.007979629561305,-0.0072600431740283
1770451535053,-0.1182098388671875,-0.151885986328125,-0.9788055419921876,-0.0067519121803343,-0.0076576531864702,-0.0083689838647842
1770451535063,-0.11956787109375,-0.15087890625,-0.9791259765625,-0.0070062442682683,-0.0130383037030696,-0.0108640994876623
1770451535073,-0.119110107421875,-0.1507568359375,-0.9839630126953124,-0.0040312269702553,-0.0157366190105676,-0.0128683941438794
1770451535083,-0.1222076416015625,-0.1484832763671875,-0.9838714599609376,-0.0029044435359537,-0.009483516216278,-0.0166708547621965
1770451535093,-0.119659423828125,-0.151611328125,-0.979217529296875,0.0056871804408729,-0.0056174057535827,-0.0175161436200141
1770451535103,-0.1162567138671875,-0.1543731689453125,-0.9868621826171876,0.005975600797683,0.0010887002572417,-0.0190376061946153
1770451535113,-0.117828369140625,-0.1537322998046875,-0.9781494140625,0.0023409186396747,0.0093972301110625,-0.0161097273230552
1770451535123,-0.1138763427734375,-0.1573944091796875,-0.9728546142578124,-0.0028668928425759,0.0080832261592149,-0.0112803513184189
1770451535133,-0.111541748046875,-0.155059814453125,-0.972930908203125,-0.0131693314760923,0.0065324679017066,-0.0064882594160735
1770451535143,-0.110992431640625,-0.1483612060546875,-0.967193603515625,-0.0246669966727495,0.0161749757826328,-0.0054629421792924
1770451535153,-0.1160736083984375,-0.1475982666015625,-0.96435546875,-0.0323145315051078,0.0186663623899221,-0.0083564668893814
1770451535163,-0.1173248291015625,-0.1472015380859375,-0.9710540771484376,-0.0323560759425163,0.0143855968490242,-0.0078954733908176
1770451535173,-0.1190948486328125,-0.1471710205078125,-0.975921630859375,-0.0314953401684761,0.0074137076735496,-0.007054447196424
1770451535185,-0.1201019287109375,-0.146942138671875,-0.980072021484375,-0.0272606499493122,0.0062541672959923,-0.00739187002182
1770451535194,-0.1139678955078125,-0.1496429443359375,-0.9853363037109376,-0.0230445992201566,-0.0013635384384542,-0.0028871328104287
1770451535204,-0.11346435546875,-0.15325927734375,-0.987457275390625,-0.0202109962701797,-0.0053012883290648,0.0030112362001091
1770451535214,-0.1133880615234375,-0.157989501953125,-0.9849395751953124,-0.0147539125755429,-0.0121701136231422,0.0119578596204519
1770451535224,-0.1107330322265625,-0.157470703125,-0.9885406494140624,-0.0088161285966634,-0.0144718838855624,0.0113655729219317
1770451535234,-0.11822509765625,-0.1480560302734375,-0.988067626953125,-0.003975034225732,-0.0127538787201046,0.0067684240639209
1770451535244,-0.1177215576171875,-0.1432952880859375,-0.98480224609375,0.0105751464143395,-0.0025385250337421,-0.0122809009626507
1770451535254,-0.1249847412109375,-0.1301727294921875,-0.9793548583984376,0.01517921872437,0.0020708739757537,-0.0225969217717647
1770451535264,-0.122711181640625,-0.14874267578125,-0.9793853759765624,0.0188176296651363,-0.0157097205519676,-0.0125552061945199
1770451535274,-0.1166534423828125,-0.1645965576171875,-0.9850311279296876,0.0225284788757562,-0.0221564341336488,-0.0063100936822593
1770451535286,-0.117889404296875,-0.155242919921875,-0.983551025390625,0.0185776781290769,-0.0205116663128137,0.0001438106992281
1770451535294,-0.1103363037109375,-0.1517333984375,-0.9779510498046876,0.0158151816576719,-0.0093756588175892,0.0045026065781712
1770451535304,-0.1065673828125,-0.1514434814453125,-0.9762420654296876,0.0158245023339986,-0.0004095941840205,-0.0022477079182863
1770451535314,-0.11163330078125,-0.1446990966796875,-0.97137451171875,0.0014056164072826,0.0196954067796468,-0.0096430396661162
1770451535324,-0.1169586181640625,-0.133819580078125,-0.9614105224609376,-0.0120769031345844,0.0296905171126127,-0.0169824454933404
1770451535334,-0.1201324462890625,-0.1395416259765625,-0.9674072265625,-0.0249703302979469,0.0174650102853775,-0.0157065242528915
1770451535344,-0.1190948486328125,-0.1488800048828125,-0.9718017578125,-0.034600056707859,0.0111786182969808,-0.0046666571870446
1770451535354,-0.113525390625,-0.155364990234375,-0.9752655029296876,-0.0412129499018192,0.0096949711441993,0.00304292794317
1770451535364,-0.1135101318359375,-0.1553497314453125,-0.9802093505859376,-0.0443932972848415,0.0110752880573272,0.0091399690136313
1770451535374,-0.11199951171875,-0.1551513671875,-0.9830780029296876,-0.0431346856057643,0.0180098935961723,0.0119975404813885
1770451535386,-0.1129913330078125,-0.1533355712890625,-0.9884185791015624,-0.0330461002886295,0.0249365083873271,0.0051939631812274
1770451535395,-0.117401123046875,-0.15191650390625,-0.9915771484375,-0.0155637795105576,0.0215577557682991,0.0051622712053358
1770451535405,-0.1181182861328125,-0.150604248046875,-0.9930419921875,0.0048030111938714,0.0087527455762028,0.0053492253646254
1770451535415,-0.1205902099609375,-0.1500244140625,-0.9960784912109376,0.0168639346957206,-0.0028114991728216,0.0021478394046425
1770451535425,-0.1218109130859375,-0.1488800048828125,-0.986236572265625,0.0196850206702947,0.0049151298590004,-0.001627724035643
1770451535434,-0.119598388671875,-0.149017333984375,-0.972930908203125,0.0135815888643264,0.0146276783198118,-0.0067852018401026
1770451535445,-0.1199798583984375,-0.149078369140625,-0.9681396484375,0.0039585228078067,0.0050962250679731,-0.0129192611202597
1770451535455,-0.1240692138671875,-0.1472320556640625,-0.9686126708984376,-0.0032029838766902,-0.0061303302645683,-0.0159214418381452
1770451535465,-0.1229095458984375,-0.1495513916015625,-0.9706878662109376,-0.0162532720714807,-0.0111202951520681,-0.0174112152308225
1770451535475,-0.1182861328125,-0.148895263671875,-0.967193603515625,-0.0262795407325029,-0.0065188854932785,-0.0171630084514617
1770451535485,-0.116973876953125,-0.1498565673828125,-0.969329833984375,-0.0284055415540933,-0.0021750037558376,-0.0159435458481311
1770451535495,-0.117279052734375,-0.1487274169921875,-0.978363037109375,-0.0308077130466699,-0.004562793765217,-0.0108790127560496
1770451535505,-0.114898681640625,-0.1495361328125,-0.978668212890625,-0.0333459712564945,-0.0038200381677597,-0.0074243606068193
1770451535515,-0.11651611328125,-0.1488800048828125,-0.980133056640625,-0.0353425443172454,0.0036005936563014,-0.0087463539093732
1770451535525,-0.117706298828125,-0.1473541259765625,-0.9825897216796876,-0.031589351594448,0.0046442868188023,-0.0045540053397417
1770451535535,-0.1131591796875,-0.1475067138671875,-0.9892425537109376,-0.0275618527084589,0.0043111252598464,-0.0055151404812932
1770451535545,-0.115386962890625,-0.151153564453125,-0.9896240234375,-0.027465445920825,0.0060032978653907,0.0022628880105912
1770451535555,-0.1112213134765625,-0.15008544921875,-0.9882354736328124,-0.0137432422488927,0.0059361858293414,0.0017563547007739
1770451535565,-0.115447998046875,-0.1502227783203125,-0.9927520751953124,0.0017068199813365,0.0028724854346364,0.0042434809729456
1770451535575,-0.1134033203125,-0.1513671875,-0.9935302734375,0.0147688258439302,0.0014279870083555,-0.000311589858029
1770451535586,-0.115966796875,-0.1460113525390625,-0.994659423828125,0.0276729073375463,-0.0051473579369485,-0.0052030179649591
1770451535595,-0.119140625,-0.1457672119140625,-0.9928436279296876,0.0342229530215263,-0.0066922572441399,-0.0102553004398942
1770451535605,-0.1151123046875,-0.1490936279296875,-0.984588623046875,0.0414576940238475,-0.0040903491899371,-0.0086608659476041
1770451535615,-0.112884521484375,-0.150634765625,-0.9852142333984376,0.0432289615273475,-0.0137475039809942,-0.0048102014698088
1770451535625,-0.1127777099609375,-0.1520233154296875,-0.9821014404296876,0.0423695594072341,-0.0086725838482379,0.0033806166611611
1770451535636,-0.1093902587890625,-0.152252197265625,-0.97467041015625,0.035765454173088,-0.0059212720952928,0.0069686933420598
1770451535646,-0.108306884765625,-0.153106689453125,-0.9695281982421876,0.0210850443691015,-0.0052392366342246,0.0143525740131735
1770451535656,-0.110870361328125,-0.15289306640625,-0.9622802734375,0.0030740867368876,0.0081684477627277,0.0180469118058681
1770451535666,-0.1136627197265625,-0.1505889892578125,-0.96295166015625,-0.0076824207790195,0.0128481546416878,0.0177771318703889
1770451535676,-0.115966796875,-0.152252197265625,-0.9744415283203124,-0.0126026105135679,0.0025284050498157,0.0165171921253204
1770451535686,-0.1192474365234375,-0.1501312255859375,-0.9782562255859376,-0.018012024462223,-8.628641808172688e-05,0.0140023678541183
1770451535696,-0.1188812255859375,-0.14898681640625,-0.9752349853515624,-0.027841217815876,0.0084840320050716,0.0157494023442268
1770451535706,-0.11273193359375,-0.14794921875,-0.9680328369140624,-0.0317779034376144,0.0337952487170696,0.0113554522395133
1770451535716,-0.1160736083984375,-0.147308349609375,-0.9742584228515624,-0.0204378962516784,0.0262718182057142,0.0133885098621249
1770451535726,-0.1163330078125,-0.15350341796875,-0.991180419921875,-0.0127754500135779,0.0025449167005717,0.0170114748179912
1770451535736,-0.1132354736328125,-0.1554412841796875,-0.9857330322265624,-0.0151840131729841,0.0001664475712459,0.0209926329553127
1770451535746,-0.11273193359375,-0.1525726318359375,-0.9710845947265624,-0.0264523793011903,0.0036479979753494,0.0238896198570728
1770451535756,-0.1153106689453125,-0.1457366943359375,-0.9682769775390624,-0.0219873245805501,0.01555578969419,0.0194695722311735
1770451535766,-0.121978759765625,-0.14154052734375,-0.9798431396484376,-0.019058646634221,0.0044767735525965,0.0162926875054836
1770451535776,-0.119598388671875,-0.142547607421875,-0.9839630126953124,-0.0067172911949455,-0.0001043959127855,0.0130660012364387
1770451535786,-0.1211700439453125,-0.1483001708984375,-0.9888458251953124,0.0056392434053123,-0.0026029737200587,0.0094371773302555
1770451535796,-0.12139892578125,-0.155059814453125,-0.98681640625,0.0086451536044478,-0.0026839338243007,0.0107317399233579
1770451535806,-0.116973876953125,-0.1553955078125,-0.97900390625,0.0085801724344491,0.0015720640076324,0.008632636629045
1770451535816,-0.1190643310546875,-0.1521759033203125,-0.981781005859375,0.0072733592242002,-0.0054706656374037,0.0046922233887016
1770451535826,-0.12152099609375,-0.149749755859375,-0.9820709228515624,0.0007901599165052,-0.0011845740955322,0.0044685178436338
1770451535836,-0.11859130859375,-0.1496429443359375,-0.974395751953125,-0.0017558221006765,0.0003877562412526,0.0019643476698547
1770451535846,-0.1215972900390625,-0.146942138671875,-0.979644775390625,-0.0065710837952792,-0.0073926686309278,-0.0008594020619057
1770451535856,-0.1237640380859375,-0.14794921875,-0.975555419921875,-0.0106768794357776,-0.0044930190779268,0.0011595403775572
1770451535867,-0.1175994873046875,-0.1507110595703125,-0.9747467041015624,-0.0135837197303771,-0.0019201391842216,0.0014362427173182
1770451535877,-0.118438720703125,-0.152099609375,-0.978546142578125,-0.0156828220933675,-0.0001272990921279,-0.0020021644886583
1770451535887,-0.11834716796875,-0.1502227783203125,-0.975860595703125,-0.021689049899578,0.0134937046095728,0.0017001620726659
1770451535897,-0.1159515380859375,-0.149627685546875,-0.970123291015625,-0.0196831580251455,0.0237625874578952,0.0015595471486449
1770451535907,-0.116546630859375,-0.1507415771484375,-0.980194091796875,-0.0158663149923086,0.0149624375626444,-0.0003510046226438
1770451535917,-0.1194000244140625,-0.149139404296875,-0.985198974609375,-0.0164274424314498,0.0078909462317824,-0.0001973402395378
1770451535927,-0.1156463623046875,-0.1484832763671875,-0.9783172607421876,-0.0138313937932252,0.0094496943056583,0.0046362970024347
1770451535937,-0.110809326171875,-0.15106201171875,-0.9835968017578124,-0.0053660031408071,0.0003419498680159,0.0030048445332795
1770451535947,-0.117950439453125,-0.1481170654296875,-0.9897918701171876,0.0031947279348969,-0.0086563387885689,0.0016578177455812
1770451535957,-0.118621826171875,-0.147796630859375,-0.985748291015625,0.0108449244871735,0.0003326288133393,0.0032751555554568
1770451535967,-0.112823486328125,-0.1513824462890625,-0.9827117919921876,0.0164982825517654,0.0008506136364303,0.0028501150663942
1770451535977,-0.1212615966796875,-0.146728515625,-0.9830780029296876,0.017215471714735,-0.0066022425889968,0.0020785972010344
1770451535987,-0.122406005859375,-0.144775390625,-0.9788360595703124,0.0116406772285699,-0.0046698530204594,-0.0008349010022357
1770451535997,-0.1175079345703125,-0.148223876953125,-0.974822998046875,0.0091080106794834,-0.0039119170978665,0.000998419127427
1770451536007,-0.1178436279296875,-0.1500701904296875,-0.979522705078125,0.0062728095799684,0.0002575276885181,-0.0018266622209921
1770451536017,-0.119659423828125,-0.149383544921875,-0.977630615234375,0.0037915424909442,0.0030293457675725,0.0034314829390496
1770451536027,-0.1139984130859375,-0.1549072265625,-0.9787750244140624,-0.0027044401504099,-0.0043689156882464,0.0129229892045259
1770451536037,-0.11358642578125,-0.15985107421875,-0.97613525390625,-0.0097146788612008,-0.0040389499627053,0.0192141737788915
1770451536047,-0.1150054931640625,-0.1538238525390625,-0.979644775390625,-0.0145176900550723,0.0073085129261016,0.0171736609190702
1770451536058,-0.1146697998046875,-0.151123046875,-0.976531982421875,-0.011356784030795,0.0137802604585886,0.0123176528140902
1770451536068,-0.11907958984375,-0.138671875,-0.975189208984375,-0.0041745048947632,0.0261162891983985,-0.0078962724655866
1770451536078,-0.12933349609375,-0.134674072265625,-0.978271484375,-0.0010729875648394,0.0041137849912047,-0.0112212290987372
1770451536088,-0.12493896484375,-0.159210205078125,-0.985076904296875,0.002650377806276,-0.0148236872628331,-0.000868190487381
1770451536098,-0.1187896728515625,-0.159423828125,-0.9822540283203124,-0.007022222969681,-0.0147765493020415,-0.0032847428228706
1770451536108,-0.1213836669921875,-0.149505615234375,-0.9756622314453124,-0.0092776538804173,-0.0042882221750915,-2.7164242055732757e-05
1770451536119,-0.1117401123046875,-0.14959716796875,-0.9764404296875,-0.0143507095053792,0.0061772023327648,0.002290318487212
1770451536128,-0.10821533203125,-0.1516876220703125,-0.9712982177734376,-0.0239258389919996,0.019808592274785,0.0007017429452389
1770451536138,-0.1099853515625,-0.143798828125,-0.9683685302734376,-0.0247668661177158,0.0290636084973812,-0.0020415792241692
1770451536148,-0.117462158203125,-0.14239501953125,-0.975433349609375,-0.0310202334076166,0.0224997159093618,-0.0042445459403097
1770451536158,-0.1189422607421875,-0.144805908203125,-0.9730682373046876,-0.032088428735733,0.0227090399712324,0.0024130903184413
1770451536168,-0.1168975830078125,-0.1482086181640625,-0.9791717529296876,-0.0245181266218423,0.0085631283000111,0.0088813761249184
1770451536178,-0.118438720703125,-0.1487274169921875,-0.9884185791015624,-0.0233601834625005,-0.0002649845264386,0.0145355332642793
1770451536188,-0.119110107421875,-0.147796630859375,-0.9872894287109376,-0.0148433949798345,0.003108707955107,0.0162663217633962
1770451536198,-0.1148834228515625,-0.152099609375,-0.9920654296875,-0.0078496672213077,0.00281229801476,0.0124758444726467
1770451536208,-0.1211700439453125,-0.149444580078125,-0.9932708740234376,0.0041489386931061,0.0041537322103977,0.0045012747868895
1770451536220,-0.122833251953125,-0.1472625732421875,-0.9953460693359376,0.0182493105530738,-0.0010996191995218,-0.001186970854178
1770451536228,-0.1224365234375,-0.1476898193359375,-0.994537353515625,0.0320892259478569,-0.0085743134841322,-0.0043521379120647
1770451536239,-0.12127685546875,-0.1468353271484375,-0.992584228515625,0.045846052467823,-0.0233364813029766,-0.005845904815942
1770451536248,-0.1202392578125,-0.1474151611328125,-0.989898681640625,0.0454947799444198,-0.029627401381731,-0.0042394860647618
1770451536259,-0.1194915771484375,-0.147216796875,-0.972869873046875,0.0306721590459346,-0.0076797576621174,-0.0049574743025004
1770451536269,-0.11602783203125,-0.14971923828125,-0.9581451416015624,0.0167896319180727,0.0084885591641068,-0.0046765110455453
1770451536279,-0.1123046875,-0.1531829833984375,-0.95904541015625,-0.0002000034000957,0.0209364406764507,-0.0036743632517755
1770451536289,-0.1144561767578125,-0.1526641845703125,-0.9622344970703124,-0.0126771796494722,0.0168026816099882,-0.0058581554330885
1770451536299,-0.1198577880859375,-0.1480255126953125,-0.967010498046875,-0.0240488778799772,0.0079756351187825,-0.003670901292935
1770451536309,-0.1179351806640625,-0.14642333984375,-0.9702606201171876,-0.0360711850225925,0.013023124076426,-0.0008127967594191
1770451536319,-0.116241455078125,-0.1479949951171875,-0.970672607421875,-0.0427807532250881,0.0233031921088695,-0.0006351639167405
1770451536329,-0.1149444580078125,-0.1518707275390625,-0.975372314453125,-0.0444473586976528,0.0208932980895042,0.0059311259537935
1770451536339,-0.1117095947265625,-0.150604248046875,-0.979644775390625,-0.0422422625124454,0.0216392483562231,0.0094121443107724
1770451536349,-0.11468505859375,-0.1452178955078125,-0.9824066162109376,-0.041013479232788,0.0076848175376653,0.0099018989130854
1770451536359,-0.1205291748046875,-0.1430816650390625,-0.99078369140625,-0.028743764385581,-0.0094315847381949,0.0112276207655668
1770451536369,-0.1165618896484375,-0.1495208740234375,-1.000518798828125,-0.0126175247132778,-0.0202261749655008,0.0136463036760687
1770451536379,-0.114990234375,-0.1486053466796875,-0.99920654296875,0.0066376626491546,-0.0097122825682163,0.0115594509989023
1770451536389,-0.1201019287109375,-0.1474609375,-0.994415283203125,0.0198658499866724,-0.006924751214683,0.0080494042485952
1770451536399,-0.1176300048828125,-0.153350830078125,-0.9923248291015624,0.0295978393405675,-0.0018399780383333,0.0017054883064702
1770451536409,-0.116790771484375,-0.1487579345703125,-0.9884033203125,0.0341720841825008,-0.0041326931677758,-0.0069769495166838
1770451536419,-0.12188720703125,-0.1478118896484375,-0.9855804443359376,0.0289413705468177,-0.0087221190333366,-0.0050341733731329
1770451536429,-0.1141357421875,-0.1502838134765625,-0.9796142578125,0.0284896977245807,-0.0050056776963174,-0.0064128916710615
1770451536439,-0.1147613525390625,-0.1478424072265625,-0.97857666015625,0.0344839394092559,-0.011404987424612,-0.0047113983891904
1770451536449,-0.1182861328125,-0.14508056640625,-0.9827728271484376,0.0349308177828788,-0.0179137531667947,0.001506017637439
1770451536460,-0.114837646484375,-0.148895263671875,-0.97625732421875,0.0305773504078388,-0.0136753320693969,0.0012785836588591
1770451536470,-0.114715576171875,-0.1509857177734375,-0.9705047607421876,0.0168253183364868,-0.0046328348107635,0.005918875336647
1770451536480,-0.114349365234375,-0.1514129638671875,-0.9639434814453124,-0.0026442527305334,0.0196077898144722,0.008511196821928
1770451536490,-0.112335205078125,-0.15338134765625,-0.9601898193359376,-0.0138636175543069,0.0329273231327533,0.0114510599523782
1770451536500,-0.1114044189453125,-0.1574249267578125,-0.9720001220703124,-0.0204746481031179,0.0293174088001251,0.0163395591080188
1770451536510,-0.1146240234375,-0.1517791748046875,-0.97869873046875,-0.0223071705549955,0.0218584276735782,0.0171414352953434
1770451536520,-0.1155548095703125,-0.1483306884765625,-0.983123779296875,-0.0184897948056459,0.0118276309221982,0.0155675075948238
1770451536530,-0.119598388671875,-0.15093994140625,-0.9848480224609376,-0.0100763365626335,0.001619468210265,0.0170873738825321
1770451536540,-0.12078857421875,-0.1506500244140625,-0.9861297607421876,-0.0058869174681603,-0.0100523680448532,0.0130582777783274
1770451536550,-0.1209716796875,-0.1481170654296875,-0.980010986328125,-0.0054264571517705,-0.0047468184493482,0.0130766537040472
1770451536560,-0.1199798583984375,-0.1486663818359375,-0.976806640625,0.0026666230987757,-0.0008317052270285,0.0130894370377063
1770451536570,-0.1195220947265625,-0.1504669189453125,-0.98382568359375,0.0081551317125558,-0.0096342517063021,0.0101679489016532
1770451536580,-0.120635986328125,-0.14947509765625,-0.984771728515625,0.0129075432196259,-0.0087522128596901,0.0085514103993773
1770451536590,-0.117919921875,-0.1496734619140625,-0.9803009033203124,0.0154740307480096,-0.0070355390198528,0.0105088334530591
1770451536600,-0.11724853515625,-0.1538238525390625,-0.97900390625,0.0142226116731762,-0.0111264204606413,0.0121245738118886
1770451536610,-0.118988037109375,-0.1546783447265625,-0.9724273681640624,0.0029358686879277,-0.0046147257089614,0.0087575390934944
1770451536620,-0.1218719482421875,-0.14764404296875,-0.9660797119140624,-0.0066051720641553,0.0009933591354638,0.0033438650425523
1770451536630,-0.12432861328125,-0.1481475830078125,-0.97418212890625,-0.0113527895882725,-0.0092715285718441,0.0015169365797191
1770451536640,-0.1197967529296875,-0.154388427734375,-0.9769439697265624,-0.0209777206182479,-0.0039939428679645,0.0038874163292348
1770451536650,-0.1188201904296875,-0.15130615234375,-0.9709014892578124,-0.0296620223671197,0.0068949242122471,0.0003531351685523
1770451536660,-0.1192474365234375,-0.1503448486328125,-0.9715576171875,-0.0352983362972736,0.0134239299222826,0.0014468954177573
1770451536670,-0.1197967529296875,-0.1508941650390625,-0.973724365234375,-0.0391497984528541,0.0116760972887277,0.0002261023764731
1770451536681,-0.12213134765625,-0.15069580078125,-0.978546142578125,-0.0321246460080146,0.0095783248543739,0.000745951430872
1770451536690,-0.1200714111328125,-0.1500701904296875,-0.987396240234375,-0.0208165980875492,0.0022959110792726,-0.0026429209392517
1770451536701,-0.122650146484375,-0.15087890625,-0.9923095703125,-0.00542858755216,-0.0138942440971732,-0.0016231966437771
1770451536711,-0.1197509765625,-0.1522216796875,-0.997100830078125,0.0068645640276372,-0.0204312391579151,-0.0044219125993549
1770451536720,-0.1206817626953125,-0.152069091796875,-0.9906463623046876,0.0127469543367624,-0.011789015494287,-0.0070677632465958
1770451536731,-0.119537353515625,-0.151824951171875,-0.98028564453125,0.0132526885718107,-0.0089250514283776,-0.0083255739882588
1770451536741,-0.1172027587890625,-0.152130126953125,-0.979461669921875,0.0143808033317327,-0.0115791577845811,-0.0038253646343946
1770451536752,-0.1158599853515625,-0.150909423828125,-0.9789276123046876,0.0096225338056683,-0.0058261975646018,-0.0028724854346364
1770451536761,-0.1171722412109375,-0.14971923828125,-0.9758148193359376,0.0084800375625491,-0.0032828785479068,0.0006274407496675
1770451536771,-0.1169891357421875,-0.14971923828125,-0.9775848388671876,0.0050640008412301,0.0051023503765463,0.0010125337867066
1770451536781,-0.1152191162109375,-0.1490936279296875,-0.9756317138671876,0.0032378712203353,0.009302687831223,0.004291417542845
1770451536791,-0.11444091796875,-0.15087890625,-0.97540283203125,8.442220860160887e-05,0.0080741718411445,0.0074163707904517
1770451536801,-0.1188201904296875,-0.1488800048828125,-0.9790496826171876,0.0020149475894868,0.0117762321606278,0.0081032002344727
1770451536811,-0.119293212890625,-0.14996337890625,-0.9818267822265624,0.0041137849912047,0.0069793462753295,0.0101666171103715
1770451536821,-0.117919921875,-0.151885986328125,-0.9811248779296876,0.0065881279297173,0.0013209278695285,0.0066587016917765
1770451536831,-0.122528076171875,-0.1470947265625,-0.97857666015625,0.0099216066300868,0.0027196200098842,0.0089540798217058
1770451536841,-0.118896484375,-0.150177001953125,-0.982513427734375,0.0134484311565756,-0.0038077877834439,0.0069543123245239
1770451536852,-0.118682861328125,-0.1504669189453125,-0.9796142578125,0.0063588297925889,-0.0035462651867419,0.004734035115689
1770451536861,-0.120452880859375,-0.1473846435546875,-0.970672607421875,-0.0019614181946963,0.0043862261809408,0.0014287859667092
1770451536871,-0.1226043701171875,-0.147125244140625,-0.9716033935546876,-0.0060821273364126,-0.0003382214636076,-0.0011816446203738
1770451536881,-0.1242828369140625,-0.1485595703125,-0.9790802001953124,-0.003376621985808,-0.0096622146666049,-0.0020956413354724
1770451536892,-0.12322998046875,-0.1522979736328125,-0.9805755615234376,-0.0089373020455241,-0.010921623557806,0.0077263629063963
1770451536901,-0.118682861328125,-0.1555938720703125,-0.9764862060546876,-0.0101799331605434,-0.0061947791837155,0.0105738146230578
1770451536911,-0.1178131103515625,-0.1519622802734375,-0.979278564453125,-0.0142620261758565,-0.0021172130946069,0.0066765449009835
1770451536922,-0.11962890625,-0.152313232421875,-0.9770965576171876,-0.0128886345773935,0.0116326874122023,0.0012956279097124
1770451536932,-0.121002197265625,-0.13824462890625,-0.973419189453125,-0.0071015851572155,0.0149805471301078,-0.012466256506741
1770451536942,-0.12603759765625,-0.137054443359375,-0.9786224365234376,-0.0113916713744401,-0.0055329832248389,-0.0105818044394254
1770451536954,-0.120513916015625,-0.1582794189453125,-0.979248046875,-0.0106555735692381,-0.0129490876570343,0.0022857910953462
1770451536962,-0.11175537109375,-0.1568603515625,-0.979644775390625,-0.0158042628318071,-0.011536281555891,0.0090632699429988
1770451536972,-0.1164398193359375,-0.1531524658203125,-0.9759979248046876,-0.0186647642403841,-0.007890679873526,0.0164926908910274
1770451536982,-0.1122894287109375,-0.155670166015625,-0.9799652099609376,-0.0133280558511614,-0.0052517536096274,0.015736885368824
1770451536992,-0.1141815185546875,-0.1493377685546875,-0.983642578125,-0.0125048728659749,0.0033973946701735,0.005182777531445
1770451537002,-0.11993408203125,-0.138397216796875,-0.9741363525390624,-0.0179337263107299,0.0199875570833683,-0.0093903057277202
1770451537012,-0.1251068115234375,-0.1373291015625,-0.9729156494140624,-0.0200706478208303,0.0218738727271556,-0.0172679368406534
1770451537022,-0.126953125,-0.1435546875,-0.9801483154296876,-0.0126034095883369,0.0104369278997182,-0.0133837163448333
1770451537032,-0.1231842041015625,-0.1500091552734375,-0.98809814453125,-0.0108766164630651,-0.0026391926221549,-0.0038472025189548
1770451537042,-0.11834716796875,-0.153961181640625,-0.984954833984375,-0.015492140315473,0.0005502090789377,0.0070802802219986
1770451537053,-0.1142578125,-0.152923583984375,-0.979705810546875,-0.0167587399482727,0.0100635532289743,0.0137275299057364
1770451537062,-0.1141510009765625,-0.153076171875,-0.98236083984375,-0.0149685628712177,0.0080238375812768,0.012540559284389
1770451537072,-0.116455078125,-0.149993896484375,-0.98724365234375,-0.0077284933067858,0.0058277952484786,0.0083250412717461
1770451537082,-0.1205291748046875,-0.1438751220703125,-0.988037109375,0.0031185615807771,0.0022133530583232,0.0046826358884572
1770451537092,-0.1240234375,-0.1424713134765625,-0.988983154296875,0.0083503415808081,-0.0047151264734566,0.0019283948931843
1770451537102,-0.1220245361328125,-0.1474456787109375,-0.985931396484375,0.0145432567223906,-0.0038637141697108,-0.0009233179152943
1770451537112,-0.1192626953125,-0.149688720703125,-0.981964111328125,0.0183984488248825,0.0043097934685647,-0.0036200347822159
1770451537123,-0.122711181640625,-0.1505126953125,-0.9786834716796876,0.0174005609005689,0.0054067494347691,-0.0064179520122706
1770451537132,-0.120391845703125,-0.151763916015625,-0.973297119140625,0.0122167188674211,0.0034250915050506,-0.0084065338596701
1770451537143,-0.12371826171875,-0.1504058837890625,-0.9721221923828124,0.0066384617239236,-0.0025907231029123,-0.0090856403112411
1770451537153,-0.1209716796875,-0.148223876953125,-0.97528076171875,-8.495483780279756e-05,-0.0043569314293563,-0.0075492626056075
1770451537163,-0.1194610595703125,-0.1521148681640625,-0.9732818603515624,-0.0096166748553514,-0.0051867724396288,-0.0024186829105019
1770451537173,-0.113555908203125,-0.156402587890625,-0.974639892578125,-0.0161880254745483,-0.0005757753970101,0.0013512879377231
1770451537183,-0.1123046875,-0.1548919677734375,-0.9763946533203124,-0.0167792458087205,0.0031768847256898,0.0023228090722113
1770451537193,-0.11883544921875,-0.15008544921875,-0.981414794921875,-0.0132108768448233,0.0006897587445564,0.0023180153220891
1770451537203,-0.118988037109375,-0.1480712890625,-0.9859466552734376,-0.0092179989442229,-0.0067828050814569,0.0032589102629572
1770451537213,-0.119873046875,-0.1489410400390625,-0.9869537353515624,-0.0003664509567897,-0.0092065474018454,0.0031712921336293
1770451537223,-0.122283935546875,-0.147857666015625,-0.9898529052734376,0.0046751792542636,-0.0090044140815734,0.0012623383663594
1770451537233,-0.1209564208984375,-0.1515350341796875,-0.9834747314453124,-0.0024703482631593,-0.0008852347382344,0.0045907571911811
1770451537243,-0.11572265625,-0.14813232421875,-0.976593017578125,5.645901546813547e-05,0.0149935968220233,0.0059090219438076
1770451537253,-0.116912841796875,-0.1503143310546875,-0.98193359375,0.0059574912302196,0.0024884575977921,0.0098771313205361
1770451537263,-0.11578369140625,-0.154541015625,-0.986846923828125,0.0077615166082978,-0.0039049931801855,0.00862517952919
1770451537273,-0.1191558837890625,-0.1461181640625,-0.9790496826171876,-0.0013044163351878,0.0003542004269547,0.0066853333264589
1770451537283,-0.1220855712890625,-0.145843505859375,-0.9700164794921876,-0.0051729241386055,0.0081767030060291,0.0048626656644046
1770451537294,-0.117584228515625,-0.1510009765625,-0.974151611328125,0.0008434231276623,0.0103487772867083,0.0019829897210001
1770451537304,-0.1193695068359375,-0.1498565673828125,-0.978759765625,0.0035872780717909,0.002233060542494,0.0019246664596721
1770451537313,-0.119659423828125,-0.14752197265625,-0.9788055419921876,0.006867759861052,-0.0049169943667948,0.0032487902790308
1770451537323,-0.1196746826171875,-0.149993896484375,-0.9799041748046876,0.0092512890696525,-0.0129717253148555,0.0033654365688562
1770451537333,-0.1214752197265625,-0.1510467529296875,-0.9789276123046876,0.0071284831501543,-0.012590093538165,0.00584750296548
1770451537344,-0.1187744140625,-0.151336669921875,-0.97747802734375,0.0031822111923247,-0.00529809249565,0.0038293593097478
1770451537354,-0.11920166015625,-0.15106201171875,-0.973358154296875,-0.0037736992817372,0.005640575196594,0.0052834451198577
1770451537364,-0.1176300048828125,-0.1531219482421875,-0.9741668701171876,-0.0028581044171005,0.0043835630640387,0.0125637287274003
1770451537374,-0.1155242919921875,-0.15618896484375,-0.9821319580078124,-0.0029345371294766,-0.0092592779546976,0.0180293340235948
1770451537384,-0.118255615234375,-0.154754638671875,-0.981475830078125,-0.0072347433306276,-0.0110286828130483,0.0177369192242622
1770451537394,-0.1202850341796875,-0.151031494140625,-0.974578857421875,-0.0113975303247571,-0.0027654264122247,0.0180359911173582
1770451537404,-0.1192779541015625,-0.1514739990234375,-0.97613525390625,-0.0060530989430844,0.0003731088654603,0.0180778037756681
1770451537414,-0.1214599609375,-0.15130615234375,-0.9847564697265624,-0.0008261125767603,-0.0078685758635401,0.0147238187491893
1770451537424,-0.12713623046875,-0.1478271484375,-0.9829559326171876,0.0043697147630155,-0.0067495154216885,0.0116545250639319
1770451537434,-0.1264190673828125,-0.146026611328125,-0.983551025390625,0.008764729835093,-0.0121842278167605,0.0095548890531063
1770451537444,-0.123016357421875,-0.1514892578125,-0.9805145263671876,0.0138265993446111,-0.0096345180645585,0.0098411794751882
1770451537454,-0.1210174560546875,-0.1513671875,-0.9804534912109376,0.0134415067732334,-0.0099295964464545,0.0098614189773797
1770451537464,-0.120025634765625,-0.1528167724609375,-0.974609375,0.0055151404812932,-0.0025920546613633,0.010670487768948
1770451537474,-0.119598388671875,-0.1522216796875,-0.9686431884765624,-0.0010996191995218,-0.0001009338011499,0.0119405491277575
1770451537485,-0.121856689453125,-0.153564453125,-0.9720916748046876,-0.0070200925692915,-0.0054951664060354,0.0107892639935016
1770451537494,-0.124176025390625,-0.149871826171875,-0.9734344482421876,-0.013636183924973,-0.0130052808672189,0.0115208346396684
1770451537505,-0.1233978271484375,-0.15093994140625,-0.971099853515625,-0.0186951234936714,-0.01419198513031,0.0112960636615753
1770451537514,-0.1240692138671875,-0.1481170654296875,-0.97271728515625,-0.0218134205788373,-0.0114436028525233,0.0096044242382049
1770451537524,-0.1245269775390625,-0.149169921875,-0.9745635986328124,-0.0219236742705106,-0.0061718756332993,0.01072668004781
1770451537534,-0.1213531494140625,-0.151885986328125,-0.9781036376953124,-0.0230925362557172,-0.0074270237237215,0.0086550069972872
1770451537544,-0.123748779296875,-0.150604248046875,-0.9790496826171876,-0.0180823318660259,-0.004744155332446,0.0064272731542587
1770451537555,-0.12786865234375,-0.1475677490234375,-0.98382568359375,-0.0052749230526387,-0.0059250006452202,0.0060530989430844
1770451537565,-0.1247100830078125,-0.1501007080078125,-0.9903106689453124,0.0062531023286283,-0.010471548885107,0.0019696739036589
1770451537575,-0.1246185302734375,-0.1513671875,-0.9901275634765624,0.0134534910321235,-0.0203505456447601,-0.0008261125767603
1770451537586,-0.1258544921875,-0.149017333984375,-0.9842529296875,0.0121301664039492,-0.0139485727995634,7.137271313695237e-05
1770451537595,-0.123565673828125,-0.1492462158203125,-0.9808349609375,0.0129842413589358,-0.0041838260367512,-0.0020016317721456
1770451537605,-0.1221923828125,-0.1533203125,-0.9808807373046876,0.012769591063261,-0.001145159243606,0.000597613339778
1770451537615,-0.1199798583984375,-0.154632568359375,-0.9780731201171876,0.0131437648087739,0.0013555489713326,-0.0010354369878768
1770451537625,-0.1231536865234375,-0.1522674560546875,-0.978546142578125,0.0078792283311486,-0.0069966567680239,-0.0015592807903885
1770451537635,-0.126556396484375,-0.151123046875,-0.97344970703125,-0.000711330329068,-0.0055865128524601,-6.524744821945205e-05
1770451537645,-0.122894287109375,-0.1522674560546875,-0.9725189208984376,-0.0066475165076553,0.0006098638987168,0.0036511938087642
1770451537655,-0.121917724609375,-0.15240478515625,-0.970367431640625,-0.0145355332642793,0.011338141746819,0.0030583741609007
1770451537665,-0.121124267578125,-0.1526336669921875,-0.9766998291015624,-0.0152481952682137,0.0089708575978875,0.0060911821201443
1770451537675,-0.1231689453125,-0.1519775390625,-0.9790496826171876,-0.0196085888892412,-0.0020644825417548,0.006163886282593
1770451537685,-0.125091552734375,-0.1501922607421875,-0.977691650390625,-0.0177662130445241,-0.0083540696650743,0.0080635193735361
1770451537695,-0.1238250732421875,-0.1511077880859375,-0.9825286865234376,-0.0134758614003658,-0.0010466222884133,0.0066368635743856
1770451537705,-0.1242828369140625,-0.1502532958984375,-0.98309326171875,-0.009362076409161,0.0045377602800726,0.0064967814832925
1770451537715,-0.1229705810546875,-0.1524200439453125,-0.981475830078125,-0.0051422975957393,0.0102912532165646,0.0066025089472532
1770451537725,-0.12420654296875,-0.15008544921875,-0.9843597412109376,0.0014876418281346,0.0101386541500687,-9.720538218971342e-05
1770451537735,-0.12841796875,-0.1471099853515625,-0.990081787109375,0.0100880544632673,-0.0007992146420292,-0.0021158815361559
1770451537745,-0.1270904541015625,-0.150848388671875,-0.991668701171875,0.0172687359154224,-0.0084118600934743,0.0004255731473676
1770451537755,-0.125335693359375,-0.154052734375,-0.9859619140625,0.0168498195707798,-0.012304070405662,0.0054797204211354
1770451537765,-0.1236114501953125,-0.1556243896484375,-0.9782562255859376,0.0126196546480059,-0.0046224487014114,0.0139176798984408
1770451537776,-0.1180877685546875,-0.156829833984375,-0.9765167236328124,0.0017520936671644,0.0074946680106222,0.0134942373260855
1770451537786,-0.1230010986328125,-0.1551361083984375,-0.974090576171875,-0.0021302625536918,0.0037665087729692,0.0154415406286716
1770451537796,-0.1238250732421875,-0.14605712890625,-0.9760284423828124,-0.0070358053781092,0.0196490678936243,0.0032101743854582
1770451537806,-0.1321868896484375,-0.137603759765625,-0.968353271484375,-0.0105120297521352,0.0216264650225639,-0.0086608659476041
1770451537816,-0.132568359375,-0.1478271484375,-0.976654052734375,-0.0100752711296081,0.0053857108578085,-0.0089064091444015
1770451537826,-0.130950927734375,-0.1611785888671875,-0.9828643798828124,-0.0130100743845105,-0.0020511667244136,-0.0069836070761084
1770451537836,-0.127685546875,-0.1606903076171875,-0.9788055419921876,-0.019014436751604,-0.007089068647474,0.0025481125339865
1770451537846,-0.123382568359375,-0.1585540771484375,-0.9786224365234376,-0.0175539590418338,-0.0040522660128772,0.0033260218333452
1770451537856,-0.119598388671875,-0.1517791748046875,-0.9799346923828124,-0.0198895521461963,0.0107418606057763,-0.0047380300238728
1770451537866,-0.1207275390625,-0.146087646484375,-0.9745330810546876,-0.0193465333431959,0.023158049210906,-0.009678459726274
1770451537876,-0.1195220947265625,-0.144622802734375,-0.9776763916015624,-0.0145011786371469,0.0170556828379631,-0.0133261913433671
1770451537886,-0.1270904541015625,-0.141632080078125,-0.9816741943359376,-0.0135570876300334,0.0133938360959291,-0.0148745533078908
1770451537896,-0.1275482177734375,-0.14263916015625,-0.9781036376953124,-0.0142670860514044,0.0064365938305854,-0.0063574980013072
1770451537906,-0.1213836669921875,-0.1549835205078125,-0.9767913818359376,-0.0170916356146335,0.0078470036387443,0.0045912899076938
1770451537916,-0.1202239990234375,-0.1571197509765625,-0.976654052734375,-0.0239330288022756,0.018304705619812,0.012705941684544
1770451537926,-0.119964599609375,-0.15509033203125,-0.973785400390625,-0.0339877940714359,0.0298098269850015,0.009999637492001
1770451537936,-0.1279754638671875,-0.146453857421875,-0.977325439453125,-0.0326807163655757,0.0242904257029294,0.0027822044212371
1770451537946,-0.131011962890625,-0.1485595703125,-0.986663818359375,-0.0255080237984657,0.0131919682025909,-0.0010064085945487
1770451537956,-0.129119873046875,-0.1496124267578125,-0.9922332763671876,-0.0144476490095257,0.0061905179172754,-0.0080821616575121
1770451537966,-0.1300048828125,-0.147003173828125,-0.9920654296875,-3.6485307646216825e-05,0.006721019744873,-0.0147387320175766
1770451537976,-0.13165283203125,-0.1486053466796875,-0.9884490966796876,0.0103213470429182,-0.0014199974248185,-0.0209947638213634
1770451537986,-0.1284027099609375,-0.1503448486328125,-0.987091064453125,0.0195393469184637,-0.0114097809419035,-0.0198488049209117
1770451537997,-0.126312255859375,-0.1491241455078125,-0.9830169677734376,0.0143163548782467,-0.0108281467109918,-0.0214208699762821
1770451538007,-0.1234283447265625,-0.151123046875,-0.9716796875,0.0100851245224475,0.0001358212175546,-0.0213164743036031
1770451538017,-0.119110107421875,-0.155914306640625,-0.9715576171875,0.0042397524230182,-0.001528920722194,-0.0188700947910547
1770451538027,-0.1194610595703125,-0.1577606201171875,-0.9700927734375,-0.0104662226513028,0.0021206750534474,-0.0129727898165583
1770451538037,-0.118072509765625,-0.1511383056640625,-0.967315673828125,-0.022777484729886,0.0128452247008681,-0.0097242658957839
1770451538047,-0.11663818359375,-0.1531524658203125,-0.966217041015625,-0.0269163027405738,0.0161249078810215,-0.0082685826346278
1770451538057,-0.119415283203125,-0.153045654296875,-0.9760589599609376,-0.0291626788675785,0.0100915161892771,-0.0068821408785879
1770451538067,-0.1200714111328125,-0.1492156982421875,-0.980010986328125,-0.0328980274498462,0.0006892260862514,-0.0038469361606985
1770451538077,-0.118438720703125,-0.146484375,-0.9777374267578124,-0.0383588410913944,0.00054035539506,-0.0042267027311027
1770451538087,-0.1204681396484375,-0.144805908203125,-0.975311279296875,-0.0383439250290393,0.008877114392817,-0.0038746329955756
1770451538097,-0.12005615234375,-0.1488494873046875,-0.9835052490234376,-0.0379026420414447,0.0083199813961982,-0.0006218480993993
1770451538107,-0.1168365478515625,-0.148284912109375,-0.982879638671875,-0.0406869761645793,0.0094904405996203,0.0025944514200091
1770451538117,-0.1196441650390625,-0.1440887451171875,-0.980560302734375,-0.0361236482858657,0.0063670855015516,0.0052187303081154
1770451538127,-0.118865966796875,-0.1507720947265625,-0.9842071533203124,-0.0383473895490169,0.0083420854061841,0.0074816183187067
1770451538138,-0.1143341064453125,-0.15020751953125,-0.9794158935546876,-0.0365803800523281,0.022351112216711,0.0082635227590799
1770451538147,-0.1177978515625,-0.1469268798828125,-0.9770355224609376,-0.0307203624397516,0.0327606089413166,0.0076866815797984
1770451538157,-0.1201171875,-0.144866943359375,-0.987579345703125,-0.0147142307832837,0.0171158704906702,0.0020905814599245
1770451538167,-0.1243438720703125,-0.143096923828125,-0.998504638671875,0.0002612560929264,-0.0103826001286506,-0.0010407633380964
1770451538177,-0.12530517578125,-0.144195556640625,-0.989898681640625,0.0048123318701982,-0.0158138498663902,-0.0028961875941604
1770451538187,-0.120269775390625,-0.146514892578125,-0.978302001953125,0.0006527407676912,-0.005771336145699,-0.0016495619202032
1770451538198,-0.1197052001953125,-0.1485137939453125,-0.9722900390625,-0.0114545216783881,0.0101453121751546,-2.902845517382957e-05
1770451538208,-0.1188812255859375,-0.14764404296875,-0.9668731689453124,-0.0215039607137441,0.0207303129136562,-0.0008466189028695
1770451538219,-0.1203155517578125,-0.146820068359375,-0.9709625244140624,-0.0276848915964365,0.0138028971850872,0.0025252092164009
1770451538228,-0.121185302734375,-0.1439208984375,-0.9781036376953124,-0.0295483041554689,0.002887399168685,0.0013544837711378
1770451538238,-0.1247406005859375,-0.1441497802734375,-0.981658935546875,-0.029552299529314,-0.0017180051654577,-0.0014018879737704
1770451538248,-0.1211700439453125,-0.146270751953125,-0.9804534912109376,-0.031188279390335,0.0031654331833124,-3.2490566809428856e-05
1770451538258,-0.1193084716796875,-0.144012451171875,-0.978912353515625,-0.0283810403198003,0.0107900630682706,0.0006538060260936
1770451538268,-0.118988037109375,-0.1442718505859375,-0.9865875244140624,-0.0197340231388807,0.0104651581496,-0.0002716424351092
1770451538278,-0.118682861328125,-0.1461029052734375,-0.992523193359375,-0.0100118881091475,-0.0024437166284769,0.0014168017078191
1770451538288,-0.1206207275390625,-0.1440277099609375,-0.9892120361328124,-0.0065622953698039,-0.0031108383554965,0.005567604675889
1770451538298,-0.1188507080078125,-0.143096923828125,-0.98468017578125,-0.0011198592837899,0.0112824821844697,0.0053795855492353
1770451538308,-0.1171875,-0.1460723876953125,-0.9846343994140624,0.0047987499274313,0.0194115154445171,0.0083540696650743
1770451538319,-0.118072509765625,-0.14666748046875,-0.986236572265625,0.0116108497604727,0.0179563630372285,0.0103146890178322
1770451538328,-0.1185455322265625,-0.1470489501953125,-0.9860076904296876,0.0124071352183818,0.0152652394026517,0.0124561367556452
1770451538338,-0.11962890625,-0.146820068359375,-0.98126220703125,0.0116244321689009,0.0095165399834513,0.0110449278727173
1770451538348,-0.12298583984375,-0.1468048095703125,-0.981201171875,0.0153962671756744,0.0015166702214628,0.0120707778260111
1770451538358,-0.125030517578125,-0.1468505859375,-0.9813079833984376,0.0133632095530629,-0.0008535431115888,0.0099362535402178
1770451538368,-0.12384033203125,-0.1432952880859375,-0.9755401611328124,0.0121850268915295,-0.0064078317955136,0.0052901031449437
1770451538378,-0.1272735595703125,-0.141204833984375,-0.97509765625,0.0041646515019237,-0.0051476238295435,0.0008333030855283
1770451538388,-0.12841796875,-0.1410980224609375,-0.972503662109375,-0.0008266451768577,0.0059542953968048,-0.0020351877901703
1770451538398,-0.1256866455078125,-0.1431884765625,-0.97039794921875,-0.0060424460098147,0.0051931641064584,-0.004964665044099
1770451538409,-0.125091552734375,-0.1446075439453125,-0.977569580078125,-0.0047300402075052,0.0010247844038531,-0.0070603061467409
1770451538419,-0.1252593994140625,-0.141876220703125,-0.980255126953125,-0.0015654060989618,-0.0039566583000123,-0.0082691153511404
1770451538429,-0.12579345703125,-0.143890380859375,-0.9840850830078124,0.0027116306591778,-0.0137885166332125,-0.0115618472918868
1770451538439,-0.1282806396484375,-0.142730712890625,-0.984588623046875,0.0076206354424357,-0.0110886041074991,-0.0126050077378749
1770451538448,-0.1260528564453125,-0.14324951171875,-0.9837188720703124,0.0166311748325824,-0.0035196337848901,-0.0123557355254888
1770451538459,-0.11993408203125,-0.14666748046875,-0.9852447509765624,0.0286015514284372,-0.000982972793281,-0.0099367862567305
1770451538469,-0.1228179931640625,-0.148834228515625,-0.987640380859375,0.0369007587432861,-0.0060038301162421,-0.0084574008360505
1770451538479,-0.124755859375,-0.14678955078125,-0.9836578369140624,0.0402028113603591,-0.0146354017779231,-0.0108803445473313
1770451538489,-0.1252593994140625,-0.144683837890625,-0.9821929931640624,0.0367609448730945,-0.0231942683458328,-0.008714928291738
1770451538499,-0.1228179931640625,-0.145263671875,-0.9757843017578124,0.025945845991373,-0.018341988325119,-0.0066445870324969
1770451538509,-0.1220703125,-0.1510467529296875,-0.966827392578125,0.015442606061697,-0.001324922661297,-0.0013432984706014
1770451538519,-0.11712646484375,-0.153900146484375,-0.966552734375,0.0064395233057439,0.004914597608149,0.0067449882626533
1770451538529,-0.1161041259765625,-0.15240478515625,-0.97314453125,0.0036376116331666,0.0006620618514716,0.0067963870242238
1770451538539,-0.1229095458984375,-0.1481475830078125,-0.9781494140625,0.0030405309516936,-0.0130092753097414,0.0059044943191111
1770451538549,-0.1241455078125,-0.1452178955078125,-0.9785003662109376,0.0048943576402962,-0.0167182590812444,0.0041891522705554
1770451538559,-0.1255950927734375,-0.1458587646484375,-0.979736328125,0.0046275085769593,-0.0186104364693164,0.0005044027348048
1770451538569,-0.1269378662109375,-0.149627685546875,-0.9779815673828124,0.0014104101574048,-0.0158303622156381,-0.0004029362753499
1770451538579,-0.1233673095703125,-0.1497039794921875,-0.9744873046875,-0.0122332302853465,-0.0031212246976792,-0.0005230448441579
1770451538589,-0.120025634765625,-0.14984130859375,-0.967987060546875,-0.0188668984919786,0.0083775054663419,0.0010492854053154
1770451538599,-0.12066650390625,-0.152801513671875,-0.976409912109375,-0.021224595606327,-0.0027204190846532,0.0102132223546504
1770451538609,-0.1171417236328125,-0.1612396240234375,-0.9800262451171876,-0.0252398420125246,-7.74979853304103e-05,0.0208413656800985
1770451538619,-0.1173248291015625,-0.157012939453125,-0.9766693115234376,-0.0262803398072719,0.0096811233088374,0.0185734182596206
1770451538629,-0.1239013671875,-0.1483154296875,-0.981170654296875,-0.0219159517437219,0.0106678241863846,0.0175174754112958
1770451538639,-0.1237640380859375,-0.1435546875,-0.9853973388671876,-0.0017779263434931,0.0146841378882527,-0.0044927527196705
1770451538650,-0.133575439453125,-0.1285400390625,-0.9832763671875,0.0027377295773476,0.0033393376506865,-0.0127690583467483
1770451538660,-0.127716064453125,-0.1504058837890625,-0.9794464111328124,0.0008953547803685,-0.0034522556234151,-0.0070741549134254
1770451538670,-0.12176513671875,-0.159912109375,-0.9742584228515624,0.0001523328101029,-0.0037766287568956,-0.006197708658874
1770451538680,-0.1204681396484375,-0.1549835205078125,-0.9752349853515624,-0.0084789721295237,0.00586294895038,0.0010159959783777
1770451538690,-0.11859130859375,-0.1522216796875,-0.9702301025390624,-0.012490757741034,0.0169622059911489,0.0017275925492867
1770451538700,-0.1192626953125,-0.148162841796875,-0.97283935546875,-0.0118998028337955,0.011461179703474,-0.0080230394378304
1770451538710,-0.1291046142578125,-0.1406707763671875,-0.9766998291015624,-0.0078049260191619,0.0078131817281246,-0.0222416557371616
1770451538720,-0.1314544677734375,-0.1344757080078125,-0.97772216796875,-0.0068128984421491,0.0002625876804813,-0.0296111553907394
1770451538730,-0.13067626953125,-0.1395416259765625,-0.977813720703125,-0.0111416010186076,-0.0037726340815424,-0.0319472812116146
1770451538740,-0.1296844482421875,-0.1442108154296875,-0.974456787109375,-0.0156591199338436,-0.0115714352577924,-0.0255421120673418
1770451538750,-0.1226654052734375,-0.1534576416015625,-0.9795989990234376,-0.0226283464580774,-0.0133964987471699,-0.0140343261882662
1770451538760,-0.1214447021484375,-0.15655517578125,-0.9788665771484376,-0.0280691850930452,-0.0095445029437541,-0.0073412698693573
1770451538772,-0.1177520751953125,-0.155181884765625,-0.9794921875,-0.0328466296195983,-0.0001033306471072,-0.0054637412540614
1770451538780,-0.118682861328125,-0.1535186767578125,-0.980865478515625,-0.0369140766561031,0.0172564852982759,-0.0023118900135159
1770451538790,-0.1188812255859375,-0.1497344970703125,-0.9755859375,-0.0360759794712066,0.0344141647219657,-0.0015709986910223
1770451538800,-0.1222991943359375,-0.14813232421875,-0.9796600341796876,-0.0253490321338176,0.0309786889702081,-0.0047681233845651
1770451538810,-0.12615966796875,-0.147705078125,-0.9884490966796876,-0.0137067576870322,0.0142849292606115,-0.0074778897687792
1770451538820,-0.1273956298828125,-0.1441650390625,-0.988555908203125,-0.0040037962608039,0.0062064970843493,-0.0125544080510735
1770451538830,-0.1290740966796875,-0.1435546875,-0.9833831787109376,-0.0027353328187018,0.0034477282315492,-0.0142473792657256
1770451538840,-0.1281585693359375,-0.1448974609375,-0.974395751953125,-0.0094667384400963,0.0088262483477592,-0.0156247662380337
1770451538850,-0.12451171875,-0.1474609375,-0.97210693359375,-0.0103887254372239,0.0145001132041215,-0.0190850105136632
1770451538861,-0.125823974609375,-0.1477203369140625,-0.980560302734375,-0.0101644871756434,0.0025190841406583,-0.0165502149611711
1770451538871,-0.1227874755859375,-0.150177001953125,-0.981231689453125,-0.0196192413568496,-0.0058158109895884,-0.0115946047008037
1770451538881,-0.1181488037109375,-0.1489715576171875,-0.972320556640625,-0.0233825538307428,-0.0050416300073266,-0.0116382800042629
1770451538891,-0.1209259033203125,-0.1490478515625,-0.9780731201171876,-0.0273320227861404,-0.0024711471050977,-0.0114092482253909
1770451538901,-0.1194915771484375,-0.1492462158203125,-0.97857666015625,-0.0313845537602901,0.004220045171678,-0.006672017276287
1770451538911,-0.1165618896484375,-0.1462249755859375,-0.9778289794921876,-0.0304793454706668,0.0090720579028129,-0.0053364420309662
1770451538921,-0.1214752197265625,-0.14166259765625,-0.98291015625,-0.0291264597326517,0.0105650266632437,-0.0053809168748557
1770451538931,-0.1216888427734375,-0.141510009765625,-0.9868927001953124,-0.0262984484434127,0.0143267409875988,-0.00262401252985
1770451538941,-0.11822509765625,-0.145172119140625,-0.9838409423828124,-0.0249010883271694,0.020211262628436,0.0008418252109549
1770451538951,-0.11883544921875,-0.139892578125,-0.9839630126953124,-0.020696222782135,0.0234315562993288,-0.0019355855183675
1770451538961,-0.123809814453125,-0.145050048828125,-0.986083984375,-0.0158055946230888,0.0221633594483137,0.0004077299672644
1770451538971,-0.11865234375,-0.1447906494140625,-0.985687255859375,-0.0091381045058369,0.0229284856468439,-0.0038509308360517
1770451538981,-0.1185455322265625,-0.1430816650390625,-0.9837646484375,-0.0038474688772112,0.0152750927954912,-0.0078182416036725
1770451538991,-0.1197967529296875,-0.143798828125,-0.9871978759765624,0.0044706487096846,0.0045649241656064,-0.0099088232964277
1770451539001,-0.1192626953125,-0.143341064453125,-0.9862518310546876,0.0072227590717375,-0.0032935312483459,-0.009155947715044
1770451539011,-0.118896484375,-0.1431732177734375,-0.98138427734375,0.0119759691879153,-0.0092478264123201,-0.0063505740836262
1770451539021,-0.119476318359375,-0.14385986328125,-0.9809417724609376,0.0118260327726602,-0.0117749003693461,-0.0053188651800155
1770451539031,-0.1194000244140625,-0.1442718505859375,-0.9800567626953124,0.0069130333140492,-0.0059838565066456,-0.0032242890447378
1770451539041,-0.1181640625,-0.1441650390625,-0.9694061279296876,-0.0062794676050543,0.0123900901526212,-0.0018698053900152
1770451539052,-0.1178741455078125,-0.1441802978515625,-0.9693145751953124,-0.0166154615581035,0.02225230820477,4.793690095539205e-06
1770451539061,-0.1172332763671875,-0.147003173828125,-0.976165771484375,-0.0265312101691961,0.0271253604441881,0.003713778220117
1770451539071,-0.11505126953125,-0.1468353271484375,-0.9773712158203124,-0.0322897620499134,0.031482558697462,0.0077226343564689
1770451539081,-0.1135101318359375,-0.1453857421875,-0.978729248046875,-0.0280899573117494,0.0283248480409383,0.0105724828317761
1770451539092,-0.115570068359375,-0.146453857421875,-0.986602783203125,-0.0178711414337158,0.0182035043835639,0.015762984752655
1770451539102,-0.1183624267578125,-0.146331787109375,-0.9921112060546876,-0.0012879046844318,0.0062144864350557,0.015272962860763
1770451539112,-0.1217803955078125,-0.1443023681640625,-0.994110107421875,0.012238822877407,0.0013781858142465,0.013447898440063
1770451539122,-0.121063232421875,-0.1417388916015625,-0.991546630859375,0.0195830222219228,0.0157656464725732,0.0140492394566535
