timestamp_ms,acc_x,acc_y,acc_z,gyro_x,gyro_y,gyro_z
1770447676226,-0.2750244140625,-0.94049072265625,0.19537353515625,-0.0152079816907644,0.006736465729773,-0.0008229167433455
1770447676234,-0.275848388671875,-0.941192626953125,0.1960906982421875,-0.0141922514885663,0.0070784157142043,-0.00103064335417
1770447676244,-0.27618408203125,-0.9388427734375,0.194549560546875,-0.0124912904575467,0.0062786685302853,-0.0027230822015553
1770447676254,-0.2765960693359375,-0.936004638671875,0.1946563720703125,-0.0123075321316719,0.0036956686526536,-0.0045276400633156
1770447676264,-0.2773895263671875,-0.9354705810546876,0.19464111328125,-0.0104292053729295,0.0031366711482405,-0.0045904908329248
1770447676274,-0.27423095703125,-0.9347686767578124,0.193634033203125,-0.0081569962203502,0.0046972832642495,-0.0062722768634557
1770447676284,-0.2752838134765625,-0.9366607666015624,0.1927947998046875,-0.0068166269920766,0.0044773062691092,-0.0031033814884722
1770447676294,-0.2722625732421875,-0.940338134765625,0.19342041015625,-0.0090717915445566,0.0056099486537277,-0.000316117220791
1770447676304,-0.2695770263671875,-0.9404754638671876,0.1949615478515625,-0.0080989394336938,0.0086355656385421,0.0019278622930869
1770447676314,-0.2704315185546875,-0.93994140625,0.1938934326171875,-0.0061817294918,0.0057156761176884,0.000487092154799
1770447676324,-0.2716827392578125,-0.9418182373046876,0.1945648193359375,-0.0058208713307976,0.0049380334094166,0.0029925941489636
1770447676334,-0.27056884765625,-0.9487762451171876,0.1965789794921875,-0.0073892069049179,0.0084832329303026,0.009303486905992
1770447676344,-0.2700347900390625,-0.949432373046875,0.19671630859375,-0.0066736154258251,0.0144473826512694,0.0091029508039355
1770447676354,-0.272613525390625,-0.9413299560546876,0.1949920654296875,-0.0067375311627984,0.0130489561706781,0.0072390045970678
1770447676365,-0.278656005859375,-0.9337158203125,0.19427490234375,-0.0068451226688921,0.0088145304471254,0.0031268175225704
1770447676375,-0.2799072265625,-0.932525634765625,0.1948089599609375,-0.0068658953532576,0.001348891062662,-0.0021430456545203
1770447676385,-0.2789306640625,-0.942718505859375,0.1970672607421875,-0.0043974113650619,-0.0062472433783113,-0.0004013383586425
1770447676395,-0.2689971923828125,-0.9526519775390624,0.1964874267578125,-0.0070304786786437,-0.0031965922098606,0.0039324234239757
1770447676405,-0.2656097412109375,-0.9444427490234376,0.195953369140625,-0.008511196821928,0.0061148842796683,0.007277354132384
1770447676415,-0.2723236083984375,-0.9434051513671876,0.1954498291015625,-0.0054759918712079,0.003556385403499,0.0104284062981605
1770447676425,-0.273590087890625,-0.94873046875,0.195587158203125,-0.0068176924251019,0.0032202943693846,0.0047076698392629
1770447676435,-0.2726898193359375,-0.93048095703125,0.1938934326171875,-0.0016242619603872,0.0037228327710181,-0.0083649884909391
1770447676445,-0.2808380126953125,-0.9268951416015624,0.196075439453125,0.0028362665325403,-0.0011070760665461,-0.011274492368102
1770447676455,-0.272705078125,-0.9480743408203124,0.1949310302734375,0.0091293165460228,-0.0073119751177728,-0.0064613614231348
1770447676465,-0.267364501953125,-0.9384765625,0.1923675537109375,0.0164996143430471,-0.0047380300238728,-0.0141525706276297
1770447676475,-0.2791290283203125,-0.919677734375,0.190185546875,0.0204261783510446,0.0018692727899178,-0.0224898625165224
1770447676485,-0.287841796875,-0.912200927734375,0.1908416748046875,0.016303339973092,-0.0024804682470858,-0.031023696064949
1770447676495,-0.2868499755859375,-0.9223785400390624,0.198638916015625,0.0108760837465524,-0.0046711843460798,-0.0304071735590696
1770447676505,-0.2747344970703125,-0.9419403076171876,0.2022552490234375,0.0023070964962244,-0.0071055800653994,-0.021898640319705
1770447676515,-0.2664794921875,-0.951202392578125,0.2012481689453125,3.355582884978503e-05,-0.008084824308753,-0.0113181686028838
1770447676525,-0.26422119140625,-0.9492645263671876,0.195159912109375,-0.0013105415273457,-0.0102835297584533,-0.0034959316253662
1770447676535,-0.270172119140625,-0.9472808837890624,0.1909942626953125,-0.0042709112167358,-0.0065377941355109,-0.0001544633414596
1770447676549,-0.2708892822265625,-0.947021484375,0.1920928955078125,-0.0122753083705902,0.0031571774743497,0.0063753412105143
1770447676555,-0.2687835693359375,-0.94781494140625,0.195404052734375,-0.0193606484681367,0.0099234711378812,0.0087357005104422
1770447676565,-0.2696075439453125,-0.94842529296875,0.1979217529296875,-0.0265029799193143,0.0085897594690322,0.010791927576065
1770447676575,-0.267822265625,-0.9466552734375,0.201416015625,-0.0285323094576597,0.0066448533907532,0.008476841263473
1770447676586,-0.2693328857421875,-0.94610595703125,0.2015533447265625,-0.0288050156086683,0.0060970410704612,0.0058762650005519
1770447676596,-0.2727813720703125,-0.941925048828125,0.2021636962890625,-0.0249250568449497,0.0065148910507559,0.0035918052308261
1770447676606,-0.27734375,-0.9392242431640624,0.197845458984375,-0.0198472086340188,0.0062578958459198,-0.0015230617718771
1770447676616,-0.280364990234375,-0.93939208984375,0.19732666015625,-0.0150947971269488,0.0023835292086005,-0.0053164684213697
1770447676626,-0.2789154052734375,-0.9378814697265624,0.1935882568359375,-0.0103032374754548,-0.0063172844238579,-0.0080326264724135
1770447676636,-0.2771759033203125,-0.937347412109375,0.19091796875,-0.0049167280085384,-0.007201986387372,-0.0092195970937609
1770447676646,-0.27484130859375,-0.93792724609375,0.191558837890625,7.190534688561456e-06,-0.0117165772244334,-0.0089165298268198
1770447676656,-0.27203369140625,-0.9386138916015624,0.1905059814453125,0.007300257217139,-0.0130572123453021,-0.005593969952315
1770447676666,-0.269317626953125,-0.9400177001953124,0.1884613037109375,0.0091788507997989,-0.0089841736480593,-0.0031121699139475
1770447676676,-0.2659759521484375,-0.940032958984375,0.19000244140625,0.0065029067918658,-0.0023129554465413,0.0047899615019559
1770447676686,-0.264892578125,-0.943359375,0.1916351318359375,0.0022900521289557,0.0026314693968743,0.0099184103310108
1770447676696,-0.264190673828125,-0.949798583984375,0.1956634521484375,0.0011720572365447,0.0019534286111593,0.0122111262753605
1770447676706,-0.2611236572265625,-0.9578399658203124,0.1988983154296875,0.0010026801610365,0.0057708038948476,0.0186391975730657
1770447676717,-0.2608489990234375,-0.95184326171875,0.1962890625,0.001529986038804,0.0061798654496669,0.0211827829480171
1770447676726,-0.270538330078125,-0.9402618408203124,0.1962432861328125,0.0015137407463043,0.0082398205995559,0.0187566429376602
1770447676736,-0.2787628173828125,-0.9334869384765624,0.19580078125,0.0016620787791907,0.0071758874692022,0.0126673253253102
1770447676746,-0.27947998046875,-0.92852783203125,0.19586181640625,-0.0007302387384697,0.0086371637880802,0.008780974894762
1770447676756,-0.2785797119140625,-0.923126220703125,0.1965789794921875,0.0003225088003091,0.0064264740794897,0.001324922661297
1770447676766,-0.2766265869140625,-0.930389404296875,0.19854736328125,0.0023675502743571,0.0071537834592163,-0.0003480751474853
1770447676776,-0.2723541259765625,-0.9392242431640624,0.197265625,0.002534530358389,0.0059558935463428,0.0003890878288075
1770447676787,-0.2734375,-0.9415740966796876,0.193572998046875,0.0029156287200748,0.001267664716579,0.0005558017292059
1770447676797,-0.2739715576171875,-0.9437103271484376,0.192840576171875,0.0055452338419854,0.0076083848252892,0.0016623451374471
1770447676807,-0.273406982421875,-0.9465789794921876,0.19427490234375,0.0078209051862359,0.0118856877088546,0.0052882391028106
1770447676817,-0.2696533203125,-0.9461822509765624,0.1959228515625,0.0106782102957367,0.007245129905641,0.0059540290385484
1770447676827,-0.27117919921875,-0.9451141357421876,0.196624755859375,0.0148130347952246,0.0011217234423384,0.0057079531252384
1770447676837,-0.274444580078125,-0.9434814453125,0.1937255859375,0.016892697662115,-0.0089237205684185,0.0020213392563164
1770447676847,-0.2774200439453125,-0.9390716552734376,0.1947479248046875,0.0198136512190103,-0.0079450085759162,0.001048486563377
1770447676857,-0.2798309326171875,-0.9366455078125,0.1949310302734375,0.0188629031181335,-0.0040466734208166,-0.000373907823814
1770447676867,-0.280059814453125,-0.9334716796875,0.194305419921875,0.0186748839914798,0.0005776396137662,-0.0038946068380028
1770447676877,-0.27960205078125,-0.9330291748046876,0.196258544921875,0.0211966317147016,-0.0034940673504024,-0.0047007454559206
1770447676887,-0.27813720703125,-0.933319091796875,0.1973114013671875,0.0213034246116876,-0.0096289254724979,-0.0074161044321954
1770447676897,-0.277374267578125,-0.9350738525390624,0.1998443603515625,0.0203920900821685,-0.007783621083945,-0.0073513896204531
1770447676907,-0.2747344970703125,-0.937042236328125,0.2009124755859375,0.0170634053647518,-0.0055050202645361,-0.0057886471040546
1770447676917,-0.2714691162109375,-0.9384765625,0.20452880859375,0.0149483233690261,0.0041111218743026,-0.0035103126429021
1770447676927,-0.2683563232421875,-0.9418182373046876,0.2026214599609375,0.0124638602137565,0.0058277952484786,-0.0013432984706014
1770447676937,-0.26708984375,-0.9417572021484376,0.200836181640625,0.0070291473530232,0.002182993106544,0.0019473034190014
1770447676950,-0.26947021484375,-0.94024658203125,0.2018280029296875,0.0042765042744576,0.0047894287854433,0.0035036546178162
1770447676957,-0.271392822265625,-0.93988037109375,0.200225830078125,0.0009155947482213,0.0096078859642148,0.0028218855150043
1770447676967,-0.2736663818359375,-0.938720703125,0.201263427734375,-0.0030844730790704,0.0131757231429219,0.0038472025189548
1770447676977,-0.2740631103515625,-0.937530517578125,0.202667236328125,-0.003981692250818,0.0115823540836572,0.0015172028215602
1770447676987,-0.275390625,-0.938079833984375,0.20135498046875,-0.0048517468385398,0.0042117894627153,0.0012817793758586
1770447676997,-0.2750091552734375,-0.9382476806640624,0.2007904052734375,-0.0056637446396052,0.0037119139451533,-0.0018594190478324
1770447677007,-0.273773193359375,-0.9380950927734376,0.2014617919921875,-0.0078874845057725,0.0060001020319759,-0.0013856426812708
1770447677018,-0.2726593017578125,-0.9375457763671876,0.203369140625,-0.0077567230910062,0.0134572191163897,-0.0013768542557954
1770447677028,-0.27410888671875,-0.9384765625,0.2009124755859375,-0.0074501931667327,0.0136654786765575,0.0013893711147829
1770447677038,-0.27423095703125,-0.9387664794921876,0.1937103271484375,-0.0048773130401968,0.0021648835390806,-0.0008679241873323
1770447677048,-0.27667236328125,-0.934173583984375,0.1948089599609375,-0.0058730691671371,0.0057678744196891,0.000580835447181
1770447677058,-0.275360107421875,-0.9317626953125,0.1968536376953125,-0.006679474376142,0.011192200705409,-0.0009129316313192
1770447677068,-0.2731475830078125,-0.939453125,0.20037841796875,-0.009778594598174,0.0120348250493407,0.0044437507167458
1770447677078,-0.26922607421875,-0.951385498046875,0.201446533203125,-0.0068128984421491,0.0030977888964116,0.0109660979360342
1770447677088,-0.265716552734375,-0.9515228271484376,0.1968231201171875,-0.0064855962991714,-0.0038365498185157,0.0136835882440209
1770447677098,-0.2661285400390625,-0.94329833984375,0.197479248046875,-0.0066528427414596,0.0002348908019484,0.0108438590541481
1770447677108,-0.275543212890625,-0.93280029296875,0.2003936767578125,-0.0114683704450726,0.0096912430599331,0.0053606769070029
1770447677118,-0.2848052978515625,-0.92816162109375,0.20098876953125,-0.0131357759237289,0.0128122018650174,-0.0015848471084609
1770447677128,-0.285064697265625,-0.9382476806640624,0.19964599609375,-0.0092318477109074,0.0083335638046264,-0.0032645028550177
1770447677138,-0.2751312255859375,-0.9474029541015624,0.1973876953125,-0.0062027685344219,0.0094598140567541,-0.0016088156262412
1770447677148,-0.272308349609375,-0.942901611328125,0.1945343017578125,-0.0012183962389826,0.0118803614750504,-0.0021800636313855
1770447677158,-0.2739410400390625,-0.947845458984375,0.193878173828125,0.005510080140084,0.0006543386843986,-0.0001347559446003
1770447677169,-0.2719268798828125,-0.94140625,0.1944732666015625,0.0074272900819778,-0.0032381375785917,-0.0048608016222715
1770447677178,-0.278350830078125,-0.9241180419921876,0.1951904296875,0.0125370966270565,-0.0077484669163823,-0.0144646931439638
1770447677188,-0.279754638671875,-0.93524169921875,0.1988983154296875,0.0159954782575368,-0.0085735144093632,-0.0106798084452748
1770447677198,-0.2666778564453125,-0.9478759765625,0.1999359130859375,0.0227327421307563,-0.0104009751230478,-0.0130649358034133
1770447677208,-0.27020263671875,-0.930877685546875,0.1966094970703125,0.0286891683936119,-0.0079828249290585,-0.0174239967018365
1770447677219,-0.2802886962890625,-0.9208221435546876,0.1946868896484375,0.0290186014026403,-0.0070693609304726,-0.02294765971601
1770447677228,-0.2834625244140625,-0.9183349609375,0.19879150390625,0.0293781291693449,-0.0078560588881373,-0.0298985112458467
1770447677239,-0.2819671630859375,-0.924560546875,0.2038421630859375,0.0259082969278097,-0.0024873923975974,-0.0277820955961942
1770447677249,-0.2740325927734375,-0.9372711181640624,0.2034912109375,0.0242795068770647,-0.0099029643461108,-0.0203007441014051
1770447677259,-0.2671966552734375,-0.948883056640625,0.203094482421875,0.0223457850515842,-0.0126279108226299,-0.012214321643114
1770447677269,-0.264434814453125,-0.95294189453125,0.198638916015625,0.0176013633608818,-0.0139488391578197,-0.0060536316595971
1770447677279,-0.2665557861328125,-0.9481353759765624,0.19970703125,0.0057063554413616,-0.0049849050119519,-0.0005680522299371
1770447677289,-0.267669677734375,-0.945404052734375,0.2047271728515625,-0.0107743507251143,0.0030112362001091,0.0038005972746759
1770447677299,-0.2678985595703125,-0.9464263916015624,0.2072296142578125,-0.0202336329966783,0.0133557524532079,0.0074248928576707
1770447677309,-0.2683563232421875,-0.9431304931640624,0.204559326171875,-0.0264209546148777,0.0143086314201354,0.0064142234623432
1770447677319,-0.2724151611328125,-0.943023681640625,0.20263671875,-0.0290454998612403,0.0124156568199396,0.0046557383611798
1770447677330,-0.274017333984375,-0.9406585693359376,0.2039947509765625,-0.0283887647092342,0.0103969806805253,0.0002170476218452
1770447677339,-0.27484130859375,-0.942596435546875,0.2081756591796875,-0.0269538536667823,0.0115613145753741,-0.0003957457374781
1770447677349,-0.276031494140625,-0.9407958984375,0.2095184326171875,-0.0257687456905841,0.0113085806369781,-0.0049207229167222
1770447677359,-0.276702880859375,-0.93798828125,0.2057647705078125,-0.0217087566852569,0.0058203386142849,-0.0079207736998796
1770447677369,-0.2776336669921875,-0.9360504150390624,0.1981658935546875,-0.016922790557146,-0.0048184571787714,-0.0073143718764185
1770447677379,-0.2756805419921875,-0.9362335205078124,0.1941070556640625,-0.0104284062981605,-0.0051153996028006,-0.0083711137995123
1770447677389,-0.27410888671875,-0.9384002685546876,0.1908721923828125,-0.0014293185668066,-0.0057953046634793,-0.007897337898612
1770447677399,-0.2708892822265625,-0.9388885498046876,0.1911163330078125,0.0043220440857112,-0.0030477214604616,-0.0051976912654936
1770447677409,-0.266937255859375,-0.9401397705078124,0.192840576171875,0.0085016088560223,-0.0010761833982542,-0.0017606157343834
1770447677419,-0.265289306640625,-0.9397430419921876,0.1949615478515625,0.0101999072358012,2.956108801299706e-05,0.0035856801550835
1770447677429,-0.2670440673828125,-0.940338134765625,0.1970367431640625,0.0082057323306798,-0.0018865832826122,0.0064685516990721
1770447677439,-0.266357421875,-0.94342041015625,0.2003631591796875,0.0074406056664884,-0.0006961502949707,0.0083764409646391
1770447677450,-0.265594482421875,-0.9511871337890624,0.2022247314453125,0.0058613512665033,-0.003181678475812,0.0132947666570544
1770447677459,-0.261810302734375,-0.9510955810546876,0.20306396484375,0.001759816892445,0.0016327840276062,0.0174658093601465
1770447677470,-0.2680511474609375,-0.9422454833984376,0.2021942138671875,0.0003494067350402,0.0047904942184686,0.0171542186290025
1770447677480,-0.27569580078125,-0.9338226318359376,0.2024688720703125,-0.0033704966772347,0.0106899281963706,0.0115629127249121
1770447677490,-0.2779998779296875,-0.9283294677734376,0.2020416259765625,-0.00702302204445,0.0143472477793693,0.0047806403599679
1770447677500,-0.2779998779296875,-0.9266357421875,0.2019500732421875,-0.0075069186277687,0.0170700643211603,0.0013986921403557
1770447677510,-0.2750244140625,-0.937744140625,0.2012786865234375,-0.0055953012779355,0.0112233599647879,-0.0005696501466445
1770447677520,-0.2727813720703125,-0.9428558349609376,0.1982574462890625,-0.0017622136510908,0.003828294109553,-0.001865011639893
1770447677530,-0.2749176025390625,-0.9389801025390624,0.19720458984375,-0.0009547432418912,0.001971804536879,-0.0041151163168251
1770447677540,-0.2765350341796875,-0.9390716552734376,0.20068359375,-0.0018239989876747,0.0027577031869441,-0.0033427998423576
1770447677550,-0.27520751953125,-0.9412994384765624,0.204132080078125,-0.0052837114781141,0.0077601848170161,-0.0013611416798084
1770447677560,-0.2710113525390625,-0.942474365234375,0.2062835693359375,-0.0063226106576621,0.0069628343917429,0.0014013553736731
1770447677570,-0.2691802978515625,-0.943145751953125,0.2033538818359375,-0.0036456012167036,0.0052600093185901,0.0017595505341887
1770447677583,-0.2712554931640625,-0.9427490234375,0.1982421875,0.0029409287963062,-0.0007904262165538,0.0011992214713245
1770447677590,-0.274322509765625,-0.93817138671875,0.1932830810546875,0.0101394532248377,-0.0017624800093472,-0.0017289242241531
1770447677600,-0.2755126953125,-0.9330291748046876,0.1944580078125,0.0151043841615319,0.0012450277572497,-0.0021007014438509
1770447677610,-0.277618408203125,-0.93145751953125,0.1963348388671875,0.0166604686528444,-0.0017499631503596,-0.0030796795617789
1770447677620,-0.2776031494140625,-0.9332275390625,0.2012176513671875,0.0151086449623107,-0.006492253858596,-0.0027574370615184
1770447677630,-0.2748565673828125,-0.93768310546875,0.201812744140625,0.01456855610013,-0.0057771950960159,-0.0048549426719546
1770447677640,-0.272369384765625,-0.9411163330078124,0.2044525146484375,0.0090361051261425,-0.0018761969404295,-0.0005472796037793
1770447677651,-0.2710418701171875,-0.9407806396484376,0.2059478759765625,0.0027915253303945,0.0064688180573284,-0.0030317425262182
1770447677660,-0.2711334228515625,-0.93939208984375,0.2064666748046875,-0.0009824400767683,0.0042828954756259,0.0007427555974572
1770447677670,-0.271942138671875,-0.9373016357421876,0.206817626953125,-0.0057257963344454,0.0034740935079753,0.0006495449924841
1770447677681,-0.2722930908203125,-0.9382171630859376,0.2069549560546875,-0.0109154982492327,0.0048512141220271,0.0020162791479378
1770447677691,-0.271484375,-0.9388275146484376,0.2056427001953125,-0.0168431624770164,0.0072461948730051,0.0058142133057117
1770447677701,-0.270294189453125,-0.939056396484375,0.205535888671875,-0.0199449453502893,0.013522733002901,0.0039510657079517
1770447677711,-0.273101806640625,-0.93878173828125,0.204620361328125,-0.0197966080158948,0.0173278581351041,0.0030533140525221
1770447677721,-0.2747802734375,-0.9400634765625,0.200592041015625,-0.021450962871313,0.0133919715881347,0.0015947008505463
1770447677731,-0.2738037109375,-0.9384307861328124,0.2000885009765625,-0.0179329272359609,0.0120582608506083,0.0008303736103698
1770447677741,-0.273529052734375,-0.939208984375,0.19927978515625,-0.0134212663397192,0.0044610612094402,-0.0021710088476538
1770447677751,-0.2748565673828125,-0.938934326171875,0.196044921875,-0.0075402078218758,-0.0007235808880068,-0.0038290929514914
1770447677761,-0.274505615234375,-0.9361724853515624,0.19573974609375,-0.0036653084680438,0.0045191179960966,-0.0043537355959415
1770447677771,-0.273681640625,-0.9377593994140624,0.197021484375,0.0012634035665541,0.0033784860279411,-0.0035654399544
1770447677781,-0.2739410400390625,-0.94012451171875,0.196136474609375,0.007252852898091,-0.002386991167441,-0.0037622477393597
1770447677791,-0.2735137939453125,-0.9392852783203124,0.1965789794921875,0.009066998027265,-0.0052576125599443,-0.0026088326703757
1770447677801,-0.2732696533203125,-0.9410858154296876,0.2007293701171875,0.0063971793279051,-0.003450924064964,-0.0007853662245906
1770447677811,-0.2722930908203125,-0.94146728515625,0.2028045654296875,0.0049114017747342,-0.0014298511669039,-0.001300155185163
1770447677821,-0.2723388671875,-0.937530517578125,0.2030792236328125,0.0040975394658744,-0.0016772588714957,-0.0030397321097552
1770447677831,-0.2758331298828125,-0.9307708740234376,0.201263427734375,0.004407531581819,0.0009371663909405,-0.0067018447443842
1770447677841,-0.2774505615234375,-0.9345703125,0.1991424560546875,0.0025547703262418,0.0004807005752809,-0.0051982239820063
1770447677851,-0.2711639404296875,-0.9460296630859376,0.2014617919921875,0.0040685110725462,0.0049817091785371,0.0001704423048067
1770447677861,-0.267364501953125,-0.948944091796875,0.202728271484375,0.005511678289622,0.0080406162887811,0.0041215079836547
1770447677871,-0.2684478759765625,-0.942596435546875,0.2018585205078125,0.0048259142786264,0.0048634647391736,0.0050371028482913
1770447677883,-0.2741546630859375,-0.9347686767578124,0.2013397216796875,0.0037678403314203,0.0044200485572218,0.0023105584550648
1770447677891,-0.2778778076171875,-0.9319915771484376,0.2021636962890625,-0.0005544701125472,0.0014948323369026,-0.001365668955259
1770447677902,-0.278106689453125,-0.9312591552734376,0.20465087890625,-0.0037902109324932,-0.0021848573815077,-0.0043223104439675
1770447677912,-0.27301025390625,-0.940887451171875,0.20599365234375,-0.0063875918276607,0.0016948357224464,-0.0031057784799486
1770447677922,-0.2666168212890625,-0.952301025390625,0.2060089111328125,-0.0066983825527131,0.0094108125194907,0.0002522013674024
1770447677932,-0.2659149169921875,-0.9506072998046876,0.200592041015625,-0.0010378338629379,0.0044693169184029,0.0064626927487552
1770447677942,-0.2717132568359375,-0.9485931396484376,0.197662353515625,0.0034967304673045,-0.0092209288850426,0.0015475628897547
1770447677952,-0.27410888671875,-0.930328369140625,0.198974609375,0.0011800467036664,-0.0004572647449094,-0.0067628310061991
1770447677962,-0.281219482421875,-0.9200439453125,0.204620361328125,0.001089232857339,-0.0034202977549284,-0.0124561367556452
1770447677972,-0.27728271484375,-0.9424285888671876,0.2070465087890625,0.0009696569177322,-0.0112579809501767,-0.0072184982709586
1770447677982,-0.264190673828125,-0.9404296875,0.2059173583984375,0.0078334221616387,-0.0134700024500489,-0.0118819596245884
1770447677992,-0.2722320556640625,-0.9224700927734376,0.1989898681640625,0.0121730426326394,-0.0110449278727173,-0.0184618309140205
1770447678002,-0.280242919921875,-0.920379638671875,0.1995086669921875,0.0142055675387382,-0.0110238892957568,-0.0221124924719333
1770447678012,-0.2784423828125,-0.9234161376953124,0.2045440673828125,0.0111972605809569,-0.0087295761331915,-0.0285922307521104
1770447678022,-0.2762298583984375,-0.928985595703125,0.209197998046875,0.0050653321668505,-0.004618720151484,-0.0245218537747859
1770447678032,-0.2705535888671875,-0.9417877197265624,0.209442138671875,3.1691615731688216e-05,-0.0029787456151098,-0.0155038582161068
1770447678042,-0.26458740234375,-0.9504852294921876,0.208587646484375,-0.0025313345249742,-0.0066267438232898,-0.003948668949306
1770447678052,-0.2651519775390625,-0.951446533203125,0.20440673828125,-0.0070456587709486,0.0018998990999534,0.0033723609521985
1770447678062,-0.26495361328125,-0.9478302001953124,0.1998748779296875,-0.0156836211681365,0.0101479748263955,0.0068515143357217
1770447678072,-0.2686614990234375,-0.946990966796875,0.198822021484375,-0.0235287621617317,0.0161001402884721,0.0089261168614029
1770447678082,-0.2687225341796875,-0.9464569091796876,0.20074462890625,-0.0298002399504184,0.0214272607117891,0.0086440881714224
1770447678092,-0.27020263671875,-0.9458465576171876,0.199859619140625,-0.0336905866861343,0.0231846813112497,0.0069082397967576
1770447678103,-0.2728729248046875,-0.9432373046875,0.2014007568359375,-0.0352437421679496,0.0182037707418203,0.0036035231314599
1770447678113,-0.2747039794921875,-0.9402008056640624,0.204376220703125,-0.0319890901446342,0.0183531753718853,0.0003800330741796
1770447678123,-0.2755889892578125,-0.9404296875,0.202972412109375,-0.0240749754011631,0.0118430769070982,-0.0050189932808279
1770447678133,-0.2779388427734375,-0.9383544921875,0.2017669677734375,-0.0152505915611982,0.0017885789275169,-0.0087780449539422
1770447678143,-0.27935791015625,-0.934967041015625,0.19952392578125,-0.0080408826470375,-0.0067487163469195,-0.0126454876735806
1770447678153,-0.2772369384765625,-0.933990478515625,0.1975555419921875,-0.0028354676906019,-0.0038429414853453,-0.0124867632985115
1770447678163,-0.2740631103515625,-0.9353179931640624,0.19830322265625,0.0022687469609081,0.003458114573732,-0.0133725302293896
1770447678173,-0.2724761962890625,-0.93902587890625,0.1945037841796875,0.0132335135713219,-0.00234757643193,-0.0113027216866612
1770447678183,-0.2691650390625,-0.9435272216796876,0.19219970703125,0.0220363270491361,-0.0121496068313717,-0.0097567569464445
1770447678193,-0.2660675048828125,-0.94427490234375,0.193756103515625,0.0290532223880291,-0.0147866690531373,-0.0077282269485294
1770447678203,-0.264984130859375,-0.9443511962890624,0.1962890625,0.0286241881549358,-0.0111791510134935,-0.00042663840577
1770447678213,-0.265472412109375,-0.939178466796875,0.199249267578125,0.0261330660432577,-0.007366569712758,0.00202107289806
1770447678223,-0.267669677734375,-0.9406890869140624,0.20465087890625,0.0202733129262924,-0.0008412926108576,0.0041188448667526
1770447678233,-0.26824951171875,-0.9452362060546876,0.207916259765625,0.0143776079639792,0.004449876025319,0.0047689224593341
1770447678243,-0.2638702392578125,-0.950286865234375,0.20904541015625,0.0066688214428722,0.004316717851907,0.0123149892315268
1770447678253,-0.2666015625,-0.940887451171875,0.2108612060546875,-0.0020066918805241,0.0034772893413901,0.0134526919573545
1770447678263,-0.27374267578125,-0.9307708740234376,0.2110443115234375,-0.0092009548097848,0.0056720003485679,0.0105746136978268
1770447678273,-0.27532958984375,-0.9279632568359376,0.2098846435546875,-0.0157707072794437,0.0091759217903018,0.004586495924741
1770447678283,-0.2754058837890625,-0.928009033203125,0.2082366943359375,-0.0215684082359075,0.0034163030795753,0.0025057683233171
1770447678293,-0.2729339599609375,-0.937042236328125,0.207061767578125,-0.023233151063323,0.0051883705891668,-0.0004596615908667
1770447678303,-0.2679595947265625,-0.940582275390625,0.2078857421875,-0.025169001892209,0.0096305226907134,0.0004756405542138
1770447678314,-0.269500732421875,-0.940826416015625,0.2065277099609375,-0.0280207153409719,0.0122864935547113,0.0009177253232337
1770447678324,-0.272430419921875,-0.939300537109375,0.2019805908203125,-0.0258174818009138,0.0117818247526884,-0.0004932174342684
1770447678334,-0.27252197265625,-0.941314697265625,0.2018890380859375,-0.0243639294058084,0.0127584058791399,-0.0024325312115252
1770447678344,-0.2730712890625,-0.9445037841796876,0.2021942138671875,-0.022752184420824,0.0198512021452188,0.0028871328104287
1770447678354,-0.2712860107421875,-0.9423370361328124,0.2008514404296875,-0.019647205248475,0.0184160247445106,0.001528920722194
1770447678364,-0.2727508544921875,-0.9419708251953124,0.196197509765625,-0.0127520142123103,0.0081729749217629,0.0035782232880592
1770447678374,-0.2736968994140625,-0.93994140625,0.193267822265625,-0.0041004689410328,-0.0005358280031941,-0.0007869640830904
1770447678384,-0.2745819091796875,-0.93560791015625,0.1933441162109375,0.0018567559309303,-0.0064198160544037,-0.0036120454315096
1770447678394,-0.2760009765625,-0.935760498046875,0.195404052734375,0.0050171292386949,-0.0058376491069793,-0.0048253815621137
1770447678404,-0.27734375,-0.9344024658203124,0.1973419189453125,0.0068512479774653,-0.0040677119977772,-0.005373460240662
1770447678414,-0.2758026123046875,-0.9360504150390624,0.1985321044921875,0.0114593161270022,-0.0058962386101484,-0.0074158385396003
1770447678424,-0.2718963623046875,-0.937896728515625,0.2011566162109375,0.0128537472337484,-0.0013771206140518,-0.0055758603848516
1770447678434,-0.2697296142578125,-0.9390106201171876,0.1996917724609375,0.0153509927913546,-0.0050642671994864,-0.0075039891526103
1770447678444,-0.2706146240234375,-0.9390106201171876,0.200286865234375,0.0198251027613878,-0.0050709252245724,-0.0066792080178856
1770447678454,-0.2720489501953125,-0.9387969970703124,0.199737548828125,0.0201500095427036,-0.0118654482066631,-0.0057130130007863
1770447678464,-0.2709808349609375,-0.9404144287109376,0.2008819580078125,0.0192914064973592,-0.006474410649389,-0.0039159120060503
1770447678474,-0.2698211669921875,-0.9392852783203124,0.201934814453125,0.0181281380355358,-0.0088978875428438,-0.0025148231070488
1770447678484,-0.2695159912109375,-0.938018798828125,0.205322265625,0.0139179462566971,-0.0055039548315107,-0.0012956279097124
1770447678494,-0.2699432373046875,-0.937744140625,0.207061767578125,0.0071242223493754,-0.0005661880713887,-0.0012199940392747
1770447678504,-0.27105712890625,-0.938629150390625,0.2096710205078125,0.00059042283101,0.0023369237314909,0.0001757686259225
1770447678514,-0.270111083984375,-0.938934326171875,0.212860107421875,-0.0081202443689107,0.0038655782118439,0.0011880361707881
1770447678524,-0.2695159912109375,-0.9384918212890624,0.2135772705078125,-0.0154314208775758,0.0096672745421528,-0.0009046758059412
1770447678534,-0.2711639404296875,-0.938079833984375,0.2108001708984375,-0.0157512668520212,0.0116231003776192,6.01874417043291e-05
1770447678544,-0.272430419921875,-0.9354248046875,0.204620361328125,-0.0132729280740022,0.006678675301373,-0.0040000677108764
1770447678555,-0.2743682861328125,-0.9381866455078124,0.2028961181640625,-0.0131661361083388,0.0023244069889187,-0.0036884781438857
1770447678565,-0.270599365234375,-0.9388275146484376,0.2015228271484375,-0.0136907780542969,-0.0030977888964116,-0.004332962911576
1770447678575,-0.2710723876953125,-0.9398651123046876,0.2058258056640625,-0.0140601592138409,-0.0044259075075387,-0.0010966897243633
1770447678585,-0.2701873779296875,-0.9366607666015624,0.2069549560546875,-0.0205865018069744,-0.0028370653744786,0.0004711131914518
1770447678595,-0.2704620361328125,-0.9370880126953124,0.2082672119140625,-0.0242936220020055,0.0006311691831797,0.0006106628570705
1770447678605,-0.271392822265625,-0.9333648681640624,0.208404541015625,-0.0291810538619756,0.0096797915175557,-0.0001997370854951
1770447678616,-0.272552490234375,-0.935791015625,0.2055206298828125,-0.0290385764092206,0.0145512456074357,0.0002418150252196
1770447678625,-0.2698822021484375,-0.944122314453125,0.20318603515625,-0.0299941170960664,0.012057994492352,0.0035273567773401
1770447678635,-0.2690582275390625,-0.9491729736328124,0.200836181640625,-0.0266491882503032,0.0069372681900858,0.0068126325495541
1770447678645,-0.26849365234375,-0.9444580078125,0.1980438232421875,-0.0251913722604513,0.007095992565155,0.0056320531293749
1770447678655,-0.2740478515625,-0.93621826171875,0.1998443603515625,-0.025113608688116,0.009441970847547,0.0024919197894632
1770447678665,-0.2763671875,-0.9326629638671876,0.198974609375,-0.0236286297440528,0.011484881862998,-0.0002540655550546
1770447678675,-0.2773590087890625,-0.9332275390625,0.1981964111328125,-0.0184410586953163,0.0076621808111667,-0.0063737435266375
1770447678685,-0.27606201171875,-0.939544677734375,0.194061279296875,-0.0114654414355754,-0.0053929011337459,-0.0065881279297173
1770447678695,-0.2689971923828125,-0.9498138427734376,0.193450927734375,-0.0058722700923681,-0.0086478162556886,-0.0021206750534474
1770447678705,-0.2622833251953125,-0.9547576904296876,0.1949462890625,-0.0018274611793458,-0.0031768847256898,0.0047207195311784
1770447678715,-0.2660064697265625,-0.9527740478515624,0.1981201171875,0.0006364954751916,0.0011861718958243,0.0063327308744192
1770447678725,-0.271209716796875,-0.937286376953125,0.198486328125,0.0016532903537154,0.0020857877098023,-0.0021789984311908
1770447678735,-0.2759857177734375,-0.9209747314453124,0.196746826171875,0.0054933023639023,-0.0014351775171235,-0.0079945428296923
1770447678745,-0.277557373046875,-0.9359588623046876,0.1998748779296875,0.0133885098621249,-0.0055713327601552,-0.0046219159848988
1770447678755,-0.267791748046875,-0.9471893310546876,0.1980133056640625,0.0231497939676046,-0.0145232826471328,-0.0069708242081105
1770447678766,-0.2676849365234375,-0.927947998046875,0.19439697265625,0.0319267734885215,-0.0171816498041152,-0.0201846305280923
1770447678775,-0.2783966064453125,-0.917755126953125,0.1973419189453125,0.0331949703395366,-0.0156319569796323,-0.0264893975108861
1770447678786,-0.284423828125,-0.9192962646484376,0.2047576904296875,0.0288995578885078,-0.0132324481382966,-0.0322322398424148
1770447678796,-0.278106689453125,-0.9253082275390624,0.212554931640625,0.0236917473375797,-0.0056211338378489,-0.0287296492606401
1770447678806,-0.2682952880859375,-0.9394073486328124,0.2100677490234375,0.0166876334697008,-0.0057654771953821,-0.0192253589630126
1770447678816,-0.261566162109375,-0.951568603515625,0.208709716796875,0.0135251302272081,-0.0057745319791138,-0.0103903226554393
1770447678826,-0.2620086669921875,-0.9544677734375,0.2045440673828125,0.0052448292262852,-0.0043798345141112,-0.0021891184151172
1770447678836,-0.262969970703125,-0.950714111328125,0.2032928466796875,-0.0043960800394415,-0.0020796624012291,0.0041310954838991
1770447678847,-0.26373291015625,-0.9468231201171876,0.2067718505859375,-0.0188067108392715,0.0013310478534549,0.0075431372970342
1770447678856,-0.2679443359375,-0.9442138671875,0.2109222412109375,-0.0333342552185058,0.007423295173794,0.0082400869578123
1770447678866,-0.26837158203125,-0.9430999755859376,0.211669921875,-0.0439498797059059,0.0143693517893552,0.0103242760524153
1770447678876,-0.2695465087890625,-0.942169189453125,0.209686279296875,-0.0516623966395854,0.0142870601266622,0.0097682084888219
1770447678886,-0.2708892822265625,-0.9377899169921876,0.207275390625,-0.0522200614213943,0.0164918918162584,0.005527124274522
1770447678896,-0.27581787109375,-0.9364471435546876,0.2068328857421875,-0.0482210591435432,0.0123698506504297,0.0003733751946128
1770447678906,-0.2771453857421875,-0.9385223388671876,0.203369140625,-0.0403261184692382,0.0024027039762586,-0.0050235209055244
1770447678916,-0.2758026123046875,-0.9392547607421876,0.2015838623046875,-0.037278663367033,0.0003635214816313,-0.0093903057277202
1770447678926,-0.27557373046875,-0.93975830078125,0.2008819580078125,-0.0337268039584159,0.0022615564521402,-0.0128854382783174
1770447678936,-0.275390625,-0.939178466796875,0.1988677978515625,-0.0241402238607406,0.0012146678054705,-0.0097748665139079
1770447678946,-0.270294189453125,-0.9378204345703124,0.1957550048828125,-0.0160018689930439,-0.002552373567596,-0.0098531637340784
1770447678956,-0.2674560546875,-0.9416656494140624,0.1919097900390625,-0.0071098413318395,-0.0048227184452116,-0.0089096054434776
1770447678966,-0.265380859375,-0.94354248046875,0.1904144287109375,-0.0001270327775273,-0.0068291439674794,-0.0050634681247174
1770447678976,-0.2640533447265625,-0.942840576171875,0.192230224609375,0.0061146179214119,-0.002560895634815,0.0019619506783783
1770447678987,-0.2628173828125,-0.9405670166015624,0.1922760009765625,0.010433199815452,-0.0069196913391351,0.0061497716233134
1770447678996,-0.26324462890625,-0.9432830810546876,0.1963348388671875,0.0136439064517617,-0.0069676283746957,0.007635282818228
1770447679007,-0.263916015625,-0.9488677978515624,0.197479248046875,0.0140825295820832,-0.0063393884338438,0.009359679184854
1770447679017,-0.2615203857421875,-0.9512786865234376,0.1981658935546875,0.0125946216285228,-0.0025318672414869,0.0161928180605173
1770447679027,-0.2618560791015625,-0.9446563720703124,0.198974609375,0.0118534639477729,-0.0047936900518834,0.0161669850349426
1770447679037,-0.2705841064453125,-0.9341278076171876,0.200836181640625,0.0078280959278345,0.0017286578658968,0.0121152522042393
1770447679047,-0.2743682861328125,-0.9323272705078124,0.2047271728515625,0.003148122690618,0.0085748462006449,0.0070065106265246
1770447679057,-0.276611328125,-0.9301300048828124,0.2043914794921875,0.0001736380945658,0.005470132920891,-0.0006447513005696
1770447679067,-0.2731781005859375,-0.93853759765625,0.2037200927734375,-0.00164450192824,0.000655403942801,-0.0004783037293236
1770447679077,-0.26800537109375,-0.943939208984375,0.20355224609375,-0.0050000851042568,0.0084158554673194,0.0008602010202594
1770447679087,-0.2686767578125,-0.9435882568359376,0.20416259765625,-0.0085458178073167,0.0151310162618756,0.0015864450251683
1770447679097,-0.273101806640625,-0.939605712890625,0.2022552490234375,-0.0092179989442229,0.0143357962369918,0.0020048276055604
1770447679107,-0.274322509765625,-0.9397430419921876,0.20318603515625,-0.0098395813256502,0.0098552936688065,0.000899615813978
1770447679117,-0.273468017578125,-0.9416351318359376,0.20159912109375,-0.0079263662919402,0.0064136907458305,0.0010740528814494
1770447679127,-0.271820068359375,-0.9439697265625,0.1991729736328125,-0.0006000102148391,0.0001989381271414,0.0032024511601775
1770447679137,-0.270355224609375,-0.94171142578125,0.193939208984375,0.009884588420391,-0.0052027516067028,0.0035260252188891
1770447679147,-0.2717132568359375,-0.9368438720703124,0.1937408447265625,0.0178253352642059,-0.0090302461758255,0.0003925499331671
1770447679157,-0.2744140625,-0.93524169921875,0.1938629150390625,0.0243005454540252,-0.0141616249457001,0.0006892260862514
1770447679167,-0.2720947265625,-0.9348602294921876,0.1971893310546875,0.0288180653005838,-0.0118031296879053,0.0017233315156772
1770447679177,-0.270355224609375,-0.935150146484375,0.20062255859375,0.028186097741127,-0.0094150733202695,-0.0020498351659625
1770447679188,-0.270965576171875,-0.93634033203125,0.203155517578125,0.0268771536648273,-0.0044919536449015,-0.0014040184905752
1770447679197,-0.2707061767578125,-0.9347991943359376,0.2055206298828125,0.0239799004048109,0.0010317085543647,-0.0017787253018468
1770447679207,-0.2693634033203125,-0.9381103515625,0.2078399658203125,0.0192956663668155,0.0006167881074361,7.856325100874528e-05
1770447679217,-0.26885986328125,-0.940093994140625,0.20916748046875,0.0134060867130756,0.0015592807903885,0.0016948357224464
1770447679228,-0.2686004638671875,-0.9406585693359376,0.2101898193359375,0.0070328759029507,-0.0018727348651736,0.0035300198942422
1770447679238,-0.2694549560546875,-0.940673828125,0.2122955322265625,-0.0016335829859599,0.0016953683225437,0.0036906085442751
1770447679248,-0.2698211669921875,-0.94036865234375,0.21136474609375,-0.0099809952080249,0.0040522660128772,0.0040607880800962
1770447679258,-0.2704925537109375,-0.9400482177734376,0.210174560546875,-0.018069015815854,0.0005592638044618,0.0035297537688165
1770447679268,-0.2683868408203125,-0.940338134765625,0.2092437744140625,-0.0227175634354352,0.0003406183095648,0.0041657164692878
1770447679278,-0.271270751953125,-0.9405364990234376,0.2087554931640625,-0.0276382863521575,0.0031449268572032,0.0015435680979862
1770447679288,-0.269927978515625,-0.938720703125,0.206085205078125,-0.0256590247154235,0.0065851984545588,0.0019976370967924
1770447679298,-0.27020263671875,-0.938079833984375,0.2021331787109375,-0.0277346912771463,0.0112494584172964,7.323692989302799e-05
1770447679308,-0.2704010009765625,-0.93853759765625,0.2007598876953125,-0.0241293050348758,0.0148623026907444,-0.0001528654393041
1770447679318,-0.2716064453125,-0.937835693359375,0.1999359130859375,-0.0199002046138048,0.0161315649747848,-0.0014431669842451
1770447679328,-0.2713775634765625,-0.9380645751953124,0.198333740234375,-0.0123999444767832,0.0112180337309837,-0.0022887205705046
1770447679338,-0.2719573974609375,-0.93731689453125,0.197509765625,-0.0057439059019088,0.0102696819230914,-0.000336090917699
1770447679348,-0.273101806640625,-0.9381561279296876,0.1948394775390625,0.0002157160488422,0.0020634171087294,0.0020857877098023
1770447679358,-0.270965576171875,-0.938690185546875,0.1964263916015625,0.0016634104540571,-0.0045420210808515,0.0025347967166453
1770447679368,-0.2689666748046875,-0.939910888671875,0.1985015869140625,0.0025558357592672,-0.0065761436708271,0.004114051349461
1770447679378,-0.2689361572265625,-0.936981201171875,0.2027740478515625,0.0025569009594619,-0.0056032910943031,0.0024804682470858
1770447679388,-0.271392822265625,-0.9381256103515624,0.202117919921875,0.0038650457281619,-0.003067961661145,0.0011438276851549
1770447679398,-0.2709503173828125,-0.9462738037109376,0.2003173828125,0.0082685826346278,-0.0054520233534276,0.0049817091785371
1770447679408,-0.2667083740234375,-0.9475860595703124,0.198028564453125,0.0104049704968929,-0.010620686225593,0.0062959790229797
1770447679419,-0.269287109375,-0.9415435791015624,0.2007904052734375,0.0147983869537711,-0.008822520263493,0.0029965888243168
1770447679428,-0.2724609375,-0.9372406005859376,0.2012786865234375,0.0132574820891022,-0.000883636821527,0.0018498316640034
1770447679439,-0.273956298828125,-0.9343719482421876,0.2043914794921875,0.0102545013651251,0.0038876824546605,-0.0001360875321552
1770447679449,-0.2743377685546875,-0.9363861083984376,0.20721435546875,0.0087101347744464,0.0119980731979012,-0.0054128747433424
1770447679459,-0.2712860107421875,-0.9453277587890624,0.2041778564453125,0.0082238409668207,0.0053628073073923,-0.0023883229587227
1770447679469,-0.2639007568359375,-0.9434967041015624,0.2039337158203125,0.0031031153630465,0.0074001257307827,0.0057132793590426
1770447679479,-0.2666473388671875,-0.941925048828125,0.2072296142578125,-0.0004679173871409,0.0029089709278196,0.0101346597075462
1770447679489,-0.270782470703125,-0.9459228515625,0.210113525390625,-0.0019244002178311,-0.00248579448089,0.0045473473146557
1770447679499,-0.271392822265625,-0.9330902099609376,0.2102508544921875,-0.0051931641064584,0.0019321233266964,-0.0030330740846693
1770447679509,-0.274566650390625,-0.922607421875,0.207611083984375,0.0004892227007076,-0.0036615801509469,-0.0082872249186038
1770447679519,-0.27239990234375,-0.938995361328125,0.206573486328125,0.0021955100819468,-0.0066296732984483,-0.005739910993725
1770447679529,-0.2642059326171875,-0.94390869140625,0.206512451171875,0.0060669472441077,-0.0070488546043634,-0.0066038402728736
1770447679539,-0.269287109375,-0.9253387451171876,0.2049560546875,0.0085415560752153,0.0016106797847896,-0.0130508206784725
1770447679549,-0.280120849609375,-0.912811279296875,0.203521728515625,0.0059132827445864,-0.0011036139912903,-0.0224789436906576
1770447679559,-0.2825469970703125,-0.914947509765625,0.20501708984375,0.0033321471419185,0.0015451660146936,-0.0260377265512943
1770447679569,-0.2792510986328125,-0.9323272705078124,0.2083892822265625,0.0012042814632877,0.003525492735207,-0.0205497499555349
1770447679579,-0.2677764892578125,-0.9488983154296876,0.204742431640625,-0.0017361147329211,-0.0037670412566512,-0.0114915398880839
1770447679589,-0.2596588134765625,-0.95404052734375,0.2049560546875,-0.0053002233617007,-0.0013872405979782,-0.0057172742672264
1770447679599,-0.2628173828125,-0.9501953125,0.203857421875,-0.0110657010227441,0.0008154599345289,-0.0005619269795715
1770447679609,-0.2689208984375,-0.9455718994140624,0.20257568359375,-0.0191577151417732,0.0055779907852411,0.0039883498102426
1770447679619,-0.2687835693359375,-0.943145751953125,0.2042388916015625,-0.0286793150007724,0.0074800206348299,0.0076659093610942
1770447679629,-0.267425537109375,-0.9442291259765624,0.2054901123046875,-0.0356472097337245,0.0092821819707751,0.010938667692244
1770447679639,-0.26788330078125,-0.9441986083984376,0.206298828125,-0.03759291395545,0.0061947791837155,0.0096446378156542
1770447679650,-0.2712249755859375,-0.94305419921875,0.2057342529296875,-0.0354344248771667,0.0034061830956488,0.0044341632165014
1770447679660,-0.2747039794921875,-0.9415435791015624,0.2058868408203125,-0.0327787175774574,0.0048554753884673,-0.0011174624087288
1770447679670,-0.272857666015625,-0.93975830078125,0.20635986328125,-0.0291967671364545,0.0033827472943812,-0.0071910675615072
1770447679680,-0.27398681640625,-0.9383392333984376,0.2070770263671875,-0.0246512833982706,0.0013062804937362,-0.0069191586226224
1770447679690,-0.27349853515625,-0.93798828125,0.203704833984375,-0.0161081291735172,-0.0077407439239323,-0.0090795150026679
1770447679700,-0.274566650390625,-0.9380950927734376,0.1965179443359375,-0.0040605217218399,-0.0163486134260892,-0.0106422575190663
1770447679710,-0.2733306884765625,-0.938079833984375,0.19287109375,0.0070696272887289,-0.0208067446947097,-0.0097740674391388
1770447679720,-0.2690887451171875,-0.940765380859375,0.1925048828125,0.014977884478867,-0.0189662333577871,-0.004635764285922
1770447679730,-0.2640380859375,-0.9411163330078124,0.1944122314453125,0.0211441665887832,-0.006246977020055,-0.0030509172938764
1770447679740,-0.2648162841796875,-0.9416351318359376,0.195281982421875,0.0233902782201766,-0.0036687706597149,0.0031875374261289
1770447679750,-0.26251220703125,-0.93853759765625,0.1986846923828125,0.0215702727437019,-0.0028117655310779,0.0098470384255051
1770447679760,-0.26239013671875,-0.9427947998046876,0.202606201171875,0.0204094015061855,0.0018538264557719,0.0106603670865297
1770447679770,-0.2649993896484375,-0.9513702392578124,0.2037353515625,0.0203872974961996,-0.0041119204834103,0.0142385903745889
1770447679780,-0.259735107421875,-0.9549102783203124,0.203887939453125,0.0191388074308633,-0.0065585668198764,0.0210797190666198
1770447679790,-0.263946533203125,-0.94268798828125,0.20556640625,0.0127525469288229,0.000613592332229,0.0172620769590139
1770447679800,-0.27398681640625,-0.93359375,0.20892333984375,0.008331699296832,0.0090536819770932,0.0137461721897125
1770447679810,-0.2750396728515625,-0.9313812255859376,0.2101287841796875,0.0007289071800187,0.0101282680407166,0.0082629900425672
1770447679820,-0.2749176025390625,-0.929718017578125,0.209381103515625,-0.0032690302468836,0.0091141359880566,-0.0004772384709212
1770447679830,-0.276336669921875,-0.9288177490234376,0.2089385986328125,-0.0051236557774245,0.0015771239995956,-0.0020796624012291
1770447679840,-0.27325439453125,-0.9384918212890624,0.208251953125,-0.004202201962471,0.0009867012267932,-0.0007371630053967
1770447679850,-0.2687530517578125,-0.944305419921875,0.2056427001953125,-0.0021917815320193,0.0066861324012279,-0.0009376989910379
1770447679861,-0.2704315185546875,-0.94146728515625,0.2037353515625,-0.0006354302167892,0.0103815346956253,0.0010247844038531
1770447679870,-0.270965576171875,-0.941436767578125,0.2002716064453125,0.0034866104833781,0.0073061161674559,0.0032929987646639
1770447679881,-0.270416259765625,-0.9439544677734376,0.2030181884765625,0.0029252162203192,0.0042775692418217,0.0048365667462348
1770447679891,-0.267669677734375,-0.943389892578125,0.206024169921875,0.0028682244010269,0.0049966229125857,0.0073756244964897
1770447679901,-0.2677001953125,-0.9417266845703124,0.2073211669921875,0.0044501419179141,0.0057529606856405,0.004514324478805
1770447679911,-0.2695770263671875,-0.9398345947265624,0.205413818359375,0.0089673958718776,0.0020359866321086,0.0049148639664053
1770447679921,-0.271514892578125,-0.9358978271484376,0.202178955078125,0.0123219136148691,-0.0009313074406236,0.0040860879234969
1770447679931,-0.2705230712890625,-0.9331817626953124,0.2025909423828125,0.0122489426285028,-0.0025063008069992,0.0027843348216265
1770447679941,-0.273040771484375,-0.9346771240234376,0.205963134765625,0.0071242223493754,-0.0033111080992966,0.0041803638450801
1770447679951,-0.2736968994140625,-0.933197021484375,0.210296630859375,0.0050703925080597,-0.0038956720381975,0.0031393342651426
1770447679961,-0.273193359375,-0.936431884765625,0.2127685546875,-0.0009667274425737,-0.0048999502323567,0.0027840686962008
1770447679971,-0.2701416015625,-0.9383392333984376,0.214630126953125,-0.0051380367949604,0.0018924422329291,0.0046722497791051
1770447679981,-0.2708892822265625,-0.9391021728515624,0.2113494873046875,-0.0083689838647842,0.0057271276600658,0.0048610679805278
1770447679991,-0.26983642578125,-0.9376220703125,0.210784912109375,-0.0127629330381751,0.0073212962597608,0.0067130299285054
1770447680001,-0.2674713134765625,-0.93798828125,0.2085723876953125,-0.0130598759278655,0.0076832198537886,0.0070845410227775
1770447680011,-0.2681732177734375,-0.939178466796875,0.205963134765625,-0.0138092888519167,0.0072067803703248,0.007569236215204
1770447680021,-0.2707061767578125,-0.9378814697265624,0.205322265625,-0.0135757299140095,0.0077162426896393,0.0077047911472618
1770447680031,-0.272125244140625,-0.9397430419921876,0.202362060546875,-0.0125213842839002,0.0038852856960147,0.0062701464630663
1770447680041,-0.2713470458984375,-0.9410552978515624,0.2034454345703125,-0.0088827069848775,0.0047449539415538,0.0089428946375846
1770447680051,-0.2715911865234375,-0.9404449462890624,0.2020263671875,-0.0088510159403085,0.0060507017187774,0.0052019525319337
1770447680061,-0.2711029052734375,-0.940643310546875,0.2041473388671875,-0.0071234232746064,0.0056504290550947,0.0057566887699067
1770447680072,-0.2717437744140625,-0.9386138916015624,0.2051544189453125,-0.0033670344855636,0.0053090117871761,0.0067961206659674
1770447680082,-0.2735595703125,-0.9369659423828124,0.203765869140625,-0.000507598510012,0.0051795821636915,0.0046418895944952
1770447680092,-0.274017333984375,-0.93316650390625,0.2037353515625,0.0048075383529067,0.0007563377148471,0.0023771375417709
1770447680102,-0.2761688232421875,-0.932708740234375,0.201568603515625,0.00984304305166,0.0012365056900307,0.00056485645473
1770447680112,-0.2748870849609375,-0.93585205078125,0.200408935546875,0.0104766096919775,-0.0024013724178075,0.0016737966798245
1770447680122,-0.2711181640625,-0.940277099609375,0.2024688720703125,0.0112494584172964,-0.0023446469567716,0.0030120352748781
1770447680132,-0.270721435546875,-0.936737060546875,0.2048492431640625,0.0087005468085408,0.0006572681595571,5.9388490626588464e-05
1770447680142,-0.2728271484375,-0.933990478515625,0.20654296875,0.0097788609564304,0.0001699096756055,-0.0002849582233466
1770447680152,-0.2713470458984375,-0.9414215087890624,0.207366943359375,0.0077932081185281,-0.005037635564804,0.0037436054553836
1770447680162,-0.2675628662109375,-0.9497222900390624,0.208160400390625,0.0076470007188618,-0.0057606836780905,0.0071710939519107
1770447680172,-0.265411376953125,-0.94451904296875,0.2068634033203125,0.0073884078301489,-0.0002737729519139,0.0079420786350965
1770447680182,-0.27105712890625,-0.9337615966796876,0.206298828125,0.0049742520786821,0.0012431635987013,0.0046038064174354
1770447680192,-0.2767181396484375,-0.92938232421875,0.207794189453125,0.003925765864551,0.0027659591287374,0.0018836538074538
1770447680202,-0.278289794921875,-0.92864990234375,0.2078704833984375,0.0011954930378124,0.0002002697146963,-0.0024873923975974
1770447680212,-0.2760009765625,-0.94049072265625,0.21099853515625,-0.0020556941162794,-0.0063508399762213,0.0017164073651656
1770447680222,-0.2641754150390625,-0.9456634521484376,0.212921142578125,-0.0090342415496706,0.001978195970878,0.0041675809770822
1770447680232,-0.2666473388671875,-0.9397430419921876,0.2138824462890625,-0.0140811977908015,0.0163118615746498,0.0094414390623569
1770447680242,-0.2701263427734375,-0.9484405517578124,0.215576171875,-0.0179521031677722,0.0107655627653002,0.0120942136272788
1770447680252,-0.2658538818359375,-0.943939208984375,0.21173095703125,-0.0163784399628639,0.0158865544945001,0.006344448775053
1770447680262,-0.2720947265625,-0.9228057861328124,0.2064666748046875,-0.0101016359403729,0.0070877368561923,-0.0034836810082197
1770447680272,-0.2788543701171875,-0.93353271484375,0.20391845703125,-0.0038205708842724,-0.005387841258198,-0.0024237427860498
1770447680282,-0.270294189453125,-0.94366455078125,0.2028961181640625,0.0030226877424865,-0.0057146111503243,-0.0079764332622289
1770447680292,-0.2734375,-0.9267425537109376,0.2037811279296875,0.00688480399549,-0.0031161648221313,-0.013121660798788
1770447680303,-0.2791900634765625,-0.9165802001953124,0.20184326171875,0.005952697712928,-0.0013092099688947,-0.0208621378988027
1770447680313,-0.282806396484375,-0.914031982421875,0.2045135498046875,0.0054253917187452,-0.0025672873016446,-0.0267929974943399
1770447680323,-0.2822723388671875,-0.9266510009765624,0.2089996337890625,0.001792307361029,-0.0001296959380852,-0.025320004671812
1770447680333,-0.2690582275390625,-0.9395599365234376,0.2090606689453125,0.0030863373540341,0.0035992620978504,-0.0167185254395008
1770447680343,-0.2635345458984375,-0.9462738037109376,0.205352783203125,0.0034408040810376,0.000446612102678,-0.0111056482419371
1770447680353,-0.2646026611328125,-0.9510650634765624,0.199493408203125,0.0053761233575642,-0.0052480250597,-0.0042256377637386
1770447680363,-0.268402099609375,-0.948638916015625,0.197509765625,0.001163002452813,-0.0063489759340882,-9.480853623244911e-05
1770447680373,-0.2687225341796875,-0.9455718994140624,0.2049713134765625,-0.0045854309573769,0.0066166236065328,0.0052163335494697
1770447680383,-0.2655029296875,-0.9464569091796876,0.2068634033203125,-0.0132481614127755,0.0081894863396883,0.0114997960627079
1770447680393,-0.2657470703125,-0.94671630859375,0.20831298828125,-0.0144998468458652,0.0059982375241816,0.011274492368102
1770447680403,-0.2691802978515625,-0.9441986083984376,0.2078704833984375,-0.0128076737746596,0.0067338026128709,0.0068975873291492
1770447680413,-0.2743988037109375,-0.9410552978515624,0.20648193359375,-0.0085250446572899,0.0013787185307592,0.003433879930526
1770447680423,-0.2754669189453125,-0.9405517578125,0.209197998046875,-0.0054227286018431,0.0037175065372139,-0.0011150655336678
1770447680434,-0.275115966796875,-0.9390411376953124,0.209625244140625,-0.0033116408158093,0.0028035095892846,-0.0056645437143743
1770447680443,-0.27728271484375,-0.9388427734375,0.210052490234375,-0.0016788567882031,-0.0014626081101596,-0.0071801487356424
1770447680453,-0.27655029296875,-0.9360198974609376,0.2091217041015625,0.0020562265999615,-0.0079740369692444,-0.0103599624708294
1770447680463,-0.27392578125,-0.935333251953125,0.2066650390625,0.0044450820423662,-0.0088875014334917,-0.0101413177326321
1770447680473,-0.2732391357421875,-0.9330902099609376,0.2025604248046875,0.011488078162074,-0.0122673185542225,-0.0084914891049265
1770447680483,-0.2717132568359375,-0.9338226318359376,0.200103759765625,0.0164657924324274,-0.0129735888913273,-0.0066618975251913
1770447680493,-0.26678466796875,-0.9359893798828124,0.2008819580078125,0.0177981723099946,-0.0093141393736004,-0.0028256138321012
1770447680503,-0.2660369873046875,-0.936187744140625,0.203582763671875,0.015286810696125,0.00131799839437,0.0034032536204904
1770447680513,-0.2662506103515625,-0.9369354248046876,0.20623779296875,0.0137317907065153,0.0044264402240514,0.0055644088424742
1770447680524,-0.2655792236328125,-0.94354248046875,0.207489013671875,0.0146481851115822,-0.0051273838616907,0.0085775088518857
1770447680534,-0.2624664306640625,-0.951202392578125,0.2082977294921875,0.0113453324884176,-0.0088337054476141,0.0132295191287994
1770447680544,-0.2592926025390625,-0.9481048583984376,0.211151123046875,0.0070762853138148,-0.0023867250420153,0.0167925618588924
1770447680554,-0.2679595947265625,-0.9385986328125,0.213623046875,1.4647385796706658e-05,0.0051271175034344,0.0172698013484478
1770447680564,-0.2726898193359375,-0.932220458984375,0.2168731689453125,-0.0080275665968656,0.0132569493725895,0.0140537675470113
1770447680574,-0.2765960693359375,-0.927642822265625,0.2173614501953125,-0.0132018215954303,0.0137520311400294,0.0075734974816441
1770447680584,-0.2793731689453125,-0.9245147705078124,0.215545654296875,-0.015721172094345,0.0164119955152273,0.0017582189757376
1770447680594,-0.2789306640625,-0.93231201171875,0.212249755859375,-0.0159906838089227,0.0128023475408554,-0.0047236490063369
1770447680604,-0.274322509765625,-0.9405517578125,0.210479736328125,-0.0157688427716493,0.0091045489534735,-0.0054738614708185
1770447680614,-0.2715301513671875,-0.9410552978515624,0.209197998046875,-0.0170615408569574,0.0111943315714597,-0.0065788067877292
1770447680624,-0.2735137939453125,-0.9398345947265624,0.2092132568359375,-0.0199340265244245,0.0127991521731019,-0.0043268376030027
1770447680634,-0.2717132568359375,-0.9426727294921876,0.209564208984375,-0.0173204001039266,0.0151962637901306,-0.0019976370967924
1770447680644,-0.270172119140625,-0.942901611328125,0.20458984375,-0.0122159197926521,0.0131094101816415,0.0005139900604262
1770447680654,-0.2699127197265625,-0.942169189453125,0.2019500732421875,-0.0048373658210039,0.010211625136435,0.0008684568456374
1770447680664,-0.2687835693359375,-0.943450927734375,0.199005126953125,0.0018218684708699,0.0058206049725413,0.0030037793330848
1770447680674,-0.2699737548828125,-0.9396209716796876,0.198211669921875,0.010523747652769,-0.0026144252624362,3.808320252574049e-05
1770447680684,-0.2720489501953125,-0.93603515625,0.1999969482421875,0.0132540203630924,-0.0059503009542822,3.382214708835818e-05
1770447680694,-0.273651123046875,-0.9308319091796876,0.2042236328125,0.0153994625434279,-0.0050922301597893,-0.0007912251749075
1770447680704,-0.27362060546875,-0.9331512451171876,0.205963134765625,0.0171518232673406,0.0005984122981317,0.0001288969942834
1770447680714,-0.2723541259765625,-0.9351348876953124,0.207794189453125,0.0177009664475917,-0.0012042814632877,-0.0001203748834086
1770447680724,-0.2744598388671875,-0.9373016357421876,0.2082061767578125,0.0182772744446992,-0.0030384005513042,-0.0019337212434038
1770447680735,-0.2728271484375,-0.935211181640625,0.2113189697265625,0.0162894912064075,-0.0039878175593912,-0.0004183826094958
1770447680744,-0.2717132568359375,-0.9365234375,0.2129669189453125,0.014471617527306,-0.0058895805850625,-0.0038794267456978
1770447680755,-0.271636962890625,-0.9365692138671876,0.213531494140625,0.0112244253978133,-0.0097815245389938,-0.0024567660875618
1770447680765,-0.2706756591796875,-0.9368133544921876,0.2117919921875,0.0096707371994853,-0.0086291749030351,-0.0029782131314277
1770447680775,-0.2716064453125,-0.9363250732421876,0.21099853515625,0.0073007899336516,-0.0057985004968941,-0.0020762004423886
1770447680785,-0.27093505859375,-0.938323974609375,0.2083587646484375,0.0054951664060354,-0.0037388119380921,-0.0017843178939074
1770447680795,-0.2722015380859375,-0.9381256103515624,0.208343505859375,0.0039209718815982,-0.0017606157343834,-0.0036290895659476
1770447680805,-0.2729034423828125,-0.9376220703125,0.2106475830078125,0.0033105756156146,-0.0027518442366272,-0.0037718350067734
1770447680815,-0.271240234375,-0.9366455078125,0.2126312255859375,0.0010442254133522,0.0053982273675501,-0.0048938249237835
1770447680825,-0.2724609375,-0.937042236328125,0.2122039794921875,0.0001334243715973,0.003221892286092,-0.0041723744943737
1770447680835,-0.270263671875,-0.93756103515625,0.2116241455078125,0.0001416801678715,-0.0017020262312144,-0.0036099147982895
1770447680845,-0.2705230712890625,-0.93798828125,0.211334228515625,4.447478931979276e-05,0.0022405174095183,-0.0052474923431873
1770447680855,-0.270660400390625,-0.93695068359375,0.210784912109375,-0.0037350833881646,-0.0047172573395073,-0.00421844702214
1770447680865,-0.272308349609375,-0.9377899169921876,0.214080810546875,-0.0068123661912977,0.0070105050690472,-0.0027225494850426
1770447680875,-0.2731170654296875,-0.9363250732421876,0.2118377685546875,-0.0078211715444922,0.0009060074225999,-0.0035366779193282
1770447680885,-0.27362060546875,-0.935516357421875,0.2108612060546875,-0.0080824270844459,0.0048179244622588,-0.0021518340799957
1770447680895,-0.2755126953125,-0.9319000244140624,0.20556640625,-0.0021718079224228,-0.0025598304346203,-0.0067471186630427
1770447680905,-0.273956298828125,-0.9308319091796876,0.204345703125,-0.0013829795643687,-0.0053423009812831,-0.0027891285717487
1770447680916,-0.26641845703125,-0.9424591064453124,0.208984375,-0.0041886195540428,0.0058530955575406,-0.0027079021092504
1770447680925,-0.26776123046875,-0.953277587890625,0.2108001708984375,-0.001848233747296,0.005044559482485,0.0058198058977723
1770447680935,-0.26324462890625,-0.945648193359375,0.2089996337890625,0.0005781722720712,0.0006657902849838,0.0046895602717995
1770447680946,-0.267181396484375,-0.9383392333984376,0.2075042724609375,0.0016016251174733,-0.000409327854868,0.0014879080699756
1770447680956,-0.2750701904296875,-0.9318695068359376,0.2102203369140625,-0.0005491438205353,0.0044080642983317,-0.0021033645607531
1770447680966,-0.2787322998046875,-0.9281768798828124,0.2106781005859375,-0.0011936287628486,0.0054626758210361,-0.0072762886993587
1770447680976,-0.2754364013671875,-0.9357147216796876,0.2100982666015625,0.0016511598369106,0.0007909588166512,-0.0073607107624411
1770447680986,-0.2684783935546875,-0.947540283203125,0.2082061767578125,0.0032589102629572,-0.0052464273758232,-0.0027861990965902
1770447680996,-0.264801025390625,-0.947052001953125,0.209503173828125,0.0040719732642173,-0.0033659692853689,0.0020556941162794
1770447681006,-0.266510009765625,-0.947357177734375,0.2103729248046875,0.0072624403983354,-0.003981692250818,0.002739327494055
1770447681016,-0.2679443359375,-0.9328765869140624,0.2128753662109375,0.0013933659065514,0.0044248420745134,-0.0062174159102141
1770447681026,-0.2768707275390625,-0.921966552734375,0.21368408203125,0.0055010253563523,0.0064879930578172,-0.0138188768178224
1770447681036,-0.27581787109375,-0.9386749267578124,0.208251953125,0.0121472105383872,-0.0067721521481871,-0.0053915698081254
1770447681046,-0.262298583984375,-0.939727783203125,0.207794189453125,0.0174303892999887,-0.006907707080245,-0.0109415976330637
1770447681056,-0.270233154296875,-0.9244384765625,0.208404541015625,0.0207817107439041,-0.0010439591715112,-0.0212935712188482
1770447681066,-0.28167724609375,-0.9182281494140624,0.2062225341796875,0.0292388461530208,-0.0068682925775647,-0.0277176480740308
1770447681076,-0.2801361083984375,-0.9201812744140624,0.206451416015625,0.0329584814608097,-0.0135440379381179,-0.0312471352517604
1770447681086,-0.2746429443359375,-0.9321136474609376,0.210479736328125,0.0307411346584558,-0.0152532551437616,-0.0268337447196245
1770447681096,-0.2644195556640625,-0.94580078125,0.214324951171875,0.0271935369819402,-0.0145887965336442,-0.0173901747912168
1770447681106,-0.2607269287109375,-0.952423095703125,0.2167816162109375,0.0212355144321918,-0.0099993711337447,-0.0077002639882266
1770447681116,-0.263763427734375,-0.9515533447265624,0.2158660888671875,0.0174354501068592,-0.0078619178384542,-0.0038810246624052
1770447681126,-0.2655029296875,-0.947509765625,0.2109375,0.0116803580895066,-0.0131331123411655,0.0019576896447688
1770447681137,-0.2662506103515625,-0.9423980712890624,0.2108001708984375,0.0042594596743583,-0.008297611027956,0.0043556001037359
1770447681147,-0.267486572265625,-0.942840576171875,0.2136077880859375,-0.0068200891837477,0.0058656120672822,0.0062733422964811
1770447681156,-0.26763916015625,-0.9395751953125,0.21917724609375,-0.0148071758449077,0.0195284280925989,0.0055217980407178
1770447681167,-0.270782470703125,-0.9378204345703124,0.217620849609375,-0.0155991995707154,0.0171683337539434,0.0040266993455588
1770447681176,-0.272369384765625,-0.9365997314453124,0.2149200439453125,-0.0114135090261697,0.0070499200373888,-0.0006652576266787
1770447681187,-0.27386474609375,-0.9372100830078124,0.2150421142578125,-0.0094622112810611,0.0021933794487267,-0.0052181975916028
1770447681197,-0.27294921875,-0.93609619140625,0.2141265869140625,-0.0032029838766902,-0.0014199974248185,-0.0105668902397155
1770447681207,-0.275177001953125,-0.9349517822265624,0.2125091552734375,0.0023132218047976,-0.0078632496297359,-0.0139810629189014
1770447681217,-0.274871826171875,-0.934722900390625,0.21002197265625,0.0039832899346947,-0.0161259733140468,-0.0158261004835367
1770447681227,-0.2732086181640625,-0.935577392578125,0.2119903564453125,0.0068211546167731,-0.0131235253065824,-0.0161464791744947
1770447681237,-0.2691802978515625,-0.9373321533203124,0.2135162353515625,0.0106555735692381,-0.0143845323473215,-0.0122891571372747
1770447681247,-0.2657928466796875,-0.9374847412109376,0.2141265869140625,0.0165656600147485,-0.0160471424460411,-0.0082041341811418
1770447681257,-0.26397705078125,-0.9369659423828124,0.210968017578125,0.0215934421867132,-0.0149214249104261,-0.0034056503791362
1770447681267,-0.266571044921875,-0.93670654296875,0.20867919921875,0.0235969386994838,-0.0124593330547213,-0.0003664509567897
1770447681277,-0.26544189453125,-0.9351043701171876,0.210357666015625,0.0210389718413352,-0.0103290705010294,0.0039073899388313
1770447681287,-0.2648468017578125,-0.93792724609375,0.21551513671875,0.0160010699182748,-0.0073260897770524,0.0032314795535057
1770447681297,-0.264312744140625,-0.944580078125,0.2186279296875,0.0089029474183917,-0.012541358359158,0.0062400526367127
1770447681307,-0.2587432861328125,-0.9484710693359376,0.22186279296875,-0.0004684500454459,-0.0049601374194025,0.0127565413713455
1770447681317,-0.2599945068359375,-0.9419097900390624,0.224334716796875,-0.0109131010249257,0.0084390249103307,0.0135304564610123
1770447681327,-0.2696685791015625,-0.9326019287109376,0.2227935791015625,-0.0171486269682645,0.0176695417612791,0.0092946980148553
1770447681337,-0.272705078125,-0.9280853271484376,0.21820068359375,-0.0195598527789115,0.0162364933639764,0.0027462516445666
1770447681347,-0.274139404296875,-0.92559814453125,0.2178497314453125,-0.0279887579381465,0.0172679368406534,-1.2250540748937055e-05
1770447681357,-0.27239990234375,-0.9350433349609376,0.2189483642578125,-0.0258265379816293,0.0170183982700109,-0.0012474246323108
1770447681367,-0.266876220703125,-0.9406890869140624,0.2160491943359375,-0.0267868731170892,0.0146138304844498,0.0007265103631652
1770447681377,-0.2666168212890625,-0.937896728515625,0.2154693603515625,-0.0249876417219638,0.0155406100675463,0.002518018707633
1770447681387,-0.27069091796875,-0.9373016357421876,0.2136077880859375,-0.0234078541398048,0.0157494023442268,0.0016141419764608
1770447681397,-0.269439697265625,-0.9395904541015624,0.2135772705078125,-0.0217481721192598,0.0147067746147513,0.0012708604335784
1770447681407,-0.2667694091796875,-0.9422607421875,0.212799072265625,-0.0191923361271619,0.0141493743285536,0.0045489454641938
1770447681418,-0.2659912109375,-0.9426116943359376,0.2114410400390625,-0.0148023813962936,0.0104608964174985,0.0030003173742443
1770447681428,-0.268524169921875,-0.94256591796875,0.2082672119140625,-0.0110534504055976,0.0041832933202385,0.0033249566331505
1770447681438,-0.270751953125,-0.9393310546875,0.20709228515625,-0.0071215592324733,0.0041896849870681,0.0004966795677319
1770447681448,-0.272247314453125,-0.9329071044921876,0.2075653076171875,-0.0015813850332051,0.0071785505861043,-0.0037047234363853
1770447681458,-0.2737274169921875,-0.9327392578125,0.2068939208984375,0.0024756744969636,0.003491137875244,-0.0057417750358581
1770447681468,-0.273834228515625,-0.9340972900390624,0.2101287841796875,0.0022706112358719,0.0012370382901281,-0.0064379256218671
1770447681478,-0.2726593017578125,-0.9346771240234376,0.2131805419921875,0.0025401229504495,0.0031973912846297,-0.0064501762390136
1770447681488,-0.2716217041015625,-0.935394287109375,0.2165679931640625,0.0009566074586473,0.0013997574569657,-0.0070435283705592
1770447681498,-0.269287109375,-0.9366302490234376,0.216064453125,0.0016237293602898,-0.0026160231791436,-0.0057465690188109
1770447681508,-0.2693023681640625,-0.9343414306640624,0.2134552001953125,0.0005097290268167,-0.0008556736283935,-0.0053079463541507
1770447681518,-0.269195556640625,-0.9346160888671876,0.212066650390625,0.0031579763162881,-0.0027297399938106,-0.0043364251032471
1770447681528,-0.2681121826171875,-0.93621826171875,0.2111968994140625,0.0020759340841323,-0.0041111218743026,-0.0007193197961896
1770447681538,-0.266815185546875,-0.937286376953125,0.2122802734375,-7.190534961409867e-05,-0.0003179814375471,0.000557665945962
1770447681548,-0.26568603515625,-0.9384002685546876,0.215087890625,-0.0033167006913572,0.0022820627782493,0.0012650014832615
1770447681558,-0.26593017578125,-0.9383087158203124,0.2152252197265625,-0.0025385250337421,0.0056232647038996,0.0019451729021966
1770447681568,-0.26800537109375,-0.937225341796875,0.2138519287109375,-0.0014053500490263,0.0064525729976594,0.000639957608655
1770447681578,-0.2725830078125,-0.938446044921875,0.2115020751953125,0.0024482440203428,0.0023622238077223,0.0005422196118161
1770447681588,-0.271820068359375,-0.936859130859375,0.212188720703125,0.0018604843644425,0.0001424791116733,-0.0026213494129478
1770447681598,-0.270843505859375,-0.9375457763671876,0.216094970703125,0.0001097222339012,-0.0040288302116096,-0.0071905348449945
1770447681608,-0.2700958251953125,-0.9364776611328124,0.2170562744140625,-0.0008857673965394,-0.003508981084451,-0.0072163674049079
1770447681619,-0.270355224609375,-0.9344940185546876,0.218505859375,0.0005291700945235,-0.0003560646437108,-0.0074504595249891
1770447681629,-0.2699737548828125,-0.9361114501953124,0.2170562744140625,0.0002977414114866,-0.0047476170584559,-0.0049361689016222
1770447681639,-0.2674560546875,-0.9357452392578124,0.213775634765625,0.0004487426485866,-0.0051135355606675,-0.0018876485992223
1770447681649,-0.266937255859375,-0.9358062744140624,0.2134552001953125,-0.0011550129856914,-0.0016381103778257,-0.0028975191526114
1770447681659,-0.2672271728515625,-0.9370574951171876,0.21502685546875,-0.0039998018182814,0.0025747441686689,-0.0010620686225593
1770447681669,-0.2675018310546875,-0.9345550537109376,0.21563720703125,-0.0071015851572155,0.0040259007364511,-0.0029971215408295
1770447681679,-0.2698822021484375,-0.9364471435546876,0.2165679931640625,-0.0082129221409559,0.0044828988611698,-0.001898301183246
1770447681689,-0.2662353515625,-0.9457550048828124,0.21783447265625,-0.0130457608029246,0.0085588674992322,0.001905491692014
1770447681699,-0.26361083984375,-0.9491729736328124,0.215545654296875,-0.0111479926854372,0.0095855155959725,0.0058027617633342
1770447681709,-0.2652435302734375,-0.9427947998046876,0.2122650146484375,-0.011084608733654,0.0011976235546171,0.0069034462794661
1770447681719,-0.2704620361328125,-0.9338226318359376,0.2111968994140625,-0.0105394599959254,0.0001613875647308,0.0039531961083412
1770447681729,-0.276336669921875,-0.92950439453125,0.212646484375,-0.0097884489223361,0.0034977956674993,-0.0014317154418677
1770447681739,-0.276824951171875,-0.9267730712890624,0.2140350341796875,-0.0096598174422979,0.0063710804097354,-0.0093588810414075
1770447681749,-0.27374267578125,-0.935943603515625,0.212432861328125,-0.0053593451157212,0.0058965049684047,-0.0101900529116392
1770447681759,-0.26580810546875,-0.9463043212890624,0.210205078125,0.0041031320579349,0.0074856132268905,-0.006229932885617
1770447681769,-0.261566162109375,-0.947784423828125,0.206146240234375,0.0087484838441014,0.0031454595737159,-0.0005379585199989
1770447681779,-0.26544189453125,-0.9453125,0.20770263671875,0.0147363357245922,-0.0047910269349813,-0.003451723139733
1770447681789,-0.2692718505859375,-0.92901611328125,0.2086181640625,0.0162306353449821,-0.0064704162068665,-0.0095346495509147
1770447681799,-0.2743988037109375,-0.924835205078125,0.2118682861328125,0.0202647913247346,-0.0106702214106917,-0.0129813123494386
1770447681809,-0.2696075439453125,-0.94561767578125,0.2141265869140625,0.0252174716442823,-0.0132524222135543,-0.0061843926087021
1770447681820,-0.259796142578125,-0.9416656494140624,0.21343994140625,0.0229631066322326,-0.011299792677164,-0.009802296757698
1770447681829,-0.2662811279296875,-0.919586181640625,0.2157135009765625,0.0244092028588056,-0.0046370960772037,-0.0196690429002046
1770447681840,-0.2787017822265625,-0.91717529296875,0.2166748046875,0.0236565936356782,-0.0045108622871339,-0.0253855176270008
1770447681850,-0.27899169921875,-0.921630859375,0.2206268310546875,0.0197774339467287,-0.0089508844539523,-0.0280028730630874
1770447681860,-0.27349853515625,-0.9287261962890624,0.2235260009765625,0.0186991188675165,-0.0097013628110289,-0.0244467537850141
1770447681870,-0.26416015625,-0.941619873046875,0.2217254638671875,0.013431386090815,-0.0098960399627685,-0.0119757028296589
1770447681881,-0.2574615478515625,-0.9510345458984376,0.2213134765625,0.0095461010932922,-0.0102355936542153,-0.0034858114086091
1770447681890,-0.25970458984375,-0.9500732421875,0.22186279296875,-0.0022058964241296,-0.0010825749486684,0.0033995250705629
1770447681900,-0.262939453125,-0.9460601806640624,0.2200927734375,-0.0126683907583355,0.0090358387678861,0.0089524826034903
1770447681910,-0.2624359130859375,-0.9451446533203124,0.220001220703125,-0.0192573182284832,0.0092717949301004,0.0110257528722286
1770447681920,-0.2634429931640625,-0.9452972412109376,0.2166290283203125,-0.0294337887316942,0.0088486187160015,0.012565060518682
1770447681930,-0.2649688720703125,-0.9443206787109376,0.217010498046875,-0.0360605306923389,0.0098166782408952,0.0143879940733313
1770447681940,-0.2660369873046875,-0.9394378662109376,0.2180633544921875,-0.039006520062685,0.0156183745712041,0.0088930940255522
1770447681950,-0.27069091796875,-0.9361419677734376,0.2180633544921875,-0.0408603474497795,0.0135229993611574,0.004480502102524
1770447681960,-0.274169921875,-0.93572998046875,0.2205963134765625,-0.0377247408032417,0.0085074678063392,-0.0015068164793774
1770447681970,-0.27362060546875,-0.9358062744140624,0.219940185546875,-0.0345531851053237,0.0057670753449201,-0.0053526875562965
1770447681980,-0.273162841796875,-0.9344482421875,0.2158050537109375,-0.0310596488416194,0.0028700886759907,-0.0099370526149868
1770447681990,-0.2740020751953125,-0.9359130859375,0.213775634765625,-0.0234999991953372,0.0003925499331671,-0.0101831285282969
1770447682000,-0.2721710205078125,-0.9350433349609376,0.2089691162109375,-0.0129722580313682,-0.0021624867804348,-0.011895009316504
1770447682010,-0.2686004638671875,-0.93475341796875,0.2058563232421875,-0.0042136535048484,-0.0055460329167544,-0.0114084491506218
1770447682021,-0.2666473388671875,-0.93658447265625,0.2035675048828125,0.0060839913785457,-0.0045105959288775,-0.0076792249456048
1770447682030,-0.26373291015625,-0.9395904541015624,0.20465087890625,0.0126867666840553,-0.0086906934157013,-0.0028410602826625
1770447682040,-0.262298583984375,-0.937408447265625,0.2065277099609375,0.017035974189639,-0.0080789653584361,0.0019734024535864
1770447682051,-0.263946533203125,-0.935333251953125,0.207763671875,0.0209412351250648,-0.0049398974515497,0.0025347967166453
1770447682060,-0.2644195556640625,-0.9366912841796876,0.2097930908203125,0.0266305450350046,-0.006401440128684,0.003572630463168
1770447682071,-0.263519287109375,-0.942779541015625,0.2131805419921875,0.0260369274765253,-0.0125453528016805,0.0052216597832739
1770447682081,-0.2605743408203125,-0.94732666015625,0.2144622802734375,0.023820910602808,-0.0079428777098655,0.0105088334530591
1770447682091,-0.261871337890625,-0.9399871826171876,0.2196044921875,0.0147392647340893,-0.003475957782939,0.0096220010891556
1770447682101,-0.2695770263671875,-0.932525634765625,0.2250518798828125,0.0020655477419495,0.0042634545825421,0.0057428404688835
1770447682111,-0.2724609375,-0.926971435546875,0.226593017578125,-0.0078326230868697,0.0057801245711743,1.1185276889591478e-05
1770447682121,-0.2728271484375,-0.9259490966796876,0.2266082763671875,-0.0159326270222663,0.0059383166953921,-0.0052839778363704
1770447682131,-0.269439697265625,-0.9354248046875,0.2250823974609375,-0.0222123619168996,0.0102627575397491,-0.0069511164911091
1770447682141,-0.2640228271484375,-0.93914794921875,0.2232513427734375,-0.0248313136398792,0.0118172448128461,-0.0034658377990126
1770447682151,-0.2650146484375,-0.9388427734375,0.2176971435546875,-0.0261463820934295,0.0094076162204146,-0.0015917713753879
1770447682161,-0.268341064453125,-0.938568115234375,0.217254638671875,-0.0276872869580984,0.0080989394336938,0.0006506102508865
1770447682171,-0.2670440673828125,-0.93865966796875,0.217529296875,-0.0327342450618743,0.0116835543885827,0.0011669971281662
1770447682181,-0.264190673828125,-0.941162109375,0.219818115234375,-0.0325369052588939,0.0145397940650582,0.0059377839788794
1770447682191,-0.2639923095703125,-0.945098876953125,0.213958740234375,-0.0282255131751298,0.0064123594202101,0.0056368466466665
1770447682201,-0.265289306640625,-0.9445648193359376,0.2069091796875,-0.0218861233443021,0.0043955473229289,0.006874683778733
1770447682211,-0.268402099609375,-0.940948486328125,0.205810546875,-0.0177435763180255,0.0077130473218858,0.0041350903920829
1770447682221,-0.27032470703125,-0.93798828125,0.2085113525390625,-0.0152910714969038,0.0098957736045122,0.0040461407043039
1770447682231,-0.2703094482421875,-0.9345855712890624,0.2098388671875,-0.0126313725486397,0.012164787389338,0.0012852415675297
1770447682241,-0.272979736328125,-0.9342193603515624,0.212249755859375,-0.009640909731388,0.0071987905539572,-0.0018554243724793
1770447682251,-0.2728729248046875,-0.9346160888671876,0.212860107421875,-0.006484530866146,-0.0010045443195849,-0.0039510657079517
1770447682261,-0.2730560302734375,-0.935546875,0.21221923828125,-0.0032330774702131,-0.0019108180422335,-0.0027427896857261
1770447682271,-0.2708282470703125,-0.9344024658203124,0.21221923828125,-0.0032668996136635,-0.0013342436868697,-0.005013134330511
1770447682281,-0.269134521484375,-0.9351806640625,0.2113494873046875,0.0004852279380429,0.0019025622168555,-0.0039247004315257
1770447682292,-0.2670440673828125,-0.9373016357421876,0.2077178955078125,0.004628041293472,0.0004753742541652,-0.0030469226185232
1770447682302,-0.2641448974609375,-0.9365234375,0.208953857421875,0.0029688919894397,0.0042083272710442,0.0018849853659048
1770447682312,-0.2618255615234375,-0.93756103515625,0.212127685546875,0.0055308528244495,0.0077418093569576,0.0021238708868622
1770447682322,-0.2646026611328125,-0.9381866455078124,0.21258544921875,0.0066853333264589,0.0055739963427186,0.0010165285784751
1770447682332,-0.2647857666015625,-0.93792724609375,0.2104339599609375,0.0102457134053111,-0.001709749456495,0.0005629922379739
1770447682342,-0.26611328125,-0.9386138916015624,0.2112274169921875,0.0113392071798443,-0.0061284662224352,0.0020181434229016
1770447682352,-0.2654876708984375,-0.9390869140625,0.2151947021484375,0.0085972165688872,-0.0019526296528056,0.0016905746888369
1770447682362,-0.268707275390625,-0.937591552734375,0.2170562744140625,0.0096161421388387,-0.0018708707066252,-0.0020133496727794
1770447682372,-0.2696075439453125,-0.9366455078125,0.21630859375,0.0068903965875506,-0.0020309265237301,6.364954606397077e-05
1770447682382,-0.268890380859375,-0.9356689453125,0.218505859375,0.0053790528327226,0.0009459548164159,-0.0005723133217543
1770447682392,-0.26947021484375,-0.9353485107421876,0.2174224853515625,0.0046056709252297,0.0005259743193164,-0.0012586099328473
1770447682402,-0.2693023681640625,-0.934539794921875,0.21771240234375,0.0022413162514567,-0.0005118595436215,0.0012215919559821
1770447682412,-0.2676544189453125,-0.9369659423828124,0.21856689453125,-0.0034834146499633,-0.0007171892793849,0.0010412959381937
1770447682422,-0.2692108154296875,-0.9376220703125,0.2187652587890625,-0.0083721792325377,0.0029909962322562,0.0016724651213735
1770447682432,-0.2682342529296875,-0.9357757568359376,0.2188568115234375,-0.0149597749114036,0.0038538603112101,0.001005609636195
1770447682442,-0.267242431640625,-0.9342193603515624,0.2189178466796875,-0.0199143197387456,0.0029827402904629,0.0028208203148096
1770447682452,-0.265167236328125,-0.937225341796875,0.2189178466796875,-0.0227167643606662,0.0100129526108503,0.0056171393953263
1770447682462,-0.26141357421875,-0.9437408447265624,0.2165679931640625,-0.022857379168272,0.012198076583445,0.01162576302886
1770447682472,-0.262481689453125,-0.9457855224609376,0.21527099609375,-0.0205630660057067,0.0072869411669671,0.0156652461737394
1770447682482,-0.2629547119140625,-0.9405517578125,0.2131805419921875,-0.0209119394421577,0.0108268149197101,0.0142790703102946
1770447682493,-0.269287109375,-0.9330596923828124,0.21435546875,-0.0210719965398311,0.0135930404067039,0.0108313420787453
1770447682503,-0.272491455078125,-0.9296417236328124,0.2154083251953125,-0.0227668322622776,0.013203952461481,0.0066139604896306
1770447682513,-0.275634765625,-0.9358978271484376,0.2131195068359375,-0.0218419153243303,0.0117618506774306,0.0027952538803219
1770447682523,-0.2700958251953125,-0.9434967041015624,0.21142578125,-0.0176333226263523,0.0066086342558264,0.0021025657188147
1770447682533,-0.2664947509765625,-0.941253662109375,0.208251953125,-0.013667874969542,0.0054325824603438,0.0046168561093509
1770447682543,-0.2711334228515625,-0.9407501220703124,0.2067108154296875,-0.0074054519645869,0.003182477550581,0.0024828650057315
1770447682553,-0.270965576171875,-0.9351654052734376,0.2074737548828125,-0.0037851508241146,0.0028858012519776,-0.0039907470345497
1770447682563,-0.2726593017578125,-0.93121337890625,0.2073516845703125,0.0036701022181659,-0.0033848776947706,-0.009345831349492
1770447682573,-0.2707061767578125,-0.9375,0.20916748046875,0.0115152420476078,-0.00842144805938,-0.0065577677451074
1770447682583,-0.26409912109375,-0.9433441162109376,0.2105255126953125,0.01944001019001,-0.0056317867711186,-0.0100755374878644
1770447682593,-0.2673492431640625,-0.9272003173828124,0.2064056396484375,0.0256228055804967,-0.0101088266819715,-0.0171792525798082
1770447682603,-0.2752532958984375,-0.9175872802734376,0.2089385986328125,0.0284185912460088,-0.0111996578052639,-0.0249096099287271
1770447682613,-0.27825927734375,-0.9165191650390624,0.2150726318359375,0.026527214795351,-0.0066784089431166,-0.0276273675262928
1770447682623,-0.27447509765625,-0.92657470703125,0.21923828125,0.0231085140258073,-0.0064320666715502,-0.0249599441885948
1770447682633,-0.2649383544921875,-0.9408721923828124,0.219818115234375,0.0222778748720884,-0.0084520746022462,-0.0144170224666595
1770447682643,-0.2606201171875,-0.9486541748046876,0.21807861328125,0.0177582241594791,-0.0059202071279287,-0.0063263392075896
1770447682653,-0.2598876953125,-0.9490509033203124,0.2146453857421875,0.0117959389463067,-0.0027276095934212,0.0016471651615574
1770447682663,-0.2613983154296875,-0.9458465576171876,0.2158355712890625,0.0001067927587428,-0.0022106899414211,0.0085751125589013
1770447682673,-0.2624664306640625,-0.9430084228515624,0.2198486328125,-0.0157541949301958,0.003997138235718,0.0138534978032112
1770447682683,-0.26239013671875,-0.943511962890625,0.225067138671875,-0.0326753892004489,0.0100608896464109,0.0160434152930974
1770447682693,-0.263702392578125,-0.94097900390625,0.22711181640625,-0.0426137745380401,0.0191571824252605,0.0146130314096808
1770447682703,-0.268524169921875,-0.940277099609375,0.2219085693359375,-0.0486695356667041,0.0187782142311334,0.0119783654808998
1770447682713,-0.26934814453125,-0.9426727294921876,0.218963623046875,-0.0494511723518371,0.020076772198081,0.00490607554093
1770447682724,-0.2726898193359375,-0.93841552734375,0.219757080078125,-0.0478162579238414,0.0172570180147886,0.0009030779474414
1770447682734,-0.2757110595703125,-0.9365692138671876,0.2170867919921875,-0.0451344549655914,0.0093098785728216,-0.0037795582320541
1770447682744,-0.276580810546875,-0.93463134765625,0.2164764404296875,-0.0424294807016849,0.0006796387024223,-0.004285292699933
1770447682754,-0.2742156982421875,-0.9342193603515624,0.2159576416015625,-0.0392422117292881,-0.0002287655370309,-0.0078432755544781
1770447682764,-0.27337646484375,-0.93560791015625,0.2118682861328125,-0.0338626243174076,-0.0031023162882775,-0.0083340965211391
1770447682774,-0.2700958251953125,-0.937591552734375,0.2090301513671875,-0.0236749686300754,-0.0073114424012601,-0.0051087420433759
1770447682784,-0.2659149169921875,-0.938201904296875,0.2052459716796875,-0.0120430802926421,-0.0053444318473339,-0.0032836776226758
1770447682794,-0.2628173828125,-0.9379425048828124,0.20001220703125,-0.0004455468442756,-0.0021459751296788,-0.0004407531523611
1770447682804,-0.2613525390625,-0.940826416015625,0.19976806640625,0.0070802802219986,-0.003212571144104,0.0055564190261065
1770447682814,-0.26031494140625,-0.94085693359375,0.20135498046875,0.0094022899866104,-0.000565389113035,0.0083993440493941
1770447682824,-0.2609405517578125,-0.9451751708984376,0.2068939208984375,0.0106806075200438,-0.002355566015467,0.0126385632902383
1770447682834,-0.25738525390625,-0.9515228271484376,0.209686279296875,0.0095572862774133,-0.0018759306985884,0.0185960549861192
1770447682844,-0.25579833984375,-0.9503631591796876,0.2105712890625,0.0084534054622054,0.002117745578289,0.0194932743906974
1770447682854,-0.2667236328125,-0.9384613037109376,0.2110595703125,0.0097096189856529,-0.0017345168162137,0.0182871278375387
1770447682864,-0.2749176025390625,-0.930328369140625,0.2110748291015625,0.0060810619033873,-0.000868190487381,0.015411446802318
1770447682874,-0.27557373046875,-0.9275970458984376,0.2169647216796875,-0.0016487629618495,0.0053694653324782,0.0050546796992421
1770447682884,-0.273406982421875,-0.9272613525390624,0.218658447265625,-0.0019694075454026,0.0050586746074259,0.0028306739404797
1770447682895,-0.2710723876953125,-0.93560791015625,0.217742919921875,-0.0019576896447688,0.0021281319204717,0.0026032398454844
1770447682904,-0.265228271484375,-0.94134521484375,0.2147369384765625,-0.0016394419362768,0.0022511701099574,0.004261590540409
1770447682914,-0.2682342529296875,-0.9382171630859376,0.2105712890625,-0.0022913836874067,0.0093093458563089,0.0049596047028899
1770447682924,-0.27069091796875,-0.9383087158203124,0.20989990234375,-0.0026487798895686,0.0120870228856801,0.0053707971237599
1770447682935,-0.2706451416015625,-0.939544677734375,0.209808349609375,-0.0007219829712994,0.0131917018443346,0.0050533479079604
1770447682944,-0.269134521484375,-0.9408416748046876,0.2116851806640625,0.0011744539951905,0.0082725770771503,0.0073679015040397
1770447682955,-0.269256591796875,-0.93975830078125,0.2106170654296875,0.0066246129572391,0.0032653016969561,0.0058304583653807
1770447682965,-0.26776123046875,-0.9378814697265624,0.2095794677734375,0.0126971527934074,-0.0030051108915358,0.0065124942921102
1770447682975,-0.2708587646484375,-0.9351959228515624,0.2096405029296875,0.0185097679495811,-0.0059718722477555,0.0040272320620715
1770447682985,-0.2742156982421875,-0.931915283203125,0.208221435546875,0.0215207375586032,-0.0084731131792068,-0.0004506068653427
1770447682995,-0.2739410400390625,-0.934356689453125,0.2128143310546875,0.0201449487358331,-0.0072951973415911,-0.0005038700764998
1770447683005,-0.2718505859375,-0.9339447021484376,0.217803955078125,0.0124683873727917,-0.0033020533155649,-0.0024668860714882
1770447683015,-0.26947021484375,-0.93487548828125,0.2242584228515625,0.0051939631812274,-0.0012138688471168,-0.001465537585318
1770447683025,-0.2691650390625,-0.93408203125,0.223480224609375,-0.0004761732125189,0.0006873618694953,-0.0010050770360976
1770447683035,-0.268707275390625,-0.936431884765625,0.222259521484375,-0.0060400492511689,0.0054440340027213,-9.693906031316146e-05
1770447683045,-0.2686309814453125,-0.9379425048828124,0.2201080322265625,-0.0077274283394217,0.0056128781288862,0.0015321165556088
1770447683055,-0.2666168212890625,-0.9387664794921876,0.2162628173828125,-0.012696087360382,0.0004788363585248,0.0041694450192153
1770447683065,-0.26593017578125,-0.9391632080078124,0.2159271240234375,-0.0155533934012055,0.009140501730144,0.0062040998600423
1770447683075,-0.2660369873046875,-0.939544677734375,0.2168426513671875,-0.0173872467130422,0.0085767097771167,0.0078789619728922
1770447683085,-0.2667236328125,-0.938629150390625,0.2150726318359375,-0.018141720443964,0.0085841668769717,0.0082912193611264
1770447683095,-0.26806640625,-0.9362945556640624,0.2118682861328125,-0.0166378319263458,0.0109543800354003,0.0056778592988848
1770447683105,-0.2718353271484375,-0.9360809326171876,0.2104034423828125,-0.0125024756416678,0.005976399872452,0.0040615871548652
1770447683115,-0.2725067138671875,-0.937744140625,0.211669921875,-0.0096901776269078,0.0042000710964202,0.0017808558186516
1770447683125,-0.271636962890625,-0.93792724609375,0.2115631103515625,-0.0040796962566673,0.0027707528788596,0.0001752359967213
1770447683135,-0.2696075439453125,-0.9341888427734376,0.2123260498046875,-0.0022266688756644,4.500742215896025e-05,-0.0032738239970058
1770447683146,-0.2714080810546875,-0.93182373046875,0.212890625,-0.0019022959750145,0.0002889529860112,-0.0044525391422212
1770447683156,-0.2724456787109375,-0.933197021484375,0.2109222412109375,0.0004697816038969,0.0015978966839611,-0.0001834917929954
1770447683166,-0.2726593017578125,-0.936065673828125,0.210693359375,0.0021742046810686,-0.0007408913807012,0.0001981391833396
1770447683176,-0.270599365234375,-0.93634033203125,0.2103729248046875,0.0056011602282524,0.0020445086993277,-0.0013310478534549
1770447683186,-0.2706756591796875,-0.934661865234375,0.209075927734375,0.0103849964216351,-0.0022801985032856,-0.0022461100015789
1770447683196,-0.2696685791015625,-0.9371185302734376,0.2107391357421875,0.0099919140338897,-0.0048813079483807,0.0006191849242895
1770447683206,-0.266082763671875,-0.946563720703125,0.213470458984375,0.0094291884452104,-0.0040192427113652,0.0072107748128473
1770447683216,-0.264068603515625,-0.94866943359375,0.2178497314453125,0.0058736018836498,-0.0008119978010654,0.0065806708298623
1770447683226,-0.2668609619140625,-0.93927001953125,0.2173309326171875,0.0026706180069595,-0.001677791471593,0.0047846352681517
1770447683236,-0.269561767578125,-0.932281494140625,0.216766357421875,-0.0031403994653373,0.0002367550187045,0.0039822249673306
1770447683246,-0.27349853515625,-0.9309539794921876,0.2183074951171875,-0.0077647124417126,0.0047659929841756,0.0034522556234151
1770447683256,-0.2713470458984375,-0.939361572265625,0.21710205078125,-0.0081988079473376,0.0020983046852052,0.0051944958977401
1770447683266,-0.2632598876953125,-0.941314697265625,0.2164306640625,-0.010187123902142,0.0019819245208054,0.0116974022239446
1770447683276,-0.2632293701171875,-0.93243408203125,0.2162322998046875,-0.0136795928701758,0.0084318341687321,0.013865215703845
1770447683286,-0.2710418701171875,-0.936370849609375,0.218170166015625,-0.0155371483415365,0.0027095000259578,0.0131895719096064
1770447683296,-0.2682342529296875,-0.9372100830078124,0.2188720703125,-0.0178778003901243,0.00173371785786,0.0097644804045557
1770447683306,-0.267364501953125,-0.9291839599609376,0.21685791015625,-0.0141544351354241,-0.0015044197207316,0.0012732573086395
1770447683316,-0.2702789306640625,-0.9339752197265624,0.214813232421875,-0.0087610008195042,-0.0065415226854383,0.0016668725293129
1770447683326,-0.265411376953125,-0.9477386474609376,0.2160797119140625,-0.0054221958853304,-0.0049811764620244,-0.0030884679872542
1770447683336,-0.269561767578125,-0.929931640625,0.2130279541015625,-0.0020772656425833,0.0018346516881138,-0.0102798016741871
1770447683346,-0.2839202880859375,-0.91510009765625,0.2115325927734375,-0.0031784826423972,0.0059068910777568,-0.0216448418796062
1770447683356,-0.2854461669921875,-0.9119720458984376,0.2144622802734375,-0.0062922504730522,0.000794953550212,-0.027109382674098
1770447683366,-0.2821044921875,-0.92572021484375,0.2166748046875,-0.0074557857587933,0.0025731462519615,-0.0245743189007043
1770447683376,-0.2720947265625,-0.9373779296875,0.212921142578125,-0.0063593625091016,0.0021931130904704,-0.0177598223090171
1770447683387,-0.26416015625,-0.947235107421875,0.210601806640625,-0.0039244340732693,0.0009486179915256,-0.0098763331770896
1770447683397,-0.2637786865234375,-0.949005126953125,0.2064361572265625,-0.0048203216865658,-0.0009635316673666,-0.0021715415641665
1770447683407,-0.265228271484375,-0.9464874267578124,0.2077178955078125,-0.0102339955046772,-0.0016104135429486,0.0016229304019361
1770447683417,-0.265716552734375,-0.9445648193359376,0.2111663818359375,-0.0139698777347803,-0.0063412529416382,0.0058802594430744
1770447683427,-0.2647247314453125,-0.945587158203125,0.2124176025390625,-0.019284214824438,-0.0025118936318904,0.0093916375190019
1770447683437,-0.262359619140625,-0.9452667236328124,0.212127685546875,-0.0190727598965168,0.0015523566398769,0.0119280321523547
1770447683447,-0.26556396484375,-0.93994140625,0.212615966796875,-0.0155760301277041,0.0120239062234759,0.0073404707945883
1770447683457,-0.270355224609375,-0.9378509521484376,0.21234130859375,-0.0073593794368207,0.0144652258604764,0.0026466494891792
1770447683467,-0.2729339599609375,-0.9380950927734376,0.211181640625,0.00104049697984,0.0041188448667526,-0.0018988338997587
1770447683477,-0.2757415771484375,-0.9378204345703124,0.211151123046875,0.0051284492947161,-0.0106188217177987,-0.0063660200685262
1770447683487,-0.275970458984375,-0.9347991943359376,0.213775634765625,0.0047132624313235,-0.0171374417841434,-0.0085972165688872
1770447683497,-0.2751922607421875,-0.9344482421875,0.2192535400390625,0.0011406318517401,-0.0123008750379085,-0.0089346393942832
1770447683507,-0.2724761962890625,-0.936248779296875,0.2203369140625,0.0007432882557623,-0.0099274655804038,-0.0077942735515534
1770447683517,-0.270050048828125,-0.9383392333984376,0.215911865234375,0.0049263155087828,-0.0133578833192586,-0.0057779941707849
1770447683527,-0.2664337158203125,-0.9394073486328124,0.2119903564453125,0.0076312879100441,-0.0116827553138136,-0.005413407459855
1770447683537,-0.264495849609375,-0.9381103515625,0.209075927734375,0.0090456930920481,-0.0080291647464036,-0.0004026699461974
1770447683547,-0.26544189453125,-0.9361419677734376,0.20965576171875,0.006672816351056,-0.0024282701779156,0.0039595877751708
1770447683557,-0.2655181884765625,-0.9382781982421876,0.212921142578125,0.006303702481091,0.0062240739353001,0.0067604342475533
1770447683568,-0.262847900390625,-0.9463348388671876,0.2138824462890625,0.0053681335411965,0.0033332123421132,0.0085729816928505
1770447683577,-0.2573089599609375,-0.953094482421875,0.2148284912109375,0.0022759374696761,-0.0034322820138186,0.0178620871156454
1770447683588,-0.256561279296875,-0.9461517333984376,0.2171173095703125,-0.0032069785520434,0.0034866104833781,0.0207209903746843
1770447683597,-0.2660369873046875,-0.9370880126953124,0.2201385498046875,-0.0100118881091475,0.0144148916006088,0.0182442516088485
1770447683608,-0.271820068359375,-0.9315948486328124,0.220947265625,-0.0165302399545907,0.0180205460637807,0.0157046616077423
1770447683618,-0.2733917236328125,-0.9273223876953124,0.218780517578125,-0.0172263905405998,0.0174224004149436,0.0079063922166824
1770447683628,-0.2747039794921875,-0.923797607421875,0.214691162109375,-0.0165938902646303,0.0151278199627995,0.0019012306584045
1770447683638,-0.2765350341796875,-0.931732177734375,0.2140960693359375,-0.0148543138056993,0.0133674703538417,0.0020072245970368
1770447683648,-0.2713165283203125,-0.9408416748046876,0.21331787109375,-0.0139123536646366,0.0091423653066158,0.0024746092967689
1770447683658,-0.270111083984375,-0.9384613037109376,0.2133026123046875,-0.0135421743616461,0.010536796413362,0.0027907264884561
1770447683668,-0.2716827392578125,-0.9392852783203124,0.2132720947265625,-0.01490278262645,0.0110566457733511,0.0031886028591543
1770447683678,-0.2695770263671875,-0.9431610107421876,0.2134246826171875,-0.0112798186019063,0.0080004017800092,0.004906341433525
1770447683688,-0.2686004638671875,-0.9411163330078124,0.210113525390625,-0.0055979643948376,0.0057412427850067,0.0064642908982932
1770447683698,-0.2688751220703125,-0.9374847412109376,0.2106781005859375,-0.0032655680552124,0.0047047403641045,0.0046661244705319
1770447683708,-0.271759033203125,-0.9394073486328124,0.2087249755859375,0.0027206854429095,0.0044219125993549,0.0057588196359574
1770447683718,-0.27239990234375,-0.9382476806640624,0.2089080810546875,0.0079354206100106,0.0011217234423384,0.0059628174640238
1770447683728,-0.272186279296875,-0.93359375,0.21075439453125,0.0128521490842103,-0.0009139968897216,0.0031348068732768
1770447683738,-0.2732696533203125,-0.932769775390625,0.2101593017578125,0.0169137362390756,-0.008100270293653,0.0018562232144176
1770447683748,-0.27606201171875,-0.9302825927734376,0.2126922607421875,0.0174857825040817,-0.0112449312582612,0.0019755328539758
1770447683758,-0.2735443115234375,-0.9337615966796876,0.216217041015625,0.015907060354948,-0.0087860347703099,0.0022684806026518
1770447683768,-0.27105712890625,-0.9342193603515624,0.21795654296875,0.0115615809336304,-0.0033033851068466,0.0022756711114197
1770447683778,-0.2697601318359375,-0.9327392578125,0.21875,0.007334345486015,-0.0019534286111593,0.0040208403952419
1770447683788,-0.2685546875,-0.9336090087890624,0.2213134765625,-0.0015579492319375,-0.0002636529388837,0.0070714917965233
1770447683798,-0.265960693359375,-0.9375457763671876,0.222900390625,-0.0098867192864418,0.0073348782025277,0.0096307890489697
1770447683808,-0.265380859375,-0.938995361328125,0.2222442626953125,-0.0150612415745854,0.0103106945753097,0.0099106878042221
1770447683819,-0.2676544189453125,-0.93865966796875,0.2188568115234375,-0.0197231043130159,0.0060016997158527,0.0096057560294866
1770447683829,-0.2710418701171875,-0.9380035400390624,0.2166290283203125,-0.0209622737020254,0.005722067784518,0.0088986866176128
1770447683839,-0.2719573974609375,-0.937713623046875,0.2149658203125,-0.0244621988385915,0.0085431542247533,0.0079111866652965
1770447683849,-0.2715301513671875,-0.937713623046875,0.217437744140625,-0.0239330288022756,0.0122689167037606,0.0076725669205188
1770447683859,-0.2721099853515625,-0.93817138671875,0.21392822265625,-0.0227314122021198,0.0134612135589122,0.0068296766839921
1770447683869,-0.272979736328125,-0.9364166259765624,0.2119140625,-0.0162593964487314,0.0072643044404685,0.0021651498973369
1770447683879,-0.2765045166015625,-0.93121337890625,0.210968017578125,-0.0117402793839573,0.0035433357115834,-0.0017845842521637
1770447683889,-0.2752227783203125,-0.928192138671875,0.2125701904296875,-0.0102997757494449,0.0052711945027112,-0.0027816717047244
1770447683899,-0.2729034423828125,-0.9308929443359376,0.2115020751953125,-0.0065388595685362,0.007873635739088,-0.0026336000300943
1770447683909,-0.2713165283203125,-0.933807373046875,0.2075958251953125,-0.0008671252289786,0.0059622852131724,-0.0004657868703361
1770447683919,-0.2712249755859375,-0.9344024658203124,0.205810546875,0.0038653120864182,0.0011315771844238,-0.0033920682035386
1770447683929,-0.27227783203125,-0.9339599609375,0.2047576904296875,0.0115810222923755,-0.0035830168053507,-0.0064054350368678
1770447683939,-0.2719573974609375,-0.9425506591796876,0.2075653076171875,0.0136545598506927,-0.007612379733473,0.002379800658673
1770447683949,-0.2660369873046875,-0.949615478515625,0.2123260498046875,0.0114819528535008,0.0008370315190404,0.0091865742579102
1770447683959,-0.264556884765625,-0.94659423828125,0.215667724609375,0.0084688523784279,0.0148135675117373,0.0124481478706002
1770447683969,-0.2669677734375,-0.938018798828125,0.216644287109375,0.0047995490022003,0.023986293002963,0.0087703224271535
1770447683979,-0.2723236083984375,-0.9290771484375,0.2134246826171875,0.0140106240287423,0.0088259819895029,0.0035697009880095
1770447683989,-0.2796173095703125,-0.9336700439453124,0.205322265625,0.0197619870305061,-0.0141938496381044,0.0016671388875693
1770447683999,-0.27301025390625,-0.9427032470703124,0.207916259765625,0.0240249093621969,-0.01944001019001,0.0010649980977177
1770447684009,-0.2722015380859375,-0.9378662109375,0.2138824462890625,0.0195025950670242,-0.0005627259379252,-0.0002026665606535
1770447684020,-0.2747650146484375,-0.934783935546875,0.21923828125,0.0187867376953363,0.0072784190997481,0.0016338493442162
1770447684029,-0.2736663818359375,-0.941192626953125,0.2196197509765625,0.0187609046697616,-0.0011291803093627,-0.0004569984448608
1770447684040,-0.2698516845703125,-0.9274444580078124,0.21917724609375,0.0181904546916484,-0.0058770640753209,-0.0103090964257717
1770447684050,-0.27508544921875,-0.924224853515625,0.2178802490234375,0.0218967758119106,-0.0146473860368132,-0.0132377743721008
1770447684060,-0.2724151611328125,-0.9408721923828124,0.2185211181640625,0.0241050701588392,-0.0106582371518015,-0.0115011278539896
1770447684070,-0.2659454345703125,-0.9326324462890624,0.21832275390625,0.0248685982078313,-0.0018319884547963,-0.0212914403527975
1770447684080,-0.2744140625,-0.917144775390625,0.2180023193359375,0.0249152034521102,-0.00037657096982,-0.0262217503041028
1770447684090,-0.28057861328125,-0.9143524169921876,0.216064453125,0.0222893264144659,-0.0145504465326666,-0.0301456525921821
1770447684100,-0.2782135009765625,-0.920135498046875,0.21893310546875,0.0130979586392641,-0.0192645080387592,-0.0294646807014942
1770447684110,-0.27288818359375,-0.9340057373046876,0.2264404296875,0.0030815436039119,-0.0103378584608435,-0.0208163317292928
1770447684120,-0.263580322265625,-0.9444732666015624,0.2292633056640625,-0.0069553777575492,0.0001155811914941,-0.0078496672213077
1770447684130,-0.260162353515625,-0.949920654296875,0.2263336181640625,-0.0141302002593874,0.0093961646780371,-0.0052773198112845
1770447684140,-0.266448974609375,-0.9427032470703124,0.2188873291015625,-0.0149432634934782,0.0057460363022983,-0.0032330774702131
1770447684150,-0.27081298828125,-0.938232421875,0.212677001953125,-0.0155741656199097,-0.0064046359620988,-0.0011278487509116
1770447684160,-0.2702178955078125,-0.9375762939453124,0.213226318359375,-0.0228933319449424,-0.0048107341863214,0.0011560781858861
1770447684170,-0.2663116455078125,-0.939788818359375,0.2175750732421875,-0.0315552614629268,0.0042639872990548,0.0041151163168251
1770447684180,-0.2649993896484375,-0.944427490234375,0.22344970703125,-0.0407210625708103,0.0113021889701485,0.0076400763355195
1770447684190,-0.264984130859375,-0.942657470703125,0.22357177734375,-0.0395042672753334,0.013054815120995,0.0046890275552868
1770447684200,-0.26837158203125,-0.9436187744140624,0.2187347412109375,-0.0343079045414924,0.0077841533347964,0.0028450549580156
1770447684210,-0.2708740234375,-0.941375732421875,0.2156982421875,-0.0266193598508834,-0.0004745752958115,0.001235706731677
1770447684220,-0.2725677490234375,-0.938873291015625,0.2140350341796875,-0.0209529530256986,-0.0009116000146605,0.0005350290448404
1770447684230,-0.276885986328125,-0.9349822998046876,0.2137298583984375,-0.0166490171104669,-0.0017608820926398,-0.0018295916961506
1770447684240,-0.27490234375,-0.9344482421875,0.2146453857421875,-0.0155070545151829,-0.0027358653023838,0.0031569111160933
1770447684251,-0.2705535888671875,-0.935516357421875,0.214111328125,-0.0124462833628058,-0.0043643885292112,0.0032250881195068
1770447684261,-0.2683258056640625,-0.933319091796875,0.21063232421875,-0.0028304075822234,-0.0033137712161988,0.0051718587055802
1770447684271,-0.26849365234375,-0.9349212646484376,0.20428466796875,0.0065002436749637,-0.0034685009159147,0.0036618465092033
1770447684281,-0.267913818359375,-0.93304443359375,0.2019500732421875,0.0151062486693263,0.0028282769490033,0.0041659828275442
1770447684291,-0.2674407958984375,-0.9345855712890624,0.2031402587890625,0.0179973766207695,0.0054440340027213,0.007644603960216
1770447684301,-0.2689361572265625,-0.940093994140625,0.2075653076171875,0.0225279461592435,0.0038764972705394,0.002829608740285
1770447684311,-0.2697601318359375,-0.9485321044921876,0.21185302734375,0.0283962208777666,-0.0056757288984954,0.0044714473187923
1770447684321,-0.263153076171875,-0.9496307373046876,0.2139129638671875,0.0271573178470134,-0.0025214808993041,0.0092100100591778
1770447684331,-0.265045166015625,-0.93975830078125,0.216583251953125,0.0261604972183704,-8.175904804375023e-05,0.009141300804913
1770447684341,-0.2736663818359375,-0.9323272705078124,0.219451904296875,0.0211628098040819,0.0034330808557569,0.0042876894585788
1770447684351,-0.2774200439453125,-0.92950439453125,0.22021484375,0.0159430131316185,0.0034501252230256,-0.0001970739249372
1770447684361,-0.2763824462890625,-0.92352294921875,0.2218780517578125,0.0117780957370996,0.0015970977256074,-0.003753192955628
1770447684371,-0.272979736328125,-0.92608642578125,0.2224273681640625,0.0092100100591778,0.004381965380162,-0.0059218048118054
1770447684381,-0.2716522216796875,-0.9364166259765624,0.2216949462890625,0.0088803106918931,-0.0012242551892995,-0.0075194351375103
1770447684391,-0.267669677734375,-0.936798095703125,0.2203521728515625,0.0052189966663718,-0.0008799084462225,-0.0078400801867246
1770447684401,-0.2713165283203125,-0.9326629638671876,0.2205810546875,0.0011592740193009,0.0068059745244681,-0.0065026404336094
1770447684411,-0.2720947265625,-0.9371490478515624,0.2220611572265625,-0.0043372241780161,0.009746903553605,-0.004235225263983
1770447684421,-0.2688140869140625,-0.9430084228515624,0.224853515625,-0.0072331456467509,0.0089109372347593,-0.0019859191961586
1770447684431,-0.2681732177734375,-0.941986083984375,0.2235260009765625,-0.0094038881361484,0.0089085400104522,0.0014215953415259
1770447684441,-0.267364501953125,-0.9411163330078124,0.2219696044921875,-0.0132481614127755,0.0060259345918893,0.0038698392454534
1770447684451,-0.2653350830078125,-0.939056396484375,0.221923828125,-0.0143219474703073,0.0091548822820186,0.0054253917187452
1770447684461,-0.2697296142578125,-0.93316650390625,0.2200927734375,-0.0164263769984245,0.007302121259272,0.0031523837242275
1770447684472,-0.2726287841796875,-0.928802490234375,0.220916748046875,-0.0189971271902322,0.0088012143969535,0.0025811356026679
1770447684481,-0.274993896484375,-0.927734375,0.2191619873046875,-0.0208035483956336,0.0028450549580156,0.00336943147704
1770447684492,-0.2738494873046875,-0.9322357177734376,0.221160888671875,-0.0246603395789861,0.0033441314008086,0.0032898029312491
1770447684502,-0.270660400390625,-0.9339599609375,0.2238006591796875,-0.0310516599565744,0.0107668936252594,0.0021811288315802
1770447684512,-0.2689666748046875,-0.9368133544921876,0.223114013671875,-0.0349449329078197,0.011738414876163,0.004471180960536
1770447684522,-0.2671661376953125,-0.937042236328125,0.221466064453125,-0.0369518920779228,0.0148833421990275,0.0035840822383761
1770447684532,-0.270599365234375,-0.9371490478515624,0.217254638671875,-0.0371894463896751,0.0137155456468462,0.0057433731853961
1770447684542,-0.270355224609375,-0.935272216796875,0.212738037109375,-0.0330604799091815,0.0134020913392305,0.0036575854755938
1770447684552,-0.2696533203125,-0.9374847412109376,0.20904541015625,-0.0300708170980215,0.0157254338264465,0.003991013392806
1770447684562,-0.26922607421875,-0.9367218017578124,0.2083587646484375,-0.0268542505800724,0.0112694324925541,0.0042610578238964
1770447684572,-0.2723541259765625,-0.9367218017578124,0.2095184326171875,-0.0207918304949998,0.0105277420952916,0.0035792884882539
1770447684582,-0.273193359375,-0.9361724853515624,0.21136474609375,-0.0181869938969612,0.0084542045369744,-0.0005797701887786
1770447684592,-0.273590087890625,-0.9382171630859376,0.211883544921875,-0.0107527794316411,0.0103708822280168,-0.0034938009921461
1770447684602,-0.2736968994140625,-0.93243408203125,0.20892333984375,-0.0021566278301179,0.0076576531864702,-0.0013853764394298
1770447684612,-0.26885986328125,-0.9337921142578124,0.20550537109375,0.0087665934115648,0.0089887008070945,-0.0062365904450416
1770447684622,-0.274261474609375,-0.9353790283203124,0.203887939453125,0.0161755084991455,0.0066294069401919,-0.0076472670771181
1770447684632,-0.2743682861328125,-0.9317626953125,0.2079315185546875,0.0207124687731266,0.0035758262965828,-0.0088398307561874
1770447684642,-0.274810791015625,-0.9347076416015624,0.2091064453125,0.0222017094492912,-0.0032767534721642,-0.0096315881237387
1770447684652,-0.2707672119140625,-0.934722900390625,0.213470458984375,0.0203502792865037,-0.004880775231868,-0.0067628310061991
1770447684662,-0.2678985595703125,-0.93267822265625,0.2172393798828125,0.017717745155096,0.0014253237750381,-0.0072802836075425
1770447684672,-0.270263671875,-0.9326019287109376,0.218536376953125,0.0163811035454273,0.0050879693590104,-0.0060650832019746
1770447684682,-0.269927978515625,-0.94384765625,0.2195281982421875,0.012466256506741,0.0080131851136684,-0.0016708672046661
1770447684693,-0.265869140625,-0.949005126953125,0.220245361328125,0.0096811233088374,0.0042597260326147,0.0038786276709288
1770447684703,-0.264190673828125,-0.9443206787109376,0.2222442626953125,0.0031734227668493,-0.0024160197935998,0.0043529369868338
1770447684713,-0.2686767578125,-0.934478759765625,0.2230224609375,-0.0020615530665963,0.0027020431589335,0.0022386531345546
1770447684723,-0.2753448486328125,-0.9268341064453124,0.2238922119140625,-0.0078707057982683,0.0088763162493705,-0.0010021475609391
1770447684733,-0.276580810546875,-0.9268798828125,0.2235260009765625,-0.01517921872437,0.0083085298538208,-0.0047207195311784
1770447684743,-0.2744293212890625,-0.939178466796875,0.2220916748046875,-0.02077292278409,0.003107376396656,-0.0027462516445666
1770447684753,-0.265716552734375,-0.9439544677734376,0.2225341796875,-0.0286819785833358,0.0105842007324099,0.0040352218784391
1770447684763,-0.26397705078125,-0.94281005859375,0.2214508056640625,-0.0322226509451866,0.0090446276590228,0.0095644770190119
1770447684773,-0.2669830322265625,-0.943084716796875,0.2222442626953125,-0.0323094688355922,0.0137328561395406,0.0040868869982659
1770447684783,-0.26910400390625,-0.92718505859375,0.218048095703125,-0.0352567918598651,0.0167781803756952,-0.0046408246271312
1770447684793,-0.27642822265625,-0.9311370849609376,0.2146453857421875,-0.0286865066736936,0.0137240681797266,-0.0068168933503329
1770447684803,-0.269439697265625,-0.94732666015625,0.212432861328125,-0.0220629572868347,0.0085791070014238,-0.0053164684213697
1770447684813,-0.2678680419921875,-0.9314422607421876,0.209869384765625,-0.0125775774940848,0.0064168865792453,-0.015539544634521
1770447684823,-0.27691650390625,-0.91400146484375,0.206817626953125,-0.0037995318416506,0.0002729740226641,-0.0220211464911699
1770447684833,-0.282196044921875,-0.9171295166015624,0.2100372314453125,-0.0030772825703024,-0.0028682244010269,-0.0270191002637147
1770447684843,-0.27783203125,-0.922027587890625,0.214874267578125,-0.0026682210154831,0.0022506373934447,-0.0293014291673898
1770447684853,-0.272735595703125,-0.93048095703125,0.2170257568359375,0.0004090615548193,0.0066182217560708,-0.0199143197387456
1770447684863,-0.2655487060546875,-0.9436187744140624,0.2133636474609375,0.0033217607997357,0.0023856596089899,-0.0108771491795778
1770447684873,-0.263519287109375,-0.951019287109375,0.2086944580078125,0.0072355424053967,0.0009595369338057,-0.0029787456151098
1770447684883,-0.2646484375,-0.9471893310546876,0.20703125,0.0041255028918385,0.0019971043802797,0.0016125440597534
1770447684893,-0.2656402587890625,-0.9454803466796876,0.2079925537109375,-0.0018389127217233,0.008297611027956,0.0044828988611698
1770447684904,-0.267242431640625,-0.944854736328125,0.21051025390625,-0.0095311868935823,0.0068571069277822,0.0051252534613013
1770447684913,-0.2677001953125,-0.9427947998046876,0.2158660888671875,-0.0162095967680215,0.0048778457567095,0.0055337822996079
1770447684924,-0.268829345703125,-0.942718505859375,0.2157440185546875,-0.020558537915349,0.0108848717063665,0.0048059406690299
1770447684934,-0.270965576171875,-0.941436767578125,0.2172088623046875,-0.0192775577306747,0.0089213233441114,0.0015973639674484
1770447684944,-0.270721435546875,-0.939666748046875,0.2161712646484375,-0.0165222510695457,0.0098078893497586,-0.0030474551022052
1770447684954,-0.2738800048828125,-0.93817138671875,0.2154083251953125,-0.0096126794815063,0.0050248522311449,-0.0085777752101421
1770447684964,-0.2785797119140625,-0.933319091796875,0.2162017822265625,-0.0058456384576857,-0.0054301852360367,-0.0128137990832328
1770447684974,-0.2783355712890625,-0.93310546875,0.2164154052734375,-0.0042064627632498,-0.0111964615061879,-0.012966132722795
1770447684984,-0.27471923828125,-0.9344329833984376,0.21636962890625,-0.0015259912470355,-0.0093929693102836,-0.0136942407116293
1770447684994,-0.2686004638671875,-0.936187744140625,0.21429443359375,0.0005795038305222,-0.0069423280656337,-0.009279784746468
1770447685004,-0.2656402587890625,-0.9361724853515624,0.2125091552734375,0.0068749501369893,-0.0036024579312652,-0.0087127974256873
1770447685014,-0.2656097412109375,-0.9364776611328124,0.20782470703125,0.0104944529011845,-0.0074115772731602,-0.0066238143481314
1770447685024,-0.2655029296875,-0.9382171630859376,0.2068939208984375,0.0152023890987038,-0.0102726109325885,-0.0009131979313679
1770447685034,-0.2637481689453125,-0.936981201171875,0.209808349609375,0.0153224971145391,-0.0081370221450924,0.0018508969806134
1770447685044,-0.2640838623046875,-0.9371337890625,0.214447021484375,0.0095301214605569,-0.0067335362546145,0.0054078148677945
1770447685054,-0.2653350830078125,-0.941864013671875,0.2194061279296875,0.0076928068883717,-0.0081130536273121,0.0065953182056546
1770447685064,-0.2634124755859375,-0.945831298828125,0.2170867919921875,0.0038458709605038,-0.008134625852108,0.0131411021575331
1770447685074,-0.2602386474609375,-0.9447479248046876,0.220062255859375,-0.0027073696255683,0.0042986082844436,0.0163600649684667
1770447685084,-0.2678070068359375,-0.9356536865234376,0.21929931640625,-0.0091740572825074,0.0130367064848542,0.0132460305467247
1770447685094,-0.2724761962890625,-0.9308929443359376,0.2176055908203125,-0.0114635769277811,0.0148921301588416,0.0098395813256502
1770447685104,-0.27386474609375,-0.9246368408203124,0.2162933349609375,-0.009991381317377,0.0123679861426353,-0.0011302455095574
1770447685114,-0.2779693603515625,-0.929779052734375,0.2137451171875,-0.0089775156229734,0.0067021111026406,-0.0050094057805836
1770447685124,-0.2725067138671875,-0.936492919921875,0.2154998779296875,-0.0053015546873211,0.008208661340177,-0.0048195226117968
1770447685134,-0.26885986328125,-0.9382171630859376,0.21478271484375,-0.0072770877741277,0.0135208684951066,-0.0030317425262182
1770447685145,-0.26788330078125,-0.9365386962890624,0.217559814453125,-0.0080589912831783,0.0168663319200277,-0.0051558800041675
1770447685155,-0.270477294921875,-0.9383087158203124,0.217071533203125,-0.0092233261093497,0.0146785452961921,-0.0019494339358061
1770447685165,-0.2682342529296875,-0.941680908203125,0.2176971435546875,-0.0097618168219923,0.0141986431553959,-0.0017899106023833
1770447685175,-0.266754150390625,-0.94183349609375,0.2187652587890625,-0.0075769596733152,0.0152095789089798,0.00126793095842
1770447685185,-0.26727294921875,-0.942169189453125,0.2126312255859375,-0.0037558560725301,0.0101684816181659,0.0016492956783622
1770447685195,-0.26751708984375,-0.94091796875,0.2108154296875,-0.0005707154050469,0.003622697899118,0.0009693906176835
1770447685205,-0.2713470458984375,-0.936187744140625,0.212615966796875,-0.0005376922199502,0.0045124599710106,-0.0017046893481165
1770447685215,-0.274169921875,-0.9299774169921876,0.215057373046875,-0.0003781688574235,0.0028232170734554,-0.003999535460025
1770447685225,-0.2750701904296875,-0.9297027587890624,0.2161407470703125,-0.0026666230987757,0.0031542479991912,-0.0037156422622501
1770447685235,-0.2729644775390625,-0.93292236328125,0.215606689453125,-0.0029172266367822,0.0036890106275677,-0.0007890945998951
1770447685245,-0.26995849609375,-0.936676025390625,0.2160186767578125,-0.0053082127124071,0.008012119680643,-0.0005755090969614
1770447685255,-0.269439697265625,-0.9395599365234376,0.2169647216796875,-0.008960205130279,0.0055827847681939,-0.0010000169277191
1770447685265,-0.2698822021484375,-0.93841552734375,0.219146728515625,-0.0115706361830234,0.0047337687574326,-0.000720385054592
1770447685275,-0.2686920166015625,-0.9362030029296876,0.218658447265625,-0.0178205426782369,0.0043398872949182,0.0026900589000433
1770447685285,-0.26849365234375,-0.9367218017578124,0.21868896484375,-0.0213494971394538,0.005568669643253,0.0011976235546171
1770447685295,-0.2676239013671875,-0.9376983642578124,0.2158966064453125,-0.0213937051594257,0.0077378144487738,0.0039689089171588
1770447685305,-0.2680206298828125,-0.9363555908203124,0.214202880859375,-0.0203534755855798,0.0086621977388858,0.0050916974432766
1770447685315,-0.2697296142578125,-0.934722900390625,0.2111053466796875,-0.017136376351118,0.0060949102044105,0.0016466324450448
1770447685325,-0.27130126953125,-0.9358978271484376,0.2104949951171875,-0.0132343126460909,0.00510980701074,-0.0019592875614762
1770447685336,-0.271697998046875,-0.9381866455078124,0.2124176025390625,-0.0100385192781686,0.007424094248563,-0.0013648699969053
1770447685345,-0.2694549560546875,-0.9362640380859376,0.2125396728515625,-0.0071188956499099,0.0098867192864418,-0.0031915323343127
1770447685356,-0.269622802734375,-0.93707275390625,0.2110748291015625,-0.0018682074733078,0.0065841330215334,-0.0026173547375947
1770447685365,-0.270660400390625,-0.936614990234375,0.2096099853515625,0.0001398159511154,0.0052562812343239,-0.0058861183933913
1770447685376,-0.2714691162109375,-0.93408203125,0.2117919921875,0.0031217574141919,0.0047675911337137,-0.0044687842018902
1770447685386,-0.271697998046875,-0.9344940185546876,0.21014404296875,0.007162039168179,0.0013696637470275,-0.0067407269962131
1770447685396,-0.2708892822265625,-0.9359588623046876,0.2106781005859375,0.0071348748169839,-0.0006596649764105,-0.0049172607250511
1770447685406,-0.2684478759765625,-0.935394287109375,0.2120513916015625,0.006098638754338,0.0026354643050581,-0.0025278725661337
1770447685416,-0.2678375244140625,-0.9344940185546876,0.21405029296875,0.0063657537102699,0.0045654568821191,-0.0036751623265445
1770447685426,-0.27020263671875,-0.938262939453125,0.2155609130859375,0.0059622852131724,0.0004841626796405,-0.001882588607259
1770447685436,-0.2685546875,-0.9468231201171876,0.214996337890625,0.0073037194088101,-0.0008865662966854,0.0034376082476228
1770447685446,-0.2643890380859375,-0.9475250244140624,0.214019775390625,0.0073146382346749,0.0019707391038537,0.0050621363334357
1770447685456,-0.2681884765625,-0.9402313232421876,0.2137451171875,0.0063734771683812,7.909588020993397e-05,0.0030759510118514
1770447685466,-0.2719573974609375,-0.932952880859375,0.21551513671875,0.0019020296167582,-0.0028013791888952,0.0021867216564714
1770447685476,-0.27490234375,-0.928009033203125,0.217071533203125,-0.0051862397231161,0.0076320869848132,-0.0011150655336678
1770447685486,-0.274139404296875,-0.9302978515625,0.2193145751953125,-0.008021974004805,0.0091040162369608,-0.0059553608298301
1770447685496,-0.271728515625,-0.9418792724609376,0.2176666259765625,-0.0089881690219044,0.0028000476304441,-0.0047883638180792
1770447685506,-0.2647705078125,-0.945220947265625,0.217803955078125,-0.0105735482648015,0.0065292720682919,-0.0023787354584783
1770447685516,-0.2678680419921875,-0.944122314453125,0.2177581787109375,-0.0114720985293388,0.0074078487232327,0.0019108180422335
1770447685526,-0.2694091796875,-0.9350433349609376,0.2194366455078125,-0.0125698540359735,0.0055303201079368,-0.0046400255523622
1770447685536,-0.2708587646484375,-0.9246063232421876,0.21832275390625,-0.0104640927165746,0.0106763467192649,-0.0093556847423315
1770447685546,-0.272918701171875,-0.938720703125,0.2154083251953125,-0.0040828920900821,0.0006322344415821,-0.0051441621035337
1770447685556,-0.265228271484375,-0.9489288330078124,0.211273193359375,0.0019129485590383,-0.0056128781288862,-0.0043049999512732
1770447685566,-0.266021728515625,-0.9275665283203124,0.2096405029296875,0.0056866477243602,-0.0066895941272377,-0.0163291729986667
1770447685576,-0.2754974365234375,-0.91375732421875,0.21197509765625,0.0064746770076453,-0.0071335430257022,-0.0203745141625404
1770447685587,-0.2787628173828125,-0.91680908203125,0.217193603515625,0.0055297878570854,-0.0050456249155104,-0.02393089979887
1770447685597,-0.273040771484375,-0.921875,0.2220611572265625,0.0010657970560714,0.0001472728035878,-0.021336181089282
1770447685607,-0.265777587890625,-0.9349822998046876,0.2205657958984375,0.0004348942020442,0.0033902039285749,-0.0114952689036726
1770447685617,-0.260955810546875,-0.9468231201171876,0.2171783447265625,0.0009395632077939,0.0066975839436054,-0.0038706383202224
