timestamp_ms,acc_x,acc_y,acc_z,gyro_x,gyro_y,gyro_z
1770451879748,-0.0916290283203125,-0.264312744140625,-0.9487152099609376,0.0009637979674153,-0.0136465700343251,-0.0062626893632113
1770451879758,-0.0933380126953125,-0.26416015625,-0.9444122314453124,-0.0123096629977226,-0.0178578272461891,-0.0028799423016607
1770451879765,-0.092620849609375,-0.2614593505859375,-0.9486846923828124,-0.0230848118662834,-0.0211542882025241,0.0032421322539448
1770451879775,-0.0919647216796875,-0.262725830078125,-0.94921875,-0.030352845788002,-0.0093708653002977,0.0078877508640289
1770451879785,-0.0893096923828125,-0.26214599609375,-0.9502105712890624,-0.030355243012309,-0.0091833779588341,0.0071354075334966
1770451879795,-0.0884246826171875,-0.257720947265625,-0.958099365234375,-0.0252100154757499,-0.0176586229354143,-0.0001459412305848
1770451879805,-0.094635009765625,-0.26043701171875,-0.962921142578125,-0.0187172293663024,-0.0302242152392864,2.609897819638718e-05
1770451879815,-0.0941009521484375,-0.26251220703125,-0.969512939453125,-0.0087125310674309,-0.0268510542809963,0.0049934270791709
1770451879825,-0.0881500244140625,-0.26483154296875,-0.9675750732421876,0.0070382021367549,-0.0195047259330749,0.0070331422612071
1770451879835,-0.0895233154296875,-0.2637481689453125,-0.9695892333984376,0.0109756859019398,-0.0248156003654003,0.0053095440380275
1770451879845,-0.0960235595703125,-0.267578125,-0.961334228515625,0.0114713003858923,-0.0127642648294568,0.0049276468344032
1770451879855,-0.0947265625,-0.2662506103515625,-0.95703125,0.0027830032631754,0.0012394351651892,0.0045401570387184
1770451879865,-0.095428466796875,-0.2633209228515625,-0.9527435302734376,-0.0049777142703533,0.0042972764931619,0.0013454289874061
1770451879875,-0.1038665771484375,-0.2643890380859375,-0.955718994140625,-0.0131107419729232,0.014013553969562,-0.0030458574183285
1770451879885,-0.101470947265625,-0.2642669677734375,-0.9537506103515624,-0.0200184490531682,0.0138055607676506,-0.0018849853659048
1770451879896,-0.0988311767578125,-0.264495849609375,-0.952972412109375,-0.0190866086632013,0.0069385999813675,-0.0020093549974262
1770451879906,-0.09814453125,-0.2630615234375,-0.9556732177734376,-0.0199393536895513,0.0028700886759907,-0.003155313199386
1770451879916,-0.10174560546875,-0.2608489990234375,-0.954681396484375,-0.0167275816202163,0.0011012171162292,-0.0003677825443446
1770451879926,-0.0936431884765625,-0.2619171142578125,-0.9599151611328124,-0.0145286088809371,-0.0022053637076169,0.003410177771002
1770451879936,-0.089111328125,-0.26031494140625,-0.957183837890625,-0.0195047259330749,0.0098638162016868,0.0021451762877404
1770451879946,-0.0967254638671875,-0.2586822509765625,-0.95318603515625,-0.0188288148492574,0.0137504329904913,0.0040288302116096
1770451879959,-0.090301513671875,-0.26507568359375,-0.9581146240234376,-0.0115820877254009,0.0057383133098483,0.0043010050430893
1770451879966,-0.0938720703125,-0.2662353515625,-0.96319580078125,-0.0100470418110489,0.0046064695343375,0.0020634171087294
1770451879976,-0.0974578857421875,-0.2583465576171875,-0.96014404296875,-0.0113168368116021,0.0020471718162298,0.0004663194995373
1770451879986,-0.09869384765625,-0.2551116943359375,-0.95843505859375,-0.0052075451239943,-0.0075868130661547,-0.002788063371554
1770451879996,-0.1011810302734375,-0.2567901611328125,-0.9608306884765624,-0.0033230923581868,-0.0134130110964179,-0.0064722802489995
1770451880006,-0.100616455078125,-0.257568359375,-0.959808349609375,-0.0033087113406509,-0.0135182058438658,-0.0048360340297222
1770451880016,-0.0960540771484375,-0.2592620849609375,-0.9577484130859376,-0.0057329866103827,-0.0092717949301004,-0.0016176040517166
1770451880027,-0.093414306640625,-0.26141357421875,-0.9563446044921876,-0.0049295113421976,0.0060275322757661,-0.0032221586443483
1770451880036,-0.0962066650390625,-0.26171875,-0.960296630859375,-0.0004010720585938,0.0014903049450367,-0.0058602858334779
1770451880046,-0.101837158203125,-0.2610015869140625,-0.966094970703125,0.0026170883793383,0.001710015698336,-0.0093381078913807
1770451880056,-0.10174560546875,-0.2578125,-0.9639129638671876,0.0115834195166826,0.001906557008624,-0.0157893486320972
1770451880066,-0.100494384765625,-0.2566986083984375,-0.969024658203125,0.0219401866197586,-0.0165177229791879,-0.0190836787223815
1770451880076,-0.101043701171875,-0.25714111328125,-0.97039794921875,0.0262688882648944,-0.0176037605851888,-0.0163965504616498
1770451880086,-0.0945587158203125,-0.2588958740234375,-0.9648895263671876,0.0281240455806255,-0.0117480028420686,-0.0141115579754114
1770451880096,-0.09197998046875,-0.2602081298828125,-0.958526611328125,0.0283999498933553,-0.02191754989326,-0.0146103678271174
1770451880106,-0.0953369140625,-0.2630767822265625,-0.9560394287109376,0.0141142206266522,-0.0279336292296648,-0.0090867057442665
1770451880117,-0.0920562744140625,-0.2622222900390625,-0.9445343017578124,-0.0052586779929697,0.0001688444172032,-0.0001672465150477
1770451880127,-0.0868072509765625,-0.264404296875,-0.9360809326171876,-0.0108350710943341,0.022213427349925,0.0053593451157212
1770451880137,-0.087310791015625,-0.266021728515625,-0.948089599609375,-0.0146545767784118,0.0120457438752055,0.0055462992750108
1770451880147,-0.096954345703125,-0.261444091796875,-0.9551544189453124,-0.0113202985376119,0.0045923548750579,0.0041553303599357
1770451880157,-0.0977630615234375,-0.26031494140625,-0.9576873779296876,-0.0125256450846791,-0.0060131512582302,0.005029113497585
1770451880167,-0.095458984375,-0.259490966796875,-0.9565582275390624,-0.0164431557059288,-0.0024711471050977,0.0004633900243788
1770451880177,-0.097198486328125,-0.2572174072265625,-0.9537811279296876,-0.0153014585375785,-0.000434361572843,-0.0003736414946615
1770451880187,-0.0945587158203125,-0.25927734375,-0.958038330078125,-0.0207156650722026,-0.0114460000768303,0.0012892362428829
1770451880197,-0.0956573486328125,-0.2617034912109375,-0.954437255859375,-0.0275749024003744,0.0007004113867878,0.0036256273742765
1770451880207,-0.093719482421875,-0.25909423828125,-0.9519805908203124,-0.0300606973469257,0.011159710586071,0.0059287291951477
1770451880217,-0.091705322265625,-0.2614898681640625,-0.9532470703125,-0.0249279867857694,0.0028802086599171,0.0066019762307405
1770451880227,-0.09515380859375,-0.2637481689453125,-0.9626007080078124,-0.0205129981040954,-0.0058248657733201,0.0108633004128932
1770451880237,-0.0958404541015625,-0.2607879638671875,-0.9642333984375,-0.0147906634956598,-0.0088502168655395,0.0080707091838121
1770451880247,-0.0971832275390625,-0.257843017578125,-0.962310791015625,-0.0082685826346278,-0.004555070772767,0.007481085602194
1770451880258,-0.0998382568359375,-0.2587890625,-0.960906982421875,-0.0022799321450293,-0.0052698631770908,0.007039001211524
1770451880267,-0.10260009765625,-0.2657928466796875,-0.960968017578125,-0.009049154818058,-0.0017209346406161,0.0083950823172926
1770451880277,-0.101165771484375,-0.2674407958984375,-0.955108642578125,-0.0154644437134265,0.0097066890448331,0.006957774516195
1770451880290,-0.0992584228515625,-0.261383056640625,-0.9579315185546876,-0.0161976125091314,0.002755040070042,0.0058648134581744
1770451880297,-0.09808349609375,-0.269622802734375,-0.96234130859375,-0.0152002582326531,-0.006613427773118,0.0024714134633541
1770451880307,-0.0989990234375,-0.2490997314453125,-0.9606475830078124,-0.0179829951375722,0.0052504218183457,-0.0170705970376729
1770451880317,-0.1104736328125,-0.250396728515625,-0.9532012939453124,-0.0225093029439449,-0.000438888935605,-0.0229947976768016
1770451880327,-0.1031036376953125,-0.2566680908203125,-0.9524383544921876,-0.0324151962995529,-0.001716939965263,-0.0207188613712787
1770451880337,-0.0975341796875,-0.260040283203125,-0.9454803466796876,-0.0442590750753879,0.0105727491900324,-0.0151275536045432
1770451880348,-0.0946502685546875,-0.2664031982421875,-0.9461669921875,-0.0425724945962429,0.0164777766913175,-0.0036522590089589
1770451880358,-0.0873260498046875,-0.269561767578125,-0.958648681640625,-0.0267594419419765,0.0044251084327697,-0.0004332963144406
1770451880368,-0.08966064453125,-0.2614288330078125,-0.9709930419921876,-0.0121820978820323,-0.0071785505861043,-0.013570137321949
1770451880378,-0.1030426025390625,-0.2476959228515625,-0.967559814453125,-0.0047478834167122,-0.0145251471549272,-0.0248419661074876
1770451880389,-0.1011505126953125,-0.2469940185546875,-0.958282470703125,-0.009769007563591,-0.0058088870719075,-0.0258278679102659
1770451880398,-0.0926513671875,-0.25457763671875,-0.9531097412109376,-0.0190059151500463,0.0007736482657492,-0.0225282125174999
1770451880408,-0.0946044921875,-0.2558135986328125,-0.951751708984375,-0.0253961700946092,0.0037713022902607,-0.0145110320299863
1770451880418,-0.0951385498046875,-0.2574462890625,-0.953033447265625,-0.0333598218858242,-3.621898940764368e-05,-0.0005155879771336
1770451880428,-0.091949462890625,-0.255706787109375,-0.9536895751953124,-0.0378781408071517,0.0064054350368678,0.0063135558739304
1770451880438,-0.095703125,-0.255615234375,-0.9623565673828124,-0.0332157425582408,-0.0066054384224116,0.0039521311409771
1770451880448,-0.1010589599609375,-0.2576751708984375,-0.9660186767578124,-0.0294617526233196,-0.0044629252515733,-0.000572579621803
1770451880458,-0.09686279296875,-0.2548370361328125,-0.9634857177734376,-0.0217795968055725,0.0104995127767324,-0.0044930190779268
1770451880468,-0.099456787109375,-0.256805419921875,-0.9644927978515624,-0.0138156805187463,0.0024682176299393,-0.008247809484601
1770451880479,-0.10211181640625,-0.2592010498046875,-0.9689788818359376,-0.009949835948646,0.0011052117915824,-0.0111101754009723
1770451880489,-0.104644775390625,-0.255950927734375,-0.964599609375,-0.007627825718373,0.0033582460600882,-0.0121179157868027
1770451880498,-0.10296630859375,-0.2556610107421875,-0.9623565673828124,-0.007734618615359,-0.0019888486713171,-0.0106358667835593
1770451880508,-0.0989227294921875,-0.2555084228515625,-0.9606781005859376,-0.0055827847681939,0.0028991170693188,-0.0110380034893751
1770451880518,-0.098968505859375,-0.2558746337890625,-0.9588165283203124,-0.0044823666103184,0.0008175904513336,-0.0103482445701956
1770451880528,-0.09783935546875,-0.2577972412109375,-0.9595184326171876,-0.0042781019583344,-0.0055329832248389,-0.0092512890696525
1770451880538,-0.09527587890625,-0.2609100341796875,-0.9599609375,-0.0090736560523509,0.0040096552111208,-0.0129275163635611
1770451880548,-0.0995330810546875,-0.2548980712890625,-0.954681396484375,-0.005689843557775,0.0099596893414855,-0.0158327594399452
1770451880559,-0.10211181640625,-0.25543212890625,-0.9609375,0.000449807906989,-0.006492253858596,-0.012648151256144
1770451880568,-0.10028076171875,-0.2565460205078125,-0.9663848876953124,0.0014737932942807,-0.0282486826181411,-0.0135195367038249
1770451880579,-0.100311279296875,-0.253387451171875,-0.9629974365234376,0.0012167983222752,-0.0395727083086967,-0.0094923051074147
1770451880589,-0.0972900390625,-0.256134033203125,-0.958282470703125,-0.0058046258054673,-0.0328935012221336,-0.006811833474785
1770451880599,-0.093109130859375,-0.2536468505859375,-0.9593658447265624,-0.0075910743325948,-0.0131128728389739,-0.008118912577629
1770451880609,-0.0960693359375,-0.25537109375,-0.9602203369140624,-0.0054397727362811,-0.0014010890154168,-0.0032242890447378
1770451880619,-0.0932159423828125,-0.26141357421875,-0.960845947265625,-0.0009166600648313,0.0019755328539758,-0.0013305152533575
1770451880629,-0.09210205078125,-0.2596435546875,-0.9645233154296876,0.0038589204195886,0.003753192955628,-0.0054658716544508
1770451880639,-0.1002349853515625,-0.2553253173828125,-0.9645538330078124,0.0025331987999379,-0.0007225155713967,-0.0049233860336244
1770451880649,-0.0975494384765625,-0.256500244140625,-0.9636383056640624,0.0009094694978557,-0.0019845876377075,-0.0012317119399085
1770451880659,-0.0945281982421875,-0.2578277587890625,-0.96087646484375,-0.0027960527222603,-0.0061234063468873,-0.0032581111881881
1770451880669,-0.099273681640625,-0.2559814453125,-0.957183837890625,4.873584839515388e-05,0.0007289071800187,0.0008287757518701
1770451880679,-0.096435546875,-0.2530059814453125,-0.9599456787109376,0.0038551918696612,0.0025771409273147,0.0028746160678565
1770451880690,-0.0966339111328125,-0.2559051513671875,-0.9647216796875,0.01192909758538,-0.002258094260469,0.0012503541074693
1770451880699,-0.0998382568359375,-0.2563629150390625,-0.96600341796875,0.0124023407697677,-0.011995144188404,-0.0003723099071066
1770451880709,-0.0972900390625,-0.25628662109375,-0.9604644775390624,0.0075817531906068,-0.0065106297843158,0.0017784589435905
1770451880719,-0.096435546875,-0.258331298828125,-0.954620361328125,0.0070331422612071,0.0046586678363382,-0.0005888249143026
1770451880729,-0.0989990234375,-0.25677490234375,-0.95855712890625,0.0047124633565545,-0.006041913293302,-0.004424575716257
1770451880740,-0.1043548583984375,-0.260101318359375,-0.957733154296875,0.0038048583082854,-0.0013422331539914,-0.0046597328037023
1770451880749,-0.0997772216796875,-0.2591552734375,-0.95477294921875,0.0023592943325638,0.0008133294177241,-0.004684766754508
1770451880760,-0.098846435546875,-0.258148193359375,-0.9580078125,0.0037156422622501,-0.0131914354860782,-0.0101655516773462
1770451880769,-0.103515625,-0.258270263671875,-0.959991455078125,0.0079700425267219,-0.0174255948513746,-0.0109423957765102
1770451880780,-0.1029510498046875,-0.254364013671875,-0.9597625732421876,0.0072720274329185,-0.0208083428442478,-0.0102723445743322
1770451880790,-0.09954833984375,-0.255584716796875,-0.959197998046875,0.0091876396909356,-0.0215870514512062,-0.0071939970366656
1770451880800,-0.0980377197265625,-0.256134033203125,-0.96142578125,0.0077348849736154,-0.0196591895073652,-0.0072187641635537
1770451880810,-0.0992889404296875,-0.2554779052734375,-0.958953857421875,0.0057273940183222,-0.013147760182619,-0.0037071201950311
1770451880820,-0.097442626953125,-0.2578125,-0.955413818359375,-0.001316666835919,-0.0039041941054165,-0.0030911311041563
1770451880830,-0.097930908203125,-0.256866455078125,-0.9510498046875,-0.0086238477379083,0.0120249707251787,-0.0010194580536335
1770451880840,-0.0972747802734375,-0.2560882568359375,-0.956390380859375,-0.0075734974816441,0.0135735990479588,-0.0006514092092402
1770451880850,-0.09820556640625,-0.26025390625,-0.96173095703125,-0.0061713429167866,0.0022490394767373,0.00107964547351
1770451880860,-0.0989837646484375,-0.260162353515625,-0.963714599609375,-0.0020250675734132,-0.0028764803428202,0.0016671388875693
1770451880870,-0.101654052734375,-0.2569427490234375,-0.9639892578125,-0.0001177117228507,-0.0054592140950262,-0.0010729875648394
1770451880880,-0.104400634765625,-0.2544708251953125,-0.9602203369140624,0.0021289309952408,-0.0002490055630914,-0.0037657096982002
1770451880890,-0.1002197265625,-0.2550201416015625,-0.9605712890625,0.0012780509423464,-0.0025355955585837,-0.0052738580852746
1770451880900,-0.1034698486328125,-0.2546539306640625,-0.955810546875,0.0054640076123178,-0.0015057512791827,-0.00908990111202
1770451880910,-0.1027069091796875,-0.255523681640625,-0.9608917236328124,0.003214701777324,-0.0035542547702789,-0.0081482073292136
1770451880920,-0.09906005859375,-0.256927490234375,-0.955718994140625,0.0028021780308336,0.0065519087947905,-0.0067790765315294
1770451880930,-0.0975189208984375,-0.257171630859375,-0.9576416015625,0.0037864823825657,0.004473578184843,-0.0073604444041848
1770451880940,-0.0992889404296875,-0.25848388671875,-0.96075439453125,0.0074600465595722,-0.0007978830835781,-0.0058831889182329
1770451880950,-0.0983734130859375,-0.25714111328125,-0.9611358642578124,0.0029289445374161,0.0025473134592175,-0.0023129554465413
1770451880960,-0.09698486328125,-0.2565155029296875,-0.957611083984375,-0.0002149171050405,0.0084483455866575,0.0018335863715037
1770451880970,-0.098541259765625,-0.25885009765625,-0.9530181884765624,-0.0070318104699254,0.0160106588155031,0.0064320666715502
1770451880981,-0.0916595458984375,-0.261688232421875,-0.9528045654296876,-0.0084286388009786,0.0122699821367859,0.0100015010684728
1770451880991,-0.0930938720703125,-0.2634429931640625,-0.9564056396484376,-0.0099519668146967,0.0018250643042847,0.0133067509159445
1770451881001,-0.0964813232421875,-0.2619476318359375,-0.959442138671875,-0.0126159265637397,-0.0039358856156468,0.0143299372866749
1770451881011,-0.100341796875,-0.2588653564453125,-0.95556640625,-0.0180527698248624,0.0081934817135334,0.0148306116461753
1770451881021,-0.099273681640625,-0.2549591064453125,-0.949951171875,-0.0172618106007576,0.0207063443958759,0.0132047515362501
1770451881031,-0.1007537841796875,-0.2586212158203125,-0.9566497802734376,-0.0111197624355554,0.0115408087149262,0.0089852390810847
1770451881041,-0.10345458984375,-0.2606964111328125,-0.963623046875,-0.0043268376030027,0.0025268071331083,0.0083213131874799
1770451881051,-0.10223388671875,-0.259521484375,-0.9646453857421876,0.0050277817063033,-0.0090281162410974,0.0081223752349615
1770451881061,-0.1028289794921875,-0.2575836181640625,-0.9704437255859376,0.0158101227134466,-0.0226424615830183,0.0054672034457325
1770451881071,-0.10601806640625,-0.2588348388671875,-0.972808837890625,0.026529612019658,-0.0220480449497699,0.0030573089607059
1770451881081,-0.1032867431640625,-0.2627716064453125,-0.9651641845703124,0.027205254882574,-0.0104039050638675,0.0063897222280502
1770451881091,-0.0987091064453125,-0.2690582275390625,-0.9588775634765624,0.0190394707024097,0.0179587602615356,0.0069380672648549
1770451881101,-0.0986175537109375,-0.2646942138671875,-0.95574951171875,0.0259644892066717,0.0119171133264899,-0.0016018913593143
1770451881111,-0.1076812744140625,-0.2689056396484375,-0.964935302734375,0.0263682249933481,-0.0076139774173498,0.0002545981842558
1770451881122,-0.1093902587890625,-0.254608154296875,-0.95941162109375,0.0267895366996526,-0.0026282735634595,-0.0151296844705939
1770451881131,-0.1126251220703125,-0.2505340576171875,-0.953948974609375,0.0147592388093471,-0.0017986990278586,-0.0222664233297109
1770451881141,-0.1082763671875,-0.2543487548828125,-0.9452362060546876,0.0041041974909603,0.0085338335484266,-0.0226794797927141
1770451881151,-0.1023406982421875,-0.2655792236328125,-0.94140625,-0.0093495594337582,0.0095796566456556,-0.0141871916130185
1770451881161,-0.098236083984375,-0.2706451416015625,-0.9430999755859376,-0.0271290894597768,0.0029712887480854,-0.0034783547744154
1770451881171,-0.0989990234375,-0.2709808349609375,-0.939605712890625,-0.0345473252236843,0.0148423295468091,0.0022937806788831
1770451881181,-0.09588623046875,-0.2594451904296875,-0.9451446533203124,-0.0366850420832634,0.0191856790333986,-0.0019976370967924
1770451881192,-0.094390869140625,-0.25164794921875,-0.9520263671875,-0.0315909497439861,0.0185912605375051,-0.0120984744280576
1770451881202,-0.09954833984375,-0.2518310546875,-0.95849609375,-0.0229266211390495,0.0062509714625775,-0.0173678044229745
1770451881212,-0.1021575927734375,-0.254608154296875,-0.9615631103515624,-0.0197047293186187,-0.0016927052056416,-0.0194506626576185
1770451881223,-0.10357666015625,-0.2532196044921875,-0.9561614990234376,-0.017272463068366,-0.0022184131667017,-0.0162117257714271
1770451881232,-0.1007232666015625,-0.2574005126953125,-0.959808349609375,-0.0099908486008644,-0.0017779263434931,-0.0089436937123537
1770451881242,-0.0999755859375,-0.2629547119140625,-0.9684906005859376,-0.0070294137112796,-0.0069982544519007,-0.0049628005363047
1770451881252,-0.0994415283203125,-0.2625274658203125,-0.9656982421875,-0.0047702542506158,0.0023031015880405,-0.0063582970760762
1770451881262,-0.096527099609375,-0.2625885009765625,-0.9609375,-0.0059028966352343,0.0047896951436996,-0.0092717949301004
1770451881272,-0.100860595703125,-0.2605743408203125,-0.9616851806640624,0.0005430185701698,-0.0021443772129714,-0.0124494787305593
1770451881282,-0.102020263671875,-0.259674072265625,-0.9678192138671876,0.003506850451231,-0.0117754330858588,-0.0153794884681701
1770451881292,-0.1009521484375,-0.259124755859375,-0.9643402099609376,0.0108840726315975,-0.0083916205912828,-0.0173763278871774
1770451881302,-0.1043701171875,-0.2596893310546875,-0.96636962890625,0.0225790776312351,-0.0194908771663904,-0.0197151154279708
1770451881312,-0.1064910888671875,-0.258636474609375,-0.970916748046875,0.02610963024199,-0.033226128667593,-0.0240925531834363
1770451881322,-0.107421875,-0.256622314453125,-0.9625091552734376,0.027462251484394,-0.0210072807967662,-0.0253948383033275
1770451881332,-0.103790283203125,-0.2584228515625,-0.956298828125,0.0248315799981355,-0.0212384425103664,-0.0230003912001848
1770451881342,-0.09783935546875,-0.2623443603515625,-0.9571990966796876,0.02197534032166,-0.0209734588861465,-0.0189031176269054
1770451881352,-0.0956268310546875,-0.2618865966796875,-0.9517364501953124,0.0097197387367486,-0.0094805872067809,-0.015401859767735
1770451881362,-0.09222412109375,-0.26434326171875,-0.9451446533203124,0.00234757643193,-0.0019896477460861,-0.0100126862525939
1770451881372,-0.0904083251953125,-0.262542724609375,-0.951171875,-0.0042283008806407,-0.0031971249263733,-0.0044378917664289
1770451881382,-0.091888427734375,-0.259368896484375,-0.9530029296875,-0.0128122018650174,0.0011824434623122,0.0005030711181461
1770451881392,-0.094573974609375,-0.258026123046875,-0.948822021484375,-0.0191409382969141,0.0028730181511491,0.0035044536925852
1770451881403,-0.0952911376953125,-0.2597503662109375,-0.9541778564453124,-0.0201369598507881,0.0067612333223223,0.005961219780147
1770451881413,-0.0964508056640625,-0.2561492919921875,-0.9593658447265624,-0.01599015109241,0.0090741887688636,0.0078805601224303
1770451881423,-0.10101318359375,-0.257965087890625,-0.9586181640625,-0.0111493235453963,0.0003017361450474,0.0124699855223298
1770451881433,-0.096435546875,-0.2611846923828125,-0.963287353515625,-0.0099754026159644,-0.0009161274065263,0.0089836409315466
1770451881443,-0.0976715087890625,-0.258087158203125,-0.9636383056640624,-0.0125948879867792,-0.0011723234783858,0.002182993106544
1770451881453,-0.1026763916015625,-0.2591400146484375,-0.9569091796875,-0.0103977797552943,0.0070999874733388,0.004185423720628
1770451881463,-0.0977783203125,-0.261627197265625,-0.964447021484375,-0.0037553233560174,-0.0020024308469146,0.0065676216036081
1770451881473,-0.0961456298828125,-0.2646026611328125,-0.96722412109375,-0.0022711437195539,0.0039880839176476,0.0083830980584025
1770451881483,-0.097198486328125,-0.2618408203125,-0.9604644775390624,6.55137628200464e-05,0.0118353543803095,0.0134271252900362
1770451881493,-0.0964508056640625,-0.2621612548828125,-0.959197998046875,0.0053492253646254,0.0126084694638848,0.0139573607593774
1770451881503,-0.1013946533203125,-0.2610626220703125,-0.9623565673828124,0.0044352286495268,0.0121996747329831,0.0068658953532576
1770451881513,-0.1093597412109375,-0.2602386474609375,-0.9587860107421876,0.0012474246323108,0.0181060340255498,0.0073228939436376
1770451881523,-0.10601806640625,-0.260467529296875,-0.954071044921875,0.0011624698527157,0.0205542780458927,0.0093772560358047
1770451881533,-0.1004486083984375,-0.26495361328125,-0.96014404296875,-0.0030852721538394,0.0075745629146695,0.0105871306732296
1770451881543,-0.099884033203125,-0.26806640625,-0.957244873046875,-0.013562680222094,0.0109543800354003,0.0114755611866712
1770451881553,-0.1006927490234375,-0.2644500732421875,-0.95159912109375,-0.017001885920763,0.0112177673727273,0.013708621263504
1770451881563,-0.101165771484375,-0.2660064697265625,-0.954833984375,-0.0216807946562767,0.0103594306856393,0.0134875793009996
1770451881573,-0.1031341552734375,-0.263427734375,-0.958251953125,-0.0179334599524736,0.0238544661551713,0.0136529617011547
1770451881583,-0.105072021484375,-0.2619476318359375,-0.962432861328125,-0.0102174840867519,0.0136574888601899,0.0100281331688165
1770451881593,-0.1035614013671875,-0.2613372802734375,-0.96539306640625,-0.0052256546914577,0.0008213188848458,0.0097692739218473
1770451881603,-0.10357666015625,-0.260589599609375,-0.9583892822265624,0.0003403519804123,0.0065636266954243,0.0073452647775411
1770451881614,-0.1049041748046875,-0.2613372802734375,-0.96173095703125,0.0051580104045569,0.0015126754296943,0.0031875374261289
1770451881624,-0.1046905517578125,-0.2627410888671875,-0.9609527587890624,0.0047673247754573,0.0004625910660251,-0.0060866544954478
1770451881634,-0.1071319580078125,-0.2591552734375,-0.9570770263671876,0.0067806742154061,-0.0013930995482951,-0.0115804895758628
1770451881644,-0.1075897216796875,-0.2586822509765625,-0.9578399658203124,0.0064962487667799,-0.0038674424868077,-0.0116617158055305
1770451881654,-0.10498046875,-0.2620391845703125,-0.9590606689453124,0.001228516222909,-0.0028871328104287,-0.0120449448004364
1770451881664,-0.102691650390625,-0.2601318359375,-0.9539642333984376,-0.0057119480334222,0.001163002452813,-0.0122215123847126
1770451881674,-0.1006317138671875,-0.2629547119140625,-0.9524383544921876,-0.0122236432507634,-0.0055968994274735,-0.0099461078643798
1770451881684,-0.1013336181640625,-0.2645263671875,-0.949981689453125,-0.0221061017364263,-0.0002327602705918,-0.0088161285966634
1770451881694,-0.1012420654296875,-0.260498046875,-0.9474334716796876,-0.0300559028983116,0.0098603535443544,-0.0061774682253599
1770451881704,-0.0992431640625,-0.2611236572265625,-0.9504547119140624,-0.0349369458854198,0.0074752266518771,-0.0111631723120808
1770451881714,-0.1015472412109375,-0.2615966796875,-0.94903564453125,-0.0397482104599475,0.0100398510694503,-0.0070118368603289
1770451881724,-0.10101318359375,-0.2587738037109375,-0.95220947265625,-0.0411849878728389,0.0117972707375884,-0.0056781256571412
1770451881734,-0.0970001220703125,-0.2607574462890625,-0.954864501953125,-0.0429301559925079,0.0061351242475211,-0.0060810619033873
1770451881744,-0.1023406982421875,-0.259674072265625,-0.9560546875,-0.0407807193696498,0.0013590110465884,-0.0086275767534971
1770451881754,-0.1046905517578125,-0.2567138671875,-0.9590911865234376,-0.0374198108911514,-0.0043026031926274,-0.0073577812872827
1770451881764,-0.10125732421875,-0.2562713623046875,-0.95831298828125,-0.0380914583802223,0.0002775013854261,-0.0057196710258722
1770451881774,-0.0977935791015625,-0.2538604736328125,-0.95977783203125,-0.0313994660973548,0.010416155681014,-0.0048147290945053
1770451881784,-0.100555419921875,-0.2581634521484375,-0.9634857177734376,-0.0188637021929025,0.0075175710953772,-0.0040357541292905
1770451881794,-0.09735107421875,-0.2574615478515625,-0.9725799560546876,-0.0063308663666248,0.0017465010751038,-0.0048871668986976
1770451881804,-0.1010894775390625,-0.25543212890625,-0.9714508056640624,0.0050962250679731,-0.0067561734467744,-0.0054136738181114
1770451881814,-0.0992889404296875,-0.25726318359375,-0.96832275390625,0.0081964107230305,-0.0106593025848269,-0.0080182449892163
1770451881825,-0.101654052734375,-0.2567596435546875,-0.96435546875,0.0031257520895451,-0.0051604071632027,-0.0120883546769618
1770451881834,-0.1039886474609375,-0.254302978515625,-0.956817626953125,0.0043870252557098,0.0007094661123119,-0.0148359378799796
1770451881845,-0.0995025634765625,-0.2576446533203125,-0.9587860107421876,0.0051942295394837,-0.005225921049714,-0.0113621102645993
1770451881855,-0.0957794189453125,-0.2586669921875,-0.9593048095703124,0.0094329165294766,-0.0059881177730858,-0.0073889405466616
1770451881865,-0.0953216552734375,-0.2573699951171875,-0.961578369140625,0.0136689404025673,-0.0073537868447601,-0.0048442902043461
1770451881875,-0.099761962890625,-0.2574920654296875,-0.96429443359375,0.0140186138451099,-0.0073431339114904,-0.0055130096152424
1770451881885,-0.1013641357421875,-0.257049560546875,-0.95928955078125,0.0133368447422981,0.0019212043844163,-0.0065431203693151
1770451881895,-0.1001434326171875,-0.2534027099609375,-0.9583892822265624,0.012860138900578,-0.0015611450653523,-0.0071987905539572
1770451881905,-0.1009063720703125,-0.258148193359375,-0.9593353271484376,0.0149648347869515,-0.0078808264806866,-0.0047572045587003
1770451881915,-0.095062255859375,-0.2597198486328125,-0.96148681640625,0.0102813998237252,-0.0151858767494559,-0.0032985913567245
1770451881925,-0.0967254638671875,-0.258087158203125,-0.9559478759765624,0.0014106763992458,-0.0138665474951267,-0.0053974287584424
1770451881935,-0.1010589599609375,-0.2586212158203125,-0.94775390625,-0.0114103136584162,8.52211542223813e-06,0.0034189661964774
1770451881945,-0.096221923828125,-0.2624053955078125,-0.9464111328125,-0.0238427482545375,0.0175526291131973,0.0104851312935352
1770451881955,-0.091705322265625,-0.2621002197265625,-0.9448699951171876,-0.0297957118600606,0.0300114285200834,0.0033025860320776
1770451881965,-0.0999603271484375,-0.260101318359375,-0.9546966552734376,-0.0205638650804758,0.0190205629914999,0.0085663236677646
1770451881975,-0.1010284423828125,-0.2555084228515625,-0.96649169921875,-0.0136207370087504,0.0126923592761158,-0.0049454900436103
1770451881985,-0.1089019775390625,-0.2439117431640625,-0.959503173828125,-0.0111820809543132,0.0152963986620306,-0.0133504262194037
1770451881995,-0.1083984375,-0.2535247802734375,-0.95867919921875,-0.0022431805264204,-0.003058640519157,-0.0108425272628664
1770451882006,-0.1007080078125,-0.2626190185546875,-0.9647064208984376,0.0014588796766474,-0.0057273940183222,0.000711330329068
1770451882015,-0.096588134765625,-0.2660980224609375,-0.9657440185546876,0.0075473985634744,-0.0161384902894496,0.0111623732373118
1770451882026,-0.0982818603515625,-0.2667999267578125,-0.96649169921875,0.0090965591371059,-0.0138564268127083,0.009386577643454
1770451882035,-0.0997314453125,-0.257080078125,-0.96063232421875,0.0076347501017153,0.0015297196805477,-0.0061287325806915
1770451882046,-0.10211181640625,-0.2481842041015625,-0.953125,0.0046831686049699,0.0099077578634023,-0.0178018994629383
1770451882056,-0.1070098876953125,-0.2501373291015625,-0.95526123046875,0.0038634478114545,0.0061652180738747,-0.0240073315799236
1770451882066,-0.105010986328125,-0.2513580322265625,-0.955841064453125,-0.007792143151164,0.0064712152816355,-0.0208032820373773
1770451882076,-0.1014404296875,-0.2537841796875,-0.95068359375,-0.0165736507624387,0.0168365035206079,-0.0116553241387009
1770451882086,-0.0979461669921875,-0.2620697021484375,-0.9517822265625,-0.0235825572162866,0.015903066843748,0.0037931404076516
1770451882096,-0.0964508056640625,-0.26751708984375,-0.95745849609375,-0.0296910498291254,0.013613280840218,0.0111599760130047
1770451882106,-0.1020965576171875,-0.2631378173828125,-0.9588623046875,-0.0329129435122013,0.0212882440537214,0.0068371333181858
1770451882116,-0.1043853759765625,-0.25787353515625,-0.958038330078125,-0.0307051818817853,0.0237942785024642,0.0007635282818228
1770451882126,-0.1067962646484375,-0.2553253173828125,-0.9604949951171876,-0.0277136527001857,0.0246715247631073,-0.0076089175418019
1770451882136,-0.109588623046875,-0.2516326904296875,-0.96173095703125,-0.0187601055949926,0.0183670222759246,-0.0106132291257381
1770451882146,-0.10888671875,-0.2549896240234375,-0.964324951171875,-0.0101692806929349,0.0010072075529024,-0.0148734878748655
1770451882156,-0.1087799072265625,-0.2568206787109375,-0.96337890625,-0.0082970783114433,-0.0067484499886631,-0.0149904014542698
1770451882166,-0.1060638427734375,-0.253814697265625,-0.9561309814453124,-0.0082267709076404,-0.0053095440380275,-0.0147786801680922
1770451882176,-0.10400390625,-0.2544708251953125,-0.95416259765625,-0.0095165399834513,-0.0030389330349862,-0.0123786386102437
1770451882186,-0.0970001220703125,-0.2581939697265625,-0.9516754150390624,-0.0142393894493579,0.0054395063780248,-0.0132905049249529
1770451882196,-0.09869384765625,-0.258941650390625,-0.953765869140625,-0.0160127878189086,-0.0014887070283293,-0.0160804335027933
1770451882207,-0.099884033203125,-0.261383056640625,-0.96014404296875,-0.0194171071052551,-0.0123629262670874,-0.0132369762286543
1770451882216,-0.096923828125,-0.26141357421875,-0.9591064453125,-0.0250435676425695,0.0005067995516583,-0.0115677062422037
1770451882227,-0.09686279296875,-0.2569732666015625,-0.9552001953125,-0.0316679142415523,0.0076640448532998,-0.0063793361186981
1770451882236,-0.093597412109375,-0.258544921875,-0.9593505859375,-0.0251429043710231,0.0193209666758775,-0.0041057956404984
1770451882247,-0.094512939453125,-0.2608184814453125,-0.9687347412109376,-0.0108111025765538,0.009409480728209,-0.0001525991247035
1770451882258,-0.0954132080078125,-0.2666473388671875,-0.9768524169921876,-0.0008311725687235,-0.0041840923950076,0.0003446130431257
1770451882266,-0.0979156494140625,-0.254730224609375,-0.975830078125,0.0135232657194137,-0.0091010862961411,-0.0011787151452153
1770451882277,-0.0999755859375,-0.25634765625,-0.9728240966796876,0.0238893534988164,-0.0163978822529315,-0.0024413196370005
1770451882287,-0.1003265380859375,-0.2572479248046875,-0.9687042236328124,0.024948226287961,-0.0184541083872318,-0.0086917588487267
1770451882297,-0.0992431640625,-0.2572021484375,-0.96343994140625,0.0220890566706657,-0.0151065150275826,-0.0109091065824031
1770451882307,-0.096527099609375,-0.2583770751953125,-0.9576568603515624,0.0164812393486499,-0.0024887239560484,-0.0071529843844473
1770451882317,-0.0946807861328125,-0.2548065185546875,-0.9540557861328124,0.0094086816534399,0.0145741486921906,-0.0139371212571859
1770451882327,-0.0987396240234375,-0.256744384765625,-0.9501190185546876,0.0034716967493295,0.0240384899079799,-0.0126287098973989
1770451882337,-0.096527099609375,-0.2589263916015625,-0.949462890625,-0.0010665960144251,0.0262920577079057,-0.0065521751530468
1770451882347,-0.0925140380859375,-0.2612762451171875,-0.949981689453125,-0.010536796413362,0.0250124093145132,-0.0053415023721754
1770451882357,-0.095947265625,-0.2598114013671875,-0.9508514404296876,-0.0194613151252269,0.0206032786518335,-0.0028554413001984
1770451882367,-0.095672607421875,-0.259979248046875,-0.949066162109375,-0.0308314152061939,0.026452912017703,0.0017667410429567
1770451882377,-0.0953826904296875,-0.2585296630859375,-0.944305419921875,-0.0439938232302665,0.0411088205873966,0.002601109445095
1770451882387,-0.0968780517578125,-0.255615234375,-0.943939208984375,-0.0570134855806827,0.0475573986768722,-0.0020338559988886
1770451882397,-0.103363037109375,-0.25970458984375,-0.9515533447265624,-0.0578393302857875,0.041412953287363,-0.0032599754631519
1770451882407,-0.102294921875,-0.2589569091796875,-0.9573822021484376,-0.0566512942314147,0.039538886398077,-0.0028647624421864
1770451882417,-0.1009063720703125,-0.2572479248046875,-0.959716796875,-0.0522544160485267,0.0297733414918184,-0.0072137042880058
1770451882427,-0.103607177734375,-0.255157470703125,-0.967010498046875,-0.0492005683481693,0.0286169964820146,-0.0109645007178187
1770451882437,-0.1054534912109375,-0.2522735595703125,-0.9627685546875,-0.0426830165088176,0.0343827418982982,-0.0111293504014611
1770451882447,-0.1005859375,-0.2555694580078125,-0.9641571044921876,-0.0300316680222749,0.0255791302770376,-0.0092028193175792
1770451882457,-0.097869873046875,-0.2548980712890625,-0.9713592529296876,-0.0162791050970554,0.0055835833773016,-0.0103415874764323
1770451882467,-0.100738525390625,-0.253509521484375,-0.9751129150390624,-0.0038317560683935,-0.0101964445784688,-0.012287026271224
1770451882478,-0.10198974609375,-0.2531890869140625,-0.97137451171875,0.0006141249323263,-0.0105011099949479,-0.0127783790230751
1770451882488,-0.0997161865234375,-0.252716064453125,-0.962554931640625,-0.0056150089949369,0.004187021870166,-0.018633073195815
1770451882498,-0.097625732421875,-0.254180908203125,-0.9524993896484376,-0.0159387532621622,0.0200306996703147,-0.0230600461363792
1770451882508,-0.0998382568359375,-0.25494384765625,-0.9480743408203124,-0.0299046356230974,0.0362948924303054,-0.0243207849562168
1770451882518,-0.0973968505859375,-0.2548980712890625,-0.948028564453125,-0.0505531877279281,0.0516749136149883,-0.0215292610228061
1770451882528,-0.097381591796875,-0.2551116943359375,-0.942413330078125,-0.0665076524019241,0.056177519261837,-0.0242451522499322
1770451882538,-0.098388671875,-0.2550506591796875,-0.946807861328125,-0.0693449825048446,0.0442643985152244,-0.021707160398364
1770451882548,-0.0948333740234375,-0.25640869140625,-0.9588165283203124,-0.0743863508105278,0.0358243100345134,-0.0188583768904209
1770451882559,-0.0945892333984375,-0.2537841796875,-0.9603424072265624,-0.0683686733245849,0.0324098728597164,-0.0169225241988897
1770451882568,-0.0969696044921875,-0.248504638671875,-0.9639892578125,-0.0502453260123729,0.020804613828659,-0.0205942243337631
1770451882578,-0.100799560546875,-0.244903564453125,-0.97662353515625,-0.0255820583552122,0.0076001291163265,-0.0253642126917839
1770451882588,-0.0995941162109375,-0.24658203125,-0.981964111328125,-0.0079207736998796,0.0030509172938764,-0.0264126993715763
1770451882598,-0.095733642578125,-0.24932861328125,-0.9748687744140624,0.0102084288373589,0.0050192596390843,-0.0239463448524475
1770451882608,-0.08880615234375,-0.252960205078125,-0.9753875732421876,0.0111722266301512,-0.0029885992407798,-0.0267999228090047
1770451882618,-0.0919036865234375,-0.251007080078125,-0.9649810791015624,0.0079316925257444,0.0132934348657727,-0.0254955068230628
1770451882628,-0.0891571044921875,-0.2523956298828125,-0.9594573974609376,0.0052951630204916,0.0150998570024967,-0.0216592233628034
1770451882638,-0.0876922607421875,-0.2579345703125,-0.9600372314453124,-0.0017307883827015,0.0036139094736427,-0.0196674447506666
1770451882648,-0.092041015625,-0.2547454833984375,-0.95574951171875,-0.0038562573026865,-0.0054538873955607,-0.0190900713205337
1770451882658,-0.0928802490234375,-0.2506256103515625,-0.9553070068359376,-0.0155936069786548,-0.0126225845888257,-0.0170873738825321
1770451882668,-0.089447021484375,-0.24871826171875,-0.9497222900390624,-0.0298409853130579,6.924218723725062e-06,-0.0095423720777034
1770451882678,-0.08648681640625,-0.247161865234375,-0.946136474609375,-0.0401873663067817,0.0098137483000755,-0.0065021077170968
1770451882688,-0.089569091796875,-0.24639892578125,-0.9479827880859376,-0.0488298572599887,0.026790602132678,-0.0070299464277923
1770451882699,-0.092620849609375,-0.249114990234375,-0.9522705078125,-0.0484602116048336,0.0226970557123422,-0.0023017700295895
1770451882709,-0.0888671875,-0.250335693359375,-0.9561920166015624,-0.0501944608986377,0.0236073248088359,-0.0033723609521985
1770451882719,-0.0908355712890625,-0.245819091796875,-0.9575347900390624,-0.0537074357271194,0.0149304801598191,-0.0094920387491583
1770451882729,-0.0948333740234375,-0.2451324462890625,-0.95623779296875,-0.0526064857840538,0.020510334521532,-0.0050458912737667
1770451882743,-0.09075927734375,-0.24639892578125,-0.9622802734375,-0.0473155826330184,0.0145616317167878,-0.0010516822803765
1770451882749,-0.0889129638671875,-0.2525177001953125,-0.969085693359375,-0.0390701703727245,0.0079524656757712,-0.0023169501218944
1770451882759,-0.092376708984375,-0.2496795654296875,-0.9710540771484376,-0.0282436218112707,0.0047524110414087,0.0019915117882192
1770451882769,-0.08837890625,-0.2486724853515625,-0.9742279052734376,-0.0143435187637805,-0.0013116068439558,-0.0004002731002401
1770451882779,-0.0898590087890625,-0.254119873046875,-0.97772216796875,-0.0017973673529922,-0.0021619540639221,0.0074193002656102
1770451882789,-0.0847625732421875,-0.2618865966796875,-0.97357177734375,0.0024596955627202,-0.0025587652344256,0.0197484046220779
1770451882799,-0.07977294921875,-0.2527008056640625,-0.9712371826171876,0.0051393681205809,0.0108302775770425,0.0119413482025265
1770451882809,-0.0899810791015625,-0.2465057373046875,-0.966461181640625,0.0187843404710292,0.0064808023162186,0.0154583184048533
1770451882819,-0.0883636474609375,-0.2459869384765625,-0.970306396484375,0.0187843404710292,0.0064808023162186,0.0154583184048533
1770451882829,-0.0968475341796875,-0.228271484375,-0.9586334228515624,0.023502929136157,0.0019712718203663,-0.0065689529292285
1770451882839,-0.0999603271484375,-0.24322509765625,-0.95220947265625,0.0296034328639507,0.0114230969920754,-0.0088400971144437
1770451882849,-0.0851593017578125,-0.2566986083984375,-0.9564056396484376,0.0296034328639507,0.0114230969920754,-0.0088400971144437
1770451882859,-0.083831787109375,-0.2578277587890625,-0.9545440673828124,0.0247897692024707,0.0167427603155374,0.0027206854429095
1770451882869,-0.0849609375,-0.25018310546875,-0.956878662109375,0.0228672325611114,0.0169526189565658,0.0035137746017426
1770451882879,-0.089447021484375,-0.2437286376953125,-0.955596923828125,0.0174692720174789,0.0081285005435347,-0.0070182285271584
1770451882889,-0.09210205078125,-0.2370758056640625,-0.9508819580078124,0.011006312444806,-0.000343814084772,-0.0186775475740432
1770451882899,-0.0958251953125,-0.2354583740234375,-0.9474334716796876,0.0071354075334966,-0.0066160908900201,-0.0245665963739156
1770451882910,-0.0980987548828125,-0.2390594482421875,-0.9534759521484376,0.0047015445306897,-0.022618493065238,-0.0243527442216873
1770451882920,-0.09490966796875,-0.24578857421875,-0.9581298828125,0.0001456749159842,-0.023480026051402,-0.0152362110093235
1770451882930,-0.0908966064453125,-0.248382568359375,-0.956634521484375,-0.0038394792936742,-0.0201750434935092,-0.0039904806762933
1770451882940,-0.0845794677734375,-0.2555389404296875,-0.961883544921875,-0.006680273450911,-0.0283109992742538,0.0041513354517519
1770451882950,-0.084564208984375,-0.2588653564453125,-0.9592742919921876,-0.014111291617155,-0.0145656270906329,0.0114883445203304
1770451882960,-0.0822601318359375,-0.2559051513671875,-0.954864501953125,-0.0196424107998609,0.0144857317209243,0.0183835346251726
1770451882970,-0.0834197998046875,-0.2559814453125,-0.954864501953125,-0.0190352108329534,0.0196306928992271,0.0199087262153625
1770451882980,-0.090972900390625,-0.25360107421875,-0.9638214111328124,-0.0178706105798482,0.0139461755752563,0.0232214331626892
1770451882991,-0.0928497314453125,-0.250946044921875,-0.9661102294921876,-0.0200046002864837,-0.0041097900830209,0.0217191446572542
1770451883000,-0.0954132080078125,-0.250274658203125,-0.9587249755859376,-0.0293562915176153,0.0058813248760998,0.022356703877449
1770451883010,-0.0948944091796875,-0.246917724609375,-0.9485015869140624,-0.0378501750528812,0.0150420665740966,0.0163864307105541
1770451883020,-0.098480224609375,-0.24383544921875,-0.952301025390625,-0.0466375425457954,0.0151834804564714,0.0076331524178385
1770451883030,-0.1009521484375,-0.243438720703125,-0.9544219970703124,-0.0407743267714977,0.0040868869982659,0.0041332258842885
1770451883040,-0.09686279296875,-0.242828369140625,-0.9660186767578124,-0.0303906630724668,-0.0044394894503057,0.0026466494891792
1770451883050,-0.0925445556640625,-0.24267578125,-0.9721221923828124,-0.0141523042693734,-0.0287392362952232,-0.0045185852795839
1770451883060,-0.0972747802734375,-0.24530029296875,-0.97833251953125,-0.003564907470718,-0.0322471521794796,-0.0061236727051436
1770451883070,-0.095916748046875,-0.2459564208984375,-0.9759368896484376,0.0008375641773454,-0.024330373853445,-0.0074973311275243
1770451883080,-0.091094970703125,-0.24725341796875,-0.971893310546875,0.0062291338108479,-0.0174783263355493,-0.0072296834550797
1770451883091,-0.0895233154296875,-0.2542877197265625,-0.97369384765625,0.006982275750488,-0.0109663642942905,0.001015197020024
1770451883100,-0.083770751953125,-0.2603607177734375,-0.96905517578125,0.0050022155046463,-0.0039033952634781,0.0061143515631556
1770451883111,-0.0810546875,-0.2507476806640625,-0.96868896484375,0.010856376029551,-0.0060309944674372,0.0021963089238852
1770451883121,-0.09124755859375,-0.246063232421875,-0.9668121337890624,0.0156665779650211,-0.0101429149508476,-0.0019454391440376
1770451883131,-0.09222412109375,-0.2396392822265625,-0.9619293212890624,0.0198160484433174,-0.0018434401135891,-0.0059795957058668
1770451883140,-0.08892822265625,-0.2392425537109375,-0.9592132568359376,0.0275325588881969,-0.0019289276096969,-0.0083412863314151
1770451883151,-0.0890960693359375,-0.2431488037109375,-0.9611663818359376,0.0287932977080345,-0.0030511836521327,-0.0117360185831785
1770451883161,-0.0899810791015625,-0.2432708740234375,-0.9576873779296876,0.0321920253336429,-0.0053092776797711,-0.010562895797193
1770451883171,-0.087615966796875,-0.2429656982421875,-0.958587646484375,0.0340059027075767,-0.0104899248108267,-0.0100869890302419
1770451883181,-0.0901641845703125,-0.244384765625,-0.9586944580078124,0.0347491912543773,-0.0178751368075609,-0.0036677054595202
1770451883191,-0.0891876220703125,-0.2484588623046875,-0.959136962890625,0.028807146474719,-0.0254883151501417,-5.885586142539978e-05
1770451883201,-0.0909881591796875,-0.246368408203125,-0.9529266357421876,0.0182112287729978,-0.024813737720251,-9.960222087102012e-05
1770451883211,-0.0913238525390625,-0.245452880859375,-0.9499664306640624,0.0066523100249469,-0.0129464250057935,0.0013933659065514
1770451883221,-0.0919647216796875,-0.24737548828125,-0.94720458984375,-0.006778810173273,-0.0018128136871382,0.0061819958500564
1770451883231,-0.090423583984375,-0.2477569580078125,-0.9499053955078124,-0.0148860048502683,0.0076864156872034,0.0036717001348733
1770451883241,-0.0932464599609375,-0.2482757568359375,-0.957000732421875,-0.0173049550503492,0.0026770094409585,0.0006729807937517
1770451883251,-0.09161376953125,-0.251922607421875,-0.965972900390625,-0.0134492293000221,-0.0077897459268569,0.0010649980977177
1770451883261,-0.09185791015625,-0.2541351318359375,-0.968475341796875,-0.0091594094410538,-0.0084659224376082,0.0031664986163377
1770451883271,-0.0927581787109375,-0.2525634765625,-0.9684906005859376,-0.008651278913021,-0.0012897689593955,0.0060411146841943
1770451883281,-0.0886383056640625,-0.2531280517578125,-0.9663238525390624,-0.0084651233628392,0.0080081252381205,0.0111967278644442
1770451883292,-0.088836669921875,-0.2551116943359375,-0.9641876220703124,-0.005225121974945,0.0022298647090792,0.0112385395914316
1770451883301,-0.0933685302734375,-0.2547454833984375,-0.9673614501953124,0.00063942495035,-0.0128769166767597,0.012557603418827
1770451883311,-0.0967559814453125,-0.251556396484375,-0.9693450927734376,-0.0015294534387066,-0.0182410553097724,0.009541573934257
1770451883321,-0.0986328125,-0.2479248046875,-0.95953369140625,-0.0109637016430497,-0.010897921398282,0.0062416507862508
1770451883331,-0.1009674072265625,-0.2458953857421875,-0.9552154541015624,-0.0126982182264328,-0.0053055495955049,0.0051913000643253
1770451883342,-0.0988922119140625,-0.2494964599609375,-0.9608001708984376,-0.0102076297625899,-0.006393717136234,0.0050469567067921
1770451883352,-0.0977325439453125,-0.2525482177734375,-0.9626312255859376,-0.0085255773738026,-0.0039689089171588,0.0058557586744427
1770451883362,-0.09942626953125,-0.2503204345703125,-0.9641571044921876,-0.0011121360585093,-0.0124540068209171,0.003680754918605
1770451883372,-0.1000213623046875,-0.2528228759765625,-0.9668731689453124,0.0003635214816313,-0.0258558318018913,0.0065077003091573
1770451883382,-0.09820556640625,-0.2555389404296875,-0.9652862548828124,-0.0017323862994089,-0.0257333256304264,0.0099085569381713
1770451883392,-0.09600830078125,-0.2535552978515625,-0.959228515625,-0.0068981195800006,-0.0194120481610298,0.0106433229520916
1770451883402,-0.0949249267578125,-0.252288818359375,-0.9566497802734376,-0.0101884556934237,-0.0196192413568496,0.0123418876901268
1770451883412,-0.09503173828125,-0.25262451171875,-0.96044921875,-0.010766627267003,-0.0197337567806243,0.012010590173304
1770451883422,-0.099456787109375,-0.250152587890625,-0.9605712890625,-0.0065774749964475,-0.015435148961842,0.0076781595125794
1770451883432,-0.1015472412109375,-0.2485809326171875,-0.9644927978515624,-3.994741746282671e-06,-0.0057348511181771,0.0036413401830941
1770451883442,-0.1033935546875,-0.2487030029296875,-0.9653167724609376,0.0083013391122221,0.0014146711910143,0.0014165353495627
1770451883452,-0.1020660400390625,-0.25262451171875,-0.9661407470703124,0.0158649832010269,-0.0100718084722757,-0.0008934905636124
1770451883462,-0.0995025634765625,-0.253631591796875,-0.9661865234375,0.0209260545670986,-0.0135616147890686,0.0004769721417687
1770451883472,-0.096923828125,-0.2511749267578125,-0.963287353515625,0.0236115865409374,-0.0228195618838071,0.0002308960683876
1770451883482,-0.09906005859375,-0.2524871826171875,-0.9614410400390624,0.0181457139551639,-0.034243457019329,-0.0020200076978653
1770451883492,-0.104461669921875,-0.2481536865234375,-0.95648193359375,0.0129530830308794,-0.0295991711318492,-0.0036328181158751
1770451883502,-0.1020660400390625,-0.2491302490234375,-0.9548797607421876,0.0055212653242051,-0.0170737914741039,-0.0017630126094445
1770451883512,-0.0972137451171875,-0.251007080078125,-0.955352783203125,0.002642654813826,-0.0187348052859306,-0.0028581044171005
1770451883523,-0.0969390869140625,-0.2534027099609375,-0.959442138671875,0.0011552792275324,-0.0253298580646514,-0.004220045171678
1770451883532,-0.09893798828125,-0.253662109375,-0.9599456787109376,-0.0008660599705763,-0.0261535737663507,-0.0016168050933629
1770451883543,-0.10040283203125,-0.25189208984375,-0.953765869140625,-0.0084984134882688,-0.0218706782907247,-0.0030322752427309
1770451883552,-0.102294921875,-0.253509521484375,-0.9534759521484376,-0.0094196004793047,-0.0163467489182949,0.0015608787070959
1770451883563,-0.0968780517578125,-0.2565155029296875,-0.9561614990234376,-0.0147459227591753,-0.016352342441678,0.0081537999212741
1770451883573,-0.0941314697265625,-0.2516937255859375,-0.9537506103515624,-0.0221396572887897,0.0015206650132313,0.0065955845639109
1770451883583,-0.0993804931640625,-0.2454681396484375,-0.9527130126953124,-0.0250294525176286,0.0023142870049923,0.001914812834002
1770451883593,-0.1028900146484375,-0.2466278076171875,-0.9616241455078124,-0.0271032564342021,-0.0033683660440146,0.0031939290929585
1770451883603,-0.1012115478515625,-0.2501220703125,-0.95843505859375,-0.0370224677026271,0.0046149916015565,0.0094744618982076
1770451883613,-0.1009979248046875,-0.2564849853515625,-0.949371337890625,-0.0385332778096199,0.0106752812862396,0.0163510106503963
1770451883623,-0.10040283203125,-0.253173828125,-0.9642486572265624,-0.0332610160112381,0.0017385114915668,0.0119461417198181
1770451883633,-0.103851318359375,-0.25775146484375,-0.9724884033203124,-0.023959394544363,-0.0021840583067387,0.0146417934447526
1770451883643,-0.099853515625,-0.2429962158203125,-0.9707794189453124,-0.0170431658625602,0.006654973141849,-0.0071029169484972
1770451883653,-0.10992431640625,-0.2383270263671875,-0.9622039794921876,-0.0075649754144251,-0.0042626555077731,-0.0185281448066234
1770451883663,-0.1082000732421875,-0.2450714111328125,-0.9680633544921876,-0.004618720151484,-0.0229694973677396,-0.0191137734800577
1770451883673,-0.107452392578125,-0.253021240234375,-0.9632110595703124,-0.0097285276278853,-0.018224012106657,-0.0128990206867456
1770451883683,-0.1058502197265625,-0.2548980712890625,-0.9551239013671876,-0.0094166714698076,-0.0155030591413378,-0.001064199139364
1770451883693,-0.0984954833984375,-0.2575531005859375,-0.96282958984375,-0.0105863315984606,-0.0092803174629807,-0.0021289309952408
1770451883703,-0.0979156494140625,-0.2498626708984375,-0.958953857421875,-0.0073974626138806,0.004103931132704,-0.0099628856405615
1770451883713,-0.099609375,-0.241851806640625,-0.9598541259765624,-0.0056943711824715,0.0009592706337571,-0.0213787909597158
1770451883724,-0.0997314453125,-0.2422943115234375,-0.9608154296875,-0.0079521993175148,-0.0003824299201369,-0.0256054941564798
1770451883733,-0.1006011962890625,-0.2412567138671875,-0.9570159912109376,-0.0125770447775721,0.0056528258137404,-0.0268550496548414
1770451883744,-0.10186767578125,-0.24462890625,-0.9546051025390624,-0.0199547987431287,0.0164902936667203,-0.0186538454145193
1770451883753,-0.0984649658203125,-0.24609375,-0.9556884765625,-0.027604728937149,0.0195856858044862,-0.0087892301380634
1770451883764,-0.09588623046875,-0.2478790283203125,-0.956573486328125,-0.0384693630039691,0.0165382307022809,0.0047944886609911
1770451883773,-0.0925445556640625,-0.2531280517578125,-0.9577789306640624,-0.0421719551086425,0.0270233619958162,0.0125733157619833
1770451883784,-0.092071533203125,-0.2544097900390625,-0.962310791015625,-0.0382405966520309,0.0190509222447872,0.0135890459641814
1770451883794,-0.097900390625,-0.252685546875,-0.9739990234375,-0.0294963736087083,0.0102494414895772,0.0115788914263248
1770451883804,-0.102813720703125,-0.2488250732421875,-0.9767913818359376,-0.0188690293580293,0.0070573766715824,0.0087130637839436
1770451883814,-0.10498046875,-0.2458038330078125,-0.9750213623046876,-0.0038434739690274,0.0042440136894583,0.0047782436013221
1770451883824,-0.106719970703125,-0.2458953857421875,-0.9752197265625,0.0117996679618954,-0.0105754127725958,0.0009640643256716
1770451883834,-0.107757568359375,-0.2487945556640625,-0.9754486083984376,0.0204552076756954,-0.0169552806764841,-0.0007398261222988
1770451883844,-0.1063690185546875,-0.2469940185546875,-0.9675445556640624,0.0200232435017824,-0.0126103339716792,-0.0021062940359115
1770451883854,-0.103485107421875,-0.24822998046875,-0.9607696533203124,0.0204149931669235,-0.0106670251116156,-0.0035931370221078
1770451883864,-0.1018829345703125,-0.2483978271484375,-0.96099853515625,0.021450163796544,-0.0147491190582513,-0.0023861923255026
1770451883874,-0.104278564453125,-0.246856689453125,-0.9590606689453124,0.0181771386414766,-0.0121836960315704,0.0013028184184804
1770451883884,-0.1016387939453125,-0.2488250732421875,-0.9597930908203124,0.0186234861612319,-0.0128596061840653,0.0018937737913802
1770451883894,-0.0994873046875,-0.249725341796875,-0.958953857421875,0.0131011549383401,-0.0156977362930774,0.0020234698895365
1770451883904,-0.1033935546875,-0.24810791015625,-0.9572601318359376,0.0075695025734603,-0.0066520436666905,0.000107325387944
1770451883914,-0.10418701171875,-0.2484130859375,-0.9545745849609376,-0.0053966296836733,0.00107964547351,0.0009526127250865
1770451883924,-0.1002655029296875,-0.248291015625,-0.9506378173828124,-0.0133530898019671,0.0048147290945053,0.004341484978795
1770451883934,-0.0975189208984375,-0.2498931884765625,-0.954742431640625,-0.0231471303850412,0.0077719027176499,0.0008247809601016
1770451883945,-0.0985870361328125,-0.24432373046875,-0.9590911865234376,-0.0227806791663169,0.0096510294824838,0.0018362496048212
1770451883954,-0.10333251953125,-0.246795654296875,-0.96087646484375,-0.0227806791663169,0.0096510294824838,0.0018362496048212
1770451883964,-0.0988006591796875,-0.250518798828125,-0.96295166015625,-0.0187502522021532,-0.0016948357224464,0.0091221258044242
1770451883974,-0.0995330810546875,-0.2445831298828125,-0.9593658447265624,-0.0175241325050592,-0.0096813896670937,0.0045681199990212
1770451883985,-0.10089111328125,-0.2450408935546875,-0.961761474609375,-0.0131163345649838,-0.0203103311359882,0.0047920919023454
1770451883995,-0.100250244140625,-0.24725341796875,-0.9618682861328124,-0.013627927750349,-0.0264923274517059,0.0034535871818661
1770451884005,-0.102294921875,-0.2470245361328125,-0.9575958251953124,-0.0158348903059959,-0.0147911962121725,-0.0036863475106656
1770451884015,-0.1088104248046875,-0.2434844970703125,-0.954864501953125,-0.0163251776248216,-0.0046631949953734,-0.0057763964869081
1770451884025,-0.104339599609375,-0.24505615234375,-0.96099853515625,-0.015718774870038,0.0020013656467199,-0.0042911516502499
1770451884035,-0.0967254638671875,-0.2509002685546875,-0.9633026123046876,-0.0135554894804954,-0.0018200043123215,0.0011872372124344
1770451884045,-0.0985565185546875,-0.2505340576171875,-0.9669342041015624,-0.0119040636345744,-0.011248392984271,-6.338323146337643e-05
1770451884055,-0.10308837890625,-0.24957275390625,-0.9670562744140624,-0.0136732012033462,-0.0014018879737704,-0.0001414138532709
1770451884065,-0.10247802734375,-0.2484130859375,-0.9609375,-0.0152465971186757,0.0071884044446051,0.0003139867039863
1770451884075,-0.0973968505859375,-0.251068115234375,-0.9621429443359376,-0.0092084119096398,0.0072312811389565,0.0036328181158751
1770451884085,-0.102447509765625,-0.2507476806640625,-0.9677581787109376,-0.006867759861052,0.0095389103516936,0.0021912488155066
1770451884095,-0.103515625,-0.2504425048828125,-0.96490478515625,-0.0111373392865061,0.0172780565917491,0.008216118440032
1770451884105,-0.10040283203125,-0.2501220703125,-0.95758056640625,-0.0099511677399277,0.0252680722624063,0.0081141190603375
1770451884115,-0.1020965576171875,-0.2496185302734375,-0.9645538330078124,-0.0081330277025699,0.0056656086817383,0.0009592706337571
1770451884125,-0.108001708984375,-0.2511138916015625,-0.961822509765625,-0.0132281873375177,-0.0018178737955167,0.0054898401722311
1770451884135,-0.10577392578125,-0.2453765869140625,-0.9533233642578124,-0.0192818194627761,0.0011864382540807,0.0042147189378738
1770451884145,-0.1020355224609375,-0.2437896728515625,-0.9529571533203124,-0.0145805403590202,-0.0050823767669498,0.0009683253592811
1770451884155,-0.1064453125,-0.2431182861328125,-0.9630889892578124,-0.0138199413195252,-0.00968165602535,-0.0001307612110394
1770451884166,-0.108123779296875,-0.24176025390625,-0.958892822265625,-0.0150327449664473,-0.0028935244772583,-0.0017478326335549
1770451884175,-0.1058502197265625,-0.2411651611328125,-0.957244873046875,-0.0140593601390719,-0.0036898097023367,-0.0071961274370551
1770451884185,-0.1080474853515625,-0.24420166015625,-0.9609832763671876,-0.0141845280304551,-0.0117679759860038,-0.0087554082274436
1770451884195,-0.1048583984375,-0.2476959228515625,-0.959442138671875,-0.0164333023130893,-0.0033361418172717,-0.0064373929053545
1770451884206,-0.1002197265625,-0.2482452392578125,-0.9560394287109376,-0.023233950138092,0.0051532168872654,-0.0046639940701425
1770451884216,-0.0997467041015625,-0.2469024658203125,-0.9559783935546876,-0.0203649271279573,0.0114244287833571,-0.0021073594689369
1770451884226,-0.1021881103515625,-0.247650146484375,-0.9649810791015624,-0.00739187002182,-0.00266635697335,0.0001518001809017
1770451884236,-0.1034393310546875,-0.2502288818359375,-0.9764556884765624,0.0021153488196432,-0.0225055757910013,-0.0045468150638043
1770451884246,-0.1078338623046875,-0.246002197265625,-0.9703369140625,0.0107559747993946,-0.0243625976145267,-0.0032368060201406
1770451884256,-0.103912353515625,-0.2435150146484375,-0.9654998779296876,0.0111698303371667,-0.0139136854559183,-0.0057662762701511
1770451884266,-0.1028900146484375,-0.2479400634765625,-0.960845947265625,0.0096773942932486,-0.0075197014957666,-0.0086041409522295
1770451884276,-0.103271484375,-0.2468719482421875,-0.9576568603515624,0.0085687208920717,-0.0089402319863438,-0.0064373929053545
1770451884286,-0.1039276123046875,-0.245452880859375,-0.9596405029296876,0.0077649787999689,-0.0138697428628802,-0.0056837182492017
1770451884296,-0.1042938232421875,-0.2437286376953125,-0.9625396728515624,0.0066102319397032,-0.0131538854911923,-0.0068376660346984
1770451884306,-0.105438232421875,-0.24285888671875,-0.9615936279296876,0.0051697283051908,-0.0058139469474554,-0.0068429922685027
1770451884316,-0.1022796630859375,-0.2445220947265625,-0.9606781005859376,0.0043649207800626,0.0018367822049185,-0.0033241575583815
1770451884326,-0.101043701171875,-0.247344970703125,-0.9615631103515624,0.0031867385841906,0.0004926847759634,-0.0057172742672264
1770451884336,-0.1017303466796875,-0.2455291748046875,-0.96197509765625,0.0053660031408071,-0.0070571103133261,-0.0021891184151172
1770451884346,-0.099761962890625,-0.246429443359375,-0.964630126953125,0.0036232306156307,-0.0102803343906998,0.0012985573848709
1770451884356,-0.0979766845703125,-0.248138427734375,-0.9601593017578124,-0.0010990865994244,0.0010412959381937,0.0054874434135854
1770451884366,-0.0965576171875,-0.2478485107421875,-0.9556121826171876,-0.0066629624925553,0.0104126930236816,0.0055124768987298
1770451884376,-0.09844970703125,-0.2489013671875,-0.95880126953125,-0.005600893869996,0.0124974157661199,0.0066275424323976
1770451884386,-0.1004180908203125,-0.2479705810546875,-0.96075439453125,-0.0090824449434876,0.004275971557945,0.0086422236636281
1770451884396,-0.1039886474609375,-0.245849609375,-0.9604949951171876,-0.0071172979660332,-0.0008612662786617,0.0070408652536571
1770451884406,-0.107177734375,-0.245513916015625,-0.9615936279296876,-0.0034842137247323,-0.0025302693247795,0.0066123628057539
1770451884417,-0.103973388671875,-0.2449493408203125,-0.96356201171875,-0.0015520902816206,0.0048565403558313,0.0079018650576472
1770451884427,-0.1029205322265625,-0.2453460693359375,-0.963134765625,0.0077559240162372,0.0065439194440841,0.0035268242936581
1770451884437,-0.1048736572265625,-0.2454681396484375,-0.969818115234375,0.0152828162536025,0.0006468818173743,0.0020844561513513
1770451884447,-0.105804443359375,-0.2447052001953125,-0.96697998046875,0.0126912938430905,-0.0049481531605124,0.0010735202813521
1770451884457,-0.1065826416015625,-0.2463531494140625,-0.961181640625,0.0179249383509159,-0.0152524560689926,0.0084805702790617
1770451884467,-0.100830078125,-0.25506591796875,-0.96258544921875,0.006771087180823,-0.0174913760274648,0.0162327662110328
1770451884477,-0.09796142578125,-0.253082275390625,-0.9558258056640624,0.0006420881254598,-0.0044706487096846,0.0162466149777174
1770451884487,-0.102996826171875,-0.256866455078125,-0.954833984375,-0.0031526500824838,-0.0057388455606997,0.0223742816597223
1770451884497,-0.1012725830078125,-0.2415313720703125,-0.9611968994140624,-0.0087117329239845,-0.0031534489244222,-0.0012130698887631
1770451884507,-0.115081787109375,-0.231719970703125,-0.95379638671875,-0.0142023712396621,0.0026943201664835,-0.0145419249311089
1770451884517,-0.11474609375,-0.2352447509765625,-0.95281982421875,-0.0237868223339319,-0.0040485374629497,-0.0124995466321706
1770451884527,-0.106597900390625,-0.247100830078125,-0.951812744140625,-0.0273187067359685,0.0003222425002604,-2.3968450477696024e-05
1770451884537,-0.1030731201171875,-0.2543182373046875,-0.9568328857421876,-0.0262795407325029,0.0048152613453567,0.011378088966012
1770451884547,-0.1008148193359375,-0.2585296630859375,-0.9627532958984376,-0.019572103396058,0.0072011873126029,0.0120484074577689
1770451884558,-0.09710693359375,-0.2499847412109375,-0.96478271484375,-0.0125293741002678,0.0152292866259813,0.0041867555119097
1770451884567,-0.10302734375,-0.2400360107421875,-0.9661865234375,-0.0042248386889696,0.0110910004004836,-0.0053766560740768
1770451884578,-0.1087646484375,-0.2418212890625,-0.969451904296875,0.0038280277512967,-0.0036754286848008,-0.0130516197532415
1770451884587,-0.1101531982421875,-0.24261474609375,-0.9666900634765624,0.0155443381518125,-0.0125275095924735,-0.0145280761644244
1770451884597,-0.106842041015625,-0.244049072265625,-0.9698944091796876,0.0203785076737403,-0.0112963300198316,-0.0077809575013816
1770451884607,-0.1013946533203125,-0.2483062744140625,-0.9662017822265624,0.0200264379382133,-0.0041119204834103,0.0041609229519963
1770451884618,-0.0986480712890625,-0.2510986328125,-0.962890625,0.0153371449559926,-0.0016953683225437,0.0102798016741871
1770451884628,-0.1019287109375,-0.2521514892578125,-0.9610595703125,0.0026828683912754,-0.0008162588928826,0.0101216100156307
1770451884638,-0.103057861328125,-0.250640869140625,-0.95379638671875,-0.0088036116212606,0.010496849194169,0.005903429351747
1770451884648,-0.108978271484375,-0.244903564453125,-0.95489501953125,-0.0169158671051263,0.0075676385313272,0.0003158508916385
1770451884658,-0.110870361328125,-0.24310302734375,-0.9594879150390624,-0.0142292696982622,0.0037659760564565,-0.0030205573420971
1770451884668,-0.110015869140625,-0.2451629638671875,-0.962799072265625,-0.0143198175355792,-5.193164179218002e-05,-0.0018511632224544
1770451884678,-0.1108856201171875,-0.246612548828125,-0.96234130859375,-0.0118984710425138,0.0070704263634979,-0.0018940401496365
1770451884688,-0.1096649169921875,-0.2476043701171875,-0.95794677734375,-0.0064653563313186,0.0103570334613323,-0.0019014970166608
1770451884698,-0.1060791015625,-0.249908447265625,-0.962432861328125,0.0052901031449437,-0.0035052525345236,-0.0025592977181077
1770451884708,-0.1078643798828125,-0.250518798828125,-0.9696807861328124,0.010032127611339,-0.0067942566238343,-0.0026690200902521
1770451884718,-0.1096343994140625,-0.2465667724609375,-0.963409423828125,0.0163020081818103,0.0002311623829882,-0.0048605352640151
1770451884728,-0.1050262451171875,-0.2484893798828125,-0.962493896484375,0.0175478346645832,-0.0144287403672933,-0.0071548484265804
1770451884738,-0.1079559326171875,-0.250885009765625,-0.9624176025390624,0.0181310661137104,-0.0134380441159009,-0.0083191823214292
1770451884748,-0.1058197021484375,-0.2494049072265625,-0.960418701171875,0.0171715300530195,-0.0166660621762275,-0.0066009107977151
1770451884758,-0.10296630859375,-0.2502899169921875,-0.9595184326171876,0.0130710611119866,-0.0137578900903463,-0.0064088972285389
1770451884768,-0.1032257080078125,-0.2495574951171875,-0.9578399658203124,0.0097700729966163,-0.0141115579754114,-0.0050344397313892
1770451884778,-0.10595703125,-0.250152587890625,-0.9591064453125,0.0096731334924697,-0.027581026777625,-0.0023409186396747
1770451884788,-0.103363037109375,-0.2512969970703125,-0.96087646484375,-0.0004079962673131,-0.0220461804419755,-0.0002202434261562
1770451884798,-0.1019134521484375,-0.2443695068359375,-0.95501708984375,-0.0064693507738411,-0.0053162020631134,0.0014836470363661
1770451884808,-0.1049346923828125,-0.2494964599609375,-0.9575347900390624,-0.0058621503412723,-0.0086872316896915,0.0119458753615617
1770451884818,-0.09765625,-0.25262451171875,-0.9605255126953124,-0.0044746431522071,-0.0062381885945796,0.0109578426927328
1770451884829,-0.102813720703125,-0.2459564208984375,-0.960723876953125,-0.0089556779712438,-0.0022013690322637,0.0058573563583195
1770451884838,-0.111480712890625,-0.244964599609375,-0.954559326171875,-0.0060464409179985,0.0047774445265531,0.0043063312768936
1770451884849,-0.105438232421875,-0.249359130859375,-0.9615325927734376,-0.0017528926255181,0.0064959824085235,0.0023281353060156
1770451884859,-0.1072845458984375,-0.2501068115234375,-0.9645843505859376,0.0047233826480805,0.005836583673954,0.0019294602097943
1770451884869,-0.107452392578125,-0.2497711181640625,-0.9654083251953124,0.0037822213489562,0.0039958069100975,0.0057622818276286
1770451884879,-0.1045074462890625,-0.2520599365234375,-0.9579315185546876,-0.0041095237247645,-0.0061425808817148,0.0080201094970107
1770451884889,-0.1089630126953125,-0.251373291015625,-0.95159912109375,-0.0120374877005815,-0.0049540121108293,0.0048450888134539
1770451884899,-0.1116180419921875,-0.2494659423828125,-0.95184326171875,-0.0218791998922824,-0.0068286112509667,0.0070118368603289
1770451884909,-0.107940673828125,-0.2488861083984375,-0.95111083984375,-0.0266124363988637,0.0078243669122457,0.0070523167960345
1770451884919,-0.1068115234375,-0.2506866455078125,-0.9540557861328124,-0.0243072044104337,0.0094126760959625,0.0039260322228074
1770451884929,-0.1085662841796875,-0.2518157958984375,-0.961944580078125,-0.0216472391039133,0.0066315373405814,0.004267715383321
1770451884939,-0.1104278564453125,-0.25433349609375,-0.9646453857421876,-0.0190639719367027,0.0052397693507373,0.0062720105051994
1770451884949,-0.1095123291015625,-0.2508087158203125,-0.9629364013671876,-0.0133086144924163,0.0062813316471874,0.0040831584483385
1770451884959,-0.1101531982421875,-0.25006103515625,-0.9680938720703124,-0.0007366303470917,-0.0007683219737373,0.0047513456083834
1770451884969,-0.10723876953125,-0.24932861328125,-0.9740447998046876,0.008836368098855,0.0007302387384697,0.0046062031760811
1770451884979,-0.1099853515625,-0.250579833984375,-0.96856689453125,0.009787649847567,0.0039947414770722,0.0051497546955943
1770451884989,-0.1054229736328125,-0.249755859375,-0.96185302734375,0.0125267105177044,0.0059662796556949,0.0060469736345112
1770451884999,-0.10528564453125,-0.24859619140625,-0.9606781005859376,0.0096361152827739,0.0004743089957628,0.0016061523929238
1770451885009,-0.1110992431640625,-0.2453155517578125,-0.9565582275390624,0.0027041737921535,0.0076384786516427,0.0003531351685523
1770451885019,-0.1063690185546875,-0.2458953857421875,-0.9516448974609376,-0.0064424527809023,0.0115405423566699,3.2490566809428856e-05
1770451885029,-0.1064453125,-0.247772216796875,-0.9517669677734376,-0.0122633241117,0.0110824787989258,-0.0033792851027101
1770451885039,-0.1122589111328125,-0.2471466064453125,-0.9514923095703124,-0.0181723460555076,0.005045358557254,-0.0037329527549445
1770451885050,-0.1117095947265625,-0.246429443359375,-0.9532928466796876,-0.0211034212261438,-0.002182993106544,-0.0030759510118514
1770451885060,-0.108795166015625,-0.2465972900390625,-0.9561004638671876,-0.0252278577536344,-0.0033222935162484,-0.0049505499191582
1770451885069,-0.108184814453125,-0.2453460693359375,-0.9596405029296876,-0.0203944873064756,-0.0115693043917417,-0.0055372444912791
1770451885080,-0.1099700927734375,-0.2457733154296875,-0.962371826171875,-0.0248888377100229,-0.0105565041303634,-0.0041018007323145
1770451885090,-0.108428955078125,-0.245574951171875,-0.9548797607421876,-0.0235945414751768,-0.0040293629281222,-0.0036301547661423
1770451885100,-0.1034393310546875,-0.24896240234375,-0.963623046875,-0.010871822014451,-0.0079202409833669,-0.0001206411980092
1770451885110,-0.101531982421875,-0.25152587890625,-0.9716033935546876,-0.0031790153589099,-0.0027795413043349,0.0023363912478089
1770451885120,-0.1043243408203125,-0.2462158203125,-0.970001220703125,0.0058379154652357,0.0001187769812531,0.0018895127577707
1770451885130,-0.105804443359375,-0.2461090087890625,-0.9704742431640624,0.0091266529634594,0.0023651532828807,-0.0018469021888449
1770451885140,-0.107818603515625,-0.2452545166015625,-0.9668121337890624,0.0105418572202324,0.0022082931827753,-0.0033340114168822
1770451885150,-0.1083526611328125,-0.246337890625,-0.96588134765625,0.0128151308745145,-0.0032077773939818,-0.0024335966445505
1770451885160,-0.1065826416015625,-0.2490692138671875,-0.961883544921875,0.0096417078748345,-0.0036860811524093,0.0018860506825149
1770451885170,-0.106292724609375,-0.246795654296875,-0.958038330078125,0.0051713259890675,0.002748648636043,0.0008242483600042
1770451885180,-0.1067047119140625,-0.246826171875,-0.9586181640625,0.0046251118183135,-0.0014607438351958,0.0026615632232278
1770451885190,-0.106658935546875,-0.248077392578125,-0.9596099853515624,-0.0043028695508837,-0.0029310751706361,0.0051596080884337
1770451885200,-0.1048583984375,-0.244384765625,-0.9536590576171876,-0.0109160309657454,0.003082875162363,0.0066331354901194
1770451885210,-0.1080474853515625,-0.243621826171875,-0.9539337158203124,-0.0137744015082716,-0.004588094074279,0.004711132030934
1770451885220,-0.1081390380859375,-0.2473602294921875,-0.9571990966796876,-0.0154892113059759,-0.0041156490333378,0.0076368805021047
1770451885230,-0.105743408203125,-0.2467041015625,-0.9595184326171876,-0.0122484108433127,-0.0030194919090718,0.0075322184711694
1770451885240,-0.10406494140625,-0.2481231689453125,-0.963592529296875,-0.0135983666405081,-0.0025939189363271,0.0097263967618346
1770451885250,-0.1075439453125,-0.24810791015625,-0.962646484375,-0.0079069249331951,0.0023238742724061,0.0052634715102612
1770451885260,-0.1091461181640625,-0.2461395263671875,-0.967132568359375,-0.0048597361892461,-0.0001318264694418,0.0072693643160164
1770451885271,-0.1054534912109375,-0.2462310791015625,-0.963287353515625,-0.007341003511101,0.0016157397767528,0.0045350971631705
1770451885281,-0.1062469482421875,-0.24761962890625,-0.9575958251953124,-0.001750495750457,0.0065609635785222,0.0046506780199706
1770451885291,-0.108795166015625,-0.250030517578125,-0.9663543701171876,0.0030684941448271,-0.0014596786350011,0.0068978536874055
1770451885301,-0.107147216796875,-0.2518463134765625,-0.967620849609375,0.0013116068439558,-0.0070211580023169,0.0093032205477356
1770451885311,-0.1075286865234375,-0.2479095458984375,-0.9591827392578124,-0.002322542713955,-0.0104387924075126,0.0092478264123201
1770451885321,-0.1095123291015625,-0.2438507080078125,-0.9578704833984376,-0.0082382224500179,-0.0007693872321397,0.0043936832807958
1770451885331,-0.1124725341796875,-0.2415924072265625,-0.9566802978515624,-0.0159733742475509,0.0044879592023789,0.0023334617726504
1770451885341,-0.11102294921875,-0.24639892578125,-0.952606201171875,-0.0152127752080559,0.0115304226055741,0.0091210603713989
1770451885351,-0.1088714599609375,-0.251861572265625,-0.9583282470703124,-0.0158484708517789,0.0037329527549445,0.0090022832155227
1770451885361,-0.108123779296875,-0.2509613037109375,-0.9654998779296876,-0.0112635735422372,0.008528240956366,0.0066925236023962
1770451885371,-0.111541748046875,-0.2527618408203125,-0.965911865234375,0.004430434666574,0.0049524144269526,0.0069678947329521
1770451885381,-0.108184814453125,-0.2432098388671875,-0.9708709716796876,0.0141174169257283,0.0019973707385361,-0.0152718974277377
1770451885391,-0.1204833984375,-0.23663330078125,-0.969757080078125,0.0172317177057266,-0.00932053104043,-0.0268534515053033
1770451885401,-0.11962890625,-0.2403564453125,-0.9651641845703124,0.0138761345297098,-0.0167326405644416,-0.0305826757103204
1770451885411,-0.115509033203125,-0.25164794921875,-0.9531097412109376,0.0071386033669114,-0.0176442414522171,-0.0166162606328725
1770451885421,-0.1060791015625,-0.2586212158203125,-0.955413818359375,0.0005709817050956,-0.0131922345608472,0.0004913532175123
1770451885431,-0.0999298095703125,-0.257568359375,-0.956512451171875,0.0026157568208873,-0.0044016726315021,0.0030168287921696
1770451885441,-0.10089111328125,-0.2523345947265625,-0.9633026123046876,0.0048573394306004,-0.0031933963764458,-0.0077537936158478
1770451885451,-0.1053924560546875,-0.24298095703125,-0.9635162353515624,0.008485896512866,-0.0006884271278977,-0.0176833886653184
1770451885461,-0.1120758056640625,-0.23822021484375,-0.9621734619140624,0.020071180537343,-0.0152351455762982,-0.0233127791434526
1770451885471,-0.10882568359375,-0.2422027587890625,-0.9700927734375,0.0323342382907867,-0.0220536366105079,-0.0213007610291242
1770451885482,-0.108001708984375,-0.24530029296875,-0.968048095703125,0.0359630621969699,-0.0147882672026753,-0.015638081356883
1770451885492,-0.1060638427734375,-0.2474212646484375,-0.9646759033203124,0.0389838851988315,-0.0062946476973593,-0.0091591440141201
1770451885502,-0.10491943359375,-0.2554473876953125,-0.963836669921875,0.0349262915551662,-0.0014708638191223,-0.002208026824519
1770451885512,-0.1061248779296875,-0.2541351318359375,-0.9596099853515624,0.0286755859851837,0.0009781790431588,-0.0015321165556088
1770451885522,-0.108245849609375,-0.2546539306640625,-0.95745849609375,0.0214214026927948,0.0015379755059257,-0.0019523634109646
1770451885532,-0.1100616455078125,-0.2522735595703125,-0.9541015625,0.0111637050285935,0.0089775156229734,-0.0036693033762276
1770451885542,-0.109619140625,-0.252655029296875,-0.9511871337890624,-0.0016911072889342,0.0141570977866649,-0.0004572647449094
1770451885552,-0.1097564697265625,-0.25213623046875,-0.949951171875,-0.0041289650835096,0.0116782272234559,-0.0016178702935576
1770451885562,-0.112579345703125,-0.2486419677734375,-0.9563446044921876,-0.0020114856306463,0.0043457462452352,-0.0031435952987521
1770451885572,-0.116912841796875,-0.2490234375,-0.9621429443359376,0.0046634613536298,-0.0062475097365677,-0.0052155344747006
1770451885582,-0.115447998046875,-0.2475128173828125,-0.9609222412109376,0.0085815042257308,-0.0086797745898365,-0.0090536819770932
1770451885593,-0.114501953125,-0.2502899169921875,-0.959869384765625,0.0095474328845739,-0.0159747060388326,-0.0134484311565756
1770451885602,-0.114959716796875,-0.2508392333984375,-0.9568939208984376,0.0144295394420623,-0.01137968711555,-0.0146580385044217
1770451885612,-0.111663818359375,-0.2508544921875,-0.9594573974609376,0.0121551994234323,-0.0110497213900089,-0.0158290304243564
1770451885622,-0.1083984375,-0.255279541015625,-0.956939697265625,0.0129871712997555,-0.0009001484140753,-0.0095666069537401
1770451885632,-0.1049041748046875,-0.25439453125,-0.956756591796875,0.0125208515673875,-0.0011677960865199,-0.0058506983332335
1770451885642,-0.1045989990234375,-0.254241943359375,-0.95587158203125,0.0089953588321805,-0.0006183860241435,-0.0007504787645302
1770451885652,-0.1059417724609375,-0.2529754638671875,-0.9553985595703124,0.0022072279825806,-0.0027015106752514,0.001465537585318
1770451885662,-0.1045989990234375,-0.2532958984375,-0.953704833984375,-0.0053753242827951,-0.0029278793372213,0.0022407837677747
1770451885672,-0.109161376953125,-0.2513275146484375,-0.95263671875,-0.0157957412302494,0.0044027380645275,-0.002599777886644
1770451885682,-0.110565185546875,-0.2454681396484375,-0.9543609619140624,-0.0216030292212963,0.012344816699624,0.0027803401462733
1770451885692,-0.10919189453125,-0.252899169921875,-0.954345703125,-0.0216520316898822,0.0012905678013339,0.0078501999378204
1770451885703,-0.1045379638671875,-0.252288818359375,-0.95977783203125,-0.0211697332561016,0.0085226483643054,0.0054301852360367
1770451885713,-0.1117095947265625,-0.2498779296875,-0.9586181640625,-0.0215851869434118,0.0108348047360777,0.0040629184804856
1770451885723,-0.1092529296875,-0.2542877197265625,-0.9602203369140624,-0.0212919730693101,0.0137951746582984,0.0066770776174962
1770451885733,-0.1063232421875,-0.2590484619140625,-0.963409423828125,-0.0161406211555004,0.0130670657381415,0.0084073329344391
1770451885743,-0.1079254150390625,-0.255523681640625,-0.96197509765625,-0.017258882522583,0.016194149851799,0.0111762220039963
1770451885753,-0.1089630126953125,-0.25244140625,-0.9583282470703124,-0.017321465536952,0.0092555498704314,0.0106228170916438
1770451885763,-0.109344482421875,-0.251007080078125,-0.9576416015625,-0.017258882522583,0.0019166769925504,0.0079013323411345
1770451885773,-0.1096649169921875,-0.2478790283203125,-0.9616241455078124,-0.0204123314470052,0.0055412393994629,0.0057990332134068
1770451885783,-0.1134796142578125,-0.245697021484375,-0.95782470703125,-0.0151121076196432,0.0074914721772074,0.0018149443203583
1770451885793,-0.113037109375,-0.2487335205078125,-0.962005615234375,-0.0114191016182303,0.008503739722073,0.0006689860601909
1770451885803,-0.111053466796875,-0.2505950927734375,-0.96337890625,-0.0141198132187128,0.00969710201025,-0.0015012238873168
1770451885813,-0.11151123046875,-0.251800537109375,-0.95941162109375,-0.0124129941686987,0.0142535045742988,-0.0013233247445896
1770451885823,-0.1125335693359375,-0.2507476806640625,-0.96417236328125,-0.0068477862514555,0.008846222423017,-0.0015614113071933
1770451885833,-0.1103057861328125,-0.2543487548828125,-0.965972900390625,0.0018426411552354,0.0023449133150279,0.0041324268095195
1770451885843,-0.1075897216796875,-0.25543212890625,-0.9683380126953124,0.0013411679537966,-0.0042951460927724,0.0094760600477457
1770451885853,-0.1071014404296875,-0.254180908203125,-0.959686279296875,0.0002261023764731,0.0005230448441579,0.0089010829105973
1770451885863,-0.10833740234375,-0.2523651123046875,-0.959136962890625,-0.0003145193331874,0.0029555761720985,0.0106177572160959
1770451885873,-0.1066131591796875,-0.2519683837890625,-0.958221435546875,0.0017979000695049,0.0010873686987906,0.010964767076075
1770451885883,-0.110809326171875,-0.249847412109375,-0.96142578125,0.0018096179701387,-0.0028679580427706,0.0071015851572155
1770451885894,-0.1125640869140625,-0.246856689453125,-0.96197509765625,0.0009925601771101,0.0018208032706752,0.0039859530515968
1770451885903,-0.1128387451171875,-0.2472076416015625,-0.960723876953125,0.0054051517508924,0.0011459582019597,0.0004428836982697
1770451885914,-0.11376953125,-0.2501068115234375,-0.964813232421875,0.0065375277772545,-0.0114460000768303,-0.0038128476589918
1770451885924,-0.11572265625,-0.25128173828125,-0.962066650390625,-0.0016839167801663,-0.0012823120923712,-0.0028812738601118
1770451885933,-0.1103668212890625,-0.2510986328125,-0.951751708984375,-0.0162452831864357,0.0104393251240253,-0.0067053069360554
1770451885944,-0.11029052734375,-0.253875732421875,-0.947723388671875,-0.0279908888041973,0.0184157583862543,-0.0082507394254207
1770451885954,-0.1118927001953125,-0.25360107421875,-0.94793701171875,-0.0399138592183589,0.0228991899639368,-0.0059380503371357
1770451885964,-0.1089630126953125,-0.2517852783203125,-0.9490509033203124,-0.0394113212823867,0.0170668680220842,-0.002329733222723
1770451885974,-0.1063995361328125,-0.25128173828125,-0.9618377685546876,-0.0348157696425914,0.0013792511308565,-0.0033385388087481
1770451885984,-0.1136322021484375,-0.2505340576171875,-0.965789794921875,-0.0258132219314575,-0.0076560555025935,-0.0045891590416431
1770451885994,-0.112762451171875,-0.2493438720703125,-0.9640655517578124,-0.0194866154342889,-0.0104638263583183,-0.0031726236920803
1770451886004,-0.107391357421875,-0.24639892578125,-0.96209716796875,-0.0239532701671123,-0.0046328348107635,-0.0074379425495862
1770451886014,-0.111602783203125,-0.2444000244140625,-0.9543304443359376,-0.030297452583909,0.0048682582564651,-0.0123517410829663
1770451886024,-0.1124114990234375,-0.2455291748046875,-0.9509124755859376,-0.0348623767495155,0.0186836719512939,-0.0146524459123611
1770451886034,-0.1104736328125,-0.248565673828125,-0.953887939453125,-0.0416997745633125,0.0191736947745084,-0.0136178079992532
1770451886044,-0.1064605712890625,-0.250701904296875,-0.957244873046875,-0.0381500497460365,0.0108672948554158,-0.0109509183093905
1770451886054,-0.1067962646484375,-0.2498931884765625,-0.96539306640625,-0.0394547320902347,-0.0031305458396673,-0.0105823371559381
1770451886064,-0.1089935302734375,-0.2485198974609375,-0.960784912109375,-0.0385987907648086,-0.0044381581246852,-0.011412976309657
1770451886074,-0.11041259765625,-0.2474365234375,-0.9604034423828124,-0.0364679954946041,-0.0086107989773154,-0.0124484142288565
1770451886084,-0.1096038818359375,-0.248260498046875,-0.963836669921875,-0.0305286142975091,-0.0108529143035411,-0.0097186733037233
1770451886095,-0.108184814453125,-0.2471771240234375,-0.966949462890625,-0.0285363029688596,-0.0129285817965865,-0.0094092143699526
1770451886104,-0.10986328125,-0.2469940185546875,-0.964263916015625,-0.0228142347186803,-0.0159038659185171,-0.007316502276808
1770451886114,-0.110198974609375,-0.247344970703125,-0.9658203125,-0.013989851810038,-0.0141323301941156,-0.0068736188113689
1770451886125,-0.1058502197265625,-0.246917724609375,-0.96820068359375,-0.0073745595291256,-0.0117059247568249,-0.005928995553404
1770451886135,-0.10577392578125,-0.2469024658203125,-0.9674072265625,0.0056075518950819,-0.0082440814003348,-0.0046277749352157
1770451886145,-0.1090240478515625,-0.2471466064453125,-0.97308349609375,0.0088478196412324,-0.008103466592729,-0.0032439965289086
1770451886155,-0.1089324951171875,-0.2470703125,-0.965850830078125,0.0074078487232327,-0.0048035434447228,-0.0034559841733425
1770451886165,-0.1097412109375,-0.246337890625,-0.9586639404296876,0.0084595307707786,-0.0008010788587853,-0.0027691549621522
1770451886175,-0.1091156005859375,-0.2486114501953125,-0.9609527587890624,0.0067135626450181,-0.0075990636833012,-0.0026879284996539
1770451886185,-0.10980224609375,-0.2484893798828125,-0.9576873779296876,0.0067021111026406,-0.0094371773302555,-0.0028336034156382
1770451886195,-0.1111907958984375,-0.2435150146484375,-0.9622955322265624,0.009999637492001,-0.0131757231429219,-0.0039428099989891
1770451886205,-0.1137542724609375,-0.24237060546875,-0.9657440185546876,0.0203289743512868,-0.0198320280760526,-0.0081428810954093
1770451886215,-0.1144561767578125,-0.2480621337890625,-0.9693450927734376,0.0241490118205547,-0.0209423005580902,-0.0027529096696525
1770451886225,-0.10723876953125,-0.2526092529296875,-0.962371826171875,0.0160263702273368,-0.0067226174287498,0.0017129451734945
1770451886235,-0.1049346923828125,-0.2509307861328125,-0.9524078369140624,0.0061377873644232,0.0057809236459434,-0.0026953853666782
1770451886245,-0.10687255859375,-0.25433349609375,-0.9506072998046876,-0.0001033306471072,0.0015025554457679,0.006279201246798
1770451886255,-0.1040496826171875,-0.2464447021484375,-0.953765869140625,-0.0059162122197449,0.0061508365906775,-0.0048187235370278
1770451886265,-0.1123504638671875,-0.2359771728515625,-0.9517364501953124,-0.0063449810259044,0.0029949909076094,-0.014462562277913
1770451886275,-0.1172637939453125,-0.2425994873046875,-0.9617156982421876,-0.0040775658562779,-0.0084171872586011,-0.0111309476196765
1770451886285,-0.1164398193359375,-0.2460174560546875,-0.96136474609375,-0.0143203493207693,-0.0055782571434974,-0.0079005332663655
1770451886296,-0.1121063232421875,-0.2512969970703125,-0.9527587890625,-0.0141184823587536,-0.0020090886391699,0.0038477350026369
1770451886305,-0.1073455810546875,-0.254364013671875,-0.9583892822265624,-0.0093708653002977,0.003964914008975,0.0038549257442355
1770451886315,-0.1086578369140625,-0.2490386962890625,-0.9632415771484376,-0.0037454697303473,0.0025182850658893,-0.0116750318557024
1770451886326,-0.1139373779296875,-0.237823486328125,-0.9640350341796876,-0.0018120148451998,0.0082968119531869,-0.0247367713600397
1770451886335,-0.117645263671875,-0.237945556640625,-0.962127685546875,-0.0028256138321012,-0.0004506068653427,-0.0347659699618816
1770451886346,-0.1182861328125,-0.24090576171875,-0.96014404296875,-0.0105197522789239,0.0016061523929238,-0.0349513255059719
1770451886356,-0.113006591796875,-0.2437286376953125,-0.9561614990234376,-0.0106670251116156,0.0020596887916326,-0.0276776999235153
1770451886366,-0.1075592041015625,-0.253753662109375,-0.9575958251953124,-0.025301095098257,-0.0070523167960345,-0.0139706768095493
1770451886376,-0.1053314208984375,-0.2572021484375,-0.95269775390625,-0.0331899113953113,-0.0067804078571498,-0.0046008769422769
1770451886386,-0.10357666015625,-0.2527008056640625,-0.9552154541015624,-0.0352842211723327,-0.0005078648100607,-0.0003544667270034
1770451886396,-0.1067352294921875,-0.2484893798828125,-0.9632720947265624,-0.0264161601662635,-0.0010660634143278,-0.0051657333970069
1770451886406,-0.114044189453125,-0.245819091796875,-0.9679412841796876,-0.0110614392906427,-0.00037657096982,-0.0092925680801272
1770451886416,-0.1145172119140625,-0.2447052001953125,-0.9715118408203124,0.0052789179608225,-0.0030897995457053,-0.0138138160109519
1770451886426,-0.1147003173828125,-0.2418365478515625,-0.9727783203125,0.0167038794606924,-0.0061769359745085,-0.0223561711609363
1770451886436,-0.119140625,-0.2405548095703125,-0.9678955078125,0.0257501043379306,-0.0094124097377061,-0.0290976986289024
1770451886446,-0.1198272705078125,-0.2424774169921875,-0.9678802490234376,0.0268342774361372,-0.0191318821161985,-0.0369963683187961
1770451886456,-0.1163177490234375,-0.2477874755859375,-0.9605255126953124,0.0192671716213226,-0.0103578325361013,-0.038736741989851
1770451886466,-0.11248779296875,-0.2456512451171875,-0.9509429931640624,0.0112923355773091,-0.0257421154528856,-0.0362115353345871
1770451886476,-0.110076904296875,-0.24530029296875,-0.9521636962890624,0.0016453008865937,-0.035392876714468,-0.0359619967639446
1770451886486,-0.11590576171875,-0.2481536865234375,-0.953887939453125,-0.0143925212323665,-0.0318157188594341,-0.0354461409151554
1770451886496,-0.1146697998046875,-0.246856689453125,-0.945648193359375,-0.0284252502024173,-0.0064616277813911,-0.0333134829998016
1770451886506,-0.1090545654296875,-0.245086669921875,-0.946197509765625,-0.0367106087505817,0.007792143151164,-0.0285533480346202
1770451886516,-0.10870361328125,-0.2468109130859375,-0.9548492431640624,-0.0348666384816169,0.006614226847887,-0.0262116305530071
1770451886527,-0.11224365234375,-0.249298095703125,-0.96954345703125,-0.0251354463398456,-0.0141320638358592,-0.0237058624625206
1770451886536,-0.1123199462890625,-0.2523345947265625,-0.9766082763671876,-0.0216419119387865,-0.0246209241449832,-0.018154501914978
1770451886546,-0.11083984375,-0.2454376220703125,-0.9770050048828124,-0.0170522201806306,-0.0241072010248899,-0.0240858942270278
1770451886556,-0.117889404296875,-0.2435302734375,-0.968353271484375,-0.0121203120797872,-0.0177483707666397,-0.0278052650392055
1770451886567,-0.1148529052734375,-0.2448272705078125,-0.9682769775390624,-0.0049295113421976,-0.0108150970190763,-0.0274023301899433
1770451886577,-0.1102752685546875,-0.2476654052734375,-0.96649169921875,0.0001693770464044,-0.0072376728057861,-0.0287134032696485
1770451886587,-0.1114349365234375,-0.2490234375,-0.967193603515625,-0.0019835224375128,0.002789394930005,-0.0298052988946437
1770451886597,-0.1119232177734375,-0.2476959228515625,-0.9618377685546876,-0.0003954794083256,0.0106678241863846,-0.0272326860576868
1770451886607,-0.106536865234375,-0.253204345703125,-0.9651031494140624,0.0036581179592758,0.0085346326231956,-0.0220728106796741
1770451886617,-0.105621337890625,-0.2535247802734375,-0.9623870849609376,0.0038890140131115,0.0117488009855151,-0.0184301398694515
1770451886627,-0.112457275390625,-0.251800537109375,-0.9589080810546876,0.0040938113816082,0.0186530463397502,-0.0179118886590003
1770451886637,-0.111480712890625,-0.2504119873046875,-0.9561309814453124,0.0046783750876784,0.0315510034561157,-0.0118558602407574
1770451886647,-0.107940673828125,-0.250091552734375,-0.95941162109375,0.0111336112022399,0.0295938439667224,-0.0091258538886904
1770451886657,-0.111297607421875,-0.25201416015625,-0.967437744140625,0.021450962871313,0.0133964987471699,-0.0121701136231422
1770451886667,-0.1149749755859375,-0.2477569580078125,-0.968109130859375,0.0215668100863695,0.0049508162774145,-0.014109693467617
1770451886677,-0.116668701171875,-0.2448272705078125,-0.959228515625,0.0151299508288502,0.0166002810001373,-0.0142287369817495
1770451886687,-0.1134796142578125,-0.2476654052734375,-0.952392578125,0.0131842447444796,0.0184429232031106,-0.0150441965088248
1770451886697,-0.1114959716796875,-0.251129150390625,-0.95672607421875,0.0136513635516166,0.0039454731158912,-0.0127163277938961
1770451886707,-0.111358642578125,-0.25225830078125,-0.958740234375,0.0068845376372337,0.0027348001021891,-0.0141568314284086
1770451886717,-0.112060546875,-0.247528076171875,-0.9560546875,-0.0010508833220228,-0.0041353562846779,-0.0115485312417149
1770451886727,-0.110107421875,-0.246673583984375,-0.9518280029296876,-0.0070384684950113,0.0011219898005947,-0.0099977729842066
1770451886737,-0.106536865234375,-0.2474212646484375,-0.9510040283203124,-0.0070384684950113,0.0011219898005947,-0.0099977729842066
1770451886747,-0.1119232177734375,-0.2483062744140625,-0.949066162109375,-0.0168865714222192,0.0091961612924933,-0.0108856707811355
1770451886757,-0.1128997802734375,-0.2456512451171875,-0.954620361328125,-0.021767346188426,0.0015765913994982,-0.0071330107748508
1770451886768,-0.1093597412109375,-0.244659423828125,-0.9603424072265624,-0.0194237660616636,-0.0017222663154825,-0.0060866544954478
1770451886778,-0.10626220703125,-0.247222900390625,-0.96356201171875,-0.0178455766290426,0.0033412019256502,-0.0080075925216078
1770451886788,-0.109527587890625,-0.248443603515625,-0.965850830078125,-0.0102667519822716,0.0080390181392431,-0.0128308441489934
1770451886798,-0.1095733642578125,-0.2515411376953125,-0.966888427734375,-0.009950635023415,0.0041326931677758,-0.0099748698994517
1770451886808,-0.1071014404296875,-0.2552947998046875,-0.9619598388671876,-0.0097937751561403,0.0159387532621622,-0.0071862740442156
1770451886818,-0.1084136962890625,-0.2519683837890625,-0.959442138671875,-0.0095394430682063,0.0219503063708543,-0.0046434877440333
1770451886828,-0.108795166015625,-0.252044677734375,-0.9626617431640624,-0.0021150824613869,0.0240358281880617,-0.0036000611726194
1770451886838,-0.112274169921875,-0.2467193603515625,-0.9672698974609376,-0.0009230516152456,0.0245988201349973,-0.0030051108915358
1770451886848,-0.110748291015625,-0.247802734375,-0.9629669189453124,0.0002114549861289,0.0208131372928619,-0.007267233915627
1770451886858,-0.110931396484375,-0.2492218017578125,-0.9604949951171876,-0.0008839031797833,0.0199481416493654,-0.0086725838482379
1770451886868,-0.112762451171875,-0.247467041015625,-0.96002197265625,0.0004447478859219,0.007749798707664,-0.0154050551354885
1770451886878,-0.1151580810546875,-0.245941162109375,-0.9609375,0.0018295916961506,-0.0008572715451009,-0.0184027086943388
1770451886888,-0.1144866943359375,-0.24530029296875,-0.9618682861328124,0.0057100835256278,-0.0017339842161163,-0.0198602564632892
1770451886898,-0.112548828125,-0.2463226318359375,-0.9597625732421876,0.01020416803658,-0.0004476773901842,-0.0218443125486373
1770451886908,-0.111419677734375,-0.2479248046875,-0.962738037109375,0.0173845831304788,0.0016120113432407,-0.0224914606660604
1770451886918,-0.1085205078125,-0.249359130859375,-0.9650726318359376,0.0210301838815212,0.0037840856239199,-0.0218003708869218
1770451886928,-0.104736328125,-0.25225830078125,-0.958984375,0.0171962976455688,0.0103274723514914,-0.0187297463417053
1770451886938,-0.1033477783203125,-0.2493743896484375,-0.954010009765625,0.0175944399088621,0.0170476920902729,-0.0194437392055988
1770451886948,-0.1074066162109375,-0.24932861328125,-0.95751953125,0.0170309152454137,0.0145877311006188,-0.0207897014915943
1770451886959,-0.1064910888671875,-0.2512359619140625,-0.9589080810546876,0.0146282110363245,0.006670952308923,-0.0218435134738683
1770451886968,-0.1069183349609375,-0.251312255859375,-0.955230712890625,0.0131480265408754,5.352953667170368e-05,-0.0211998280137777
1770451886979,-0.107666015625,-0.24810791015625,-0.9566192626953124,0.0094853807240724,-0.0006538060260936,-0.0194163080304861
1770451886989,-0.1076507568359375,-0.24884033203125,-0.9576568603515624,0.0098696751520037,-0.0045105959288775,-0.014331535436213
1770451886999,-0.0999603271484375,-0.2481231689453125,-0.9563140869140624,0.0046568033285439,0.0019643476698547,-0.0101706124842166
1770451887009,-0.099639892578125,-0.2488555908203125,-0.9517974853515624,0.0006924218614585,0.0137030286714434,-0.0092076128348708
1770451887019,-0.1035003662109375,-0.247222900390625,-0.9495086669921876,-0.0062831956893205,0.0154950702562928,-0.0071894694119691
1770451887029,-0.104888916015625,-0.2472076416015625,-0.9452972412109376,-0.0150117063894867,0.0147792119532823,-0.0034264230635017
1770451887039,-0.1051788330078125,-0.2474212646484375,-0.9455718994140624,-0.0208930317312479,0.0124614629894495,-0.0014452975010499
1770451887049,-0.1085662841796875,-0.2466888427734375,-0.9557647705078124,-0.017837319523096,0.0055289887823164,-0.0079806949943304
1770451887059,-0.1080169677734375,-0.2479400634765625,-0.9613037109375,-0.0167616698890924,-0.0025475798174738,-0.0044573326595127
1770451887069,-0.1037750244140625,-0.25537109375,-0.9568634033203124,-0.0213210005313158,-0.0070970579981803,0.0070347399450838
1770451887079,-0.098663330078125,-0.25885009765625,-0.9523468017578124,-0.0342019125819206,0.0049066077917814,0.0052536176517605
1770451887089,-0.107391357421875,-0.24908447265625,-0.95086669921875,-0.0402137339115142,0.0035955337807536,0.0083085298538208
1770451887099,-0.101959228515625,-0.2546844482421875,-0.9544830322265624,-0.0327672660350799,-0.00683473655954,0.0108523815870285
1770451887109,-0.0994873046875,-0.241058349609375,-0.9610748291015624,-0.0249615423381328,-0.0103317331522703,-0.0114071173593401
1770451887119,-0.1136627197265625,-0.237152099609375,-0.9579925537109376,-0.0202759765088558,-0.0195478685200214,-0.00670424150303
1770451887129,-0.105987548828125,-0.254425048828125,-0.9557647705078124,-0.0283682588487863,-0.0129030151292681,0.006589725613594
1770451887139,-0.097259521484375,-0.2535247802734375,-0.9485321044921876,-0.0276963431388139,-0.005158809479326,0.0203311033546924
1770451887149,-0.0966339111328125,-0.2561492919921875,-0.961639404296875,-0.020479442551732,-0.0147616351023316,0.0277884881943464
1770451887159,-0.104644775390625,-0.2476043701171875,-0.9679412841796876,-0.019144931808114,-0.0052530854009091,0.0199468098580837
1770451887169,-0.1053314208984375,-0.237884521484375,-0.9579620361328124,-0.0160490069538354,0.0105280084535479,0.0127269802615046
1770451887179,-0.1029815673828125,-0.2352752685546875,-0.960968017578125,-0.013401293195784,0.0035209653433412,0.0049896985292434
1770451887189,-0.11126708984375,-0.2388153076171875,-0.964691162109375,-0.0080454098060727,0.005274390336126,0.0041553303599357
1770451887199,-0.112213134765625,-0.2443084716796875,-0.9709625244140624,-0.0065172878094017,0.0007827030494809,0.0126265790313482
1770451887210,-0.1039886474609375,-0.2516326904296875,-0.97113037109375,-0.0087697897106409,0.0030101709999144,0.0229202285408973
1770451887220,-0.1031951904296875,-0.25579833984375,-0.9662322998046876,-0.0087612671777606,0.0096819223836064,0.0335398502647876
1770451887230,-0.10198974609375,-0.2582550048828125,-0.9674835205078124,-0.0060720071196556,0.0170564819127321,0.0369074158370494
1770451887240,-0.101654052734375,-0.2556610107421875,-0.9675140380859376,0.0008058725506998,0.0248353090137243,0.0374736040830612
1770451887250,-0.10638427734375,-0.2516632080078125,-0.970428466796875,0.0110784834250807,0.0213252622634172,0.0276886187493801
1770451887260,-0.1125640869140625,-0.2487335205078125,-0.97039794921875,0.0238547325134277,0.0156567245721817,0.0194850172847509
1770451887270,-0.1137847900390625,-0.244384765625,-0.970550537109375,0.0325302444398403,0.0096526276320219,0.0133104790002107
1770451887280,-0.115478515625,-0.2439422607421875,-0.967315673828125,0.0359220467507839,-0.005814479663968,0.0091743236407637
1770451887290,-0.11968994140625,-0.2439117431640625,-0.9588623046875,0.0411927103996276,-0.0129682626575231,0.0061803977005183
1770451887300,-0.119384765625,-0.242401123046875,-0.956329345703125,0.0357425510883331,-0.0166396964341402,0.0036437369417399
1770451887310,-0.1156158447265625,-0.245452880859375,-0.9458770751953124,0.0229836124926805,-0.0012434299569576,0.0026855315081775
1770451887320,-0.1113739013671875,-0.2464447021484375,-0.94305419921875,0.0186706241220235,0.0017883126856759,0.0030956584960222
1770451887330,-0.1114349365234375,-0.2523651123046875,-0.949462890625,0.0109724896028637,-0.007129814941436,0.0074746944010257
1770451887340,-0.1070098876953125,-0.2524871826171875,-0.9493560791015624,0.0001286306796828,0.0005275722360238,0.0054677361622452
1770451887350,-0.105682373046875,-0.24896240234375,-0.9461212158203124,-0.0045263087376952,0.0114563861861824,0.0060464409179985
1770451887360,-0.1048431396484375,-0.248382568359375,-0.9529571533203124,-0.0111570470035076,0.0085940212011337,0.0025411883834749
1770451887370,-0.1078338623046875,-0.2458038330078125,-0.95233154296875,-0.0146870668977499,0.0127006154507398,0.0039952741935849
1770451887380,-0.10723876953125,-0.2443084716796875,-0.95257568359375,-0.0121434815227985,0.0045388252474367,0.0090206591412425
1770451887390,-0.1024932861328125,-0.2546234130859375,-0.96331787109375,-0.0091860415413975,0.0001163801352959,0.0094219977036118
1770451887400,-0.106903076171875,-0.24920654296875,-0.963104248046875,-0.0034804851748049,0.0001890844287117,0.0062981094233691
1770451887411,-0.113861083984375,-0.252685546875,-0.968048095703125,0.0074872109107673,-0.0114771593362092,0.0065606972202658
1770451887420,-0.108123779296875,-0.2513427734375,-0.971160888671875,0.0136521626263856,-0.0185609012842178,0.0035617116373032
1770451887431,-0.111480712890625,-0.248748779296875,-0.965362548828125,0.0139307295903563,-0.0210821162909269,-0.0035886096302419
1770451887441,-0.11322021484375,-0.249603271484375,-0.961395263671875,0.0166175924241542,-0.0131368413567543,-0.009825199842453
1770451887451,-0.111572265625,-0.2483673095703125,-0.9635162353515624,0.0232073180377483,-0.0158354211598634,-0.013882259838283
1770451887461,-0.1116180419921875,-0.251007080078125,-0.9659576416015624,0.0286422967910766,-0.0223439205437898,-0.014381069689989
1770451887471,-0.111541748046875,-0.2508392333984375,-0.958038330078125,0.0178354568779468,-0.0112521219998598,-0.0071114390157163
1770451887481,-0.1052398681640625,-0.2484893798828125,-0.947357177734375,0.0074161044321954,0.0137653471902012,-0.0005414206534624
1770451887491,-0.1032257080078125,-0.252410888671875,-0.948699951171875,0.0041697113774716,0.0148724233731627,0.0035779569298028
1770451887501,-0.1067962646484375,-0.254669189453125,-0.9549407958984376,-0.0064917216077446,0.0092976279556751,0.0059684100560843
1770451887511,-0.1094207763671875,-0.2520751953125,-0.9499053955078124,-0.0240571331232786,0.0146106341853737,0.0086763128638267
1770451887521,-0.10833740234375,-0.2517242431640625,-0.9439239501953124,-0.0331606157124042,0.0155541924759745,0.0097761983051896
1770451887531,-0.1080322265625,-0.253997802734375,-0.9490814208984376,-0.0429687723517417,0.0110792824998497,0.0121373562142252
1770451887541,-0.10980224609375,-0.252899169921875,-0.9526824951171876,-0.0447275228798389,0.0132542867213487,0.0127469543367624
1770451887551,-0.1117706298828125,-0.2529754638671875,-0.956695556640625,-0.0380858667194843,0.0024013724178075,0.0174146760255098
1770451887561,-0.1078643798828125,-0.25250244140625,-0.967010498046875,-0.0267405342310667,-0.0226696263998746,0.0171430334448814
1770451887571,-0.1136322021484375,-0.2509002685546875,-0.9737091064453124,-0.0108372010290622,-0.0488461032509803,0.0149970585480332
1770451887581,-0.117095947265625,-0.24969482421875,-0.9716339111328124,-0.0057849185541272,-0.0467499271035194,0.0118753015995025
1770451887592,-0.11517333984375,-0.248931884765625,-0.9647064208984376,-0.0060693440027534,-0.0200552009046077,0.0099192094057798
1770451887601,-0.109649658203125,-0.249237060546875,-0.961517333984375,0.0015028218040242,-0.0035590485204011,0.0065095648169517
1770451887612,-0.11175537109375,-0.2525177001953125,-0.9692840576171876,0.0096249300986528,-0.0115357488393783,0.0061700115911662
1770451887622,-0.113525390625,-0.2525177001953125,-0.9691162109375,0.0084597971290349,-0.0056624128483235,0.0053601441904902
1770451887632,-0.1123046875,-0.2500152587890625,-0.96142578125,0.0069228871725499,0.0008910936885513,0.0064800037071108
1770451887642,-0.1102294921875,-0.2509918212890625,-0.9617767333984376,0.0044299019500613,-0.0016090818680822,0.0091833779588341
1770451887652,-0.109771728515625,-0.25201416015625,-0.9590301513671876,0.0001342233153991,0.0018399780383333,0.0124438861384987
1770451887662,-0.11004638671875,-0.25177001953125,-0.954742431640625,-0.0111418673768639,-0.0067796092480421,0.014822888188064
1770451887672,-0.109161376953125,-0.25177001953125,-0.9486846923828124,-0.0159659162163734,-0.0010934938909485,0.0187350716441869
1770451887682,-0.112060546875,-0.2500762939453125,-0.9527587890625,-0.016595222055912,-0.0035787557717412,0.0190575812011957
1770451887692,-0.110870361328125,-0.249114990234375,-0.9575042724609376,-0.0161107927560806,0.0014271880500018,0.0134998299181461
1770451887702,-0.11444091796875,-0.2459869384765625,-0.9571685791015624,-0.0118249673396348,-0.0028852687682956,0.0102758072316646
1770451887712,-0.115020751953125,-0.2460784912109375,-0.9608001708984376,-0.0055300537496805,-0.0114382766187191,0.0113187013193964
1770451887722,-0.1151275634765625,-0.244781494140625,-0.9615936279296876,8.415588672505692e-05,0.0011944277212023,0.0068869343958795
1770451887732,-0.117919921875,-0.24578857421875,-0.9639434814453124,0.0074920048937201,-0.0107117667794227,0.0035787557717412
1770451887742,-0.116668701171875,-0.2506256103515625,-0.9640960693359376,0.0030567762441933,-0.0057787932455539,0.0015494271647185
1770451887752,-0.115020751953125,-0.24853515625,-0.954315185546875,-0.0054253917187452,0.0023545008152723,-0.0008548747282475
1770451887762,-0.1126861572265625,-0.2493896484375,-0.9501953125,-0.0126928919926285,-0.0007805725326761,0.0022642195690423
1770451887772,-0.1104736328125,-0.25128173828125,-0.9517974853515624,-0.0233737658709287,-0.0005057342932559,0.0052677327767014
1770451887782,-0.1107330322265625,-0.248931884765625,-0.951507568359375,-0.036354012787342,-0.0032716933637857,0.0029422603547573
1770451887792,-0.1153106689453125,-0.244842529296875,-0.9483642578125,-0.0460207536816597,-0.005689843557775,0.0026165556628257
1770451887802,-0.11358642578125,-0.2475128173828125,-0.951171875,-0.054323960095644,-0.0022844595368951,0.0025363946333527
1770451887812,-0.110992431640625,-0.2472991943359375,-0.9501495361328124,-0.0572619587182998,0.0044831652194261,0.0075668394565582
1770451887822,-0.1089019775390625,-0.2458953857421875,-0.9579010009765624,-0.0490828566253185,0.0024226775858551,0.0090025495737791
1770451887833,-0.11065673828125,-0.2474212646484375,-0.9705963134765624,-0.0462159663438797,0.0004071973380632,0.0096084186807274
1770451887842,-0.117431640625,-0.24664306640625,-0.9693450927734376,-0.0366735905408859,0.0068571069277822,0.0078416774049401
1770451887853,-0.1121063232421875,-0.248321533203125,-0.967864990234375,-0.0327792502939701,0.011460380628705,0.0142601625993847
1770451887863,-0.1064605712890625,-0.251190185546875,-0.9685516357421876,-0.0313792265951633,0.0112151037901639,0.0151480603963136
1770451887873,-0.1119537353515625,-0.2503662109375,-0.96563720703125,-0.0315451435744762,0.0206144638359546,0.0125709194689989
1770451887883,-0.114837646484375,-0.2462921142578125,-0.964324951171875,-0.0277245715260505,0.0226371362805366,0.0111402692273259
1770451887893,-0.11474609375,-0.249420166015625,-0.9686279296875,-0.0182269401848316,0.0171624757349491,0.012754145078361
1770451887903,-0.11474609375,-0.2540435791015625,-0.9706878662109376,-0.0066677564755082,0.0045081991702318,0.0183582343161106
1770451887913,-0.1138153076171875,-0.2530975341796875,-0.97412109375,-0.0068672271445393,-0.0090406332165002,0.0119727728888392
1770451887923,-0.1201019287109375,-0.2459869384765625,-0.9689483642578124,-0.008273908868432,-0.0095777921378612,0.0120244389399886
1770451887933,-0.115570068359375,-0.24896240234375,-0.9588165283203124,-0.0091365063562989,0.0085695199668407,0.0081141190603375
1770451887943,-0.1132354736328125,-0.2328338623046875,-0.9521484375,-0.0065055699087679,0.0201611947268247,-0.0051340418867766
1770451887953,-0.119842529296875,-0.2352752685546875,-0.95904541015625,-0.0001917476038215,-0.0015361113473773,-0.0099186766892671
1770451887963,-0.118927001953125,-0.2389373779296875,-0.962860107421875,-0.0091777853667736,-0.0170660689473152,-0.0031222901307046
1770451887973,-0.1157684326171875,-0.248687744140625,-0.9507598876953124,-0.0188573114573955,-0.0075359470210969,0.0118974056094884
1770451887983,-0.1084747314453125,-0.2545928955078125,-0.946929931640625,-0.0191428009420633,-0.0047667920589447,0.0184165574610233
1770451887993,-0.1079254150390625,-0.2502899169921875,-0.9549560546875,-0.0210557505488395,0.0052940980531275,0.0090366378426551
1770451888003,-0.113983154296875,-0.23992919921875,-0.9553680419921876,-0.0194101836532354,0.0101825967431068,-0.0039044604636728
1770451888013,-0.115570068359375,-0.2337646484375,-0.9599761962890624,-0.0155624477192759,0.0046565369702875,-0.0154905430972576
1770451888023,-0.1195831298828125,-0.2374420166015625,-0.96185302734375,-0.007318100426346,-0.0096755307167768,-0.0173662062734365
1770451888034,-0.1142120361328125,-0.2401123046875,-0.964019775390625,-0.010317618958652,-0.013055614195764,-0.0128643997013568
1770451888043,-0.1138763427734375,-0.2436676025390625,-0.9570159912109376,-0.0169757883995771,-0.0097612841054797,-0.0017353157745674
1770451888054,-0.1100311279296875,-0.2468719482421875,-0.95489501953125,-0.0240483451634645,-0.001620799768716,0.0071886708028614
1770451888064,-0.10858154296875,-0.2483062744140625,-0.9592437744140624,-0.0326434299349784,-0.0050695934332907,0.0128279142081737
1770451888073,-0.110687255859375,-0.246856689453125,-0.9571075439453124,-0.0379335321485996,-0.0034669029992073,0.0140303317457437
1770451888084,-0.1139678955078125,-0.2459869384765625,-0.96038818359375,-0.0433088578283786,-0.0075244954787194,0.0089175952598452
1770451888094,-0.1174468994140625,-0.2442169189453125,-0.958343505859375,-0.0541215576231479,-0.0029542446136474,0.0043793022632598
1770451888104,-0.118896484375,-0.2421722412109375,-0.9555206298828124,-0.0581352077424526,0.0046448190696537,0.0007504787645302
1770451888114,-0.1178131103515625,-0.240264892578125,-0.9564208984375,-0.0606907792389392,-0.0025236115325242,-0.0037337518297135
1770451888124,-0.1199951171875,-0.2413330078125,-0.959228515625,-0.0602162033319473,-0.0113458652049303,-0.0060704094357788
1770451888134,-0.119842529296875,-0.2425537109375,-0.9585113525390624,-0.059395682066679,-0.0176221374422311,-0.0005997438565827
1770451888144,-0.112457275390625,-0.2401885986328125,-0.9593505859375,-0.0482005514204502,-0.0225567072629928,0.0015986956423148
1770451888154,-0.1135406494140625,-0.237762451171875,-0.9679718017578124,-0.0313427411019802,-0.0332559570670127,0.0006580671179108
1770451888164,-0.119598388671875,-0.2369232177734375,-0.973846435546875,-0.0218525677919387,-0.029814088717103,-0.0034626419655978
1770451888174,-0.12060546875,-0.2372589111328125,-0.9660186767578124,-0.020886905491352,-0.0047236490063369,-0.0033774208277463
1770451888184,-0.1110076904296875,-0.2392730712890625,-0.9600067138671876,-0.0183233469724655,0.0045968824997544,0.0053558833897113
1770451888194,-0.104736328125,-0.242645263671875,-0.96710205078125,-0.0173651408404111,0.0082030687481164,0.0088171940296888
1770451888204,-0.108154296875,-0.2425384521484375,-0.968841552734375,-0.0114252269268035,0.0067053069360554,0.0104885939508676
1770451888214,-0.1138458251953125,-0.2390594482421875,-0.9712371826171876,-0.0089242523536086,-0.0011315771844238,0.0074805533513426
1770451888224,-0.1179962158203125,-0.237396240234375,-0.96893310546875,-0.007937285117805,0.0063535035587847,0.0054568168707191
1770451888234,-0.1163177490234375,-0.231353759765625,-0.9683837890625,-0.0022208099253475,0.0147424610331654,0.0005624596378766
1770451888244,-0.1163330078125,-0.2327423095703125,-0.9750823974609376,0.0100909834727644,0.011043862439692,0.002836799249053
1770451888254,-0.1176605224609375,-0.2397613525390625,-0.9757537841796876,0.0193808879703283,-0.0054842475801706,0.0061455103568732
1770451888265,-0.113128662109375,-0.2380828857421875,-0.97332763671875,0.0222789403051137,-0.0185198877006769,0.0017955031944438
1770451888274,-0.120880126953125,-0.2334442138671875,-0.967193603515625,0.0262483824044466,-0.0141573641449213,-0.0018208032706752
1770451888285,-0.1174163818359375,-0.236053466796875,-0.9648590087890624,0.0309283547103405,-0.0113597139716148,0.0029976540245115
1770451888295,-0.1123504638671875,-0.2404632568359375,-0.9659271240234376,0.0301837343722581,-0.0108499843627214,0.0006551376427523
1770451888305,-0.1146087646484375,-0.2368927001953125,-0.96221923828125,0.0257863234728574,0.0053966296836733,0.0009462211164645
1770451888315,-0.117584228515625,-0.235565185546875,-0.956207275390625,0.0190274864435195,0.0156644470989704,0.0007318366551771
1770451888325,-0.1134796142578125,-0.2423248291015625,-0.9567108154296876,0.0139027656987309,0.0155035918578505,0.0090691288933157
1770451888335,-0.1082611083984375,-0.2463226318359375,-0.9559173583984376,0.0061798654496669,0.0148433949798345,0.0130766537040472
1770451888345,-0.114044189453125,-0.245086669921875,-0.957855224609375,-0.0041753039695322,0.0060174125246703,0.0140212764963507
1770451888355,-0.1182098388671875,-0.2423858642578125,-0.9542999267578124,-0.0144018428400158,0.0110851414501667,0.010978614911437
1770451888365,-0.11785888671875,-0.242401123046875,-0.9539642333984376,-0.021632857620716,0.0074203656986355,0.0106997825205326
1770451888375,-0.118438720703125,-0.243255615234375,-0.9559783935546876,-0.0243708528578281,-0.0052514872513711,0.0094078825786709
1770451888385,-0.119720458984375,-0.2447967529296875,-0.954833984375,-0.0232651084661483,-0.0189944636076688,0.0048916940577328
1770451888395,-0.1187744140625,-0.2420196533203125,-0.9581146240234376,-0.0240430179983377,-0.0291067529469728,0.0072893383912742
1770451888405,-0.117889404296875,-0.238037109375,-0.9572601318359376,-0.0201553348451852,-0.0264992509037256,0.0043715788051486
1770451888415,-0.1187744140625,-0.237579345703125,-0.9629364013671876,-0.010253170505166,-0.0166362337768077,0.0059316586703062
1770451888425,-0.11761474609375,-0.2370147705078125,-0.96710205078125,0.0046277749352157,-0.0186618342995643,0.0032439965289086
1770451888435,-0.12115478515625,-0.2436370849609375,-0.9735565185546876,0.018532671034336,-0.0352900810539722,0.002731337910518
1770451888446,-0.1219940185546875,-0.2429046630859375,-0.9687957763671876,0.0237886868417263,-0.0386850759387016,0.0023236081469804
1770451888455,-0.119598388671875,-0.23724365234375,-0.9641265869140624,0.0197835583239793,-0.0156974699348211,0.0027582359034568
1770451888465,-0.1167144775390625,-0.2373046875,-0.9576416015625,0.0154228983446955,-0.0214400440454483,-0.0036916739773005
1770451888475,-0.1231536865234375,-0.2375946044921875,-0.9583282470703124,-0.0009321063989773,-0.0018263958627358,-0.0003965446958318
1770451888486,-0.11651611328125,-0.2392120361328125,-0.949188232421875,-0.0075516593642532,0.0053865094669163,0.0033673008438199
1770451888496,-0.11383056640625,-0.2445220947265625,-0.954254150390625,-0.0183004438877105,-0.0018895127577707,0.0071465927176177
1770451888505,-0.114959716796875,-0.243408203125,-0.954345703125,-0.0263114981353282,0.0043944818899035,0.0103626260533928
1770451888516,-0.116241455078125,-0.237945556640625,-0.9535980224609376,-0.029823675751686,0.009622267447412,0.0086267776787281
1770451888526,-0.1194610595703125,-0.2393035888671875,-0.9611053466796876,-0.0270188339054584,0.0134694697335362,0.0047239148989319
1770451888536,-0.1202545166015625,-0.2418365478515625,-0.9633026123046876,-0.02168745175004,0.0075181038118898,0.0031680963002145
1770451888546,-0.119964599609375,-0.244110107421875,-0.9677581787109376,-0.0172037538141012,-0.0029419939965009,-0.0004783037293236
1770451888556,-0.1208648681640625,-0.2408905029296875,-0.96771240234375,-0.0153001267462968,-0.0033798178192228,-0.0015888419002294
1770451888566,-0.11883544921875,-0.2375946044921875,-0.962127685546875,-0.0179113559424877,0.0008769789128564,0.0010375675046816
1770451888576,-0.1171417236328125,-0.240814208984375,-0.959014892578125,-0.0189944636076688,0.0024314660113304,0.0029262814205139
1770451888586,-0.1163482666015625,-0.2392730712890625,-0.9599456787109376,-0.0261879283934831,-0.0022564963437616,0.0035220305435359
1770451888596,-0.11688232421875,-0.24078369140625,-0.95654296875,-0.0285027474164962,0.0063423179090023,0.0027723505627363
1770451888606,-0.1174468994140625,-0.2397918701171875,-0.9561614990234376,-0.0303246155381202,0.0051867724396288,0.0022490394767373
1770451888616,-0.118133544921875,-0.24151611328125,-0.960723876953125,-0.0284337718039751,0.0067401942797005,-0.0016647420125082
1770451888626,-0.1198272705078125,-0.2393035888671875,-0.9593048095703124,-0.0311286244541406,-0.0013435647124424,-0.0028506475500762
1770451888636,-0.119781494140625,-0.23907470703125,-0.959991455078125,-0.0337521061301231,-0.0123698506504297,-0.00332708703354
1770451888646,-0.1171112060546875,-0.2387847900390625,-0.9567718505859376,-0.0416979119181633,-0.0215050261467695,0.0019025622168555
1770451888656,-0.1140289306640625,-0.2366790771484375,-0.95245361328125,-0.0466513931751251,-0.0198488049209117,0.0046464172191917
1770451888666,-0.1143035888671875,-0.2335052490234375,-0.953094482421875,-0.0549561940133571,-0.002460760762915,0.0068256817758083
1770451888676,-0.117218017578125,-0.2299957275390625,-0.9522705078125,-0.0562510229647159,0.0115216337144374,0.0089503517374396
1770451888686,-0.1155853271484375,-0.2320404052734375,-0.9586639404296876,-0.0487358458340168,0.0219702795147895,0.0067252805456519
1770451888697,-0.1168060302734375,-0.2336273193359375,-0.96832275390625,-0.0378259420394897,0.016842097043991,0.001373924780637
1770451888706,-0.12176513671875,-0.2322998046875,-0.9705047607421876,-0.0326839089393615,0.0179792661219835,0.0023350596893578
1770451888717,-0.1225738525390625,-0.2285614013671875,-0.9700927734375,-0.0257354564964771,0.0227639023214578,0.0005462143453769
1770451888727,-0.11834716796875,-0.23297119140625,-0.97314453125,-0.0105192195624113,0.0269048511981964,0.0001203748834086
1770451888737,-0.1154022216796875,-0.240325927734375,-0.9782867431640624,0.0037915424909442,0.0115690380334854,0.0072834794409573
1770451888747,-0.110565185546875,-0.246307373046875,-0.9794464111328124,0.005911152344197,-0.005723665934056,0.0185867343097925
1770451888757,-0.11297607421875,-0.241943359375,-0.975738525390625,0.001465537585318,-0.0034834146499633,0.0170317143201828
1770451888767,-0.1177825927734375,-0.237274169921875,-0.9677276611328124,0.0061375210061669,-0.0047928909771144,0.0242811050266027
1770451888777,-0.113525390625,-0.23858642578125,-0.96722412109375,0.0079825585708022,0.0036325517576187,0.0104622282087802
1770451888787,-0.1226654052734375,-0.2193145751953125,-0.961334228515625,0.0083500752225518,0.0188216250389814,-0.0043707797303795
1770451888797,-0.1286163330078125,-0.2239532470703125,-0.959228515625,0.0108638331294059,0.0008064051507972,-0.0100880544632673
1770451888807,-0.1230316162109375,-0.232025146484375,-0.9630126953125,0.0052224588580429,-0.0043204464018344,0.0005283711361698
1770451888817,-0.1162567138671875,-0.237945556640625,-0.9586944580078124,-0.0105770109221339,-0.0040703755803406,0.0166074726730585
1770451888827,-0.11376953125,-0.2448577880859375,-0.95062255859375,-0.0207798462361097,0.0122912870720028,0.0267607737332582
1770451888837,-0.107635498046875,-0.2428741455078125,-0.9535675048828124,-0.0252297222614288,0.02323554828763,0.0265269484370946
1770451888847,-0.109039306640625,-0.2368316650390625,-0.9557342529296876,-0.024411866441369,0.021117802709341,0.0135597512125968
1770451888859,-0.118011474609375,-0.230499267578125,-0.9633636474609376,-0.0217593573033809,0.0024676851462572,0.0043683829717338
1770451888867,-0.1228485107421875,-0.2302703857421875,-0.9650421142578124,-0.0202259086072444,-0.0017718010349199,-0.0005965480813756
1770451888877,-0.123504638671875,-0.225311279296875,-0.9618682861328124,-0.0196778308600187,0.0044006071984767,0.0001451422722311
1770451888887,-0.1214599609375,-0.229400634765625,-0.961151123046875,-0.0149352736771106,0.0030458574183285,0.0012093414552509
1770451888898,-0.12158203125,-0.2379608154296875,-0.962127685546875,-0.0140774697065353,0.004529770463705,0.0080821616575121
1770451888907,-0.1164703369140625,-0.2401580810546875,-0.960968017578125,-0.0260851308703422,0.0063758739270269,0.0150905363261699
1770451888917,-0.112945556640625,-0.238037109375,-0.9545135498046876,-0.0440042093396186,0.0143280727788805,0.0167307760566473
1770451888927,-0.1183929443359375,-0.23681640625,-0.948028564453125,-0.0548379495739936,0.0272617153823375,0.0150955962017178
1770451888938,-0.120758056640625,-0.23712158203125,-0.956573486328125,-0.0536150261759758,0.0259130895137786,0.0125890290364623
1770451888948,-0.1239471435546875,-0.2344207763671875,-0.9680328369140624,-0.0448966361582279,0.0122422855347394,0.010335462167859
1770451888958,-0.126373291015625,-0.233062744140625,-0.973480224609375,-0.0313206389546394,0.0031891353428363,0.0070011839270591
1770451888968,-0.1291656494140625,-0.230987548828125,-0.9774932861328124,-0.0113509250804781,-0.0049484195187687,-0.0027920580469071
1770451888978,-0.131317138671875,-0.231658935546875,-0.9771575927734376,0.0052650696597993,-0.0026559706311672,-0.0113495932891964
1770451888988,-0.127410888671875,-0.2325592041015625,-0.9764404296875,0.0140092922374606,-0.0088076060637831,-0.012449212372303
1770451888998,-0.123443603515625,-0.234344482421875,-0.96929931640625,0.0110020507127046,-0.0091788507997989,-0.0144670894369483
1770451889008,-0.1252288818359375,-0.2339019775390625,-0.96343994140625,0.0086041409522295,-0.0071774856187403,-0.0152125088497996
1770451889018,-0.12225341796875,-0.2347564697265625,-0.9622802734375,0.0007395598222501,-0.0022940470371395,-0.0158564615994691
1770451889028,-0.120574951171875,-0.2342529296875,-0.9607086181640624,-0.0011241203173995,0.0053574810735881,-0.0168452933430671
1770451889038,-0.1196441650390625,-0.23443603515625,-0.9611053466796876,-0.0012732573086395,0.0077271619811654,-0.0169875063002109
1770451889048,-0.1187286376953125,-0.2339324951171875,-0.968109130859375,0.0007882956997491,0.0024506407789885,-0.0169454272836446
