timestamp_ms,acc_x,acc_y,acc_z,gyro_x,gyro_y,gyro_z
1770451377544,-0.2259368896484375,-0.9651947021484376,-0.1224822998046875,-0.017886321991682,0.0133685357868671,0.0080653829500079
1770451377553,-0.2258148193359375,-0.967132568359375,-0.1234893798828125,-0.0129091404378414,0.0162423532456159,0.0149413989856839
1770451377561,-0.228424072265625,-0.9654541015625,-0.132080078125,-0.0083434171974658,0.0110435960814356,0.0169539488852024
1770451377571,-0.231842041015625,-0.9635162353515624,-0.1290740966796875,-0.0055843824520707,0.0002532666258048,0.0166948232799768
1770451377581,-0.2379150390625,-0.961334228515625,-0.1298675537109375,-0.004113252274692,-0.0049398974515497,0.006662696134299
1770451377591,-0.2457733154296875,-0.96502685546875,-0.1305999755859375,-0.0115216337144374,0.0068930597044527,0.0043183155357837
1770451377602,-0.23736572265625,-0.9638824462890624,-0.12188720703125,-0.0142162200063467,0.0140660181641578,0.0067361998371779
1770451377612,-0.2357177734375,-0.9545745849609376,-0.12164306640625,-0.0169108062982559,0.0180181488394737,0.00332921766676
1770451377622,-0.2439422607421875,-0.9587249755859376,-0.1304779052734375,-0.0087194554507732,0.0059100869111716,-0.001374990097247
1770451377632,-0.2411346435546875,-0.9560699462890624,-0.139190673828125,-0.0032487902790308,-0.0265687592327594,-0.0023278691805899
1770451377642,-0.2379608154296875,-0.9531707763671876,-0.1341094970703125,0.0047622644342482,-0.0225596372038126,-0.0133882435038685
1770451377652,-0.2413330078125,-0.9593658447265624,-0.1339569091796875,0.0112457303330302,-0.0137080885469913,-0.0184951201081275
1770451377662,-0.2376556396484375,-0.9600372314453124,-0.1233673095703125,0.0114401411265134,0.0001384843781124,-0.0162791050970554
1770451377672,-0.230438232421875,-0.9638671875,-0.119476318359375,0.0072933328337967,0.0095141427591443,-0.0119538651779294
1770451377682,-0.2271881103515625,-0.9700164794921876,-0.117156982421875,-0.0037113812286406,0.0092438319697976,0.0026988473255187
1770451377692,-0.2232513427734375,-0.96661376953125,-0.1154022216796875,-0.0139408493414521,0.0180604923516511,0.0095053547993302
1770451377702,-0.2275543212890625,-0.965667724609375,-0.118988037109375,-0.0245591383427381,0.0260385256260633,0.0163688529282808
1770451377712,-0.232177734375,-0.9626007080078124,-0.11627197265625,-0.028863338753581,0.0353894159197807,0.0201710481196641
1770451377722,-0.2319488525390625,-0.9641571044921876,-0.128265380859375,-0.032822661101818,0.0233687050640583,0.0214051567018032
1770451377733,-0.2332305908203125,-0.9647064208984376,-0.1251068115234375,-0.0387790873646736,0.0147826746106147,0.0237016007304191
1770451377742,-0.237335205078125,-0.959930419921875,-0.123321533203125,-0.0361667908728122,0.0196272302418947,0.0196741018444299
1770451377752,-0.23907470703125,-0.9604644775390624,-0.1319427490234375,-0.028269188478589,0.0103975133970379,0.0120894201099872
1770451377762,-0.242706298828125,-0.9621429443359376,-0.135101318359375,-0.0247210580855608,-0.0018362496048212,0.0039273635484278
1770451377772,-0.2443389892578125,-0.958221435546875,-0.128997802734375,-0.0219713449478149,0.0045446841977536,-0.0046512107364833
1770451377782,-0.2428436279296875,-0.9573211669921876,-0.128662109375,-0.0246922969818115,0.0124966166913509,-0.0076789585873484
1770451377793,-0.2362823486328125,-0.959442138671875,-0.125274658203125,-0.0289256572723388,0.0210019536316394,-0.0055047539062798
1770451377803,-0.2342376708984375,-0.96209716796875,-0.1262969970703125,-0.0280715823173522,0.0310788229107856,-0.002412823960185
1770451377813,-0.2319793701171875,-0.9639434814453124,-0.1278839111328125,-0.0307693649083375,0.0374240726232528,0.0071271518245339
1770451377823,-0.228607177734375,-0.961395263671875,-0.127593994140625,-0.0211766585707664,0.0443480238318443,0.0083894897252321
1770451377833,-0.2354278564453125,-0.96319580078125,-0.143096923828125,-0.0136945070698857,0.0244731195271015,0.0117285614833235
1770451377843,-0.232452392578125,-0.96466064453125,-0.139129638671875,-0.0153688360005617,0.0015169365797191,0.014420217834413
1770451377853,-0.2330780029296875,-0.96002197265625,-0.131256103515625,-0.0070864050649106,0.0077069220133125,0.0130915669724345
1770451377863,-0.2373199462890625,-0.96014404296875,-0.137237548828125,-0.0021675468888133,0.0048634647391736,0.0084129255264997
1770451377873,-0.240386962890625,-0.95947265625,-0.1310577392578125,-0.0059516322799026,0.0098214717581868,0.0057327207177877
1770451377883,-0.2401885986328125,-0.9576568603515624,-0.1272735595703125,-0.009198292158544,0.018098309636116,0.0020487697329372
1770451377893,-0.2408447265625,-0.95751953125,-0.12701416015625,-0.0078163780272006,0.0175102837383747,-0.0021124193444848
1770451377903,-0.240386962890625,-0.95892333984375,-0.1340789794921875,-0.0022149509750306,0.0061247376725077,-0.0050059440545737
1770451377913,-0.23968505859375,-0.9608001708984376,-0.1416473388671875,0.0014221280580386,-0.0051841093227267,-0.0043827639892697
1770451377923,-0.237152099609375,-0.960845947265625,-0.137939453125,0.0015970977256074,-0.0089588742703199,-0.0094608794897794
1770451377933,-0.2403717041015625,-0.962799072265625,-0.134735107421875,0.0012040151050314,-0.0049018142744898,-0.0110542485490441
1770451377943,-0.2386322021484375,-0.962615966796875,-0.1285552978515625,-0.0012000204296782,0.0042765042744576,-0.0078179752454161
1770451377953,-0.2347564697265625,-0.960174560546875,-0.1261749267578125,-0.0028525118250399,0.0190788861364126,-0.0062712118960917
1770451377963,-0.2303466796875,-0.96258544921875,-0.1292877197265625,-0.0059420447796583,0.0225199554115533,-0.0006021407316438
1770451377973,-0.2304534912109375,-0.9635162353515624,-0.1266937255859375,-0.0022969765122979,0.0271999295800924,0.0050839744508266
1770451377983,-0.2301025390625,-0.9630889892578124,-0.13189697265625,-0.0041068606078624,0.0162996109575033,0.0079452749341726
1770451377993,-0.234405517578125,-0.963592529296875,-0.12811279296875,-0.0115461349487304,0.0114270914345979,0.0121629228815436
1770451378004,-0.2329864501953125,-0.96075439453125,-0.12567138671875,-0.0153342150151729,0.0184277426451444,0.011634818278253
1770451378014,-0.2344207763671875,-0.9616851806640624,-0.1264495849609375,-0.011713114567101,0.0181760750710964,0.009361277334392
1770451378024,-0.238861083984375,-0.962738037109375,-0.1363983154296875,-0.0047825048677623,0.0016247945604845,0.0075031900778412
1770451378034,-0.2414703369140625,-0.9606781005859376,-0.1392669677734375,0.0020583572331815,-0.0112747587263584,0.0015342470724135
1770451378044,-0.2418670654296875,-0.9600372314453124,-0.1427154541015625,0.0061242054216563,-0.008747418411076,-0.0031894017010927
1770451378054,-0.242095947265625,-0.9580230712890624,-0.1310577392578125,1.4114753867033867e-05,0.0033886062446981,-0.0048738508485257
1770451378066,-0.2388458251953125,-0.9586029052734376,-0.123779296875,0.0114755611866712,0.0150101082399487,-0.0110792824998497
1770451378074,-0.2405242919921875,-0.9620513916015624,-0.141204833984375,0.0178943127393722,0.0046623959206044,-0.0116526614874601
1770451378084,-0.237701416015625,-0.9631195068359376,-0.138916015625,0.0203039404004812,-0.0067681577056646,-0.011889150366187
1770451378094,-0.23724365234375,-0.9592742919921876,-0.1315460205078125,0.0161113254725933,-0.0297299325466156,-0.0114433364942669
1770451378104,-0.234344482421875,-0.95916748046875,-0.128082275390625,0.0110784834250807,-0.0251266583800315,-0.0092731267213821
1770451378114,-0.232086181640625,-0.9615936279296876,-0.1255340576171875,0.006811833474785,0.0007970841252245,-0.0046592000871896
1770451378124,-0.2289581298828125,-0.9636077880859376,-0.119781494140625,0.0074299531988799,0.0076065207831561,0.0018269284628331
1770451378134,-0.2294158935546875,-0.9647369384765624,-0.1285552978515625,0.0070661650970578,0.0022615564521402,0.0094262585043907
1770451378144,-0.231475830078125,-0.9641571044921876,-0.1292572021484375,-0.0006604639347642,0.000163784410688,0.0099045624956488
1770451378154,-0.2351531982421875,-0.9587554931640624,-0.1199188232421875,-0.0061369882896542,0.0094267912209033,0.008159658871591
1770451378164,-0.2397613525390625,-0.95849609375,-0.128204345703125,-0.0017395768081769,0.0198903512209653,0.0059207398444414
1770451378174,-0.24072265625,-0.9618072509765624,-0.1295928955078125,-0.001120125525631,0.015876967459917,0.0011675298446789
1770451378186,-0.2414093017578125,-0.9622344970703124,-0.129791259765625,0.0011883024126291,0.0138199413195252,0.0013323795283213
1770451378194,-0.235260009765625,-0.965728759765625,-0.132171630859375,0.0016727314796298,0.0052131377160549,0.0036884781438857
1770451378204,-0.2367401123046875,-0.9662322998046876,-0.1315765380859375,0.0020029633305966,-0.0050477553158998,0.0023606258910149
1770451378214,-0.2409515380859375,-0.9626007080078124,-0.129638671875,-0.0008042746339924,-0.0173089485615491,0.003784618107602
1770451378225,-0.2389068603515625,-0.9643096923828124,-0.129364013671875,-0.0055777244269847,-0.020993698388338,0.0066270101815462
1770451378235,-0.234588623046875,-0.9617919921875,-0.1252899169921875,-0.0056179384700953,-0.0041081923991441,0.0012058793799951
1770451378245,-0.239776611328125,-0.9503631591796876,-0.1240234375,-0.0013523531379178,0.0201697163283824,-0.0143568348139524
1770451378255,-0.240020751953125,-0.9517669677734376,-0.1277313232421875,0.0013611416798084,0.022677082568407,-0.0173249281942844
1770451378266,-0.2349700927734375,-0.9503326416015624,-0.118560791015625,-0.0022636868525296,0.028989840298891,-0.0173901747912168
1770451378275,-0.238555908203125,-0.975006103515625,-0.131256103515625,-0.0035281558521091,0.001071389648132,-0.0100323939695954
1770451378285,-0.231201171875,-0.98675537109375,-0.1429290771484375,0.0014911039033904,-0.018900454044342,0.0080017335712909
1770451378295,-0.2241973876953125,-0.96771240234375,-0.1384735107421875,0.0074587152339518,-0.0098065575584769,0.0053146043792366
1770451378305,-0.237823486328125,-0.9576568603515624,-0.1285400390625,0.001449025934562,-0.0146055743098258,4.873584839515388e-05
1770451378315,-0.2364501953125,-0.9505615234375,-0.1124267578125,-0.0039457394741475,-0.0023912524338811,-0.009329586289823
1770451378325,-0.2345733642578125,-0.9501953125,-0.117767333984375,-0.0020881847012788,0.0192144401371479,-0.0215851869434118
1770451378335,-0.2357025146484375,-0.9556427001953124,-0.12152099609375,-0.0029150960035622,0.0231151729822158,-0.0214704051613807
1770451378345,-0.237152099609375,-0.966552734375,-0.130706787109375,-0.008422247134149,-0.0038831550627946,-0.008527441881597
1770451378355,-0.23065185546875,-0.9714813232421876,-0.1321868896484375,-0.0105919241905212,-0.0145112983882427,0.0031606396660208
1770451378365,-0.229736328125,-0.9673919677734376,-0.138092041015625,-0.0170120056718587,-0.0104345316067337,0.0062198126688599
1770451378375,-0.2366180419921875,-0.9607696533203124,-0.1321258544921875,-0.0243000127375125,0.00452950457111,0.0074214311316609
1770451378386,-0.23773193359375,-0.9570770263671876,-0.127777099609375,-0.0216821264475584,0.0222065020352602,0.0057082194834947
1770451378395,-0.2386016845703125,-0.96124267578125,-0.134674072265625,-0.0168109387159347,0.0077442061156034,0.003967311233282
1770451378405,-0.24090576171875,-0.9598388671875,-0.1346435546875,-0.0036064526066184,-0.0091266529634594,-0.0004396878939587
1770451378416,-0.2412872314453125,-0.9606781005859376,-0.1409454345703125,0.0074965320527553,-0.0127038108184933,-0.001097488682717
1770451378426,-0.2385711669921875,-0.963134765625,-0.1357879638671875,0.0132135404273867,-0.0122606605291366,-0.0006042712484486
1770451378436,-0.2306060791015625,-0.9614105224609376,-0.121124267578125,0.0105045726522803,-0.0003262372338213,0.0013550163712352
1770451378446,-0.2306060791015625,-0.9603118896484376,-0.121826171875,0.013504090718925,0.0140002379193902,0.0020977719686925
1770451378456,-0.2340087890625,-0.9636688232421876,-0.1329498291015625,0.0130558805540204,0.0090369042009115,0.0007720504072494
1770451378466,-0.234710693359375,-0.961212158203125,-0.1322479248046875,0.0090361051261425,0.0007866977830417,0.0001107874995796
1770451378476,-0.2383880615234375,-0.959991455078125,-0.128143310546875,0.0046512107364833,0.0014998923288658,-0.0049556102603673
1770451378486,-0.24078369140625,-0.958831787109375,-0.1258697509765625,-0.0022668826859444,0.0006655239267274,-0.0049702576361596
1770451378496,-0.2368316650390625,-0.9608612060546876,-0.1204833984375,-0.0123786386102437,0.0019670107867568,-0.0010231864871457
1770451378506,-0.22857666015625,-0.963958740234375,-0.117431640625,-0.0144119625911116,0.0060485713183879,0.0036770266015082
1770451378516,-0.2313385009765625,-0.964752197265625,-0.1268157958984375,-0.0092933671548962,-0.0011789813870564,-0.0013086773687973
1770451378526,-0.2399444580078125,-0.96356201171875,-0.1347503662109375,-0.0114609133452177,-0.0099666137248277,-0.0008961536805145
1770451378536,-0.236236572265625,-0.9614105224609376,-0.1268768310546875,-0.0104566356167197,-2.8762138754245825e-05,-0.0003398193512111
1770451378546,-0.2359771728515625,-0.9603118896484376,-0.12725830078125,-0.0072853434830904,0.0033332123421132,-0.0026410568971186
1770451378556,-0.240509033203125,-0.96002197265625,-0.1329345703125,-0.0055963667109608,-0.004209924954921,-0.0047476170584559
1770451378566,-0.2374420166015625,-0.9648895263671876,-0.132110595703125,-0.0055212653242051,-0.0080784326419234,-0.0041271005757153
1770451378576,-0.23779296875,-0.97015380859375,-0.13568115234375,-0.0141291348263621,-0.0203372295945882,0.0002980077115353
1770451378586,-0.2327117919921875,-0.9554901123046876,-0.1250762939453125,-0.0192554537206888,-0.0037412086967378,0.003057841444388
1770451378596,-0.2353973388671875,-0.9583892822265624,-0.1218719482421875,-0.020560136064887,0.0109634352847933,0.0033358754590153
1770451378606,-0.23382568359375,-0.9636077880859376,-0.12200927734375,-0.0223625637590885,0.0056107477284967,0.0090920319780707
1770451378616,-0.2282257080078125,-0.9585723876953124,-0.1265869140625,-0.017267670482397,0.0063447151333093,0.0080768344923853
1770451378626,-0.2353668212890625,-0.956817626953125,-0.1267242431640625,-0.0208765193819999,0.008478439413011,0.007106112781912
1770451378637,-0.2352752685546875,-0.957916259765625,-0.1210174560546875,-0.0153230298310518,0.0127147296443581,0.0032242890447378
1770451378647,-0.2384490966796875,-0.9625701904296876,-0.1360321044921875,-0.0046075349673628,0.0009230516152456,0.0012359730899333
1770451378657,-0.238861083984375,-0.96356201171875,-0.137786865234375,0.0016130766598507,0.0019971043802797,0.0003012035158462
1770451378667,-0.2368927001953125,-0.96209716796875,-0.1386871337890625,-0.0010799118317663,0.0040048616938292,-0.0002503371506463
1770451378677,-0.2366180419921875,-0.9637603759765624,-0.127960205078125,-0.0191681012511253,0.0061929146759212,0.0050839744508266
1770451378687,-0.2322540283203125,-0.962738037109375,-0.1141815185546875,-0.0285229869186878,0.0211364440619945,0.0088872350752353
1770451378697,-0.2322845458984375,-0.96514892578125,-0.123443603515625,-0.0298854615539312,0.0286018177866935,0.0100925816223025
1770451378707,-0.23468017578125,-0.96270751953125,-0.131683349609375,-0.0257977750152349,0.0085207838565111,0.0116076534613966
1770451378717,-0.23797607421875,-0.9617767333984376,-0.1387786865234375,-0.0173853822052478,-0.0079242354258894,0.0081383539363741
1770451378727,-0.240966796875,-0.9617919921875,-0.1421966552734375,-0.0131168672814965,-0.0118015315383672,0.005991845857352
1770451378737,-0.2393798828125,-0.9588165283203124,-0.1330718994140625,-0.0095655415207147,-0.0013411679537966,-0.0003725762362591
1770451378747,-0.24017333984375,-0.9591522216796876,-0.1286163330078125,-0.0058158109895884,0.0148037131875753,-0.0026101642288267
1770451378757,-0.2372894287109375,-0.9614105224609376,-0.129730224609375,0.0029569077305495,0.006310626398772,-0.0013712616637349
1770451378767,-0.236663818359375,-0.96453857421875,-0.1378631591796875,0.0077372817322611,-0.0113309510052204,0.0017933726776391
1770451378777,-0.2357330322265625,-0.96209716796875,-0.13665771484375,0.0076547237113118,-0.0183592997491359,0.0027872642967849
1770451378787,-0.2357940673828125,-0.9578857421875,-0.131591796875,0.0060238041914999,-0.0191127080470323,0.000333427771693
1770451378797,-0.23809814453125,-0.9592437744140624,-0.13177490234375,0.0085777752101421,-0.0110033825039863,-0.0005174521938897
1770451378807,-0.23712158203125,-0.962493896484375,-0.132598876953125,0.0017140104901045,-0.0043026031926274,0.0048528122715651
1770451378817,-0.234893798828125,-0.962554931640625,-0.1202545166015625,0.0037236318457871,0.0149674974381923,-0.0006210491410456
1770451378827,-0.24127197265625,-0.958892822265625,-0.12896728515625,0.0080635193735361,0.0192732959985733,-0.0047963531687855
1770451378837,-0.2389984130859375,-0.9601287841796876,-0.132110595703125,0.0119333583861589,0.0125642614439129,-0.0035822179634124
1770451378847,-0.2371063232421875,-0.9620361328125,-0.13250732421875,0.0171939004212617,0.0043750409968197,-0.0047444212250411
1770451378858,-0.2391204833984375,-0.9618682861328124,-0.1361846923828125,0.0162213146686553,-0.0067412597127258,-0.0033374733757227
1770451378868,-0.2348480224609375,-0.9616546630859376,-0.127349853515625,-0.0024575649295002,-0.0112185664474964,0.0036751623265445
1770451378878,-0.228973388671875,-0.9603271484375,-0.1083984375,-0.0195534620434045,0.0017630126094445,0.0078680431470274
1770451378888,-0.2300567626953125,-0.963531494140625,-0.112060546875,-0.0308726951479911,0.0221979804337024,0.0134494956582784
1770451378899,-0.23223876953125,-0.965362548828125,-0.112457275390625,-0.0446622781455516,0.0249199979007244,0.0176543612033128
1770451378908,-0.2336883544921875,-0.96136474609375,-0.11529541015625,-0.0484751239418983,0.0308649707585573,0.0192487947642803
1770451378918,-0.234771728515625,-0.9605865478515624,-0.1301727294921875,-0.0534035712480545,0.0245689917355775,0.0181915201246738
1770451378928,-0.236480712890625,-0.9598846435546876,-0.1234130859375,-0.0626383498311042,0.0205577388405799,0.0197348222136497
1770451378938,-0.23712158203125,-0.9580535888671876,-0.122314453125,-0.0601901039481163,0.0298013053834438,0.0149296810850501
1770451378948,-0.240997314453125,-0.9577789306640624,-0.1334686279296875,-0.0557498149573802,0.0288939662277698,0.0102723445743322
1770451378958,-0.243621826171875,-0.96051025390625,-0.1370849609375,-0.048289768397808,0.0222983807325363,0.0063250074163079
1770451378968,-0.2421112060546875,-0.9604034423828124,-0.1434326171875,-0.0374280661344528,0.014363226480782,0.0011811119038611
1770451378978,-0.2440338134765625,-0.96026611328125,-0.1453399658203125,-0.0300556365400552,0.0025278725661337,-0.0040663806721568
1770451378988,-0.2452392578125,-0.9593505859375,-0.1405181884765625,-0.0161954816430807,0.0008886968716979,-0.0114071173593401
1770451378998,-0.244598388671875,-0.9598388671875,-0.14898681640625,-0.0133006256073713,-0.0146071724593639,-0.0133797209709882
1770451379008,-0.240997314453125,-0.9591217041015624,-0.1405792236328125,-0.0058981026522815,-0.0115993982180953,-0.0121498731896281
1770451379018,-0.2377471923828125,-0.9618682861328124,-0.1421356201171875,-0.0036748959682881,-0.00952426251024,-0.0120702451094985
1770451379028,-0.238494873046875,-0.9611358642578124,-0.1370849609375,-0.0013363742036744,0.0021608888637274,-0.0100797982886433
1770451379039,-0.2322845458984375,-0.95989990234375,-0.136016845703125,-0.0045681199990212,0.0073239593766629,-0.0012245214311406
1770451379048,-0.2255401611328125,-0.964569091796875,-0.1296844482421875,-0.0046131275594234,0.0154135776683688,0.0071492558345198
1770451379059,-0.2253570556640625,-0.96575927734375,-0.1322784423828125,0.0016389093361794,0.0196155123412609,0.0151435332372784
1770451379069,-0.2309112548828125,-0.963592529296875,-0.137176513671875,0.0061191450804471,0.0139365885406732,0.0164870973676443
1770451379078,-0.236175537109375,-0.9615936279296876,-0.1368255615234375,0.0104124275967478,0.012648151256144,0.0142021058127284
1770451379089,-0.2378692626953125,-0.958282470703125,-0.1353607177734375,0.0138303283601999,0.007717574480921,0.0099652828648686
1770451379099,-0.2391357421875,-0.959228515625,-0.135009765625,0.0129466913640499,0.0031483890488743,0.008478439413011
1770451379109,-0.2398681640625,-0.9587249755859376,-0.1321563720703125,0.0101370560005307,0.0038155107758939,0.0072597772814333
1770451379119,-0.240631103515625,-0.9599151611328124,-0.1278839111328125,0.0076403426937758,0.0059385830536484,0.0048839710652828
1770451379129,-0.2425079345703125,-0.960479736328125,-0.1296539306640625,0.0020008329302072,0.0088699245825409,-0.001619201968424
1770451379139,-0.2455291748046875,-0.9562835693359376,-0.12408447265625,-0.0104574346914887,0.0060240705497562,-0.0077535272575914
1770451379149,-0.2466278076171875,-0.9554443359375,-0.124176025390625,-0.0158663149923086,-0.0059295282699167,-0.011248392984271
1770451379159,-0.2412567138671875,-0.9599151611328124,-0.1315155029296875,-0.021035511046648,-0.0159683134406805,-0.0104092312976717
1770451379169,-0.240692138671875,-0.9625396728515624,-0.132781982421875,-0.0281304381787776,-0.0063210129737854,-0.0090954937040805
1770451379179,-0.2347259521484375,-0.9629974365234376,-0.128265380859375,-0.0306900013238191,0.0101399859413504,-0.002184324664995
1770451379189,-0.2332611083984375,-0.9649658203125,-0.12982177734375,-0.0296231396496295,0.0201137904077768,0.0010452907299622
1770451379200,-0.23370361328125,-0.9688873291015624,-0.1370391845703125,-0.0229692310094833,0.0138388499617576,0.0115184383466839
1770451379209,-0.2298126220703125,-0.9667510986328124,-0.1377716064453125,-0.0240707155317068,-0.0012996225850656,0.0118747688829898
1770451379220,-0.2361907958984375,-0.9493408203125,-0.12750244140625,-0.0277594588696956,0.0122297685593366,0.000451672123745
1770451379229,-0.2408447265625,-0.949798583984375,-0.1281585693359375,-0.0172721967101097,0.0264598373323678,-0.0092962961643934
1770451379239,-0.2403564453125,-0.945770263671875,-0.1339111328125,-0.0221039708703756,0.0157017316669225,-0.0102281365543603
1770451379249,-0.244171142578125,-0.967620849609375,-0.1294708251953125,-0.0310021247714757,-0.0049947584047913,-0.0056602824479341
1770451379259,-0.2375640869140625,-0.984527587890625,-0.1434173583984375,-0.0274840891361236,-0.0208410993218421,0.0102244075387716
1770451379269,-0.226837158203125,-0.9641571044921876,-0.1429290771484375,-0.0253607500344514,-0.0085215829312801,0.0074683027341961
1770451379279,-0.2382354736328125,-0.957183837890625,-0.140289306640625,-0.0118864867836236,0.0057103498838841,-0.000557665945962
1770451379290,-0.239105224609375,-0.950927734375,-0.1425018310546875,0.0025768745690584,0.0066589680500328,-0.0071561802178621
1770451379300,-0.236053466796875,-0.9529876708984376,-0.1426544189453125,0.0070432620123028,0.0055974321439862,-0.0218624211847782
1770451379310,-0.2400970458984375,-0.9528961181640624,-0.135009765625,0.0061556305736303,0.0124572021886706,-0.0243828371167182
1770451379320,-0.2395477294921875,-0.9597015380859376,-0.1345672607421875,0.0075346152298152,0.00808722153306,-0.0146891977638006
1770451379330,-0.2342071533203125,-0.967926025390625,-0.1420135498046875,0.0083516733720898,-0.0062240739353001,-0.0036882117856293
1770451379340,-0.2316436767578125,-0.96923828125,-0.1462249755859375,0.0041718417778611,-0.0057566887699067,0.0056751961819827
1770451379350,-0.23236083984375,-0.9644012451171876,-0.1360626220703125,-0.0060373861342668,0.0029720878228545,0.0115418741479516
1770451379360,-0.2326202392578125,-0.960693359375,-0.131927490234375,-0.0066504459828138,0.0145152928307652,0.0163909569382667
1770451379370,-0.2374420166015625,-0.963043212890625,-0.136688232421875,-0.0100228069350123,0.0149712264537811,0.0150138372555375
1770451379380,-0.2423248291015625,-0.9595184326171876,-0.128509521484375,-0.006116481963545,0.0193776916712522,0.0110635701566934
1770451379390,-0.2451324462890625,-0.957275390625,-0.1346282958984375,0.00341736827977,0.0072166337631642,0.0099695436656475
1770451379400,-0.2412109375,-0.9633636474609376,-0.1390228271484375,0.00824860855937,-0.0086046736687421,0.0048219193704426
1770451379410,-0.241302490234375,-0.957763671875,-0.1350250244140625,0.0164796411991119,-0.0087077375501394,-0.0002825613773893
1770451379420,-0.238067626953125,-0.95672607421875,-0.1363067626953125,0.0132636073976755,-0.0135685391724109,-0.0001898833870654
1770451379430,-0.2373504638671875,-0.95635986328125,-0.1299896240234375,0.007186806295067,-0.010080331005156,-0.0042719766497612
1770451379440,-0.2409210205078125,-0.955657958984375,-0.128387451171875,-0.0059681441634893,0.0019805929623544,-0.0083681847900152
1770451379450,-0.240478515625,-0.9573211669921876,-0.120361328125,-0.017797639593482,0.0110281500965356,-0.0084669878706336
1770451379461,-0.2391510009765625,-0.9587860107421876,-0.1240234375,-0.0282987486571073,0.0105527760460972,-0.0074243606068193
1770451379470,-0.2356719970703125,-0.960906982421875,-0.12872314453125,-0.0305134337395429,0.0175062883645296,-0.0033260218333452
1770451379481,-0.231048583984375,-0.9657135009765624,-0.1351470947265625,-0.0280822347849607,0.0176277291029691,-0.0013598100049421
1770451379490,-0.2333526611328125,-0.963287353515625,-0.139068603515625,-0.0329733975231647,0.0064379256218671,0.0044538704678416
1770451379500,-0.2318878173828125,-0.9614410400390624,-0.131134033203125,-0.0377361923456192,0.0079838903620839,0.0064539043232798
1770451379510,-0.2332916259765625,-0.9615325927734376,-0.13079833984375,-0.0367761254310607,0.0170599427074193,0.0130015527829527
1770451379521,-0.23406982421875,-0.9608154296875,-0.1375274658203125,-0.0292385797947645,0.0193294901400804,0.0116931414231657
1770451379531,-0.2384490966796875,-0.9592437744140624,-0.1421356201171875,-0.0268332120031118,0.0142718805000185,0.0099453087896108
1770451379541,-0.2429962158203125,-0.9621429443359376,-0.14215087890625,-0.0276452098041772,0.0019350528018549,0.0082683162763714
1770451379551,-0.24005126953125,-0.967193603515625,-0.143646240234375,-0.0285363029688596,-0.0067148944362998,0.012678244151175
1770451379561,-0.2344207763671875,-0.955291748046875,-0.1432342529296875,-0.0238661840558052,0.0090150665491819,0.010758638381958
1770451379571,-0.24261474609375,-0.9530029296875,-0.1421051025390625,-0.0175062883645296,0.0137048931792378,0.0074826837517321
1770451379581,-0.243927001953125,-0.96221923828125,-0.1450958251953125,-0.0079577919095754,0.0098877847194671,0.0071162325330078
1770451379591,-0.235992431640625,-0.958221435546875,-0.14337158203125,0.0042943470180034,0.0106784766539931,-0.0011659319279715
1770451379601,-0.24114990234375,-0.95477294921875,-0.1468658447265625,0.0141328629106283,0.0056855827569961,-0.0116358837112784
1770451379611,-0.244842529296875,-0.9571380615234376,-0.1399078369140625,0.0132974293082952,-0.0066089006140828,-0.0100837927311658
1770451379621,-0.234466552734375,-0.9591064453125,-0.1352081298828125,0.0160719100385904,-0.0045707831159234,-0.007146859075874
1770451379631,-0.2363128662109375,-0.96142578125,-0.139739990234375,0.0106316050514578,-0.0053601441904902,-0.0054962318390607
1770451379641,-0.2373504638671875,-0.9629364013671876,-0.1305389404296875,0.0019520970527082,-0.0046690539456903,0.002543052425608
1770451379651,-0.2311248779296875,-0.9633941650390624,-0.128631591796875,-0.0087080039083957,0.0049212551675736,0.0084491446614265
1770451379661,-0.2327880859375,-0.96435546875,-0.12969970703125,-0.018518291413784,0.0108691593632102,0.0094422372058033
1770451379671,-0.238250732421875,-0.9614410400390624,-0.1301422119140625,-0.0161970797926187,0.0064096958376467,0.0075159729458391
1770451379682,-0.2433319091796875,-0.961212158203125,-0.1434326171875,-0.0166721865534782,-0.0121938157826662,0.0057415091432631
1770451379691,-0.2416229248046875,-0.9577484130859376,-0.1406402587890625,-0.0129813123494386,-0.0026972496416419,0.0025869945529848
1770451379701,-0.240234375,-0.9568328857421876,-0.14154052734375,-0.0045643919147551,-0.0031345405150204,-0.0025134913157671
1770451379711,-0.24298095703125,-0.961639404296875,-0.1455230712890625,-0.0029092370532453,-0.0142958490177989,-0.0036863475106656
1770451379722,-0.237640380859375,-0.959014892578125,-0.136444091796875,-0.0103429183363914,-0.0079055940732359,0.0002825613773893
1770451379732,-0.2319488525390625,-0.9591217041015624,-0.127197265625,-0.0161262396723032,0.0163986813277006,0.0011097391834482
1770451379742,-0.2359466552734375,-0.9606475830078124,-0.1276702880859375,-0.0150149017572402,0.025831064209342,0.0024626250378787
1770451379752,-0.2378692626953125,-0.9611968994140624,-0.134979248046875,-0.0201529394835233,0.0174237322062253,0.0079500684514641
1770451379762,-0.2331695556640625,-0.96185302734375,-0.134979248046875,-0.0214293915778398,0.0163406245410442,0.0099647501483559
1770451379772,-0.2344818115234375,-0.96002197265625,-0.138092041015625,-0.0230675023049116,0.0160668510943651,0.0074227624572813
1770451379782,-0.241363525390625,-0.9578857421875,-0.1395721435546875,-0.023659523576498,0.0164668578654527,0.0081988079473376
1770451379792,-0.2386016845703125,-0.9576263427734376,-0.136627197265625,-0.0189960617572069,0.0123426858335733,0.0090472912415862
1770451379802,-0.2372894287109375,-0.9565887451171876,-0.146942138671875,-0.0087460875511169,-0.0006428870838135,0.0076240976341068
1770451379812,-0.24261474609375,-0.958404541015625,-0.1497344970703125,-0.0075125112198293,-0.0032772859558463,0.0025792715605348
1770451379822,-0.244171142578125,-0.9552764892578124,-0.1417694091796875,-0.0034810178913176,0.0004079962673131,0.0020751350093632
1770451379832,-0.23931884765625,-0.960784912109375,-0.14178466796875,0.0010916297324001,0.0052698631770908,0.0001374191051581
1770451379842,-0.2406005859375,-0.9618072509765624,-0.144622802734375,0.0073726950213313,0.0016620787791907,-0.0010831075487658
1770451379852,-0.2407684326171875,-0.9611968994140624,-0.146514892578125,0.014002101495862,-0.0115559883415699,-0.0028852687682956
1770451379862,-0.2420806884765625,-0.959136962890625,-0.1486663818359375,0.0201896894723176,-0.0179739408195018,-0.0067548416554927
1770451379872,-0.2420806884765625,-0.9574127197265624,-0.146087646484375,0.022029934450984,-0.0139642851427197,-0.0103421192616224
1770451379882,-0.242156982421875,-0.957244873046875,-0.1386260986328125,0.0197944771498441,-0.0106593025848269,-0.0117322895675897
1770451379892,-0.2397003173828125,-0.95733642578125,-0.1352996826171875,0.0206501502543687,-0.0056701363064348,-0.0081791002303361
1770451379902,-0.23406982421875,-0.960723876953125,-0.1400146484375,0.0180511716753244,-0.0084435520693659,-0.0042778356000781
1770451379912,-0.2342071533203125,-0.9626617431640624,-0.13433837890625,0.0214477684348821,-0.0070781493559479,-0.0014482269762083
1770451379922,-0.235687255859375,-0.963104248046875,-0.140350341796875,0.0220549684017896,-0.0054674698039889,-5.299690383253619e-05
1770451379934,-0.2337646484375,-0.9627532958984376,-0.1357421875,0.016972592100501,0.0007922904333099,0.0046852994710206
1770451379942,-0.2354888916015625,-0.958831787109375,-0.129608154296875,0.0136423092335462,0.0068714884109795,0.0056038233451545
1770451379953,-0.23565673828125,-0.9578094482421876,-0.1308746337890625,0.0129935629665851,0.0098001668229699,0.0070698936469852
1770451379963,-0.236968994140625,-0.9599609375,-0.134796142578125,0.0136340530589222,0.004095409065485,0.0050333742983639
1770451379973,-0.2406158447265625,-0.9611358642578124,-0.1369171142578125,0.0091303810477256,0.0055803875438869,0.0066610984504222
1770451379983,-0.236541748046875,-0.961151123046875,-0.13232421875,0.0112521219998598,0.0111477263271808,0.006991596892476
1770451379993,-0.2377777099609375,-0.9594879150390624,-0.13604736328125,0.0096459696069359,0.0049865026958286,0.0039119170978665
1770451380003,-0.2406005859375,-0.9597015380859376,-0.134307861328125,0.0057883807457983,-0.0058581554330885,0.0023337281309068
1770451380013,-0.2420806884765625,-0.9592132568359376,-0.1331024169921875,0.0073532541282474,-0.0101916510611772,0.0018889801576733
1770451380023,-0.2418975830078125,-0.9589691162109376,-0.13787841796875,0.0052030179649591,-0.0162687189877033,-0.0044125914573669
1770451380033,-0.2458343505859375,-0.957366943359375,-0.1294097900390625,-0.0023638217244297,-0.0165358334779739,-0.0089988214895129
1770451380043,-0.242645263671875,-0.9549407958984376,-0.1279296875,-0.0012655340833589,-0.0087745832279324,-0.0101439803838729
1770451380053,-0.239410400390625,-0.961395263671875,-0.1375885009765625,-0.0019755328539758,-0.0049255164340138,-0.010800183750689
1770451380063,-0.2410430908203125,-0.96075439453125,-0.1364288330078125,0.0031742216087877,0.0009683253592811,-0.0118470722809433
1770451380073,-0.2390289306640625,-0.95849609375,-0.138427734375,0.0095205344259738,0.0050219227559864,-0.0108728874474763
1770451380083,-0.236358642578125,-0.9612274169921876,-0.1414031982421875,0.0093602119013667,0.0019981698133051,-0.0065910574048757
1770451380093,-0.2318572998046875,-0.9629669189453124,-0.1343536376953125,0.0057665426284074,0.0018346516881138,0.0021180119365453
1770451380103,-0.229034423828125,-0.963836669921875,-0.1275787353515625,-0.0043441485613584,0.0022682142443954,0.0136305913329124
1770451380113,-0.2289581298828125,-0.963897705078125,-0.1234588623046875,-0.0038077877834439,0.0162271726876497,0.0187795460224151
1770451380123,-0.2366485595703125,-0.963226318359375,-0.131072998046875,-0.0051148673519492,0.0209247227758169,0.0178583599627017
1770451380133,-0.23968505859375,-0.9584808349609376,-0.1304779052734375,-0.0064080981537699,0.023445937782526,0.0137437749654054
1770451380143,-0.24176025390625,-0.956634521484375,-0.134307861328125,-0.0087255807593464,0.012050537392497,0.0110688963904976
1770451380153,-0.2424163818359375,-0.96051025390625,-0.135589599609375,-0.0118739698082208,0.0003563309437595,0.0082616582512855
1770451380164,-0.24468994140625,-0.9571533203125,-0.1367950439453125,-0.0157997366040945,0.0036237633321434,-0.0014610101934522
1770451380174,-0.2480316162109375,-0.956695556640625,-0.1326141357421875,-0.0133938360959291,0.0084848310798406,-0.0066560385748744
1770451380184,-0.245819091796875,-0.9610443115234376,-0.1417083740234375,-0.0038820898625999,-0.0011406318517401,-0.0085562039166688
1770451380194,-0.245513916015625,-0.9644622802734376,-0.148101806640625,-0.0033009881153702,-0.024097878485918,-0.0063465791754424
1770451380204,-0.2388458251953125,-0.9575347900390624,-0.138916015625,0.0016128103015944,-0.023026755079627,-0.0075604477897286
1770451380214,-0.24005126953125,-0.949615478515625,-0.1381378173828125,0.0137573573738336,7.190534961409867e-05,-0.0202288385480642
1770451380224,-0.2410125732421875,-0.9537811279296876,-0.141876220703125,0.0250923037528991,0.00933597702533,-0.0216664131730794
1770451380234,-0.2353515625,-0.94940185546875,-0.1327056884765625,0.0171177349984645,0.0077439397573471,-0.0205769147723913
1770451380244,-0.238922119140625,-0.9753265380859376,-0.127655029296875,0.0083514070138335,0.0022604910191148,-0.0070123695768415
1770451380254,-0.228729248046875,-0.984771728515625,-0.1351776123046875,0.0030474551022052,-0.0103615606203675,0.0111956624314188
1770451380264,-0.2216796875,-0.9641571044921876,-0.1293487548828125,-0.000107325387944,-0.0033965955954045,0.0121125895529985
1770451380274,-0.2342529296875,-0.956298828125,-0.1291656494140625,0.0089221224188804,0.0171635411679744,0.0074619110673666
1770451380284,-0.2377471923828125,-0.94964599609375,-0.1316070556640625,0.016708405688405,0.0201401561498641,-0.0033691651187837
1770451380294,-0.2378997802734375,-0.953643798828125,-0.132568359375,0.0174093507230281,0.0195137802511453,-0.0099394498392939
1770451380304,-0.2403411865234375,-0.956787109375,-0.1307525634765625,0.0065436530858278,0.0043990095146,-0.0098451739177107
1770451380314,-0.2368316650390625,-0.9652862548828124,-0.124053955078125,-0.0047529437579214,-0.0082603264600038,0.0045263087376952
1770451380325,-0.2359771728515625,-0.9679718017578124,-0.133575439453125,-0.0121922176331281,-0.012222577817738,0.0123956827446818
1770451380334,-0.2367095947265625,-0.963958740234375,-0.136505126953125,-0.0198269672691822,-0.0012681973166763,0.0173283908516168
1770451380344,-0.238250732421875,-0.961212158203125,-0.1360931396484375,-0.0153062520548701,0.0146852023899555,0.0129709262400865
1770451380355,-0.2449951171875,-0.96014404296875,-0.1453704833984375,-0.0149991894140839,0.0026541063562035,0.0044868937693536
1770451380364,-0.2505645751953125,-0.9571990966796876,-0.1356964111328125,-0.0133746610954403,-0.0010918960906565,-0.0017025588313117
1770451380375,-0.247650146484375,-0.9566192626953124,-0.1358184814453125,-0.0006402239087037,0.0021513015963137,-0.0058589545078575
1770451380385,-0.2452239990234375,-0.9622802734375,-0.1447296142578125,0.016033561900258,-0.0041033984161913,-0.0114023238420486
1770451380395,-0.2438201904296875,-0.961456298828125,-0.1436920166015625,0.029951773583889,-0.0110337426885962,-0.0120217753574252
1770451380405,-0.2372589111328125,-0.9613800048828124,-0.1413116455078125,0.0434289649128913,-0.0042613241821527,-0.0119815617799758
1770451380415,-0.2350006103515625,-0.9586334228515624,-0.14080810546875,0.0434563979506492,-0.0117067238315939,-0.0096704708412289
1770451380425,-0.2366485595703125,-0.956573486328125,-0.13031005859375,0.0409330502152442,-0.0163443516939878,-0.0122185833752155
1770451380435,-0.2372589111328125,-0.95928955078125,-0.1300201416015625,0.0331158749759197,-0.0123256416991353,-0.0102502405643463
1770451380445,-0.2364959716796875,-0.960174560546875,-0.1249237060546875,0.0245080068707466,-0.013693175278604,-0.0058680092915892
1770451380455,-0.235260009765625,-0.9624786376953124,-0.1263580322265625,0.0104201501235365,-0.0144361974671483,-0.0037444045301526
1770451380466,-0.2358856201171875,-0.96484375,-0.1186676025390625,-0.0064238109625875,-0.0004394215648062,0.0031465247739106
1770451380475,-0.2308807373046875,-0.963836669921875,-0.1145172119140625,-0.0107493167743086,0.0250787213444709,0.0102869924157857
1770451380485,-0.22991943359375,-0.9670867919921876,-0.1236114501953125,-0.0161209125071764,0.0268625076860189,0.0172125417739152
1770451380495,-0.2327728271484375,-0.9655303955078124,-0.1230010986328125,-0.0203055385500192,0.01384231261909,0.021100491285324
1770451380505,-0.2373199462890625,-0.961700439453125,-0.1276092529296875,-0.0151153029873967,0.0089892335236072,0.0160561986267566
1770451380515,-0.2416839599609375,-0.9608154296875,-0.13360595703125,-0.0171382408589124,0.0046871635131537,0.0125333685427904
1770451380525,-0.24444580078125,-0.9583892822265624,-0.1311798095703125,-0.0208626706153154,0.001193895121105,0.008887767791748
1770451380535,-0.2462921142578125,-0.9621124267578124,-0.130523681640625,-0.02418096922338,-0.0071838768199086,0.0056682717986404
1770451380545,-0.2462310791015625,-0.9647674560546876,-0.1385498046875,-0.0211212635040283,-0.0220043677836656,0.0047129960730671
1770451380556,-0.24481201171875,-0.9508209228515624,-0.140777587890625,-0.0155592523515224,-0.0195265635848045,-0.0020972392521798
1770451380567,-0.249786376953125,-0.9564971923828124,-0.139984130859375,-0.0186471883207559,-0.0260361284017562,-0.0039630499668419
1770451380575,-0.24237060546875,-0.95989990234375,-0.129638671875,-0.0193028580397367,-0.0093905720859766,-0.0035531895700842
1770451380586,-0.2333221435546875,-0.95721435546875,-0.1287994384765625,-0.0119749037548899,0.0192687697708606,-0.0068041100166738
1770451380596,-0.236572265625,-0.9615325927734376,-0.132171630859375,-0.0073617761954665,0.0193614475429058,-0.0074560521170496
1770451380605,-0.2384796142578125,-0.9634552001953124,-0.129638671875,-0.0089389001950621,0.006833937484771,-0.0016032229177653
1770451380616,-0.23394775390625,-0.9624786376953124,-0.1295013427734375,-0.0010799118317663,0.0032415995374321,0.0023089605383574
1770451380626,-0.23565673828125,-0.9633026123046876,-0.1429595947265625,0.0001850896951509,-0.0128992870450019,0.0016833840636536
1770451380636,-0.238433837890625,-0.963104248046875,-0.1356048583984375,-0.005347094964236,-0.0088382326066493,0.0070142336189746
1770451380646,-0.2342071533203125,-0.9595794677734376,-0.1277313232421875,-0.0131522873416543,0.0108023136854171,0.0146700227633118
1770451380656,-0.2299346923828125,-0.9624481201171876,-0.129241943359375,-0.0093005569651722,0.0130931651219725,0.0163291729986667
1770451380666,-0.2367706298828125,-0.9651336669921876,-0.1374359130859375,-0.0087873665615916,0.0057455035857856,0.0146652292460203
1770451380676,-0.24072265625,-0.961090087890625,-0.13543701171875,-0.0090571446344256,0.0012125372886657,0.0133616114035248
1770451380687,-0.239837646484375,-0.9592132568359376,-0.133575439453125,-0.0085623292252421,-0.0075354143045842,0.0136058237403631
1770451380696,-0.2416229248046875,-0.9619140625,-0.1348114013671875,-0.007234210614115,-0.0082842949777841,0.0086337020620703
1770451380706,-0.243743896484375,-0.9599151611328124,-0.1293487548828125,-0.0119306957349181,0.0036346821580082,0.0085756452754139
1770451380718,-0.2409210205078125,-0.9594879150390624,-0.126617431640625,-0.016226639971137,0.013145362958312,0.0084515418857336
1770451380726,-0.2398223876953125,-0.9604339599609376,-0.126739501953125,-0.015223161317408,0.0121267037466168,0.0094054862856864
1770451380736,-0.24066162109375,-0.960968017578125,-0.135772705078125,-0.0127943586558103,0.0045896917581558,0.0094291884452104
1770451380746,-0.2389068603515625,-0.9613189697265624,-0.1359405517578125,-0.0048754489980638,-0.003647199133411,0.0112774223089218
1770451380756,-0.2420654296875,-0.959197998046875,-0.138458251953125,-0.000776844099164,-0.0165965538471937,0.00971254799515
1770451380766,-0.2432098388671875,-0.96014404296875,-0.1392974853515625,-0.0040975394658744,-0.0316897518932819,0.010571151971817
1770451380776,-0.24261474609375,-0.9570465087890624,-0.1273651123046875,-0.021121796220541,-0.0211910381913185,0.0097032273188233
1770451380787,-0.2418670654296875,-0.954071044921875,-0.1162567138671875,-0.0298034362494945,0.0014381069922819,0.0047521446831524
1770451380797,-0.244110107421875,-0.95550537109375,-0.1248626708984375,-0.0315922796726226,0.0230592470616102,0.0026772757992148
1770451380807,-0.2435455322265625,-0.961944580078125,-0.13519287109375,-0.0292364489287138,0.0128007503226399,0.0040975394658744
1770451380817,-0.2411041259765625,-0.963226318359375,-0.1371307373046875,-0.0267003197222948,-0.0062781358137726,0.007105313707143
1770451380827,-0.241729736328125,-0.962646484375,-0.1390380859375,-0.0228986572474241,-0.0171848461031913,0.008488293737173
1770451380837,-0.2405853271484375,-0.96221923828125,-0.136932373046875,-0.0219705458730459,-0.0083982786163687,0.0085785742849111
1770451380847,-0.2413482666015625,-0.9610443115234376,-0.134735107421875,-0.0146223520860075,0.0030618363525718,0.0085474150255322
1770451380857,-0.2428741455078125,-0.959869384765625,-0.14019775390625,-0.0122188497334718,-0.0004362257895991,0.0080581931397318
1770451380867,-0.242919921875,-0.960479736328125,-0.135711669921875,-0.0243207849562168,-0.0054514906369149,0.0096454368904232
1770451380877,-0.2394561767578125,-0.956634521484375,-0.1219329833984375,-0.0249263886362314,0.012035890482366,0.0098201399669051
1770451380887,-0.2410736083984375,-0.959930419921875,-0.1365509033203125,-0.0222565699368715,0.0105988485738635,0.0088129322975873
1770451380897,-0.23980712890625,-0.961090087890625,-0.1356201171875,-0.0246813781559467,0.0162242427468299,0.0135498968884348
1770451380907,-0.2382659912109375,-0.9598236083984376,-0.1311798095703125,-0.0229519214481115,0.0262467842549085,0.0165701881051063
1770451380917,-0.2369842529296875,-0.96051025390625,-0.1396484375,-0.0109360050410032,0.0142673524096608,0.0160756390541791
1770451380927,-0.243988037109375,-0.959075927734375,-0.14556884765625,-0.0120036657899618,-0.0088382326066493,0.0138721400871872
1770451380937,-0.2434844970703125,-0.9575347900390624,-0.133453369140625,-0.0180903207510709,-0.0111940652132034,0.0168343745172023
1770451380947,-0.2388458251953125,-0.95794677734375,-0.131561279296875,-0.017084976658225,-0.0124436197802424,0.0160561986267566
1770451380957,-0.24310302734375,-0.9627838134765624,-0.1380615234375,-0.0161571316421031,-0.0186919290572404,0.0134348487481474
1770451380967,-0.2430572509765625,-0.95904541015625,-0.137847900390625,-0.0122665194794535,-0.0103035038337111,0.0118145812302827
1770451380977,-0.242340087890625,-0.9596099853515624,-0.1390838623046875,-0.0083143888041377,0.0032727585639804,0.0086430227383971
1770451380987,-0.2452239990234375,-0.95892333984375,-0.1414337158203125,-0.0036850159522145,0.0056131444871425,0.0052789179608225
1770451380997,-0.2456512451171875,-0.9540557861328124,-0.1392364501953125,-0.0018719359068199,0.0072176991961896,0.0050323093309998
1770451381007,-0.2433929443359375,-0.955169677734375,-0.1349029541015625,-0.0077375480905175,-0.0020668793004006,0.003475425299257
1770451381018,-0.2470855712890625,-0.9557952880859376,-0.1314239501953125,-0.0073644393123686,-0.002813097089529,0.0061172810383141
1770451381028,-0.2401275634765625,-0.959625244140625,-0.141937255859375,-0.0079849557951092,-0.009318932890892,0.0071945297531783
1770451381038,-0.2430267333984375,-0.9621429443359376,-0.138275146484375,-0.0034959316253662,-0.0147765493020415,0.0114353476092219
1770451381048,-0.2427978515625,-0.95928955078125,-0.1368255615234375,0.00086685892893,-0.0049345712177455,0.0096632800996303
1770451381058,-0.2454071044921875,-0.9572296142578124,-0.13629150390625,0.0025398568250238,0.0136257968842983,0.0108795454725623
1770451381068,-0.2443084716796875,-0.958038330078125,-0.1336669921875,0.0015078817959874,0.0205987524241209,0.009631055407226
1770451381078,-0.242218017578125,-0.9611358642578124,-0.128082275390625,-0.0123866284266114,0.0098046939820051,0.0193217657506465
1770451381088,-0.2377777099609375,-0.9635009765625,-0.122314453125,-0.0243149269372224,0.0052187303081154,0.0226738862693309
1770451381098,-0.2402191162109375,-0.9604949951171876,-0.1229248046875,-0.0378211475908756,0.0177329238504171,0.0247676651924848
1770451381108,-0.2404632568359375,-0.957763671875,-0.1214752197265625,-0.0501385331153869,0.0374538972973823,0.0268396027386188
1770451381118,-0.2427978515625,-0.965118408203125,-0.1273193359375,-0.0591061972081661,0.0387623086571693,0.0332969687879085
1770451381128,-0.24237060546875,-0.965087890625,-0.1303558349609375,-0.0607938431203365,0.0310495290905237,0.0324383676052093
1770451381138,-0.2469940185546875,-0.953338623046875,-0.1358184814453125,-0.0569263994693756,0.0227159652858972,0.0205271132290363
1770451381148,-0.254058837890625,-0.947174072265625,-0.138275146484375,-0.0511505343019962,0.0220349952578544,0.0109312105923891
1770451381158,-0.249176025390625,-0.9430389404296876,-0.1408843994140625,-0.0402310416102409,0.033398438245058,0.0011835087789222
1770451381168,-0.25238037109375,-0.944122314453125,-0.13934326171875,-0.0441746525466442,0.0429559908807277,-0.0081615233793854
1770451381178,-0.253936767578125,-0.9777679443359376,-0.14874267578125,-0.0401343703269958,0.0175270624458789,0.0068011805415153
1770451381188,-0.2386932373046875,-0.9763946533203124,-0.1555023193359375,-0.039853673428297,-0.0016282566357403,0.016896691173315
1770451381199,-0.2408905029296875,-0.9617767333984376,-0.1481170654296875,-0.0266406647861003,0.008225705474615,0.0143832005560398
1770451381208,-0.248809814453125,-0.948516845703125,-0.1521148681640625,-0.0075657744891941,0.0012101404136046,0.0032144354190677
1770451381218,-0.2496795654296875,-0.9447479248046876,-0.1505279541015625,0.0082270372658967,-0.0081476746127009,-0.0111493235453963
1770451381229,-0.2489166259765625,-0.9468841552734376,-0.15234375,0.0175760649144649,-0.0082371570169925,-0.0206573419272899
1770451381239,-0.2480010986328125,-0.951416015625,-0.1508636474609375,0.0230232942849397,-0.0143214147537946,-0.0241495445370674
1770451381249,-0.2467193603515625,-0.9615631103515624,-0.148895263671875,0.017609354108572,-0.0250142738223075,-0.0135216675698757
1770451381259,-0.24176025390625,-0.9650115966796876,-0.1443634033203125,0.0114481309428811,-0.026216423138976,0.0030517163686454
1770451381268,-0.2366943359375,-0.9626922607421876,-0.1441497802734375,0.0155693721026182,-0.0060222060419619,0.0111589115113019
1770451381279,-0.238555908203125,-0.959991455078125,-0.1490020751953125,0.0169917661696672,-0.0007129282457754,0.0182082988321781
1770451381289,-0.2410125732421875,-0.96136474609375,-0.143218994140625,0.0256068259477615,0.0016508935950696,0.0167883019894361
1770451381299,-0.247802734375,-0.9602508544921876,-0.1471710205078125,0.0318775065243244,-0.0024719461798667,0.014747254550457
1770451381309,-0.249969482421875,-0.95697021484375,-0.144439697265625,0.03918282315135,-0.0071657677181065,0.0126018114387989
1770451381319,-0.2501678466796875,-0.9573516845703124,-0.1411590576171875,0.0417149551212787,-0.0133123435080051,0.0088118677958846
1770451381329,-0.248748779296875,-0.959716796875,-0.1356658935546875,0.0451064929366111,-0.0138367200270295,0.0111306812614202
1770451381339,-0.244415283203125,-0.9605255126953124,-0.1312408447265625,0.0292995646595954,-0.0152162369340658,0.013546435162425
1770451381349,-0.240692138671875,-0.9580230712890624,-0.113555908203125,0.0210666693747043,-0.0008572715451009,0.0138787971809506
1770451381359,-0.24481201171875,-0.9586181640625,-0.1265411376953125,0.0165158603340387,0.0021222729701548,0.011657721363008
1770451381369,-0.2497406005859375,-0.9585418701171876,-0.13226318359375,0.0032921996898949,-0.0162617936730384,0.0138705419376492
1770451381379,-0.2487335205078125,-0.9559478759765624,-0.1270751953125,-0.0130750555545091,-0.0201846305280923,0.0102715454995632
1770451381389,-0.2491912841796875,-0.9531097412109376,-0.1259765625,-0.020824322476983,-0.0045998119749128,0.0063164853490889
1770451381400,-0.251922607421875,-0.9537811279296876,-0.128631591796875,-0.0274079218506813,0.0103953825309872,0.0047050067223608
1770451381409,-0.249298095703125,-0.959503173828125,-0.129425048828125,-0.0330413058400154,0.0196690429002046,0.0062594939954578
1770451381420,-0.246246337890625,-0.9585723876953124,-0.1361846923828125,-0.0281946193426847,0.0109338741749525,0.0049079395830631
1770451381429,-0.25054931640625,-0.9576873779296876,-0.144073486328125,-0.0310924053192138,0.0005254416610114,0.0001786981010809
1770451381439,-0.251251220703125,-0.9546661376953124,-0.1381378173828125,-0.0284577403217554,0.0106425238773226,0.0002098570985253
1770451381450,-0.2464141845703125,-0.9562225341796876,-0.1393585205078125,-0.0287395026534795,0.0232589840888977,0.002379268174991
1770451381460,-0.2455596923828125,-0.964019775390625,-0.141815185546875,-0.0279940832406282,0.0302199535071849,0.0140276681631803
1770451381470,-0.238861083984375,-0.973052978515625,-0.1468048095703125,-0.0252715349197387,0.0252028256654739,0.0267852749675512
1770451381480,-0.2365570068359375,-0.9596099853515624,-0.142547607421875,-0.0171717964112758,0.0195148456841707,0.0287879724055528
1770451381490,-0.24609375,-0.959991455078125,-0.145965576171875,-0.006442186422646,0.0192930046468973,0.0325747206807136
1770451381500,-0.2436370849609375,-0.9542999267578124,-0.1417083740234375,-0.0020690099336206,0.0152234276756644,0.0278947483748197
1770451381510,-0.2479705810546875,-0.9520721435546876,-0.137542724609375,0.0099146822467446,0.0205888990312814,0.0173901747912168
1770451381520,-0.2560272216796875,-0.953948974609375,-0.1463470458984375,0.0116033926606178,0.0018269284628331,0.0102174840867519
1770451381530,-0.25335693359375,-0.951629638671875,-0.136962890625,0.0242259781807661,-0.0104009751230478,0.0048341699875891
1770451381540,-0.2538909912109375,-0.9531707763671876,-0.1511383056640625,0.0309709645807743,-0.0302138291299343,0.0002047970920102
1770451381550,-0.254669189453125,-0.9564056396484376,-0.146575927734375,0.0272358823567628,-0.0406033508479595,0.0003973436250817
1770451381560,-0.2495269775390625,-0.9585418701171876,-0.1395416259765625,0.0283855684101581,-0.0301943868398666,-0.0017832526937127
1770451381570,-0.251007080078125,-0.9595184326171876,-0.1413421630859375,0.0178003031760454,-0.0248054806143045,-0.0013720606220886
1770451381580,-0.2497711181640625,-0.9582366943359376,-0.1285400390625,0.0146878659725189,-0.003940945956856,-0.0009968212107196
1770451381590,-0.249053955078125,-0.9579620361328124,-0.13702392578125,0.0148061104118824,-0.0075500616803765,0.0037838192656636
1770451381600,-0.2462615966796875,-0.963287353515625,-0.1364898681640625,0.0077609838917851,-0.0107077714055776,0.0110494550317525
1770451381610,-0.2429351806640625,-0.9598388671875,-0.1289520263671875,-0.0044410875998437,-0.0065186191350221,0.0182314682751894
1770451381620,-0.239349365234375,-0.957977294921875,-0.1226348876953125,-0.0177680775523185,0.0058981026522815,0.025507491081953
1770451381630,-0.2392425537109375,-0.95965576171875,-0.1213531494140625,-0.019973175600171,0.0224126316606998,0.0282715857028961
1770451381640,-0.246673583984375,-0.9565582275390624,-0.1322174072265625,-0.0064224791713058,0.0224911943078041,0.0256984382867813
1770451381651,-0.251434326171875,-0.9554443359375,-0.1454925537109375,0.0020453077740967,0.0038751657120883,0.0215476360172033
1770451381660,-0.253509521484375,-0.953643798828125,-0.142303466796875,0.0062019694596529,-0.0088329063728451,0.0157597884535789
1770451381671,-0.257293701171875,-0.95343017578125,-0.1407623291015625,0.0102566322311759,-0.0068176924251019,0.0075316857546567
1770451381681,-0.2573089599609375,-0.9529571533203124,-0.139373779296875,0.0168370362371206,-0.0060509680770337,0.0041811629198491
1770451381691,-0.2570343017578125,-0.955322265625,-0.143402099609375,0.020429641008377,-0.014085991308093,-0.0040504015050828
1770451381701,-0.2590179443359375,-0.9544525146484376,-0.1424560546875,0.0258654188364744,-0.0211859792470932,-0.0064642908982932
1770451381711,-0.2574462890625,-0.9533233642578124,-0.1424407958984375,0.020690631121397,-0.0302242152392864,-0.0093905720859766
1770451381721,-0.2523956298828125,-0.9530029296875,-0.1363677978515625,0.021199295297265,-0.0246267821639776,-0.009449427947402
1770451381731,-0.251007080078125,-0.9533538818359376,-0.13702392578125,0.0141440480947494,-0.0252390429377555,-0.0060371197760105
1770451381741,-0.246368408203125,-0.957916259765625,-0.12750244140625,0.0114254932850599,-0.0190671682357788,0.0021209414117038
1770451381752,-0.24468994140625,-0.9612579345703124,-0.1300201416015625,0.0140569629147648,-0.0109083075076341,0.0088076060637831
1770451381761,-0.242156982421875,-0.96539306640625,-0.13153076171875,0.0143919885158538,-0.0046160570345819,0.0143275400623679
1770451381772,-0.241912841796875,-0.9621124267578124,-0.1294403076171875,0.0150298159569501,0.0071492558345198,0.0191667694598436
1770451381781,-0.2429046630859375,-0.95953369140625,-0.1285858154296875,0.0139536326751112,0.0122518725693225,0.0204562731087207
1770451381791,-0.2484893798828125,-0.9586029052734376,-0.13134765625,0.0139839928597211,0.0062389876693487,0.0173022914677858
1770451381801,-0.254364013671875,-0.95440673828125,-0.1334686279296875,0.0194725003093481,-0.0001781654718797,0.0124148577451705
1770451381811,-0.2576446533203125,-0.9566192626953124,-0.1421356201171875,0.0272966027259826,-0.0114345485344529,0.0078406129032373
1770451381821,-0.2576446533203125,-0.95458984375,-0.144287109375,0.0246078744530677,-0.0269669033586978,0.0029100361280143
1770451381831,-0.256561279296875,-0.9540252685546876,-0.1316986083984375,0.018869562074542,-0.0215636156499385,-0.0005970807396806
1770451381841,-0.250885009765625,-0.9576568603515624,-0.128173828125,0.0178511682897806,-0.0130537506192922,-0.0016868462553247
1770451381851,-0.250640869140625,-0.9580230712890624,-0.130340576171875,0.0165755152702331,-0.0077870828099548,-0.0004751079250127
1770451381861,-0.251373291015625,-0.956695556640625,-0.12982177734375,0.012009791098535,-0.009468070231378,-0.0005118595436215
1770451381871,-0.249298095703125,-0.95538330078125,-0.125244140625,0.0082659190520644,-0.0048424256965518,9.853696246864274e-05
1770451381882,-0.24969482421875,-0.954864501953125,-0.125946044921875,0.0043358923867344,0.0008727178792469,-0.001669535646215
1770451381892,-0.25201416015625,-0.953521728515625,-0.1276702880859375,-0.0009954896522685,-0.0042394860647618,-0.0008474178612232
1770451381902,-0.2512969970703125,-0.95635986328125,-0.12457275390625,-0.0073228939436376,-0.0068613681942224,-0.0011267834343016
1770451381912,-0.2511749267578125,-0.9550323486328124,-0.1240081787109375,-0.0194045901298522,0.0007611314067617,0.004023237619549
1770451381922,-0.24700927734375,-0.9608612060546876,-0.119873046875,-0.0199670493602752,0.0160069297999143,0.004211523104459
1770451381934,-0.2506866455078125,-0.96112060546875,-0.12799072265625,-0.0204165913164615,0.0155467353761196,0.0074264910072088
1770451381942,-0.2501068115234375,-0.9601593017578124,-0.1300506591796875,-0.0170045495033264,0.0168197266757488,0.0082432823255658
1770451381952,-0.2515411376953125,-0.9595947265625,-0.136322021484375,-0.0125333685427904,0.0071258200332522,0.0068943914957344
1770451381962,-0.2536163330078125,-0.9547576904296876,-0.135650634765625,-0.0098433094099164,-0.0036796897184103,0.0026900589000433
1770451381972,-0.257049560546875,-0.95074462890625,-0.1347503662109375,-0.0091700628399848,-0.0073689664714038,-0.0006258428329601
1770451381983,-0.2575836181640625,-0.95269775390625,-0.133880615234375,-0.0064757424406707,-0.0134625453501939,-0.002699912758544
1770451381992,-0.2559814453125,-0.956024169921875,-0.137054443359375,-0.007496265694499,-0.0175739340484142,-0.0034525219816714
1770451382002,-0.25469970703125,-0.959625244140625,-0.135406494140625,-0.0012314456980675,-0.0126353679224848,-0.0044770399108529
1770451382012,-0.2549591064453125,-0.961273193359375,-0.145233154296875,0.0083013391122221,-0.0159699115902185,-0.0049902312457561
1770451382022,-0.2528076171875,-0.9604644775390624,-0.1449127197265625,0.0102465124800801,-0.0151768224313855,0.0001374191051581
1770451382032,-0.2504119873046875,-0.9641571044921876,-0.1369476318359375,0.0062938486225903,-0.0018125474452972,0.0051931641064584
1770451382042,-0.244537353515625,-0.9594268798828124,-0.127685546875,0.0138518996536731,0.008568188175559,0.0128340395167469
1770451382052,-0.2431182861328125,-0.94775390625,-0.1315765380859375,0.0174120143055915,0.0158644504845142,0.0023736753500998
1770451382062,-0.2510528564453125,-0.9495697021484376,-0.125518798828125,0.0223553720861673,0.0159004032611846,-0.0010418286547064
1770451382073,-0.2512664794921875,-0.945068359375,-0.12335205078125,0.023772707208991,0.0172056183218956,-0.0014327806420624
1770451382082,-0.2528076171875,-0.9612579345703124,-0.1261444091796875,0.0048520131967961,-0.008837167173624,0.0041489386931061
1770451382092,-0.2506103515625,-0.984954833984375,-0.1285858154296875,0.0061947791837155,-0.0201809015125036,0.0195816904306411
1770451382103,-0.2439422607421875,-0.970123291015625,-0.137725830078125,-0.0011515507940202,-0.0212661400437355,0.021098094061017
1770451382113,-0.2531890869140625,-0.9598846435546876,-0.1278839111328125,-0.0029742182232439,-0.0107711553573608,0.0144399255514144
1770451382123,-0.255523681640625,-0.9441375732421876,-0.1189727783203125,-0.0090347742661833,0.0091218594461679,0.0066408584825694
1770451382133,-0.2515716552734375,-0.9465179443359376,-0.114715576171875,-0.0145179564133286,0.0159832276403903,-0.0005195827106945
1770451382143,-0.2520751953125,-0.94989013671875,-0.11676025390625,-0.0177121516317129,0.0151744252070784,-0.005593170877546
1770451382153,-0.2548065185546875,-0.9569549560546876,-0.126495361328125,-0.0272654425352811,0.0041199102997779,-0.0015278555219992
1770451382163,-0.252105712890625,-0.96319580078125,-0.130767822265625,-0.036909282207489,-0.0115099158138036,0.0082214446738362
1770451382173,-0.24822998046875,-0.9601287841796876,-0.1313629150390625,-0.0438231155276298,0.0034386736806482,0.011739213950932
1770451382183,-0.249664306640625,-0.95867919921875,-0.13214111328125,-0.0482815131545066,0.0218696128576993,0.0127118006348609
1770451382193,-0.2514495849609375,-0.9580078125,-0.1305694580078125,-0.0512037985026836,0.0267591755837202,0.0113756926730275
1770451382203,-0.25701904296875,-0.9564056396484376,-0.131683349609375,-0.043765589594841,0.025808161124587,0.0080038644373416
1770451382213,-0.25872802734375,-0.9553985595703124,-0.1369476318359375,-0.0363564081490039,0.0059827915392816,0.0037481328472495
1770451382223,-0.259674072265625,-0.9554290771484376,-0.141448974609375,-0.0219963788986206,-0.0012492889072746,0.0014767227694392
1770451382233,-0.2574615478515625,-0.9546356201171876,-0.1437530517578125,-0.00650823302567,0.0016002934426069,-0.0011126686586067
1770451382243,-0.25128173828125,-0.9551849365234376,-0.1414031982421875,0.0084182517603039,-0.0079210400581359,-0.0028277444653213
1770451382253,-0.25286865234375,-0.9551239013671876,-0.1434173583984375,0.0185340028256177,-0.0100768692791461,-0.0038743666373193
1770451382263,-0.2498016357421875,-0.9490966796875,-0.13641357421875,0.0185398627072572,-0.0054261907935142,-0.0059316586703062
1770451382273,-0.2512359619140625,-0.948089599609375,-0.1303253173828125,0.0238115899264812,0.001896969624795,-0.0094781899824738
1770451382283,-0.255218505859375,-0.9496917724609376,-0.1361846923828125,0.0279879588633775,0.0029957899823784,-0.0166913624852895
1770451382294,-0.25408935546875,-0.9518890380859376,-0.13507080078125,0.0238107908517122,-0.0037851508241146,-0.0182517077773809
1770451382303,-0.2536163330078125,-0.9546966552734376,-0.1292877197265625,0.0228054467588663,-0.0105359982699155,-0.0183752793818712
1770451382314,-0.25372314453125,-0.959503173828125,-0.13397216796875,0.0170586127787828,-0.0066286078654229,-0.017535850405693
1770451382324,-0.2508087158203125,-0.9617462158203124,-0.1294097900390625,0.0133749274536967,0.0047316383570432,-0.0156183745712041
1770451382334,-0.253173828125,-0.9632568359375,-0.1303558349609375,0.0112217618152499,0.0046163233928382,-0.0150806820020079
1770451382344,-0.2529754638671875,-0.958709716796875,-0.1307220458984375,0.0056456350721418,8.52211524033919e-05,-0.0130747891962528
1770451382354,-0.251922607421875,-0.95843505859375,-0.126495361328125,-0.0062323296442627,0.0008908273885026,-0.0086036082357168
1770451382364,-0.247772216796875,-0.9573822021484376,-0.12103271484375,-0.0101106911897659,0.0082597937434911,-0.0043912860564887
1770451382374,-0.2478790283203125,-0.95880126953125,-0.1308746337890625,-0.0053779873996973,0.0021694109309464,-0.0014785870444029
1770451382384,-0.2518768310546875,-0.9697113037109376,-0.1406097412109375,-0.0044759749434888,-0.0111503889784216,0.0034570493735373
1770451382394,-0.2486114501953125,-0.9620819091796876,-0.1351318359375,-0.0030423952266573,-0.0090872384607791,0.0060254018753767
1770451382404,-0.2519378662109375,-0.951690673828125,-0.13018798828125,0.0013371731620281,-0.0011978897964581,0.0012455604737624
1770451382414,-0.2588348388671875,-0.9570770263671876,-0.133941650390625,0.0062413844279944,-0.0019824570044875,-0.0016298545524477
1770451382424,-0.2537078857421875,-0.9545135498046876,-0.131591796875,0.0072184982709586,-0.0015555523568764,-0.0074390079826116
1770451382434,-0.2536468505859375,-0.9535980224609376,-0.127471923828125,0.011796205304563,-0.0061838598921895,-0.0131173999980092
1770451382444,-0.255706787109375,-0.9532012939453124,-0.129425048828125,0.0190945994108915,-0.0037465349305421,-0.02136867120862
1770451382454,-0.254852294921875,-0.9545440673828124,-0.1353759765625,0.0152769573032855,-0.0102241421118378,-0.0188373364508152
1770451382465,-0.2504425048828125,-0.9578857421875,-0.1231536865234375,0.0140574956312775,-0.0052789179608225,-0.0177291966974735
1770451382474,-0.2468414306640625,-0.9601593017578124,-0.130767822265625,0.0180549006909132,-0.0061529674567282,-0.0135538922622799
1770451382488,-0.2480316162109375,-0.9628448486328124,-0.1359100341796875,0.0095735313370823,-0.0125357657670974,-0.0063873254694044
1770451382494,-0.2458953857421875,-0.9613800048828124,-0.1219940185546875,0.004343083128333,-0.0066890618763864,0.0024045680183917
1770451382504,-0.245147705078125,-0.961822509765625,-0.124908447265625,-0.0003653856983873,0.0008783105295151,0.0062578958459198
1770451382514,-0.2486572265625,-0.963134765625,-0.1286468505859375,-0.0058981026522815,0.0004117247008252,0.0115527929738163
1770451382525,-0.2495880126953125,-0.962554931640625,-0.1255950927734375,-0.005829659756273,0.0076232985593378,0.0123091302812099
1770451382534,-0.2484130859375,-0.9604339599609376,-0.1296234130859375,-0.0109911318868398,0.0106076365336775,0.0091519532725214
1770451382545,-0.2539825439453125,-0.956390380859375,-0.1252288818359375,-0.0179947130382061,0.014109693467617,0.0050011500716209
1770451382555,-0.25445556640625,-0.9541168212890624,-0.121246337890625,-0.0224736165255308,0.0143496440723538,0.002568086143583
1770451382566,-0.2550506591796875,-0.958282470703125,-0.125762939453125,-0.0232805553823709,0.017152089625597,-0.0018016285030171
1770451382576,-0.2527923583984375,-0.95806884765625,-0.1278076171875,-0.0200962126255035,0.0165214519947767,-0.0033896714448928
1770451382585,-0.253265380859375,-0.9575958251953124,-0.1332550048828125,-0.0136790601536631,0.0052706622518599,-0.0049936934374272
1770451382595,-0.2552947998046875,-0.95782470703125,-0.138214111328125,-0.0111964615061879,-0.0012966931099072,-0.0035824843216687
1770451382605,-0.2526397705078125,-0.954437255859375,-0.1358184814453125,-0.0140870567411184,-0.0002394181792624,-0.0029108349699527
1770451382615,-0.247772216796875,-0.955078125,-0.126373291015625,-0.0159832276403903,0.0021968416403979,0.0006780407857149
1770451382625,-0.2474517822265625,-0.956298828125,-0.1300201416015625,-0.0142282042652368,0.0010434264549985,0.0023787354584783
1770451382635,-0.250457763671875,-0.95654296875,-0.128082275390625,-0.0171986948698759,-0.0032269521616399,0.0013715279055759
1770451382645,-0.2512359619140625,-0.9582977294921876,-0.1287841796875,-0.0101181482896208,0.0005922870477661,-0.0037960698828101
1770451382655,-0.2550048828125,-0.959197998046875,-0.1360931396484375,-0.0109421303495764,-0.0050264503806829,-0.0019651465117931
1770451382666,-0.2526092529296875,-0.9593048095703124,-0.1284332275390625,-0.0163637939840555,0.0034871431998908,-0.001513474388048
1770451382675,-0.2490997314453125,-0.9562835693359376,-0.12420654296875,-0.0184471849352121,0.0187955256551504,0.002331064781174
1770451382685,-0.248260498046875,-0.9589996337890624,-0.1310577392578125,-0.0180679503828287,0.0263320058584213,0.0046578687615692
1770451382695,-0.2509765625,-0.9603424072265624,-0.1291961669921875,-0.0218155495822429,0.0208733230829238,0.0045974147506058
1770451382705,-0.251007080078125,-0.9561004638671876,-0.128936767578125,-0.0231814850121736,0.0196189749985933,0.0048216530121862
1770451382717,-0.25103759765625,-0.9558258056640624,-0.1347808837890625,-0.0194650441408157,0.0148106375709176,0.0016407734947279
1770451382725,-0.2564697265625,-0.9561004638671876,-0.136383056640625,-0.0203372295945882,0.0053284526802599,-0.0005941512063145
1770451382736,-0.2573089599609375,-0.9534454345703124,-0.134613037109375,-0.0116302911192178,0.0091349091380834,-0.0092978943139314
1770451382745,-0.2563323974609375,-0.956024169921875,-0.1429443359375,0.0015438344562426,-0.0040496028959751,-0.0120928818359971
1770451382756,-0.2585601806640625,-0.956085205078125,-0.1477203369140625,0.0056712012737989,-0.022835275158286,-0.0175568889826536
1770451382766,-0.2553253173828125,-0.9554290771484376,-0.1375885009765625,0.0069303442724049,-0.015352857299149,-0.0172394402325153
1770451382776,-0.24847412109375,-0.9586181640625,-0.1317901611328125,0.012287026271224,-0.0020407803822308,-0.01672731526196
1770451382786,-0.249176025390625,-0.96173095703125,-0.134185791015625,0.0066658919677138,0.0001299622672377,-0.0122342957183718
1770451382796,-0.2436981201171875,-0.9592742919921876,-0.12200927734375,0.0057585532777011,0.0147291449829936,-0.0066621638834476
1770451382806,-0.2439117431640625,-0.9600372314453124,-0.1315765380859375,0.011216701939702,0.0092425001785159,0.0007965514669194
1770451382816,-0.242919921875,-0.9608612060546876,-0.1340484619140625,0.0099809952080249,-0.0021395836956799,0.0038658445701003
1770451382826,-0.24835205078125,-0.9550018310546876,-0.1326751708984375,0.0166705902665853,-0.0031348068732768,0.0026461167726665
1770451382836,-0.2511138916015625,-0.9589385986328124,-0.1373291015625,0.0172868445515632,-0.0105826035141944,0.0043987431563436
1770451382846,-0.2502899169921875,-0.9583740234375,-0.1310272216796875,0.0206911638379097,-0.0069718891754746,6.125270374468528e-06
1770451382856,-0.2519989013671875,-0.9569091796875,-0.1313934326171875,0.0153094474226236,-0.0072555160149931,-0.0043553337454795
1770451382866,-0.2518157958984375,-0.955352783203125,-0.122772216796875,0.0061455103568732,0.001661279820837,-0.0040344228036701
1770451382876,-0.2513427734375,-0.95550537109375,-0.1213836669921875,-0.0007763114408589,0.0048440238460898,-0.0055460329167544
1770451382886,-0.2519378662109375,-0.959442138671875,-0.12152099609375,-0.0101868575438857,0.0010207896120846,-0.00567466346547
1770451382896,-0.251373291015625,-0.958251953125,-0.121856689453125,-0.0154559211805462,0.0076408754102885,-0.0026138925459235
1770451382906,-0.249969482421875,-0.9608154296875,-0.1249237060546875,-0.0212498940527439,0.0151696316897869,0.0004732437082566
1770451382916,-0.24755859375,-0.959991455078125,-0.12164306640625,-0.0304135661572217,0.0206027459353208,0.0042525357566773
1770451382926,-0.2503509521484375,-0.9544219970703124,-0.1184844970703125,-0.0311446040868759,0.0292015615850687,0.0059076901525259
1770451382936,-0.2514190673828125,-0.955108642578125,-0.1302947998046875,-0.0246171951293945,0.0273719690740108,0.0018548916559666
1770451382946,-0.2537841796875,-0.95782470703125,-0.137481689453125,-0.0299176853150129,0.008200405165553,0.0015520902816206
1770451382957,-0.2537078857421875,-0.9584197998046876,-0.1304168701171875,-0.0280281715095043,0.0041910167783498,-0.0023976438678801
1770451382967,-0.254608154296875,-0.9561767578125,-0.13677978515625,-0.0271471980959177,0.0025441178586333,-0.0032032502349466
1770451382977,-0.2515869140625,-0.957611083984375,-0.1331024169921875,-0.0257466416805982,0.0046637277118861,-0.0036171053070575
1770451382987,-0.2531585693359375,-0.9615631103515624,-0.1372833251953125,-0.0234744325280189,0.0026794064324349,-0.0048541435971856
1770451382997,-0.2506866455078125,-0.95745849609375,-0.13653564453125,-0.0175827220082283,0.0078027956187725,-0.0065537733025848
1770451383007,-0.2484893798828125,-0.9486083984375,-0.1319122314453125,-0.0244046747684478,0.0139456428587436,-0.0149789489805698
1770451383017,-0.249969482421875,-0.948883056640625,-0.1253204345703125,-0.0103876600041985,0.0238643195480108,-0.0171406380832195
1770451383027,-0.247802734375,-0.9490203857421876,-0.13812255859375,-0.0006261091912165,0.0182554367929697,-0.0165677908807992
1770451383037,-0.25152587890625,-0.96533203125,-0.1414794921875,-0.0005137237603776,-0.001580053474754,-0.0096496976912021
1770451383047,-0.2477874755859375,-0.982421875,-0.1491546630859375,0.0048216530121862,-0.0234113167971372,0.0073023876175284
1770451383057,-0.238494873046875,-0.96319580078125,-0.140350341796875,0.0058437744155526,-0.0061835935339331,0.0035467979032546
1770451383067,-0.2506103515625,-0.954498291015625,-0.132965087890625,0.0168897677212953,0.004939364735037,0.0005310343112796
1770451383077,-0.2523040771484375,-0.951385498046875,-0.1371002197265625,0.0208514854311943,-0.0076131783425807,-0.0083862943574786
1770451383087,-0.2528533935546875,-0.9477081298828124,-0.1306304931640625,0.0278875567018985,-0.0124526750296354,-0.0222959853708744
1770451383097,-0.2545623779296875,-0.947845458984375,-0.1344146728515625,0.0290806535631418,-0.0127584058791399,-0.0395575277507305
1770451383107,-0.2571868896484375,-0.95660400390625,-0.1322479248046875,0.0205867681652307,-0.0108126997947692,-0.0348027199506759
1770451383117,-0.24835205078125,-0.9619903564453124,-0.1314544677734375,0.0152977295219898,-0.0063188821077346,-0.0216024965047836
1770451383127,-0.2435760498046875,-0.964874267578125,-0.1389007568359375,0.0108625013381242,-0.009638512507081,-0.0101269362494349
1770451383137,-0.2404937744140625,-0.963134765625,-0.1311492919921875,0.0023281353060156,0.0072416677139699,-0.0012386362068355
1770451383147,-0.2421112060546875,-0.9603118896484376,-0.1278839111328125,-0.0063164853490889,0.0181094948202371,0.0075372783467173
1770451383157,-0.2426605224609375,-0.9622650146484376,-0.1207122802734375,-0.0169246550649404,0.0159661825746297,0.0132918367162346
1770451383167,-0.2463531494140625,-0.95947265625,-0.116668701171875,-0.0158479381352663,0.0206834413111209,0.0112795522436499
1770451383178,-0.251800537109375,-0.95928955078125,-0.1294708251953125,-0.0112073803320527,0.0142103610560297,0.0076741650700569
1770451383188,-0.251190185546875,-0.960662841796875,-0.127044677734375,-0.0072176991961896,0.0084102628752589,0.0080805635079741
1770451383198,-0.2479095458984375,-0.9597625732421876,-0.127532958984375,-0.0075029237195849,0.0020988371688872,0.0108308093622326
1770451383208,-0.2482757568359375,-0.9573516845703124,-0.1224365234375,-0.014029799029231,-0.0008282430935651,0.0052296495996415
1770451383218,-0.2505035400390625,-0.951904296875,-0.1239166259765625,-0.0106430565938353,0.0041257692500948,-0.0034666368737816
1770451383228,-0.2583160400390625,-0.952850341796875,-0.13690185546875,-0.006303702481091,-0.0108158960938453,-0.0114265587180852
1770451383238,-0.2597808837890625,-0.9554443359375,-0.1400146484375,-0.0100816627964377,-0.0221258085221052,-0.0168026816099882
1770451383248,-0.2565460205078125,-0.955169677734375,-0.13409423828125,-0.0127091370522975,-0.0167528819292783,-0.0211798530071973
1770451383258,-0.253631591796875,-0.95465087890625,-0.1289520263671875,-0.0244358349591493,-0.0072118402458727,-0.0204267110675573
1770451383269,-0.2475433349609375,-0.9583892822265624,-0.123931884765625,-0.024230770766735,0.0084566017612814,-0.0149432634934782
1770451383278,-0.24322509765625,-0.9624786376953124,-0.13232421875,-0.0225282125174999,0.0027095000259578,-0.0112814167514443
1770451383288,-0.24432373046875,-0.9619598388671876,-0.1337890625,-0.0253205373883247,-0.0023606258910149,-0.0039846217259764
1770451383298,-0.2419281005859375,-0.96044921875,-0.1321563720703125,-0.0229002553969621,0.012098740786314,0.0013547500129789
1770451383308,-0.2390594482421875,-0.9622955322265624,-0.13446044921875,-0.0184346679598093,0.0120247052982449,0.0033947313204407
1770451383318,-0.2440338134765625,-0.960662841796875,-0.131439208984375,-0.019625898450613,0.012582903727889,0.0121022025123238
1770451383328,-0.2449188232421875,-0.959716796875,-0.1313934326171875,-0.012574647553265,0.0215332545340061,0.0127331055700778
1770451383338,-0.2465362548828125,-0.965789794921875,-0.142425537109375,-0.0055034225806593,0.0096568884328007,0.0120984744280576
1770451383348,-0.2505645751953125,-0.96484375,-0.1483154296875,0.0014431669842451,-0.0092542180791497,0.0097210705280303
1770451383358,-0.2552032470703125,-0.9481048583984376,-0.140869140625,-0.0017283915076404,-0.0055047539062798,0.0030080403666943
1770451383368,-0.2571868896484375,-0.9495086669921876,-0.1311492919921875,0.0018058895366266,0.0052773198112845,-0.0007904262165538
1770451383378,-0.2513885498046875,-0.955810546875,-0.137939453125,0.0126441558822989,0.0017132115317508,-0.0050264503806829
1770451383389,-0.2511444091796875,-0.9561309814453124,-0.1388397216796875,0.0180549006909132,0.0032240226864814,-0.0114039219915866
1770451383399,-0.2529754638671875,-0.9591827392578124,-0.1329345703125,0.0209942311048507,0.0044480115175247,-0.0178437121212482
1770451383409,-0.2488861083984375,-0.9625244140625,-0.1302947998046875,0.0163600649684667,0.0064829331822693,-0.0115147093310952
1770451383419,-0.23974609375,-0.9559478759765624,-0.12371826171875,0.0091841770336031,0.0055180699564516,-0.0038195056840777
1770451383429,-0.2429656982421875,-0.953094482421875,-0.1267852783203125,0.0099389171227812,0.0037982002831995,-0.0027326694689691
1770451383439,-0.2518768310546875,-0.96160888671875,-0.1362762451171875,0.0079716397449374,-0.0007954862085171,0.0009270463488064
1770451383449,-0.2471160888671875,-0.9627838134765624,-0.13043212890625,0.0010330402292311,0.0112649053335189,0.0047444212250411
1770451383459,-0.245208740234375,-0.963226318359375,-0.1266326904296875,-0.0036048549227416,0.0237436797469854,0.0095109473913908
1770451383469,-0.246368408203125,-0.9638824462890624,-0.128662109375,-0.0049082059413194,0.0319890901446342,0.0102411862462759
1770451383479,-0.248779296875,-0.9612274169921876,-0.12677001953125,-0.006719421595335,0.0510482713580131,0.0099618202075362
1770451383489,-0.2504425048828125,-0.9587554931640624,-0.13165283203125,0.013816213235259,0.0712310373783111,0.0003946804790757
1770451383499,-0.256622314453125,-0.958770751953125,-0.149932861328125,0.0320735126733779,0.0620149001479148,-0.0141610922291874
1770451383509,-0.26348876953125,-0.952850341796875,-0.1482086181640625,0.0132217956706881,0.00515987444669,-0.0188959259539842
1770451383519,-0.2510223388671875,-0.9458465576171876,-0.1064453125,-0.020610736683011,-0.0328578166663646,-0.0071135694161057
1770451383529,-0.243560791015625,-0.9518890380859376,-0.106475830078125,-0.0193936713039875,-0.0001824265345931,-0.0140295326709747
1770451383539,-0.2485504150390625,-0.9615936279296876,-0.1329803466796875,-0.0188466589897871,0.0103431846946477,-0.0073354109190404
1770451383549,-0.240997314453125,-0.9613189697265624,-0.12994384765625,-0.0156527291983366,-0.0052823801524937,0.0022703448776155
1770451383559,-0.2405242919921875,-0.9612274169921876,-0.13787841796875,-0.0105061708018183,-0.0195681080222129,0.0041753039695322
1770451383569,-0.2451629638671875,-0.958831787109375,-0.141448974609375,-0.0075860144570469,-0.0267618391662836,0.0049151298590004
1770451383579,-0.2463226318359375,-0.9556732177734376,-0.13580322265625,-0.0110449278727173,-0.0155872153118252,0.0097983023151755
1770451383589,-0.2410125732421875,-0.958984375,-0.1265106201171875,-0.0108166951686143,0.0090848412364721,0.010954912751913
1770451383599,-0.2442169189453125,-0.9582672119140624,-0.129669189453125,-0.0065710837952792,0.0076723005622625,0.0109344068914651
1770451383610,-0.24853515625,-0.9588470458984376,-0.1322784423828125,-0.0074581825174391,-0.0105202849954366,0.0095511609688401
1770451383620,-0.2509613037109375,-0.9580535888671876,-0.1320037841796875,-0.0051894355565309,-0.0091942977160215,0.0061918497085571
1770451383630,-0.25164794921875,-0.95635986328125,-0.133819580078125,-0.0094856470823287,-0.0026660906150937,0.0040112533606588
1770451383640,-0.2508544921875,-0.95587158203125,-0.1262664794921875,-0.0135858496651053,-0.0008002799004316,-0.0004942826926708
1770451383650,-0.2523956298828125,-0.958282470703125,-0.1250152587890625,-0.0168852396309375,-0.0111256213858723,0.00031292141648
1770451383660,-0.252685546875,-0.95947265625,-0.13079833984375,-0.021624868735671,-0.0173068176954984,-0.0004410194815136
1770451383670,-0.2494354248046875,-0.9582977294921876,-0.128082275390625,-0.0316671170294284,-0.0098739359527826,-0.0007600661483593
1770451383680,-0.247344970703125,-0.9583587646484376,-0.1240692138671875,-0.0333686098456382,0.0044131241738796,0.0010985539993271
1770451383690,-0.2462615966796875,-0.9604034423828124,-0.12957763671875,-0.0391878820955753,0.0109336078166961,0.0046794405207037
1770451383700,-0.245025634765625,-0.958770751953125,-0.1272125244140625,-0.035838957875967,0.0211590807884931,0.0059513659216463
1770451383710,-0.2478790283203125,-0.95703125,-0.1376190185546875,-0.027362648397684,0.0135568212717771,0.005649097263813
1770451383720,-0.2491455078125,-0.959991455078125,-0.141082763671875,-0.0246819108724594,-0.0054054181091487,0.0061345915310084
1770451383730,-0.24945068359375,-0.9576263427734376,-0.1354522705078125,-0.0232443362474441,0.0019113506423309,0.0041308291256427
1770451383740,-0.2507476806640625,-0.9573211669921876,-0.13507080078125,-0.0215436406433582,0.0038719698786735,0.0037097833119332
1770451383750,-0.24755859375,-0.9551239013671876,-0.13519287109375,-0.016790697351098,0.0033001892734318,0.0034855452831834
1770451383760,-0.250030517578125,-0.9590911865234376,-0.1416778564453125,-0.0033129723742604,-0.0062240739353001,0.0003406183095648
1770451383770,-0.2539825439453125,-0.95947265625,-0.1496429443359375,0.0045590652152895,-0.013466540724039,-0.0064629591070115
1770451383780,-0.253204345703125,-0.9560546875,-0.145263671875,0.005961219780147,-0.0079657807946205,-0.0081809647381305
1770451383790,-0.2503814697265625,-0.9567413330078124,-0.1357269287109375,0.01520611718297,-0.0041774343699216,-0.0069939936511218
1770451383800,-0.24859619140625,-0.962005615234375,-0.1489715576171875,0.0241061355918645,-0.0151179665699601,-0.0049417614936828
1770451383810,-0.250823974609375,-0.9583587646484376,-0.141754150390625,0.0238091927021741,-0.0231436677277088,-0.0040786312893033
1770451383821,-0.248138427734375,-0.9577484130859376,-0.131011962890625,0.0306431297212839,-0.010759437456727,-0.0041457428596913
1770451383830,-0.248046875,-0.9593353271484376,-0.138336181640625,0.0369753278791904,-0.0024304008111357,-0.0060222060419619
1770451383841,-0.248626708984375,-0.959686279296875,-0.1394195556640625,0.0471035949885845,-0.0071101072244346,-0.0119115207344293
1770451383851,-0.254608154296875,-0.9576873779296876,-0.1390380859375,0.0476482138037681,-0.0108625013381242,-0.0138031635433435
1770451383861,-0.2487030029296875,-0.9559326171875,-0.1295623779296875,0.0377340614795684,-0.0157486032694578,-0.0083775054663419
1770451383871,-0.24395751953125,-0.9570770263671876,-0.119873046875,0.02468803524971,-0.014209029264748,-0.006574279628694
1770451383881,-0.244842529296875,-0.9578399658203124,-0.1184844970703125,0.0143001098185777,-0.00281442864798,-0.0037848844658583
1770451383891,-0.24554443359375,-0.9577484130859376,-0.11962890625,0.0094350473955273,0.005167331546545,-0.0018378474051132
1770451383901,-0.2452239990234375,-0.961181640625,-0.124725341796875,0.0014421016676351,-0.0021153488196432,0.0043049999512732
1770451383911,-0.2457275390625,-0.962432861328125,-0.1246337890625,0.0016639430541545,0.0008876316132955,0.0051859733648598
1770451383921,-0.2491912841796875,-0.9593658447265624,-0.1260986328125,-0.0015616776654496,0.0060192765668034,0.0092321140691638
1770451383931,-0.2471466064453125,-0.95751953125,-0.1260223388671875,-0.0002572613593656,0.0221598967909812,0.0086305057629942
1770451383941,-0.2498016357421875,-0.95660400390625,-0.1298370361328125,0.0054911719635128,0.0259570311754941,0.0054991613142192
1770451383951,-0.25323486328125,-0.95843505859375,-0.133575439453125,0.0046887611970305,0.0066054384224116,-0.0015044197207316
1770451383961,-0.256500244140625,-0.9563751220703124,-0.12994384765625,0.0008753810543566,-0.0038943404797464,-0.0088147968053817
1770451383971,-0.2542572021484375,-0.9574432373046876,-0.132049560546875,0.0007877630414441,-0.0062597598880529,-0.011585016734898
1770451383981,-0.2537994384765625,-0.958221435546875,-0.136138916015625,-0.0056307213380932,-0.0227319430559873,-0.0094547541812062
1770451383991,-0.2498016357421875,-0.9587249755859376,-0.1253814697265625,-0.0095455683767795,-0.0179901849478483,-0.0046938215382397
1770451384001,-0.2469329833984375,-0.9607696533203124,-0.1280975341796875,-0.0056823869235813,-0.0079588564112782,-0.0029827402904629
1770451384011,-0.2471160888671875,-0.9565887451171876,-0.131591796875,-0.0082888221368193,-0.009066198952496,-0.0073814834468066
1770451384021,-0.2502899169921875,-0.9472503662109376,-0.121490478515625,-0.0049074068665504,0.006950850598514,-0.0166104026138782
1770451384032,-0.2487640380859375,-0.947021484375,-0.1290130615234375,0.0027121631428599,0.0193286910653114,-0.0202778410166502
1770451384042,-0.2490692138671875,-0.9474945068359376,-0.123870849609375,-0.0043060649186372,0.008264853619039,-0.0157366190105676
1770451384052,-0.2474212646484375,-0.9763946533203124,-0.129180908203125,-0.002585396869108,-0.0060927798040211,0.0013214604696258
1770451384062,-0.2353668212890625,-0.9809417724609376,-0.146026611328125,-0.0014879080699756,-0.0122904879972338,0.013693175278604
1770451384072,-0.2384796142578125,-0.9612884521484376,-0.1333160400390625,0.0028620990924537,0.0078203724697232,0.0077916104346513
1770451384082,-0.2506103515625,-0.9554901123046876,-0.1328125,0.0098640825599432,0.0132140722125768,0.0030724888201802
1770451384092,-0.24639892578125,-0.9536895751953124,-0.1302337646484375,0.0162697844207286,0.0187505185604095,-0.0030445256270468
1770451384102,-0.2478485107421875,-0.9499664306640624,-0.1277923583984375,0.0259911213070154,0.0181273389607667,-0.0166628658771514
1770451384112,-0.2507476806640625,-0.95330810546875,-0.131988525390625,0.0149163650348782,-0.0057335193268954,-0.0183313358575105
1770451384122,-0.24981689453125,-0.9598541259765624,-0.1184539794921875,0.0013134710025042,-0.0013371731620281,-0.0074808192439377
1770451384132,-0.2430877685546875,-0.9629058837890624,-0.1221771240234375,-0.0074448669329285,0.0013872405979782,0.0005350290448404
1770451384142,-0.2454986572265625,-0.9623565673828124,-0.1279296875,-0.0117056583985686,-0.0059873186983168,0.005437109619379
1770451384152,-0.2489013671875,-0.9594879150390624,-0.1351318359375,-0.0141834635287523,-0.0017624800093472,0.0053822486661374
1770451384162,-0.252044677734375,-0.9574432373046876,-0.134490966796875,-0.0141776045784354,0.0039348206482827,0.0062765381298959
1770451384172,-0.252349853515625,-0.9560394287109376,-0.1311798095703125,-0.0176610182970762,0.004251470323652,0.0034314829390496
1770451384183,-0.2523345947265625,-0.9562530517578124,-0.1268463134765625,-0.0089761847630143,0.0132918367162346,0.0020088222809135
1770451384192,-0.25360107421875,-0.9603118896484376,-0.1368865966796875,0.0045513422228395,0.0007147924043238,-0.0006428870838135
1770451384202,-0.2544403076171875,-0.96051025390625,-0.1366424560546875,0.0169808473438024,-0.0175734013319015,-0.0051819789223372
1770451384212,-0.253326416015625,-0.956787109375,-0.1344146728515625,0.0254465043544769,-0.0233023930341005,-0.0115575864911079
1770451384222,-0.2516326904296875,-0.954132080078125,-0.13238525390625,0.0288193970918655,-0.0238235741853714,-0.0152745600789785
1770451384232,-0.2483367919921875,-0.9537811279296876,-0.128448486328125,0.0211050193756818,-0.0137722715735435,-0.0135187385603785
1770451384243,-0.244842529296875,-0.95513916015625,-0.1225738525390625,0.0206983536481857,0.0001518001809017,-0.0142724132165312
1770451384252,-0.2472076416015625,-0.95904541015625,-0.12701416015625,0.0170990917831659,-0.0037723677232861,-0.008854211308062
1770451384263,-0.246856689453125,-0.9597625732421876,-0.1261138916015625,0.0055412393994629,-0.0092885736376047,-0.0059732040390372
1770451384273,-0.2427520751953125,-0.959136962890625,-0.1191558837890625,0.0021129520609974,-0.0045689190737903,-0.0015358449891209
1770451384283,-0.2418060302734375,-0.96221923828125,-0.125091552734375,0.0050695934332907,0.002240251051262,0.0021643510553985
1770451384293,-0.2397308349609375,-0.966217041015625,-0.128448486328125,0.0013062804937362,-0.0003302319673821,0.0081689804792404
1770451384303,-0.2408905029296875,-0.962738037109375,-0.12127685546875,0.0037300232797861,0.0020607539918273,0.0082435486838221
1770451384313,-0.2469329833984375,-0.96051025390625,-0.1290283203125,0.0112262889742851,-0.0024804682470858,0.005412608385086
1770451384323,-0.249969482421875,-0.9590301513671876,-0.1316680908203125,0.0121663846075534,-0.0140913175418972,0.003425890346989
1770451384333,-0.2500152587890625,-0.9576568603515624,-0.1268157958984375,0.0123943518847227,-0.0175616834312677,0.0031129689887166
1770451384343,-0.250396728515625,-0.95721435546875,-0.12567138671875,0.0080115878954529,-0.0141491089016199,-0.0017528926255181
1770451384353,-0.24951171875,-0.9632415771484376,-0.126434326171875,0.0028000476304441,-0.007195328362286,0.0067018447443842
1770451384363,-0.2439117431640625,-0.9576263427734376,-0.1261444091796875,0.0079809613525867,0.0032996565569192,0.0033798178192228
1770451384373,-0.2515106201171875,-0.9495391845703124,-0.1311798095703125,0.0044618602842092,0.0052560148760676,-0.0017030915478244
1770451384383,-0.255584716796875,-0.9579620361328124,-0.123016357421875,0.0064877266995608,0.0021193434949964,-5.459480235003866e-05
1770451384393,-0.2441558837890625,-0.9559173583984376,-0.1273040771484375,0.0164463520050048,-0.0006378270918503,-0.0056895771995186
1770451384403,-0.24993896484375,-0.9558563232421876,-0.1344146728515625,0.0281192529946565,-0.0090371705591678,-0.0139171471819281
1770451384413,-0.2560272216796875,-0.9612884521484376,-0.1352081298828125,0.0361627973616123,-0.0222304705530405,-0.0155563224107027
1770451384423,-0.248779296875,-0.957122802734375,-0.13018798828125,0.037568412721157,-0.030254041776061,-0.0180125553160905
1770451384433,-0.24810791015625,-0.9563751220703124,-0.1264495849609375,0.038232073187828,-0.026183933019638,-0.0171169359236955
1770451384443,-0.246673583984375,-0.957183837890625,-0.123809814453125,0.0348884761333465,-0.0170077458024024,-0.0139352567493915
1770451384453,-0.2452850341796875,-0.961181640625,-0.1179962158203125,0.0229441970586776,-0.0106087019667029,-0.009909089654684
1770451384464,-0.244598388671875,-0.96258544921875,-0.1123199462890625,0.0134092820808291,-0.0036336169578135,-0.0035297537688165
1770451384473,-0.2450714111328125,-0.9619598388671876,-0.117431640625,0.0088227866217494,-0.0060216733254492,-0.0011829761788249
1770451384484,-0.247222900390625,-0.960296630859375,-0.1225738525390625,0.0056970342993736,-0.0074086477980017,-0.0042589269578456
1770451384494,-0.25079345703125,-0.959014892578125,-0.12579345703125,0.0115538584068417,-0.007537011988461,-0.0046048718504607
1770451384504,-0.2491455078125,-0.9593353271484376,-0.12847900390625,0.0179012361913919,-0.0112366750836372,-0.007505586836487
1770451384514,-0.2486114501953125,-0.9597320556640624,-0.12750244140625,0.027228157967329,-0.0167566090822219,-0.0089807119220495
1770451384524,-0.248748779296875,-0.9617156982421876,-0.1322174072265625,0.0385780185461044,-0.0155776282772421,-0.0092840455472469
1770451384534,-0.244842529296875,-0.9635009765625,-0.128997802734375,0.04518798366189,-0.0189124383032321,-0.004800347611308
1770451384544,-0.24114990234375,-0.9601898193359376,-0.1243743896484375,0.0511236377060413,-0.0125895617529749,-0.0078248996287584
1770451384554,-0.2467803955078125,-0.95989990234375,-0.12652587890625,0.0543218292295932,-0.00497158896178,-0.0068813418038189
1770451384564,-0.2464141845703125,-0.96038818359375,-0.11920166015625,0.0524272546172142,-0.0066597666591405,-0.0019025622168555
1770451384574,-0.241241455078125,-0.958953857421875,-0.1162567138671875,0.0560747198760509,-0.0152852125465869,-0.002371278591454
1770451384585,-0.24871826171875,-0.961700439453125,-0.1262054443359375,0.0607046261429786,-0.0221282057464122,-0.0028999161440879
1770451384594,-0.2504119873046875,-0.9585418701171876,-0.122955322265625,0.058759719133377,-0.0206674616783857,-0.0045750443823635
1770451384604,-0.2472076416015625,-0.958709716796875,-0.1171112060546875,0.0567961707711219,-0.0109429284930229,-0.0035433357115834
1770451384614,-0.2464752197265625,-0.9611663818359376,-0.11334228515625,0.0527183376252651,-0.0015574166318401,-0.0011419634101912
1770451384624,-0.2459716796875,-0.9616851806640624,-0.1107330322265625,0.0450590886175632,0.0011337077012285,0.0017984326696023
1770451384634,-0.2425384521484375,-0.9628143310546876,-0.1048736572265625,0.036765206605196,0.0029308088123798,0.0063082296401262
1770451384644,-0.2436370849609375,-0.9636993408203124,-0.10595703125,0.0254443734884262,-0.0025944514200091,0.0082640554755926
1770451384654,-0.2472076416015625,-0.9608612060546876,-0.10205078125,0.0121344272047281,-0.0005078648100607,0.0084512755274772
1770451384664,-0.2470703125,-0.9598541259765624,-0.0987548828125,0.0071718925610184,0.0055982307530939,0.0040994039736688
1770451384674,-0.2509918212890625,-0.962646484375,-0.109039306640625,-0.0026594325900077,0.0093599455431103,0.0030810111202299
1770451384685,-0.249603271484375,-0.960968017578125,-0.1044769287109375,-0.0055324509739875,0.0181696824729442,0.0029100361280143
1770451384695,-0.249298095703125,-0.9585418701171876,-0.110809326171875,-0.0038434739690274,0.0117125827819108,0.0002596582053229
1770451384705,-0.249267578125,-0.962921142578125,-0.118408203125,-0.0092086782678961,-0.0070358053781092,-0.0046112635172903
1770451384715,-0.253326416015625,-0.962066650390625,-0.1144561767578125,-0.0125908926129341,0.0028304075822234,-0.0051401671953499
1770451384725,-0.2468719482421875,-0.959625244140625,-0.1100921630859375,-0.0112233599647879,0.0149853406473994,-0.0054192664101719
1770451384735,-0.24468994140625,-0.9607391357421876,-0.1121978759765625,-0.0138777326792478,0.0046733152121305,-0.0004183826094958
1770451384745,-0.2483673095703125,-0.9622955322265624,-0.114959716796875,-0.0095961680635809,-0.0011432950850576,-0.0014735270524397
1770451384755,-0.2494354248046875,-0.960296630859375,-0.1177978515625,-0.0109823439270257,-0.004815527703613,-0.0032743564806878
1770451384765,-0.24713134765625,-0.9584197998046876,-0.109649658203125,-0.0181547682732343,-0.0015763250412419,-0.0020064255222678
1770451384775,-0.2448883056640625,-0.96044921875,-0.108154296875,-0.0212980974465608,0.0128987543284893,-0.0012317119399085
1770451384786,-0.2448883056640625,-0.960540771484375,-0.111663818359375,-0.0231122430413961,0.0300010424107313,0.0037039243616163
1770451384795,-0.2429656982421875,-0.961517333984375,-0.1162261962890625,-0.0225322060286998,0.0335776656866073,0.0071655013598501
1770451384805,-0.2418212890625,-0.964691162109375,-0.116546630859375,-0.0268073789775371,0.0253895130008459,0.0124121950939297
1770451384815,-0.2432403564453125,-0.9633331298828124,-0.113616943359375,-0.0231170374900102,0.0321265123784542,0.0120571954175829
1770451384825,-0.2482452392578125,-0.9607086181640624,-0.1213531494140625,-0.0140103576704859,0.039076030254364,0.0115107148885726
1770451384835,-0.2462005615234375,-0.9605865478515624,-0.1220550537109375,-0.0149810798466205,0.0300492458045482,0.013022325001657
1770451384845,-0.245758056640625,-0.96112060546875,-0.115875244140625,-0.0108012482523918,0.0337787345051765,0.0128721231594681
1770451384855,-0.247589111328125,-0.958709716796875,-0.1203155517578125,-0.0048203216865658,0.0366885066032409,0.0079828249290585
1770451384865,-0.2496185302734375,-0.9594268798828124,-0.1221466064453125,0.0003712446487043,0.0310279577970504,0.00698067760095
1770451384875,-0.2494049072265625,-0.9625701904296876,-0.1196136474609375,-0.0007219829712994,0.0223444532603025,0.007857390679419
1770451384885,-0.246734619140625,-0.9630126953125,-0.1141510009765625,-0.0023933828342705,0.0170434322208166,0.0094723310321569
1770451384895,-0.2469329833984375,-0.9627227783203124,-0.1159515380859375,0.0011640676530078,0.0107538439333438,0.0112164355814456
1770451384906,-0.25213623046875,-0.960784912109375,-0.1209564208984375,-0.0025449167005717,0.0005427522119134,0.0078584561124444
1770451384916,-0.252288818359375,-0.9539642333984376,-0.112091064453125,-0.0149483233690261,0.0001683117734501,0.0056949034333229
1770451384926,-0.2500457763671875,-0.9521942138671876,-0.1036834716796875,-0.0193782243877649,0.009465673007071,0.0046815709210932
1770451384936,-0.2505645751953125,-0.9571533203125,-0.1123809814453125,-0.0191667694598436,0.0100214751437306,0.0061369882896542
1770451384946,-0.2501678466796875,-0.96063232421875,-0.120941162109375,-0.0211644079536199,0.0044392230920493,0.005494900047779
1770451384956,-0.24786376953125,-0.9636993408203124,-0.1178131103515625,-0.0259016379714012,-0.0017409083666279,0.0065569686703383
1770451384966,-0.24945068359375,-0.9641876220703124,-0.1147003173828125,-0.0235942751169204,0.0056163403205573,0.0088398307561874
1770451384976,-0.247833251953125,-0.965423583984375,-0.12176513671875,-0.0216898489743471,0.0090393014252185,0.011691010557115
1770451384986,-0.24725341796875,-0.9663238525390624,-0.1213836669921875,-0.0254148133099079,0.0078081218525767,0.020233366638422
1770451384996,-0.2444610595703125,-0.9586334228515624,-0.1171722412109375,-0.0180876571685075,0.0146726863458752,0.0164839010685682
1770451385006,-0.2478485107421875,-0.9535675048828124,-0.1204681396484375,-0.0078424764797091,0.0216142144054174,0.0068206219002604
1770451385016,-0.2498931884765625,-0.9507904052734376,-0.119232177734375,-0.0042490735650062,0.0209255218505859,0.0017654094845056
1770451385026,-0.2514190673828125,-0.9459991455078124,-0.1118621826171875,-0.0026258768048137,0.0249271877110004,-0.0055484296754002
1770451385036,-0.2557373046875,-0.972900390625,-0.121856689453125,-0.0090614054352045,-0.0016413062112405,0.0046946201473474
1770451385046,-0.2420654296875,-0.978118896484375,-0.1285400390625,-0.0150378048419952,-0.0137072904035449,0.0173012260347604
1770451385056,-0.2408447265625,-0.962188720703125,-0.1180572509765625,-0.0144865307956933,-0.0057582869194447,0.0146700227633118
1770451385066,-0.2511444091796875,-0.9580841064453124,-0.1180419921875,-0.0020074907224625,0.01194454357028,0.0092140045017004
1770451385076,-0.251678466796875,-0.94989013671875,-0.1219482421875,0.0030807447619736,0.0009025452891364,-0.0004607268783729
1770451385086,-0.2520904541015625,-0.9514617919921876,-0.118194580078125,0.0126042086631059,-0.0082126557826995,-0.0134047549217939
1770451385096,-0.2554473876953125,-0.9564056396484376,-0.1279449462890625,0.0152183678001165,-0.0262276083230972,-0.0171350445598363
1770451385107,-0.2523040771484375,-0.96295166015625,-0.1237945556640625,0.0036139094736427,-0.0469744317233562,-0.0069963904097676
1770451385117,-0.2459259033203125,-0.964569091796875,-0.111328125,-0.0077407439239323,-0.0390209034085273,0.0035712989047169
1770451385127,-0.2423858642578125,-0.96441650390625,-0.114105224609375,-0.0156513974070549,-0.0088334390893578,0.0114915398880839
1770451385137,-0.2435302734375,-0.96331787109375,-0.1129913330078125,-0.0242171883583068,0.0220831986516714,0.0199057981371879
1770451385146,-0.2435150146484375,-0.9608306884765624,-0.1107177734375,-0.0265487860888242,0.0433208420872688,0.0241929534822702
1770451385157,-0.245635986328125,-0.9641265869140624,-0.1192474365234375,-0.0246267821639776,0.0431424118578434,0.02583266235888
1770451385167,-0.25103759765625,-0.9630584716796876,-0.1172027587890625,-0.0285070091485977,0.027286747470498,0.0289134066551923
1770451385177,-0.25201416015625,-0.961151123046875,-0.11163330078125,-0.0264369342476129,0.027860127389431,0.026583407074213
1770451385187,-0.25213623046875,-0.95880126953125,-0.1150360107421875,-0.0322772450745105,0.021518075838685,0.0284161940217018
1770451385197,-0.250274658203125,-0.9568939208984376,-0.106170654296875,-0.031556062400341,0.0223961193114519,0.0284779798239469
1770451385207,-0.2492523193359375,-0.957611083984375,-0.11529541015625,-0.0296995714306831,0.0159877557307481,0.0219668168574571
1770451385217,-0.253204345703125,-0.9560394287109376,-0.119659423828125,-0.0326815135776996,0.0132502913475036,0.0168026816099882
1770451385227,-0.257476806640625,-0.9545440673828124,-0.1175994873046875,-0.0439560078084468,0.0230339467525482,0.0088653964921832
1770451385237,-0.2541351318359375,-0.9546356201171876,-0.1123504638671875,-0.0544453971087932,0.0302085019648075,0.0056672068312764
1770451385247,-0.2537078857421875,-0.9546051025390624,-0.1115264892578125,-0.0611451119184494,0.03699317201972,0.0062395199202001
1770451385257,-0.254425048828125,-0.9599609375,-0.118621826171875,-0.0647550299763679,0.0372634828090667,0.0102031026035547
1770451385271,-0.250885009765625,-0.9594879150390624,-0.1216888427734375,-0.0662730261683464,0.03168735653162,0.0128292459994554
1770451385277,-0.2484283447265625,-0.96197509765625,-0.1243133544921875,-0.0643403753638267,0.0281474813818931,0.0158245023339986
1770451385287,-0.2506103515625,-0.96099853515625,-0.127960205078125,-0.0587533265352249,0.0322162583470344,0.0160665847361087
1770451385297,-0.2501068115234375,-0.958648681640625,-0.128692626953125,-0.0527324527502059,0.0265402644872665,0.0172873772680759
1770451385307,-0.252197265625,-0.957122802734375,-0.1299591064453125,-0.042734146118164,0.0160039998590946,0.0135973012074828
1770451385317,-0.257293701171875,-0.9561309814453124,-0.1417694091796875,-0.0305307451635599,0.0063244746997952,0.0098872520029544
1770451385327,-0.257720947265625,-0.9627532958984376,-0.145233154296875,-0.0253783278167247,-0.0012799152173101,0.011330684646964
1770451385338,-0.253936767578125,-0.96417236328125,-0.1389617919921875,-0.0160958785563707,-0.0042168493382632,0.0140276681631803
1770451385348,-0.2533721923828125,-0.953033447265625,-0.1434478759765625,-0.0079506011679768,0.0037113812286406,0.0124081997200846
1770451385358,-0.2562255859375,-0.95782470703125,-0.133758544921875,-0.0051524178124964,0.0048605352640151,0.0206927619874477
1770451385368,-0.243682861328125,-0.9559478759765624,-0.1270751953125,0.0079117184504866,0.0070262178778648,0.023264043033123
1770451385378,-0.2469940185546875,-0.9564208984375,-0.137451171875,0.0231383424252271,0.0055028898641467,0.0148660317063331
1770451385388,-0.2541046142578125,-0.9553070068359376,-0.1346435546875,0.033210951834917,0.0068227523006498,0.0124513432383537
1770451385398,-0.25,-0.95672607421875,-0.1283721923828125,0.0430278927087783,-0.0016021577175706,0.013734720647335
1770451385408,-0.2490692138671875,-0.9608001708984376,-0.1315460205078125,0.0433725081384182,-0.0316647179424762,0.0107546430081129
1770451385418,-0.254180908203125,-0.9611968994140624,-0.1255645751953125,0.034041590988636,-0.0439733155071735,0.0114297550171613
1770451385428,-0.251953125,-0.9590911865234376,-0.1148834228515625,0.0160990748554468,-0.0382784120738506,0.0164601989090442
1770451385438,-0.24969482421875,-0.960723876953125,-0.107330322265625,0.0075577846728265,-0.0089932288974523,0.0192344151437282
1770451385448,-0.2525482177734375,-0.961578369140625,-0.1165771484375,0.0054682684130966,0.0086060054600238,0.0209984928369522
1770451385458,-0.25653076171875,-0.9589080810546876,-0.1233062744140625,0.0051548145711421,-0.0002676477015484,0.0212783906608819
1770451385468,-0.2583465576171875,-0.958038330078125,-0.1225433349609375,-0.0069561768323183,-0.0172333158552646,0.0208301804959774
1770451385478,-0.255645751953125,-0.9531097412109376,-0.113555908203125,-0.0064158211462199,-0.0168809797614812,0.0168141331523656
1770451385488,-0.2610931396484375,-0.9561767578125,-0.12811279296875,-0.0038133803755044,-0.0176474377512931,0.0124838342890143
1770451385498,-0.26287841796875,-0.9558563232421876,-0.125152587890625,-0.0034743598662316,-0.0147352702915668,0.0051217912696301
1770451385508,-0.262481689453125,-0.95379638671875,-0.1208343505859375,-0.0006455502589233,-0.0097692739218473,0.0027949875220656
1770451385518,-0.256622314453125,-0.9565277099609376,-0.1265716552734375,0.0016956346808001,-0.0206544119864702,0.0007592672482132
1770451385528,-0.2589263916015625,-0.955902099609375,-0.1244659423828125,0.0038567897863686,-0.0282436218112707,0.0012879046844318
1770451385538,-0.253875732421875,-0.9584808349609376,-0.125030517578125,0.0128263160586357,-0.0237644519656896,0.0004900216590613
1770451385548,-0.25341796875,-0.960601806640625,-0.1286468505859375,0.0139083582907915,-0.028801554813981,0.0046099317260086
1770451385559,-0.2506256103515625,-0.959564208984375,-0.119659423828125,0.0022144184913486,-0.0377934500575065,0.0113613111898303
1770451385569,-0.2497100830078125,-0.9554290771484376,-0.1092529296875,-0.000295610865578,-0.0191939342767,0.0132462969049811
1770451385579,-0.2505340576171875,-0.95782470703125,-0.1195068359375,0.0001150485550169,-0.0094156060367822,0.014413028024137
1770451385589,-0.25311279296875,-0.9590606689453124,-0.1175384521484375,-0.0119717083871364,-0.016813600435853,0.0204192548990249
1770451385599,-0.2521820068359375,-0.956146240234375,-0.1088714599609375,-0.0113338809460401,-0.0012016182299703,0.0213532261550426
1770451385609,-0.2534027099609375,-0.956207275390625,-0.1217041015625,-0.0096406433731317,0.0091972267255187,0.0189270861446857
1770451385619,-0.2583160400390625,-0.958892822265625,-0.120697021484375,-0.0141853271052241,0.0047851679846644,0.0206309761852026
1770451385629,-0.2583770751953125,-0.9583740234375,-0.1188201904296875,-0.0140140857547521,-0.0023249397054314,0.0209316462278366
1770451385639,-0.256134033203125,-0.9593048095703124,-0.122344970703125,-0.0215628165751695,-0.0106188217177987,0.0193273592740297
1770451385649,-0.2591094970703125,-0.9557952880859376,-0.1131591796875,-0.0329550206661224,0.000802676717285,0.0179201439023017
1770451385659,-0.257720947265625,-0.952606201171875,-0.1079864501953125,-0.0360853001475334,0.0292814560234546,0.0186280123889446
1770451385669,-0.2580108642578125,-0.955413818359375,-0.118316650390625,-0.0376741401851177,0.0397649891674518,0.0168016161769628
1770451385679,-0.258941650390625,-0.9589996337890624,-0.120086669921875,-0.042751457542181,0.032464999705553,0.0211010240018367
1770451385689,-0.25823974609375,-0.95391845703125,-0.11895751953125,-0.0494804680347442,0.0193073842674493,0.0179816633462905
1770451385699,-0.260009765625,-0.9533538818359376,-0.1220245361328125,-0.0502804815769195,0.0126098012551665,0.01593236066401
1770451385709,-0.260406494140625,-0.955963134765625,-0.1243438720703125,-0.0536832027137279,0.0096182720735669,0.013318202458322
1770451385719,-0.2601776123046875,-0.9552459716796876,-0.124725341796875,-0.0480673946440219,0.0121160512790083,0.0111991250887513
1770451385729,-0.262054443359375,-0.9551239013671876,-0.1324005126953125,-0.0392251685261726,0.0115799568593502,0.0075106467120349
1770451385739,-0.2635955810546875,-0.954803466796875,-0.1369781494140625,-0.0300337988883256,0.0063740098848938,0.0005739112384617
1770451385749,-0.2642822265625,-0.9553070068359376,-0.136199951171875,-0.0256150811910629,0.0054091466590762,0.0022394522093236
1770451385759,-0.25933837890625,-0.955230712890625,-0.1315155029296875,-0.0223907921463251,0.0039569246582686,0.0012247877893969
1770451385770,-0.2556610107421875,-0.9566192626953124,-0.1317291259765625,-0.0141046335920691,0.0020759340841323,0.0019808590877801
1770451385780,-0.2581634521484375,-0.96051025390625,-0.13690185546875,-0.0033606430515646,-0.005046157632023,0.0002809634897857
1770451385790,-0.2614593505859375,-0.9560394287109376,-0.1354522705078125,-0.0015614113071933,-0.0081964107230305,0.0042448122985661
1770451385800,-0.25555419921875,-0.955963134765625,-0.13079833984375,0.0040006004273891,0.0041252365335822,0.0043412190861999
1770451385810,-0.2567901611328125,-0.955322265625,-0.1308441162109375,0.0083519397303462,0.0193020589649677,0.0036988644860684
1770451385820,-0.255615234375,-0.9548797607421876,-0.126708984375,0.0113578494638204,0.023480026051402,0.0067915935069322
1770451385830,-0.2549285888671875,-0.9576263427734376,-0.126617431640625,0.0186426602303981,0.0144668240100145,0.006941529456526
1770451385840,-0.2565155029296875,-0.95751953125,-0.1308746337890625,0.016465526074171,-0.0068267472088336,0.0077282269485294
1770451385850,-0.25701904296875,-0.9552459716796876,-0.123565673828125,0.0147256832569837,-0.0133805200457572,0.0090403668582439
1770451385860,-0.2566680908203125,-0.9530029296875,-0.12005615234375,-0.0016104135429486,-0.0227098390460014,0.0119775673374533
1770451385870,-0.25604248046875,-0.9506683349609376,-0.1103057861328125,-0.004302336834371,-0.0054347128607332,0.0117884827777743
1770451385880,-0.26025390625,-0.9533233642578124,-0.121490478515625,-0.0013803163310512,0.0039300266653299,0.0102760735899209
1770451385890,-0.2632293701171875,-0.9561920166015624,-0.12908935546875,0.0035249600186944,-0.0041364217177033,0.0108550442382693
1770451385900,-0.260528564453125,-0.958221435546875,-0.1302642822265625,0.002280997345224,-0.0179313290864229,0.0102880578488111
1770451385910,-0.260711669921875,-0.95794677734375,-0.1273193359375,-0.0011542140273377,-0.0214640125632286,0.0103644905611872
1770451385920,-0.262359619140625,-0.9567718505859376,-0.123046875,-0.0087716532871127,-0.015777364373207,0.008528240956366
1770451385930,-0.262603759765625,-0.956329345703125,-0.1200714111328125,-0.016306534409523,-0.0073117087595164,0.0120657179504632
1770451385940,-0.258941650390625,-0.95965576171875,-0.1219940185546875,-0.0130862407386302,0.0009464874165132,0.017186177894473
1770451385950,-0.258880615234375,-0.9554290771484376,-0.1298828125,-0.0046176551841199,0.0060674799606204,0.0110603738576173
1770451385960,-0.2628021240234375,-0.9473114013671876,-0.12841796875,0.0031198931392282,0.0109288142994046,0.0041563953272998
1770451385971,-0.2629241943359375,-0.944732666015625,-0.1287994384765625,0.0123200491070747,0.0143435187637805,-0.004056526813656
1770451385980,-0.26446533203125,-0.9450531005859376,-0.12591552734375,0.0057734670117497,0.0111168334260582,-0.0078627169132232
1770451385991,-0.26544189453125,-0.9686431884765624,-0.1227264404296875,0.0022932479623705,-0.0098126828670501,0.0022586269769817
1770451386001,-0.2519073486328125,-0.97784423828125,-0.13519287109375,-0.0004322310560382,-0.0312247648835182,0.0165110658854246
1770451386011,-0.251739501953125,-0.964996337890625,-0.1280517578125,-0.0005206479690968,-0.0269325487315654,0.0150473928079009
1770451386021,-0.263763427734375,-0.9534759521484376,-0.1245574951171875,0.0075015919283032,-0.0004495415778364,0.0083255739882588
1770451386031,-0.2636871337890625,-0.9438934326171876,-0.1206207275390625,0.0145994490012526,0.011209244839847,-0.0053691989742219
1770451386041,-0.266632080078125,-0.94622802734375,-0.12371826171875,0.0160402189940214,0.0028620990924537,-0.013319001533091
1770451386052,-0.2645416259765625,-0.9501953125,-0.126251220703125,0.0225596372038126,-0.0094451671466231,-0.0146953230723738
1770451386061,-0.2628326416015625,-0.9593963623046876,-0.1328277587890625,0.015581889078021,-0.030468426644802,-0.0090896347537636
1770451386071,-0.2586517333984375,-0.96209716796875,-0.1249542236328125,0.0083436835557222,-0.0394568629562854,0.0036993969697505
1770451386081,-0.2515106201171875,-0.9591522216796876,-0.12481689453125,0.0095937717705965,-0.0225031785666942,0.0116963367909193
1770451386091,-0.25439453125,-0.9604949951171876,-0.130340576171875,0.0048030111938714,-0.0081884209066629,0.0112864766269922
1770451386101,-0.2618255615234375,-0.9560699462890624,-0.11907958984375,0.0020623519085347,0.0160111915320158,0.0146596366539597
1770451386111,-0.259552001953125,-0.9565582275390624,-0.117919921875,0.0002274339494761,0.0166945569217205,0.0120057966560125
1770451386121,-0.2644805908203125,-0.95648193359375,-0.1189117431640625,0.0001440770138287,0.0113597139716148,0.0092009548097848
1770451386131,-0.26904296875,-0.9533843994140624,-0.120635986328125,0.0031848743092268,0.0142050348222255,0.0079599218443036
1770451386141,-0.2644195556640625,-0.9563140869140624,-0.123046875,0.0078288950026035,0.0085402252152562,0.0060677463188767
1770451386151,-0.26165771484375,-0.9591064453125,-0.1247406005859375,0.0128441592678427,0.0128201907500624,0.0068605691194534
1770451386161,-0.2613067626953125,-0.956787109375,-0.1259613037109375,0.0192866120487451,0.011863050982356,0.0057529606856405
1770451386172,-0.26025390625,-0.9550933837890624,-0.12701416015625,0.0172937698662281,0.0005534048541449,0.0056075518950819
1770451386181,-0.2601470947265625,-0.9550323486328124,-0.12176513671875,0.0101485075429081,-0.0123860957100987,0.0065034395083785
1770451386192,-0.2621002197265625,-0.9539642333984376,-0.1191558837890625,0.0014482269762083,-0.0125240478664636,0.0052640042267739
1770451386202,-0.2640838623046875,-0.950653076171875,-0.11590576171875,-0.0085609974339604,0.0027196200098842,0.003768905531615
1770451386212,-0.2611236572265625,-0.952911376953125,-0.1136627197265625,-0.008780175819993,0.0090363714843988,0.0015211976133286
1770451386222,-0.262481689453125,-0.9585113525390624,-0.1233062744140625,-0.007472563534975,0.0077615166082978,-0.0020972392521798
1770451386232,-0.2645111083984375,-0.958343505859375,-0.1251220703125,-0.008860869333148,0.0045409561134874,0.0038967372383922
1770451386242,-0.2558135986328125,-0.95941162109375,-0.1189117431640625,-0.0124239129945635,0.0109847402200102,0.0062733422964811
1770451386252,-0.2623138427734375,-0.9572601318359376,-0.1211700439453125,-0.0187087059020996,0.0006237123161554,0.0053343116305768
1770451386262,-0.2618865966796875,-0.9523773193359376,-0.1153411865234375,-0.0168495532125234,-0.0023688818328082,0.0105461180210113
1770451386272,-0.260528564453125,-0.955230712890625,-0.12786865234375,-0.0097295930609107,-0.0100683467462658,0.0065601645037531
1770451386282,-0.2664031982421875,-0.96026611328125,-0.1335906982421875,-0.0078280959278345,-0.0240121260285377,0.0053654704242944
1770451386292,-0.26556396484375,-0.9615325927734376,-0.1299896240234375,-0.0090768514201045,-0.0308913365006446,0.010293117724359
1770451386302,-0.261688232421875,-0.951904296875,-0.1230010986328125,-0.0081801656633615,-0.0187917966395616,0.0086115980520844
1770451386312,-0.2619781494140625,-0.9561767578125,-0.12530517578125,-0.0070328759029507,-0.0126034095883369,0.0076936059631407
1770451386322,-0.2608642578125,-0.952362060546875,-0.1183013916015625,-0.0037212348543107,0.0013736584223806,0.005722067784518
1770451386332,-0.2602081298828125,-0.9508056640625,-0.1194610595703125,0.0044402885250747,0.0074901403859257,-0.0003483414766378
1770451386342,-0.262176513671875,-0.956817626953125,-0.1283111572265625,0.010818026959896,-0.0028783443849533,2.103897168126423e-05
1770451386352,-0.2628936767578125,-0.952880859375,-0.125518798828125,0.0098571581766009,-0.0012205267557874,0.0025606292765587
1770451386362,-0.256439208984375,-0.9553375244140624,-0.1132354736328125,0.0046639940701425,0.0097911115735769,0.0096819223836064
1770451386372,-0.2572021484375,-0.9599151611328124,-0.117218017578125,-0.0017859158106148,0.0020610203500837,0.0113775571808218
1770451386382,-0.260345458984375,-0.9579010009765624,-0.120147705078125,-0.0063721453770995,-0.0058019626885652,0.0121368234977126
1770451386392,-0.2650146484375,-0.953125,-0.120147705078125,-0.0109248189255595,0.0026477146893739,0.0081780347973108
1770451386402,-0.2670440673828125,-0.9546966552734376,-0.1190032958984375,-0.0172197334468364,0.0053795855492353,0.0046706520952284
1770451386412,-0.2657012939453125,-0.953399658203125,-0.1193695068359375,-0.0168743208050727,0.003827495034784,0.0022767363116145
1770451386423,-0.2681884765625,-0.9560699462890624,-0.1295013427734375,-0.0075125112198293,-0.0118300281465053,0.0011587414192035
1770451386433,-0.2649993896484375,-0.9587249755859376,-0.1354827880859375,-0.0001616538793314,-0.0256462413817644,-0.0007060039788484
1770451386443,-0.265472412109375,-0.9569549560546876,-0.1335906982421875,0.0064262077212333,-0.0345326773822307,0.0005592638044618
1770451386453,-0.2627410888671875,-0.955810546875,-0.1285858154296875,0.0130649358034133,-0.0394142493605613,-0.0013283847365528
1770451386463,-0.2665252685546875,-0.952301025390625,-0.1299896240234375,0.0140047650784254,-0.0462809465825557,-0.0024959144648164
1770451386473,-0.2621917724609375,-0.9534759521484376,-0.1217193603515625,0.0206496175378561,-0.0345625057816505,-0.0033374733757227
1770451386483,-0.2634429931640625,-0.954132080078125,-0.1250457763671875,0.0251745954155921,-0.0166993513703346,-0.004879976157099
1770451386493,-0.2607574462890625,-0.9580535888671876,-0.1199188232421875,0.0161904208362102,-0.0088012143969535,0.0010503507219254
1770451386503,-0.255950927734375,-0.957275390625,-0.110992431640625,0.0133696012198925,0.0112681007012724,0.0038884815294295
1770451386513,-0.2582244873046875,-0.9563446044921876,-0.114349365234375,0.0051878378726542,0.0139917153865098,0.0123434849083423
1770451386523,-0.257965087890625,-0.955230712890625,-0.1114501953125,0.0028988507110625,0.0136915771290659,0.0145312724635005
1770451386536,-0.2628631591796875,-0.9536895751953124,-0.1174163818359375,0.0053550843149423,0.0112718287855386,0.0116076534613966
1770451386543,-0.2661895751953125,-0.9545745849609376,-0.1212615966796875,0.0033382724504917,-0.0043990095146,0.0083048017695546
1770451386553,-0.2677154541015625,-0.953704833984375,-0.1174163818359375,0.0063465791754424,-0.0081708440557122,0.0066400594078004
1770451386563,-0.2687225341796875,-0.9545745849609376,-0.1231689453125,0.0086337020620703,-0.008364456705749,0.0004218447138555
1770451386573,-0.2683258056640625,-0.954803466796875,-0.1226806640625,0.0043971454724669,-0.0105690211057662,-0.002691390691325
1770451386583,-0.26666259765625,-0.9537506103515624,-0.1172332763671875,0.0072643044404685,-0.0046091326512396,-0.00773381954059
1770451386594,-0.268157958984375,-0.955474853515625,-0.1226959228515625,0.0076597840525209,-0.0075668394565582,-0.009195894934237
1770451386604,-0.2671966552734375,-0.95513916015625,-0.1235809326171875,0.0045982138253748,-0.012811136431992,-0.0107751497998833
1770451386613,-0.2644805908203125,-0.95660400390625,-0.1199798583984375,0.0023134879302233,-0.0155621813610196,-0.0084073329344391
1770451386624,-0.2639923095703125,-0.9568634033203124,-0.1217498779296875,0.0035097799263894,-0.0124441524967551,-0.0100646186619997
1770451386634,-0.263671875,-0.957763671875,-0.1222686767578125,-0.0055401739664375,-0.020780112594366,-0.004259992390871
1770451386644,-0.2577056884765625,-0.956695556640625,-0.108184814453125,-0.0134694697335362,-0.0036645096261054,0.0038163098506629
1770451386654,-0.2550811767578125,-0.9561004638671876,-0.11016845703125,-0.0168825760483741,0.0152244931086897,0.0071700285188853
1770451386664,-0.2572021484375,-0.959136962890625,-0.113525390625,-0.0139959771186113,0.0146401952952146,0.0101341269910335
1770451386674,-0.2615509033203125,-0.959716796875,-0.121185302734375,-0.0086161252111196,0.0078424764797091,0.0088163949549198
1770451386684,-0.2624359130859375,-0.9589691162109376,-0.1251220703125,-0.0104313353076577,0.0002982740406878,0.0112172346562147
1770451386694,-0.2650604248046875,-0.9572601318359376,-0.1207122802734375,-0.0041465419344604,-0.0009315737406723,0.0069609703496098
1770451386704,-0.2678070068359375,-0.95819091796875,-0.129974365234375,0.0033854104112833,-0.0074243606068193,0.0054810517467558
1770451386714,-0.2670440673828125,-0.9538421630859376,-0.1273193359375,0.0015321165556088,-0.0096536921337246,0.0045867622829973
1770451386724,-0.266204833984375,-0.952484130859375,-0.1204071044921875,0.0032463932875543,-0.0076025258749723,-0.0012740562669932
1770451386734,-0.26617431640625,-0.953704833984375,-0.121795654296875,0.0007294398383237,-0.0124854315072298,-0.0037614486645907
1770451386744,-0.264923095703125,-0.9532623291015624,-0.1148529052734375,0.0066762785427272,-0.0073106433264911,-0.0030402645934373
1770451386754,-0.266326904296875,-0.9572296142578124,-0.1236114501953125,0.0169286504387855,-0.0142998434603214,-0.0057803909294307
1770451386764,-0.2658233642578125,-0.9588470458984376,-0.1277618408203125,0.02178705483675,-0.031594943255186,-0.0021345235873013
1770451386774,-0.263458251953125,-0.9561920166015624,-0.11932373046875,0.0172226633876562,-0.0389926731586456,-0.0042000710964202
1770451386784,-0.2641754150390625,-0.95330810546875,-0.1159820556640625,0.0162881594151258,-0.0363750532269477,-0.0049329730682075
1770451386794,-0.2645416259765625,-0.952606201171875,-0.1145782470703125,0.0058184741064906,-0.0213494971394538,-0.0062805325724184
1770451386804,-0.26544189453125,-0.9523773193359376,-0.1070404052734375,-0.0018064221367239,0.0058914450928568,-0.0052767875604331
1770451386814,-0.2635345458984375,-0.95697021484375,-0.1076507568359375,-0.0069231535308063,0.0174341183155775,-0.0048850364983081
1770451386824,-0.26434326171875,-0.9597625732421876,-0.1124420166015625,-0.0058280616067349,-0.0020913803018629,-0.0020991035271435
1770451386834,-0.26318359375,-0.9622650146484376,-0.125457763671875,0.0010812433902174,-0.0217700097709894,0.0023949807509779
1770451386844,-0.259735107421875,-0.960662841796875,-0.1298370361328125,-0.0043481430038809,-0.0261437203735113,0.004741758108139
1770451386855,-0.262298583984375,-0.9574737548828124,-0.11767578125,-0.0054933023639023,-0.0179491732269525,0.0093743270263075
