timestamp_ms,acc_x,acc_y,acc_z,gyro_x,gyro_y,gyro_z
1769145755694,0.0744781494140625,0.03619384765625,-0.9760894775390624,-0.0484844446182251,-0.0241423547267913,-0.0161448810249567
1769145755706,0.07403564453125,0.033050537109375,-0.96173095703125,-0.0839241966605186,-0.0305730886757373,-0.0090528838336467
1769145755712,0.072601318359375,0.0343475341796875,-0.9644622802734376,-0.1017346158623695,-0.0270720981061458,-0.0107399960979819
1769145755722,0.0712432861328125,0.0331878662109375,-0.9807281494140624,-0.105022020637989,-0.0279413536190986,-0.009353288449347
1769145755732,0.0733184814453125,0.035736083984375,-0.9950408935546876,-0.0881857872009277,-0.0230296850204467,-0.0046762446872889
1769145755742,0.0787811279296875,0.0379791259765625,-1.0126800537109375,-0.0588028617203235,-0.0185664929449558,0.0016471651615574
1769145755752,0.07977294921875,0.0392608642578125,-1.0258331298828125,-0.0265703573822975,-0.0132172685116529,0.0061444453895092
1769145755762,0.0741119384765625,0.0419921875,-1.029449462890625,0.001710015698336,-0.0031654331833124,0.0103234779089689
1769145755772,0.0711669921875,0.04119873046875,-1.0281982421875,0.0277386866509914,0.0050669303163886,0.0147121008485555
1769145755782,0.0715789794921875,0.0433349609375,-1.0257110595703125,0.0469984002411365,0.015933159738779,0.0190109759569168
1769145755792,0.0706024169921875,0.041259765625,-1.0211944580078125,0.0600928962230682,0.0184045732021331,0.0133893089368939
1769145755802,0.0677947998046875,0.0355377197265625,-1.0044403076171875,0.0558065399527549,0.0062507055699825,0.0110233565792441
1769145755812,0.0646514892578125,0.036468505859375,-0.98394775390625,0.0374142155051231,-0.0054171360097825,0.0088531468063592
1769145755822,0.064361572265625,0.036712646484375,-0.9711151123046876,0.0106353340670466,-0.0095186699181795,0.0015014902455732
1769145755832,0.06256103515625,0.0363006591796875,-0.962738037109375,-0.0121485413983464,-0.0082896212115883,-0.0069146314635872
1769145755842,0.0608062744140625,0.0373992919921875,-0.9641876220703124,-0.0254382491111755,0.001039165421389,-0.0078874845057725
1769145755853,0.0637969970703125,0.039337158203125,-0.972442626953125,-0.0383612364530563,0.0134010268375277,-0.0036914076190441
1769145755863,0.07159423828125,0.0380096435546875,-0.9763641357421876,-0.035658661276102,0.0244675260037183,0.0093426350504159
1769145755873,0.08074951171875,0.0395355224609375,-0.99273681640625,-0.0183462500572204,0.0252614151686429,0.0175981689244508
1769145755883,0.083099365234375,0.0341033935546875,-1.003021240234375,-0.0192844811826944,0.0183651596307754,0.0234328880906105
1769145755893,0.084014892578125,0.0345001220703125,-0.99615478515625,-0.0235436763614416,-0.0033728934358805,0.0253170747309923
1769145755903,0.0777435302734375,0.0395660400390625,-1.0012664794921875,-0.0153600480407476,-0.0175014957785606,0.0182064343243837
1769145755913,0.0663299560546875,0.0397491455078125,-1.0082855224609375,-0.0058152787387371,-0.0262571703642606,0.0105293402448296
1769145755923,0.0610809326171875,0.0438385009765625,-1.0080413818359375,0.0009954896522685,-0.0315318256616592,0.002535329433158
1769145755933,0.055572509765625,0.0460052490234375,-1.0009918212890625,-0.0044618602842092,-0.0276585258543491,-0.0041145840659737
1769145755943,0.0524749755859375,0.0439910888671875,-0.9883270263671876,-0.0184852667152881,-0.0168833751231431,-0.0083556678146123
1769145755953,0.0566864013671875,0.04632568359375,-0.983367919921875,-0.02285897731781,-0.0025268071331083,-0.0097008300945162
1769145755963,0.0640106201171875,0.0437164306640625,-0.9892730712890624,-0.0210373736917972,0.0057178069837391,-0.0109996544197201
1769145755973,0.071197509765625,0.0427093505859375,-0.9916534423828124,-0.0191547852009534,0.0086411591619253,-0.0079463403671979
1769145755987,0.0802154541015625,0.0402984619140625,-0.994598388671875,-0.0135003626346588,0.0110068451613187,0.0014652712270617
1769145755993,0.0862884521484375,0.03594970703125,-1.0000762939453125,-0.0057497648522257,0.0094235958531498,0.008904811926186
1769145756003,0.0886993408203125,0.0314483642578125,-1.0016937255859375,0.0047351005487143,0.0102736763656139,0.0181776713579893
1769145756013,0.085723876953125,0.031524658203125,-1.0059967041015625,0.0139975743368268,0.007359645795077,0.0211369767785072
1769145756023,0.07452392578125,0.03411865234375,-1.003570556640625,0.0148907983675599,0.0051327105611562,0.0147794783115386
1769145756036,0.0632781982421875,0.036376953125,-0.99945068359375,0.0140476422384381,0.0022706112358719,0.0074019897729158
1769145756044,0.0568695068359375,0.0404510498046875,-0.99658203125,0.0079692434519529,-0.0014612764352932,0.0008247809601016
1769145756054,0.054290771484375,0.04248046875,-0.9904327392578124,0.0006809702608734,0.0034048515371978,-0.0059692091308534
1769145756064,0.054840087890625,0.03912353515625,-0.9792022705078124,-0.0167635343968868,-0.0016929714474827,-0.0117866182699799
1769145756074,0.0557098388671875,0.0402374267578125,-0.9722137451171876,-0.0335702113807201,-0.009719206020236,-0.0169640704989433
1769145756084,0.058349609375,0.039276123046875,-0.973541259765625,-0.0449328534305095,-0.0218882542103528,-0.021604361012578
1769145756094,0.060821533203125,0.0429534912109375,-0.9795684814453124,-0.0462825447320938,-0.0240504741668701,-0.0253484994173049
1769145756104,0.0670318603515625,0.041961669921875,-0.991912841796875,-0.0406835153698921,-0.0197518672794103,-0.0239061322063207
1769145756114,0.072021484375,0.0409698486328125,-1.001708984375,-0.0280063338577747,-0.0063266055658459,-0.0175441056489944
1769145756124,0.0736236572265625,0.0412750244140625,-1.007843017578125,-0.0132148712873458,0.014650048688054,-0.0082534020766615
1769145756134,0.0756378173828125,0.0400390625,-1.013519287109375,0.0028900622855871,0.0224989168345928,-0.0050900997593998
1769145756144,0.0751190185546875,0.0395355224609375,-1.0090484619140625,0.007307980209589,0.0158284977078437,-0.0018367822049185
1769145756154,0.0725860595703125,0.040740966796875,-0.99932861328125,0.0082968119531869,0.0089213233441114,-0.0038940741214901
1769145756164,0.0697479248046875,0.0427703857421875,-0.9959259033203124,0.0078248996287584,0.0026839338243007,-0.0084515418857336
1769145756174,0.063751220703125,0.0429229736328125,-0.993896484375,0.0045976811088621,0.003948668949306,-0.0123773077502846
1769145756184,0.062957763671875,0.0434112548828125,-0.9899139404296876,0.0033089776989072,0.0046466835774481,-0.0131914354860782
1769145756194,0.067779541015625,0.04571533203125,-0.9909820556640624,0.005069859791547,-0.006352171767503,-0.0150383375585079
1769145756204,0.0666046142578125,0.045166015625,-0.9955902099609376,0.0047830371186137,-0.0189148355275392,-0.0208592098206281
1769145756214,0.0637054443359375,0.0419158935546875,-0.9898223876953124,-0.0080555295571684,-0.0252017602324485,-0.0231266245245933
1769145756224,0.06280517578125,0.0425262451171875,-0.9824981689453124,-0.0180343948304653,-0.0190173666924238,-0.01981658115983
1769145756234,0.065093994140625,0.0411529541015625,-0.9857635498046876,-0.025538383051753,-0.0116718355566263,-0.0173960346728563
1769145756244,0.06597900390625,0.0438690185546875,-0.989654541015625,-0.0185369327664375,0.0088544776663184,-0.0083476779982447
1769145756255,0.07037353515625,0.0458831787109375,-1.004364013671875,-0.0028272117488086,0.0159113220870494,-0.0038312235847115
1769145756265,0.0733795166015625,0.035400390625,-1.001983642578125,-0.0038384140934795,0.0287658683955669,0.0004988100845366
1769145756275,0.079437255859375,0.0370025634765625,-0.994293212890625,0.0043079294264316,0.0283898301422595,0.0063428506255149
1769145756285,0.0802001953125,0.0418701171875,-1.002227783203125,0.0206797122955322,0.028757344931364,0.004604339133948
1769145756295,0.0781707763671875,0.044708251953125,-1.0072021484375,0.0361082032322883,0.0275706406682729,0.0034104441292583
1769145756305,0.0760650634765625,0.0483856201171875,-1.0057373046875,0.0465930700302124,0.0082813659682869,0.0067513794638216
1769145756315,0.074310302734375,0.0460052490234375,-0.9996490478515624,0.0501696951687336,-0.0044093956239521,0.0011081412667408
1769145756325,0.07073974609375,0.0378265380859375,-0.9893798828125,0.0319057330489158,-0.0089125344529747,-0.0048216530121862
1769145756335,0.069244384765625,0.03253173828125,-0.9725799560546876,0.0045393579639494,-0.0199111234396696,-0.0050397659651935
1769145756345,0.06536865234375,0.0400848388671875,-0.9706268310546876,0.0012764531420543,-0.016972592100501,-0.0036032570060342
1769145756355,0.053924560546875,0.0501556396484375,-0.98907470703125,0.0150545835494995,0.0194168407469987,-0.010407100431621
1769145756365,0.0485076904296875,0.0476837158203125,-1.0023956298828125,0.0297616235911846,0.0362341701984405,-0.0044418862089514
1769145756375,0.0655059814453125,0.0457305908203125,-1.00439453125,0.0362754501402378,0.0241681858897209,0.0078129153698682
1769145756385,0.077362060546875,0.0470123291015625,-1.00128173828125,0.0316878892481327,0.0111381383612751,0.0125317703932523
1769145756395,0.072601318359375,0.039398193359375,-0.9943084716796876,0.0174833852797746,0.0020916466601192,0.0038722362369298
1769145756405,0.0671539306640625,0.0323944091796875,-0.984466552734375,0.0010159959783777,0.0004399542231112,0.0001280980504816
1769145756415,0.0711212158203125,0.0291900634765625,-0.9841156005859376,-0.0031044469214975,-0.0060131512582302,0.0011251855175942
1769145756425,0.0777130126953125,0.030303955078125,-0.992584228515625,0.0023353260476142,-0.0205873008817434,0.0064427191391587
1769145756435,0.0784759521484375,0.034393310546875,-1.00030517578125,0.0145291415974497,-0.0231729634106159,0.0056104813702404
1769145756445,0.07281494140625,0.0375823974609375,-1.00714111328125,0.0250523556023836,-0.0157507341355085,0.0035675705876201
1769145756456,0.0631256103515625,0.0436248779296875,-1.0086212158203125,0.0374656170606613,0.0047875647433102,-0.0013041499769315
1769145756465,0.0626068115234375,0.045013427734375,-1.007293701171875,0.04945969581604,0.0106270778924226,0.0006165218073874
1769145756476,0.0675506591796875,0.0450897216796875,-1.0056304931640625,0.054576426744461,0.021983329206705,0.0037635792978107
1769145756486,0.0738983154296875,0.0363616943359375,-0.9955902099609376,0.0481949597597122,0.0303286109119653,0.0065987803973257
1769145756495,0.071990966796875,0.033843994140625,-0.985321044921875,0.0371865183115005,0.0354362875223159,0.0085668563842773
1769145756506,0.070281982421875,0.03338623046875,-0.9839324951171876,0.0320386253297328,0.0406480953097343,0.0082965455949306
1769145756516,0.0656280517578125,0.0310516357421875,-0.9836273193359376,0.0308399386703968,0.0334817953407764,-0.0020037624053657
1769145756526,0.0661773681640625,0.0295562744140625,-0.983489990234375,0.0337627567350864,0.0190328136086463,-0.0061987736262381
1769145756536,0.067535400390625,0.0273895263671875,-0.9830474853515624,0.0202085990458726,0.0064216800965368,-0.00560915004462
1769145756546,0.0611572265625,0.030364990234375,-0.9733734130859376,0.0014937670202925,0.0103980461135506,-0.0087221190333366
1769145756556,0.0565032958984375,0.02972412109375,-0.96978759765625,-0.0146383307874202,0.0097708720713853,-0.0149437952786684
1769145756566,0.05743408203125,0.031646728515625,-0.9727630615234376,-0.030142456293106,-0.0045745116658508,-0.0158820282667875
1769145756576,0.0645599365234375,0.029144287109375,-0.97882080078125,-0.0436372272670269,-0.012116583995521,-0.019488213583827
1769145756586,0.0751800537109375,0.023162841796875,-0.986663818359375,-0.0536893270909786,-0.0341553054749965,-0.0131805166602134
1769145756596,0.080535888671875,0.035491943359375,-0.9977874755859376,-0.0326705947518348,-0.0477118603885173,-0.013014068827033
1769145756606,0.0680389404296875,0.0354461669921875,-1.0130767822265625,-0.0071236896328628,-0.0206283126026392,-0.0200544018298387
1769145756616,0.0566558837890625,0.0369720458984375,-1.017730712890625,0.0109850065782666,0.0069130333140492,-0.0244534108787775
1769145756626,0.0595703125,0.0352935791015625,-1.008392333984375,0.025988457724452,0.0092994924634695,-0.0249820481985807
1769145756636,0.06854248046875,0.032867431640625,-1.0035247802734375,0.0273850187659263,0.0096550239250063,-0.0228115729987621
1769145756646,0.0724639892578125,0.033905029296875,-0.998748779296875,0.0302114319056272,0.0045918221585452,-0.0163882933557033
1769145756656,0.0726318359375,0.035308837890625,-1.003204345703125,0.0331518277525901,0.0047129960730671,-0.0164969507604837
1769145756667,0.07110595703125,0.0307769775390625,-0.9989166259765624,0.0326154679059982,0.0136401783674955,-0.0135765289887785
1769145756677,0.07293701171875,0.02716064453125,-0.9922637939453124,0.0311715006828308,0.0212395079433918,-0.0075665730983018
1769145756686,0.0693359375,0.0270538330078125,-0.9929046630859376,0.0333523638546466,0.0239135883748531,-0.0094997622072696
1769145756697,0.064971923828125,0.0243377685546875,-0.9893035888671876,0.0251130759716033,0.0206402968615293,-0.0102481096982955
1769145756707,0.064666748046875,0.02777099609375,-0.980865478515625,0.0079564601182937,0.0191899389028549,-0.0120638534426689
1769145756717,0.0612030029296875,0.0309906005859375,-0.974273681640625,-0.0109895337373018,0.0151459295302629,-0.0199816972017288
1769145756727,0.0557098388671875,0.0275421142578125,-0.9718780517578124,-0.0307134371250867,0.0029193572700023,-0.0267860740423202
1769145756737,0.055999755859375,0.0319671630859375,-0.9766387939453124,-0.0459365993738174,-0.0136763975024223,-0.0470066554844379
1769145756747,0.061920166015625,0.0283203125,-0.9775390625,-0.0557415597140789,-0.0204509459435939,-0.0497851334512233
1769145756757,0.0711822509765625,0.027252197265625,-0.985321044921875,-0.0588089898228645,-0.0176652800291776,-0.0459573715925216
1769145756767,0.0794219970703125,0.029571533203125,-0.9856109619140624,-0.0530999712646007,-0.0055132759734988,-0.0343523807823658
1769145756777,0.0768280029296875,0.0348968505859375,-0.9962158203125,-0.043705403804779,0.0137275299057364,-0.0262704864144325
1769145756787,0.0763092041015625,0.0374298095703125,-1.00201416015625,-0.0299421865493059,0.037979606539011,-0.0143552366644144
1769145756797,0.077972412109375,0.035125732421875,-1.0045623779296875,-0.0117165772244334,0.0400241166353225,-0.0032250881195068
1769145756807,0.07867431640625,0.0346221923828125,-1.0046539306640625,9.58738019107841e-05,0.0389484651386737,0.0065543055534362
1769145756817,0.075958251953125,0.0372314453125,-1.000335693359375,0.0062360577285289,0.0352754332125186,0.0088832397013902
1769145756827,0.0666656494140625,0.041900634765625,-0.9987640380859376,0.0100265350192785,0.0161542017012834,-0.0040719732642173
1769145756837,0.0574188232421875,0.0415191650390625,-0.9897003173828124,-0.0038719698786735,-0.0062720105051994,-0.0168953593820333
1769145756847,0.063201904296875,0.038909912109375,-0.9834747314453124,-0.0123075321316719,-0.0195489339530468,-0.0236246362328529
1769145756857,0.07342529296875,0.0349578857421875,-0.9847869873046876,-0.0197428110986948,-0.0276558622717857,-0.0230563171207904
1769145756867,0.0789031982421875,0.0341339111328125,-0.9853668212890624,-0.0249530207365751,-0.0333829894661903,-0.0203532092273235
1769145756877,0.0749969482421875,0.03533935546875,-0.988006591796875,-0.0265730209648609,-0.0145533764734864,-0.0153693687170743
1769145756887,0.06793212890625,0.03753662109375,-0.9903106689453124,-0.0225862693041563,0.007439540233463,-0.0139762694016098
1769145756898,0.06768798828125,0.0378570556640625,-0.999847412109375,-0.0105250785127282,0.0210187323391437,-0.0052562812343239
1769145756907,0.0749664306640625,0.03594970703125,-1.0117950439453125,0.0048866341821849,0.0371439047157764,0.0021017666440457
1769145756918,0.0767669677734375,0.028045654296875,-1.0105438232421875,0.0105309374630451,0.0340080335736274,0.0098640825599432
1769145756928,0.07916259765625,0.034698486328125,-1.006195068359375,0.0227364711463451,0.020379839465022,0.012075837701559
1769145756938,0.0691986083984375,0.0428314208984375,-1.0103607177734375,0.0407676696777343,0.0093207973986864,-0.0016823188634589
1769145756948,0.058502197265625,0.042449951171875,-1.008758544921875,0.0462308786809444,0.0031800805591046,-0.0089258505031466
1769145756958,0.0637664794921875,0.035125732421875,-0.99163818359375,0.0343617014586925,-0.0164351668208837,-0.0008266451768577
1769145756968,0.070098876953125,0.038726806640625,-0.9732513427734376,0.0118827586993575,-0.0292641445994377,-0.0036125779151916
1769145756978,0.066497802734375,0.0280303955078125,-0.960479736328125,-0.0262326691299676,-0.0245937593281269,-0.0131762558594346
1769145756988,0.068084716796875,0.0208892822265625,-0.951019287109375,-0.0643947049975395,-0.0279573313891887,-0.0203998144716024
1769145756998,0.07244873046875,0.0302581787109375,-0.95501708984375,-0.0768162161111831,-0.0228664334863424,-0.0242454186081886
1769145757008,0.0694122314453125,0.040496826171875,-0.975555419921875,-0.0658123046159744,-0.0031473238486796,-0.0188413318246603
1769145757018,0.0648956298828125,0.047393798828125,-1.000274658203125,-0.0471882857382297,0.019307117909193,-0.008282165043056
1769145757028,0.064849853515625,0.052459716796875,-1.0089569091796875,-0.0280566681176424,0.0371771976351738,-0.0088651301339268
1769145757038,0.06646728515625,0.045196533203125,-1.0161285400390625,-0.0096353171393275,0.032464999705553,-0.0121935494244098
1769145757048,0.0703277587890625,0.04144287109375,-1.0216064453125,0.0055154063738882,0.0160303656011819,-0.0103831319138407
1769145757058,0.0778656005859375,0.0372314453125,-1.024810791015625,0.0140987746417522,-0.005928196478635,-0.0091434307396411
1769145757068,0.0811614990234375,0.030731201171875,-1.01544189453125,0.0156956054270267,-0.0197454746812582,-0.0083436835557222
1769145757078,0.076385498046875,0.0277099609375,-1.0076904296875,0.0221018400043249,-0.0226400643587112,-0.008853412233293
1769145757088,0.0718994140625,0.0291595458984375,-1.003692626953125,0.0335321277379989,-0.0167438257485628,-0.007095992565155
1769145757098,0.0682525634765625,0.0316314697265625,-0.9984588623046876,0.0350767597556114,0.0006199838826432,-0.0044197821989655
1769145757109,0.0638427734375,0.0378875732421875,-0.987640380859375,0.0318593941628932,0.0218264684081077,0.0001113201360567
1769145757119,0.0628204345703125,0.039794921875,-0.9853057861328124,0.0287805162370204,0.033977672457695,-0.0007504787645302
1769145757129,0.0651092529296875,0.0382080078125,-0.98394775390625,0.0242723170667886,0.0348985940217971,-0.0003616572648752
1769145757139,0.073272705078125,0.0381317138671875,-0.9826202392578124,0.0142489774152636,0.0381913259625434,0.0026394589804112
1769145757149,0.078521728515625,0.0373382568359375,-0.9844512939453124,0.013603426516056,0.0353555940091609,0.0075876121409237
1769145757159,0.0821533203125,0.0384674072265625,-0.993011474609375,0.019914586097002,0.0208738557994365,0.0086257122457027
1769145757169,0.0858154296875,0.0363616943359375,-0.994384765625,0.0274936761707067,0.0065694856457412,0.013896906748414
1769145757179,0.0852508544921875,0.0342254638671875,-0.9906005859375,0.0251703336834907,0.0014138722326606,0.0205462872982025
1769145757189,0.0813446044921875,0.0338897705078125,-0.977783203125,0.0072954632341861,0.0007419566973112,0.0229117069393396
1769145757199,0.0738525390625,0.032012939453125,-0.96173095703125,-0.0180250722914934,-0.0056062205694615,0.017778730019927
1769145757209,0.0620880126953125,0.0352020263671875,-0.9564971923828124,-0.0478793755173683,-0.008541289716959,0.0050565437413752
1769145757219,0.053924560546875,0.0357818603515625,-0.9567108154296876,-0.0722001641988754,-0.0006535397260449,-6.444849714171141e-05
1769145757229,0.058349609375,0.0322265625,-0.9705810546875,-0.0903298929333686,0.0076451366767287,-0.0007094661123119
1769145757239,0.0743255615234375,0.027008056640625,-0.9805450439453124,-0.0955219939351081,-0.0010381002211943,0.0053891725838184
1769145757249,0.0787200927734375,0.0374755859375,-0.999786376953125,-0.0665257647633552,-0.0072067803703248,0.0045545380562543
1769145757259,0.07135009765625,0.0399169921875,-1.02752685546875,-0.0299664214253425,0.0048956889659166,0.0024413196370005
1769145757269,0.0691375732421875,0.0403900146484375,-1.0310821533203125,-0.0043766386806964,0.0109501192346215,0.0009139968897216
1769145757279,0.0720672607421875,0.03741455078125,-1.0239715576171875,0.0146300755441188,0.0117115173488855,0.0025635587517172
1769145757289,0.0741119384765625,0.0377960205078125,-1.019805908203125,0.0347449295222759,0.0109839411452412,0.002510828198865
1769145757300,0.0692291259765625,0.0369110107421875,-1.0122833251953125,0.0412481054663658,0.0117232352495193,0.0043340283446013
1769145757309,0.0646209716796875,0.03662109375,-1.001861572265625,0.0347736924886703,0.0078014638274908,0.0040245689451694
1769145757320,0.0622100830078125,0.03472900390625,-0.984832763671875,0.0153555199503898,-0.0062171495519578,-0.0031558459158986
1769145757330,0.06097412109375,0.0338897705078125,-0.969451904296875,-0.0091013526543974,-0.015717975795269,-0.0083713801577687
1769145757340,0.0628662109375,0.033599853515625,-0.9677734375,-0.0295259337872266,-0.0176594201475381,-0.0116555904969573
1769145757350,0.0662994384765625,0.0303955078125,-0.9679107666015624,-0.0432081893086433,-0.0151099767535924,-0.0061393850483
1769145757360,0.0750274658203125,0.0318450927734375,-0.976593017578125,-0.0361785106360912,-0.0010673949727788,0.0047928909771144
1769145757370,0.079925537109375,0.033111572265625,-0.99078369140625,-0.0294063575565814,0.0058698733337223,0.013480388559401
1769145757380,0.08209228515625,0.033538818359375,-0.9968414306640624,-0.0202139243483543,0.0071977255865931,0.0192629098892211
1769145757390,0.080474853515625,0.0334625244140625,-0.9997406005859376,-0.01136424113065,0.0089703258126974,0.0205098018050193
1769145757400,0.0768280029296875,0.033294677734375,-1.0032958984375,-0.0063750748522579,0.0068009146489202,0.0189856756478548
1769145757410,0.0721893310546875,0.034271240234375,-1.004119873046875,-0.0009875000687316,-0.0084597971290349,0.0140798659995198
1769145757420,0.069976806640625,0.0367584228515625,-1.0020294189453125,-0.0042125880718231,-0.0130305811762809,0.0105778090655803
1769145757430,0.068359375,0.0373992919921875,-0.9978485107421876,-0.006417419295758,-0.0109136337414383,0.0096787260845303
1769145757440,0.066925048828125,0.0392303466796875,-0.9960174560546876,-0.0059878514148294,-0.0164668578654527,0.0034943337086588
1769145757450,0.066253662109375,0.037872314453125,-0.997589111328125,-0.0047912932932376,-0.0176716707646846,0.0052605420351028
1769145757460,0.0696563720703125,0.039337158203125,-0.9958343505859376,-0.0037132455036044,-0.0063646887429058,0.008330900222063
1769145757470,0.073394775390625,0.0402374267578125,-0.9929351806640624,0.0007741809240542,0.0028884646017104,0.0131309824064373
1769145757480,0.07147216796875,0.0401611328125,-0.99200439453125,0.0077407439239323,0.0172045528888702,0.0154479322955012
1769145757490,0.0684661865234375,0.042572021484375,-0.99481201171875,0.0117314904928207,0.0385923981666564,0.0091695301234722
1769145757500,0.067626953125,0.039031982421875,-0.9910888671875,0.011395932175219,0.0409559532999992,0.008698683232069
1769145757511,0.068145751953125,0.0384368896484375,-0.988922119140625,0.0078323567286133,0.0347161702811718,0.0074720308184623
1769145757520,0.0711822509765625,0.033599853515625,-0.9869537353515624,-0.0017084177816286,0.0199598595499992,0.0025851305108517
1769145757531,0.0744171142578125,0.03045654296875,-0.9812774658203124,-0.0103325322270393,0.0040946099907159,0.004095409065485
1769145757541,0.0778350830078125,0.028839111328125,-0.982208251953125,-0.01788792014122,-0.0185662265866994,0.0048413607291877
1769145757551,0.07470703125,0.0317230224609375,-0.9882659912109376,-0.0162386242300272,-0.0183851327747106,0.0065814699046313
1769145757561,0.0647125244140625,0.0385894775390625,-0.9962310791015624,-0.0099295964464545,-0.0174831189215183,-0.0007651261985301
1769145757571,0.0614166259765625,0.0384063720703125,-1.0020751953125,-0.0069274147972464,-0.0008154599345289,-0.0008892294717952
1769145757581,0.0684967041015625,0.0348968505859375,-1.002105712890625,-0.0074214311316609,0.0191521234810352,0.0098915128037333
1769145757591,0.0755157470703125,0.0334014892578125,-1.0004425048828125,-0.0038996667135506,0.0273823551833629,0.0133901070803403
1769145757601,0.07171630859375,0.0370941162109375,-1.002899169921875,0.0102126896381378,0.0312042590230703,0.0099391834810376
1769145757611,0.0687103271484375,0.037017822265625,-1.008331298828125,0.0223300736397504,0.0330623462796211,0.0155579205602407
1769145757621,0.0760650634765625,0.0377044677734375,-1.0031890869140625,0.0347297526895999,0.0193172395229339,0.0214424412697553
1769145757631,0.0776214599609375,0.036895751953125,-0.995086669921875,0.0357398875057697,-0.0018847191240638,0.0216954424977302
1769145757641,0.0727691650390625,0.02447509765625,-0.983795166015625,0.010030529461801,-0.0075005269609391,0.0131064811721444
1769145757651,0.068603515625,0.0206146240234375,-0.964263916015625,-0.0216006338596344,-0.013212208636105,0.0005323658697307
1769145757661,0.0618133544921875,0.0313568115234375,-0.96295166015625,-0.0195076540112495,-0.0107762152329087,-0.007676828186959
1769145757671,0.05108642578125,0.0444793701171875,-0.9863739013671876,-0.002487126039341,0.0074584488756954,-0.0120864901691675
1769145757681,0.0547027587890625,0.0469207763671875,-0.99725341796875,0.0063625583425164,0.0247751213610172,-0.0077213030308485
1769145757691,0.0618896484375,0.0467071533203125,-0.9933013916015624,0.0006197175825946,0.0259588956832885,-0.0075343488715589
1769145757701,0.0645294189453125,0.042022705078125,-0.9864349365234376,-0.0158311612904071,0.0158713739365339,-0.0165084023028612
1769145757711,0.0670166015625,0.0389404296875,-0.9823150634765624,-0.0291235297918319,-0.0021659489721059,-0.0218472424894571
1769145757722,0.06903076171875,0.0370025634765625,-0.9918975830078124,-0.03259789198637,-0.0108095044270157,-0.0263573043048381
1769145757732,0.0721893310546875,0.031463623046875,-0.9998321533203124,-0.0255999024957418,-0.0139981070533394,-0.022944463416934
1769145757742,0.078155517578125,0.0335540771484375,-1.0036468505859375,-0.0158647168427705,-0.0070816115476191,-0.0135256620123982
1769145757752,0.078033447265625,0.03125,-1.004791259765625,-0.0076664416119456,-0.0015238607302308,-0.0076701701618731
1769145757762,0.0741424560546875,0.0350799560546875,-1.0025787353515625,-0.0028437233995646,0.0151725616306066,-0.0021813951898366
1769145757772,0.0690155029296875,0.03985595703125,-1.0007476806640625,0.002215217333287,0.0332399792969226,-0.0023534353822469
1769145757782,0.0673828125,0.04046630859375,-0.9991302490234376,0.0096313217654824,0.0340027064085006,-0.0032250881195068
1769145757792,0.070404052734375,0.0422515869140625,-1.00213623046875,0.0138913141563534,0.0257335919886827,-0.0073729613795876
1769145757802,0.0738372802734375,0.0385589599609375,-0.9983673095703124,0.0167747195810079,0.0205470863729715,-0.0100190779194235
1769145757812,0.0797882080078125,0.0360870361328125,-0.9996490478515624,0.0251215975731611,0.0208149999380111,-0.0055526909418404
1769145757822,0.0861358642578125,0.032989501953125,-0.9996185302734376,0.0330495610833168,0.016202138736844,0.0011432950850576
1769145757832,0.0875244140625,0.0309600830078125,-0.9985809326171876,0.0410912446677684,0.0162988118827343,0.003287672298029
1769145757842,0.0818328857421875,0.030181884765625,-0.9954376220703124,0.0418662242591381,0.0138226049020886,0.0030964573379606
1769145757852,0.076416015625,0.0281219482421875,-0.9889373779296876,0.0519665293395519,0.0222480483353137,0.0035151063930243
1769145757862,0.0747833251953125,0.030853271484375,-0.995208740234375,0.0423282831907272,0.023448335006833,0.0115123130381107
1769145757872,0.0676422119140625,0.0326385498046875,-0.977691650390625,0.0243151932954788,0.0191172361373901,0.0118262991309165
1769145757882,0.0646209716796875,0.0374298095703125,-0.9747314453125,0.0072832130827009,0.021065603941679,0.0033539850264787
1769145757892,0.0618743896484375,0.0334014892578125,-0.9763946533203124,-0.0102249402552843,0.0117525300011038,0.0029917950741946
1769145757902,0.0689697265625,0.0344696044921875,-0.9750518798828124,-0.0226874686777591,0.0162966810166835,0.008019576780498
1769145757912,0.0760498046875,0.02685546875,-0.9775848388671876,-0.0418853983283042,0.0265546459704637,0.0087615335360169
1769145757922,0.0823822021484375,0.0295257568359375,-0.9797821044921876,-0.0361193865537643,0.0129221901297569,0.0108467889949679
1769145757933,0.0825347900390625,0.0367431640625,-0.9982147216796876,-0.0139131527394056,0.0012572783743962,0.0029904635157436
1769145757943,0.0755767822265625,0.03619384765625,-1.00775146484375,-0.0004146541759837,0.0064632254652678,-0.0051763863302767
1769145757953,0.0694580078125,0.038055419921875,-1.0017547607421875,0.0021459751296788,0.009680856950581,-0.0124231139197945
1769145757963,0.0664825439453125,0.035614013671875,-0.9939727783203124,-0.0026698189321905,0.0160836279392242,-0.0168554130941629
1769145757973,0.069793701171875,0.0331573486328125,-0.9908294677734376,-0.0111479926854372,0.0104646254330873,-0.0145794749259948
1769145757983,0.0767822265625,0.034698486328125,-0.9915008544921876,-0.0180900543928146,0.0017116136150434,-0.010016681626439
1769145757993,0.0771026611328125,0.03509521484375,-0.98974609375,-0.0246925633400678,0.0052442969754338,-0.0094904405996203
1769145758003,0.075286865234375,0.0333404541015625,-0.989105224609375,-0.0286252535879611,0.0135552231222391,-0.0093943011015653
1769145758013,0.078582763671875,0.03021240234375,-0.9904327392578124,-0.0198844913393259,0.0156764313578605,0.0014269216917455
1769145758023,0.087127685546875,0.0278472900390625,-0.998291015625,-0.0085719162598252,0.0192799549549818,0.0083362264558672
1769145758033,0.0850677490234375,0.0247039794921875,-0.9962615966796876,0.0009432916413061,0.0327515564858913,0.0147493854165077
1769145758043,0.082061767578125,0.0263214111328125,-0.9965667724609376,0.0079207736998796,0.0288351103663444,0.0161102600395679
1769145758053,0.0773773193359375,0.02996826171875,-0.9959716796875,0.0022485069930553,0.0181294698268175,0.0121751734986901
1769145758063,0.07330322265625,0.034088134765625,-0.9895477294921876,-0.0083705820143222,0.0083066653460264,0.0045601306483149
1769145758073,0.0701141357421875,0.0350341796875,-0.9838714599609376,-0.0181355942040681,0.0003888215287588,-0.0029449234716594
1769145758083,0.06884765625,0.035064697265625,-0.9852142333984376,-0.0288207288831472,-0.0031174963805824,-0.0052240565419197
1769145758093,0.0716552734375,0.0366973876953125,-0.98455810546875,-0.0355156511068344,-0.0032463932875543,-0.0076392777264118
1769145758103,0.0736541748046875,0.0358734130859375,-0.984222412109375,-0.0406595468521118,-0.0032583775464445,-0.008820922113955
1769145758113,0.07415771484375,0.03704833984375,-0.98590087890625,-0.0435943491756916,0.0033595776185393,-0.0099037634208798
1769145758123,0.0716400146484375,0.036407470703125,-0.9827880859375,-0.0555077344179153,0.0163544714450836,-0.0112718287855386
1769145758134,0.0713958740234375,0.0341644287109375,-0.980987548828125,-0.0561077445745468,0.0319169200956821,-0.0005464806454256
1769145758143,0.0781097412109375,0.03521728515625,-0.99310302734375,-0.0513422824442386,0.0423999205231666,0.0014831144362688
1769145758154,0.08197021484375,0.0318756103515625,-0.9969329833984376,-0.0388187691569328,0.046280413866043,0.007652326952666
1769145758164,0.08099365234375,0.038238525390625,-1.0064697265625,-0.01817580871284,0.0439813062548637,0.0095535572618246
1769145758174,0.078857421875,0.039398193359375,-1.0145263671875,0.0033489251509308,0.0432862192392349,0.0026024410035461
1769145758184,0.076812744140625,0.03875732421875,-1.0143890380859375,0.0372829250991344,0.029545109719038,-0.0006101301987655
1769145758194,0.0756378173828125,0.0386505126953125,-1.0225830078125,0.0528584197163581,0.0281003434211015,-0.0046970173716545
1769145758204,0.0779571533203125,0.036834716796875,-1.00567626953125,0.0509545281529426,0.0137546947225928,-0.0068808090873062
1769145758214,0.0747222900390625,0.0347442626953125,-0.9922943115234376,0.0290247276425361,0.0075782909989356,-0.0102505069226026
1769145758224,0.0751495361328125,0.031768798828125,-0.9763641357421876,0.0024104269687086,0.0023331954143941,-0.0144087662920355
1769145758234,0.0706024169921875,0.028564453125,-0.9685516357421876,-0.0271685048937797,-0.0045859632082283,-0.0189593099057674
1769145758244,0.0686187744140625,0.03839111328125,-0.96820068359375,-0.0396739095449447,0.0001025317033054,-0.023373233154416
1769145758254,0.0735015869140625,0.0402679443359375,-0.9882965087890624,-0.0342136286199092,-0.0009139968897216,-0.0222898591309785
1769145758264,0.0841827392578125,0.035308837890625,-0.997711181640625,-0.0400262437760829,-0.0042884880676865,-0.0146287437528371
1769145758274,0.0924835205078125,0.0374603271484375,-0.9930877685546876,-0.0315089225769043,0.0128902317956089,-0.0115077849477529
1769145758284,0.089080810546875,0.035186767578125,-1.0033721923828125,-0.0125775774940848,0.0358930192887783,-0.0059710736386477
1769145758294,0.09124755859375,0.0348968505859375,-1.0067596435546875,0.001064199139364,0.045913428068161,0.0097418427467346
1769145758304,0.0933380126953125,0.0415191650390625,-1.002593994140625,0.0211068838834762,0.0476783066987991,0.0231902748346328
1769145758314,0.085723876953125,0.0381622314453125,-1.00457763671875,0.0304987877607345,0.0482796467840671,0.0234403442591428
1769145758324,0.0780029296875,0.0253753662109375,-0.985595703125,0.0017278589075431,0.0445541515946388,0.023052055388689
1769145758334,0.077880859375,0.026611328125,-0.962738037109375,-0.0267099067568779,0.0403373017907142,0.0140875894576311
1769145758344,0.068756103515625,0.0386199951171875,-0.9703826904296876,-0.0299086309969425,0.0353273637592792,-0.0022074941080063
1769145758354,0.0584564208984375,0.0492401123046875,-0.9891815185546876,-0.0138511005789041,0.03447275608778,-0.0182056352496147
1769145758364,0.063507080078125,0.0551605224609375,-1.0080413818359375,0.0049055428244173,0.0183260105550289,-0.0244185235351324
1769145758375,0.0755157470703125,0.05035400390625,-1.0112457275390625,0.01156797260046,-0.0020671456586569,-0.0171440988779068
1769145758385,0.09246826171875,0.04754638671875,-1.0029144287109375,0.0072240908630192,0.0018066884949803,-0.0106502473354339
1769145758395,0.0957794189453125,0.0343780517578125,-0.993408203125,-0.009156746789813,0.012917130254209,0.0033603766933083
1769145758405,0.0966949462890625,0.0281829833984375,-0.9811248779296876,-0.0286971591413021,0.0300159566104412,0.0177872534841299
1769145758415,0.096466064453125,0.0247955322265625,-0.97369384765625,-0.0496647581458091,0.0287376381456851,0.0224059727042913
1769145758425,0.0887298583984375,0.03167724609375,-0.9720916748046876,-0.0658213570713996,0.0227436609566211,0.0192788895219564
1769145758435,0.0779876708984375,0.0345001220703125,-0.9710693359375,-0.0843649506568908,0.0297648198902606,0.0144564369693398
1769145758445,0.0732574462890625,0.0397186279296875,-0.97216796875,-0.0812671557068824,0.030565632507205,0.0131059484556317
1769145758455,0.0703887939453125,0.0469512939453125,-0.991119384765625,-0.0613629594445228,0.035364381968975,-6.684534309897572e-05
1769145758465,0.0673675537109375,0.0478057861328125,-1.0043182373046875,-0.0422060415148735,0.0328847132623195,-0.0109005849808454
1769145758475,0.066009521484375,0.0428009033203125,-1.0078582763671875,-0.0179057642817497,0.0303424596786499,-0.0097034936770796
1769145758485,0.0785064697265625,0.0474090576171875,-1.0205230712890625,0.0025622271932661,0.0195428077131509,-0.0100126862525939
1769145758495,0.085235595703125,0.04522705078125,-1.018951416015625,0.0166817754507064,0.0088052097707986,-0.006442186422646
1769145758505,0.089752197265625,0.0389556884765625,-1.0095367431640625,0.0156503319740295,0.009777795523405,-0.0041718417778611
1769145758515,0.089996337890625,0.0373077392578125,-0.9981536865234376,0.0010649980977177,0.0352879501879215,0.0020250675734132
1769145758525,0.089752197265625,0.034423828125,-0.9815216064453124,-0.0120958108454942,0.0430302917957305,0.0056474995799362
1769145758535,0.091064453125,0.0396575927734375,-0.9787750244140624,-0.0183723494410514,0.0275344215333461,0.0035276231355965
1769145758545,0.0951080322265625,0.039520263671875,-0.98193359375,-0.0254441071301698,0.0138931786641478,0.0050259176641702
1769145758555,0.0951080322265625,0.041046142578125,-0.98309326171875,-0.0128159299492836,0.0153941363096237,0.0124012762680649
1769145758566,0.0965423583984375,0.0420989990234375,-1.0005035400390625,0.0121932830661535,0.0180735420435667,0.0180106926709413
1769145758575,0.093963623046875,0.0408935546875,-1.0037994384765625,0.0300630945712327,0.0131549499928951,0.0160793680697679
1769145758586,0.0925140380859375,0.04144287109375,-0.99713134765625,0.0385921336710453,0.0046701193787157,0.0186421275138854
1769145758596,0.0906524658203125,0.03570556640625,-0.988739013671875,0.0237740390002727,0.0032024511601775,0.0150370066985487
1769145758606,0.0864715576171875,0.0313720703125,-0.9766845703125,-0.0067998492158949,-0.0050357710570096,0.0131168672814965
1769145758616,0.08154296875,0.0409698486328125,-0.9732818603515624,-0.0186967216432094,-0.0157651137560606,0.0078038610517978
1769145758626,0.0699920654296875,0.044342041015625,-0.9846649169921876,-0.0308324806392192,0.008379902690649,0.00257607572712
1769145758636,0.065582275390625,0.0449676513671875,-0.987945556640625,-0.0384158305823802,0.0181923191994428,-0.0003616572648752
1769145758646,0.0722808837890625,0.0499725341796875,-0.99053955078125,-0.0347081795334816,0.0082621909677982,-0.0063551012426614
1769145758656,0.07916259765625,0.0439910888671875,-0.9964447021484376,-0.0310340821743011,-0.0051508196629583,-0.0096915094181895
1769145758666,0.08929443359375,0.04266357421875,-0.9987945556640624,-0.0139648178592324,-0.0167619362473487,-0.0073244920931756
1769145758676,0.0984954833984375,0.0428466796875,-1.0100250244140625,0.0084211817011237,-0.024769527837634,-0.0044730454683303
1769145758686,0.0994873046875,0.03900146484375,-1.0142059326171875,0.0270691681653261,-0.0272063203155994,-0.0004527373821474
1769145758696,0.09906005859375,0.0352020263671875,-1.009735107421875,0.0349183045327663,-0.0115197692066431,0.0051593417301774
1769145758706,0.0964202880859375,0.0309600830078125,-0.9996185302734376,0.0380211509764194,0.0040530646219849,0.0139136854559183
1769145758716,0.08966064453125,0.0319671630859375,-0.9915924072265624,0.0307690985500812,0.029182119295001,0.0148167628794908
1769145758727,0.083404541015625,0.0320281982421875,-0.9833526611328124,0.0178487710654735,0.044792503118515,0.0151158357039093
1769145758736,0.0778961181640625,0.0341644287109375,-0.9748077392578124,-0.0004591289616655,0.0426164343953132,0.0106901945546269
1769145758746,0.074676513671875,0.038330078125,-0.974334716796875,-0.013841513544321,0.0314785651862621,0.0046030078083276
1769145758756,0.0732269287109375,0.039459228515625,-0.9853057861328124,-0.0135163413360714,0.0271940696984529,0.0009970874525606
1769145758766,0.079803466796875,0.0428009033203125,-0.9953765869140624,-0.0076299565844237,0.0107386643067002,-0.0018301242962479
1769145758776,0.083404541015625,0.04150390625,-1.00067138671875,-0.0001949433935806,0.0044328314252197,0.0023529028985649
1769145758789,0.08416748046875,0.037017822265625,-1.0020599365234375,0.0054682684130966,0.0025723471771925,0.0055228634737432
1769145758797,0.0907440185546875,0.035736083984375,-0.9990234375,0.0152532551437616,-0.0093471631407737,0.0032479912042617
1769145758807,0.088531494140625,0.031585693359375,-0.9901885986328124,0.0068584387190639,-0.0167475547641515,0.0039081890136003
1769145758817,0.0888214111328125,0.0351104736328125,-0.981109619140625,-0.0009451558580622,-0.0141280693933367,0.0031579763162881
1769145758827,0.0888671875,0.039276123046875,-0.9806365966796876,-0.0124039389193058,-0.0127996848896145,0.0013603427214547
1769145758837,0.0864715576171875,0.0381927490234375,-0.974761962890625,-0.0276886187493801,-0.0064142234623432,0.0029177593532949
1769145758847,0.085052490234375,0.039703369140625,-0.9752655029296876,-0.0395407527685165,0.0053790528327226,0.0061060958541929
1769145758857,0.0822906494140625,0.0432586669921875,-0.9798736572265624,-0.0404166653752327,0.0058829230256378,0.0033547841012477
1769145758867,0.0828857421875,0.0472412109375,-0.9914703369140624,-0.0313762985169887,0.0005115932435728,-0.0036991306114941
1769145758877,0.084014892578125,0.04718017578125,-1.00152587890625,-0.0180903207510709,0.0004721784498542,-0.0092907035723328
1769145758887,0.086029052734375,0.0467681884765625,-1.0082244873046875,0.0001661812566453,0.0028181569650769,-0.0101628890261054
1769145758897,0.0913238525390625,0.0443572998046875,-1.01177978515625,0.017349163070321,-0.0064770742319524,-0.0099655482918024
1769145758907,0.0944366455078125,0.0421295166015625,-1.014007568359375,0.0262912586331367,-0.0084246434271335,-0.0045164548791944
1769145758917,0.095733642578125,0.0349884033203125,-1.007537841796875,0.0255245342850685,-0.0132343126460909,0.00650823302567
1769145758927,0.0967254638671875,0.0334930419921875,-0.9987640380859376,0.0206136647611856,-0.0067316722124814,0.0162665881216526
1769145758937,0.0871429443359375,0.037628173828125,-0.989013671875,0.014119547791779,0.0060387179255485,0.0142298024147748
1769145758947,0.0760650634765625,0.0346527099609375,-0.9794158935546876,0.0073039857670664,0.0201026052236557,0.0112225608900189
1769145758957,0.076934814453125,0.0389862060546875,-0.9775848388671876,0.0029907298739999,0.0179957784712314,0.0109708923846483
1769145758967,0.0798187255859375,0.03973388671875,-0.980224609375,-0.0006117281154729,0.0107514476403594,0.008624380454421
1769145758978,0.0833587646484375,0.0346527099609375,-0.98101806640625,-0.0147714894264936,0.0038037928752601,0.0075876121409237
1769145758987,0.0903472900390625,0.037750244140625,-0.9840240478515624,-0.013948306441307,-0.0040749027393758,0.0047694551758468
1769145758998,0.0958099365234375,0.040069580078125,-0.9994354248046876,0.0021289309952408,-0.0083828317001461,0.0059004998765885
1769145759008,0.0973358154296875,0.0416107177734375,-1.01507568359375,0.0221931859850883,-0.0195492003113031,0.0091186631470918
1769145759018,0.095001220703125,0.0479583740234375,-1.0162811279296875,0.0459320731461048,-0.0267549157142639,0.0100960433483123
1769145759028,0.0848541259765625,0.04241943359375,-1.0137939453125,0.0537335351109504,-0.0074904067441821,0.0054813181050121
1769145759038,0.086456298828125,0.0276947021484375,-0.9905242919921876,0.0235287621617317,-0.0016381103778257,0.0196930114179849
1769145759048,0.089599609375,0.029327392578125,-0.959747314453125,-0.0127821080386638,-0.0033167006913572,0.0290289875119924
1769145759058,0.0818634033203125,0.0406494140625,-0.955108642578125,-0.0312516614794731,0.0012093414552509,0.0095098819583654
1769145759068,0.064483642578125,0.043975830078125,-0.969329833984375,-0.0292574875056743,0.0027262780349701,-0.0085309036076068
1769145759078,0.0684661865234375,0.054443359375,-0.9868316650390624,-0.0146162267774343,-0.002796585438773,-0.0147230196744203
1769145759088,0.077117919921875,0.0523834228515625,-0.9985809326171876,-0.0034977956674993,-0.0093120094388723,-0.0119823608547449
1769145759098,0.086334228515625,0.0471038818359375,-0.99853515625,0.0007661914569325,-0.0040251016616821,-0.0049263155087828
1769145759108,0.0926055908203125,0.03692626953125,-0.9992523193359376,0.0056304549798369,-0.0064954496920108,-0.0007182545377872
1769145759118,0.092376708984375,0.0318450927734375,-0.99908447265625,0.0033609091769903,-0.011739213950932,0.0017478326335549
1769145759128,0.089874267578125,0.0271148681640625,-0.9942779541015624,-0.0053004892542958,-0.0118334898725152,0.0034147051628679
1769145759138,0.090667724609375,0.028594970703125,-0.9943695068359376,-0.007316502276808,-0.0122979450970888,0.0078161116689443
1769145759148,0.0840911865234375,0.0331878662109375,-0.9941864013671876,-0.0136244660243391,-0.0181110929697752,0.0070571103133261
1769145759158,0.0770263671875,0.0363006591796875,-0.9907379150390624,-0.012605806812644,-0.0074469973333179,0.0007235808880068
1769145759169,0.070587158203125,0.0400238037109375,-0.9911651611328124,-0.0077223679982125,0.0040000677108764,-0.0010120011866092
1769145759178,0.0723114013671875,0.04046630859375,-0.9918975830078124,-0.0021494373213499,0.0174945704638957,-0.0012740562669932
1769145759189,0.07916259765625,0.039215087890625,-0.9930267333984376,0.0072651035152375,0.0235103853046894,-0.001292698434554
1769145759198,0.081451416015625,0.03857421875,-0.99456787109375,0.0150196962058544,0.0157563257962465,-0.0022072279825806
1769145759209,0.080413818359375,0.0414276123046875,-0.996673583984375,0.0214136783033609,0.0027854002546519,-0.0053436327725648
1769145759219,0.085113525390625,0.0392303466796875,-1.0029449462890625,0.0291472319513559,-0.0056930393911898,-0.0075205005705356
1769145759229,0.090240478515625,0.035980224609375,-0.999237060546875,0.0305597726255655,-0.0115911420434713,-0.006622748915106
1769145759239,0.0926666259765625,0.0335845947265625,-0.99249267578125,0.0283421594649553,-0.0030035129748284,-0.0029318740125745
1769145759249,0.09161376953125,0.0304718017578125,-0.9879150390625,0.0192764922976493,0.0054235276766121,-0.0015582155901938
1769145759259,0.086578369140625,0.0299835205078125,-0.9778900146484376,0.0063393884338438,0.0042637209407985,-0.0006732470938004
1769145759269,0.08160400390625,0.0308685302734375,-0.9710540771484376,-0.010668090544641,-0.0024663533549755,-0.002192314248532
1769145759279,0.0769195556640625,0.0377349853515625,-0.9716949462890624,-0.0236563272774219,-0.0040613207966089,-0.0058403122238814
1769145759289,0.0768280029296875,0.0384368896484375,-0.98040771484375,-0.0259074978530406,-0.0152266230434179,-0.0099487705156207
1769145759299,0.081268310546875,0.0392303466796875,-0.98321533203125,-0.0255959071218967,-0.0147099699825048,-0.0061457767151296
1769145759309,0.08514404296875,0.0371856689453125,-0.9886932373046876,-0.0333212055265903,-0.0009632653673179,-0.0009294432238675
1769145759319,0.0879364013671875,0.03338623046875,-0.9870147705078124,-0.0392882823944091,-0.0018714033067226,0.0038250982761383
1769145759329,0.08612060546875,0.03778076171875,-0.9891204833984376,-0.0269700977951288,-0.0082286354154348,0.0007225155713967
1769145759339,0.0819244384765625,0.03948974609375,-1.003509521484375,-0.0134670725092291,-0.0073705646209418,-0.0020759340841323
1769145759349,0.083984375,0.0424957275390625,-1.0075836181640625,-0.0021494373213499,-0.0109439939260482,-0.0032783513888716
1769145759359,0.085601806640625,0.0449676513671875,-1.0045013427734375,0.0020490360911935,-0.008249407634139,-0.0087207872420549
1769145759369,0.082916259765625,0.0405731201171875,-0.997344970703125,-0.0049747847951948,-0.0082153193652629,-0.0105826035141944
1769145759379,0.0865020751953125,0.038665771484375,-0.98919677734375,-0.0141421845182776,-0.0080470070242881,-0.007325024344027
1769145759389,0.0904693603515625,0.0391845703125,-0.98834228515625,-0.0156583227217197,-0.0035324168857187,-0.0031529164407402
1769145759399,0.0927886962890625,0.0362701416015625,-0.99615478515625,-0.0083639239892363,-0.0005829659639857,0.0034429347142577
1769145759409,0.0938262939453125,0.034576416015625,-0.99847412109375,-0.004046939779073,-0.0030522488523274,0.0084398239850997
1769145759420,0.0907745361328125,0.03302001953125,-0.9919586181640624,0.001694303122349,-0.0008602010202594,0.0093325152993202
1769145759430,0.086151123046875,0.03076171875,-0.994110107421875,0.0044163200072944,-0.0018775284988805,0.0109953926876187
1769145759440,0.086578369140625,0.0318756103515625,-0.992156982421875,0.0076243639923632,-0.0081215761601924,0.0127120669931173
1769145759450,0.08380126953125,0.0352783203125,-0.9935150146484376,0.0036450685001909,-0.0024988439399749,0.0137107521295547
1769145759460,0.0787506103515625,0.035675048828125,-0.9878387451171876,0.0003978762542828,-0.0038703719619661,0.0150061137974262
1769145759470,0.079010009765625,0.0403900146484375,-0.992950439453125,0.0008735168376006,-0.0022791333030909,0.0154697699472308
1769145759480,0.07891845703125,0.0391998291015625,-0.9988555908203124,0.001414404832758,0.0008982842555269,0.0157193075865507
1769145759490,0.077239990234375,0.0384368896484375,-0.99560546875,0.0017710020765662,0.0006492786924354,0.0147898653522133
1769145759500,0.0755157470703125,0.038299560546875,-0.9954833984375,0.0025792715605348,-0.0009214537567459,0.0047486824914813
1769145759510,0.07611083984375,0.0360260009765625,-0.994873046875,0.00599344400689,0.0032160333357751,0.001251153065823
1769145759520,0.0814666748046875,0.03533935546875,-0.99957275390625,0.0148713579401373,0.0047513456083834,-0.0035561190452426
1769145759530,0.0855560302734375,0.0323333740234375,-1.0013885498046875,0.0242699198424816,0.0039017973467707,0.0014903049450367
1769145759540,0.0902557373046875,0.032928466796875,-0.99920654296875,0.0316785685718059,-0.0017371799331158,0.002460760762915
1769145759550,0.087005615234375,0.0341644287109375,-0.9990692138671876,0.0387471280992031,-0.0081545989960432,0.0007174555794335
1769145759560,0.07879638671875,0.03692626953125,-0.9947052001953124,0.0376400537788867,-0.0051867724396288,0.0016511598369106
1769145759570,0.072662353515625,0.037994384765625,-0.991851806640625,0.0340895280241966,0.0037233654875308,-0.000622114399448
1769145759580,0.0700836181640625,0.036285400390625,-0.9836578369140624,0.0219433810561895,0.0085378279909491,-0.0045358957722783
1769145759590,0.0694580078125,0.0355224609375,-0.9799041748046876,0.0052096755243837,0.0156828220933675,-0.008855010382831
1769145759600,0.068756103515625,0.036376953125,-0.9737701416015624,-0.0168567448854446,0.009991381317377,-0.0160748399794101
1769145759610,0.0654754638671875,0.0406341552734375,-0.9751129150390624,-0.0252659413963556,0.0117927435785532,-0.0292484331876039
1769145759621,0.068756103515625,0.0391387939453125,-0.990966796875,-0.0207585413008928,0.013667075894773,-0.0341587699949741
1769145759631,0.0820159912109375,0.039703369140625,-1.0006256103515625,-0.0094872452318668,0.0137307262048125,-0.0288534853607416
1769145759641,0.0931854248046875,0.0362701416015625,-1.0042266845703125,-0.0003336940717417,0.0024977787397801,-0.0249575469642877
1769145759651,0.09661865234375,0.03167724609375,-1.0077056884765625,0.007857390679419,-0.0087122647091746,-0.0171483606100082
1769145759661,0.0998687744140625,0.0289154052734375,-1.0017852783203125,0.0098299933597445,-0.0101961782202124,-0.0137435086071491
1769145759671,0.0923004150390625,0.0286407470703125,-0.9960784912109376,0.0176975037902593,-0.0012436961987987,-0.0141203459352254
1769145759681,0.0824737548828125,0.029083251953125,-0.994842529296875,0.0127839725464582,0.0082123894244432,-0.0183851327747106
1769145759691,0.0762481689453125,0.031494140625,-0.9874420166015624,0.0106872655451297,0.0188482552766799,-0.0207433607429265
1769145759701,0.07659912109375,0.0319976806640625,-0.9928436279296876,0.0032993901986628,0.0309057179838418,-0.020265057682991
1769145759711,0.08026123046875,0.02984619140625,-0.9879608154296876,-0.012794092297554,0.0340865962207317,-0.0174040235579013
1769145759721,0.082122802734375,0.034271240234375,-0.9860382080078124,-0.0036919401027262,0.0326956287026405,-0.0158700440078973
1769145759731,0.0848846435546875,0.035247802734375,-0.997833251953125,0.0089756520465016,0.0368275232613086,-0.0103940516710281
1769145759741,0.0920562744140625,0.0407257080078125,-1.005828857421875,0.0290742628276348,0.021011009812355,-0.0025840650778263
1769145759751,0.0912322998046875,0.0458984375,-1.01080322265625,0.0562046840786933,0.0060754693113267,-0.0044485442340373
1769145759761,0.0850677490234375,0.0369110107421875,-1.007415771484375,0.0586609169840812,-0.0039036613889038,-0.0100355902686715
1769145759771,0.0887298583984375,0.0274810791015625,-0.9879608154296876,0.0347214937210083,-0.0188045799732208,-0.0152183678001165
1769145759781,0.0887603759765625,0.02447509765625,-0.968505859375,0.0037167076952755,-0.023389745503664,-0.0209140703082084
1769145759791,0.07757568359375,0.0336761474609375,-0.96405029296875,-0.0099887186661362,-0.007686149328947,-0.0299136899411678
1769145759802,0.0675201416015625,0.0399322509765625,-0.9753875732421876,-0.0111019192263484,0.0161238424479961,-0.0334796644747257
1769145759811,0.06793212890625,0.0418243408203125,-0.981597900390625,-0.0091743236407637,0.0387543216347694,-0.027329359203577
1769145759822,0.0771484375,0.0429534912109375,-0.9849700927734376,-0.013816213235259,0.0498035103082656,-0.0191119089722633
1769145759832,0.0858612060546875,0.0355987548828125,-0.9810028076171876,-0.0215391144156456,0.0416968464851379,-0.0120532009750604
1769145759841,0.0914154052734375,0.0336456298828125,-0.9873199462890624,-0.0258545000106096,0.0201497431844472,-0.0098073566332459
1769145759852,0.09576416015625,0.0333251953125,-0.99420166015625,-0.020372649654746,0.0082118567079305,-0.0067553743720054
1769145759862,0.09942626953125,0.0277862548828125,-1.002838134765625,-0.0181768741458654,-0.0014594122767448,-0.0014128069160506
1769145759872,0.099578857421875,0.027069091796875,-1.0059814453125,-0.0069391326978802,-0.0084395576268434,0.0017821873771026
1769145759882,0.09039306640625,0.0256500244140625,-1.0092620849609375,0.0083681847900152,-0.0032940639648586,0.0007502124644815
1769145759892,0.08099365234375,0.027069091796875,-1.0089874267578125,0.020078370347619,0.0066714850254356,-0.004081827122718
1769145759902,0.0710906982421875,0.030120849609375,-1.004150390625,0.0233766958117485,0.0224328711628913,-0.0109727559611201
1769145759912,0.0682525634765625,0.034912109375,-0.997802734375,0.0260180179029703,0.0228704288601875,-0.0147834736853837
1769145759922,0.07012939453125,0.0386962890625,-0.9996795654296876,0.0354211069643497,0.0117938090115785,-0.0190810170024633
1769145759932,0.07501220703125,0.042755126953125,-1.0073089599609375,0.0438412241637706,-0.0006668555433861,-0.0275610536336898
1769145759942,0.0831756591796875,0.0386810302734375,-1.0050506591796875,0.0519715882837772,-0.0150900036096572,-0.0299152880907058
1769145759952,0.0904693603515625,0.0338592529296875,-1.0042266845703125,0.057410828769207,-0.0107176257297396,-0.0288865100592374
1769145759962,0.09735107421875,0.0279541015625,-0.99688720703125,0.0514283031225204,0.001463406952098,-0.0186855364590883
1769145759972,0.0993499755859375,0.02294921875,-0.9843902587890624,0.0463070459663867,0.0164570044726133,-0.0048136636614799
1769145759982,0.1005859375,0.02191162109375,-0.9805755615234376,0.0362035445868968,0.0244536772370338,0.0038956720381975
1769145759992,0.094451904296875,0.022735595703125,-0.972625732421875,0.0214144773781299,0.0325060114264488,0.0101820640265941
1769145760002,0.0847015380859375,0.025360107421875,-0.9689788818359376,0.0128188598901033,0.0445642732083797,0.0070429956540465
1769145760012,0.0797271728515625,0.03082275390625,-0.97235107421875,0.0032003207597881,0.0284963566809892,-0.0009310410823673
1769145760022,0.07733154296875,0.0330657958984375,-0.97412109375,-0.0038613171782344,0.0071351411752402,-0.0084595307707786
1769145760032,0.0843963623046875,0.028289794921875,-0.9825592041015624,-0.0200426839292049,-0.0161270387470722,-0.010840930044651
1769145760043,0.09210205078125,0.0240325927734375,-0.9824371337890624,-0.0375060960650444,-0.0309680365025997,-0.0081532672047615
1769145760053,0.0911407470703125,0.0278778076171875,-0.9858856201171876,-0.0285331085324287,-0.031594943255186,-0.0109407985582947
1769145760063,0.082061767578125,0.0288543701171875,-0.9994659423828124,-0.0105527760460972,-0.0096680736169219,-0.0149360727518796
1769145760073,0.0807342529296875,0.0308685302734375,-1.00689697265625,0.0029494508635252,0.0070781493559479,-0.0111051155254244
1769145760083,0.0877227783203125,0.03094482421875,-0.9976348876953124,0.0047060721553862,0.0136303249746561,-0.0030687605030834
1769145760093,0.091522216796875,0.0322418212890625,-0.99322509765625,0.0097828563302755,0.0146899968385696,-0.0047465520910918
1769145760103,0.0878753662109375,0.032958984375,-0.9974212646484376,0.011003915220499,0.0093879094347357,-0.0035132421180605
1769145760113,0.0865631103515625,0.0334930419921875,-0.99627685546875,0.0085921566933393,0.0066280751489102,8.948221511673182e-05
1769145760123,0.0869140625,0.0304107666015625,-0.996734619140625,0.0096579538658261,0.0045382929965853,-0.0008594020619057
1769145760133,0.0858001708984375,0.0261383056640625,-0.9938507080078124,-3.808320252574049e-05,0.0065694856457412,-0.0015739281661808
1769145760143,0.0855865478515625,0.022369384765625,-0.9833831787109376,-0.0068144965916872,0.0121975438669323,-0.0012868394842371
1769145760153,0.086090087890625,0.023529052734375,-0.9879913330078124,-0.0093391733244061,0.0156356841325759,-0.0023987090680748
1769145760163,0.084075927734375,0.02532958984375,-0.9895782470703124,-0.013130716048181,0.0122412201017141,-0.0053553506731987
1769145760173,0.0820770263671875,0.0255126953125,-0.9842376708984376,-0.0130678648129105,0.0042559974826872,-0.0107551757246255
1769145760183,0.0798797607421875,0.0277252197265625,-0.9883575439453124,-0.0122606605291366,-0.007292800117284,-0.0148401986807584
1769145760193,0.0808868408203125,0.026611328125,-0.9900054931640624,-0.0129632027819752,-0.0101466439664363,-0.0153874782845377
1769145760203,0.085845947265625,0.02935791015625,-0.9954986572265624,0.0029654297977685,-0.0163470152765512,-0.0096867159008979
1769145760213,0.0883941650390625,0.0317230224609375,-1.0034027099609375,0.0154069196432828,-0.0207308456301689,-0.0067846691235899
1769145760223,0.0832672119140625,0.0306396484375,-1.002410888671875,0.0216272640973329,-0.008542088791728,-0.0048277783207595
1769145760233,0.075836181640625,0.0299530029296875,-0.9943389892578124,0.0160918850451707,0.0114574516192078,-0.0051918323151767
1769145760243,0.074005126953125,0.0282745361328125,-0.98199462890625,0.0015249260468408,0.0221124924719333,-0.0046882289461791
1769145760253,0.0804290771484375,0.029571533203125,-0.97772216796875,-0.0204919595271348,0.0230981279164552,-0.0030591732356697
1769145760264,0.0826416015625,0.02911376953125,-0.97271728515625,-0.0372070223093032,0.0134681379422545,-0.0070427292957901
1769145760274,0.0843963623046875,0.0343170166015625,-0.980255126953125,-0.0386326126754283,-0.0089143989607691,-0.0163150578737258
1769145760284,0.084381103515625,0.0399169921875,-0.9960174560546876,-0.0232701692730188,-0.0170010868459939,-0.0278244409710168
1769145760294,0.0898284912109375,0.0360565185546875,-1.0074005126953125,-0.0017145430902019,-0.0243655275553464,-0.0278923511505126
1769145760304,0.098236083984375,0.034027099609375,-1.0135040283203125,0.0147808101028203,-0.0263956543058156,-0.0181435830891132
1769145760314,0.10205078125,0.0298004150390625,-1.0087738037109375,0.0235197078436613,-0.0179358571767807,-0.0133554860949516
1769145760324,0.0933380126953125,0.021331787109375,-0.994873046875,0.0193950030952692,0.0002250371035188,-0.0070232884027063
1769145760334,0.08843994140625,0.0201263427734375,-0.986907958984375,0.0092632733285427,0.0228296816349029,0.0037406759802252
1769145760344,0.085174560546875,0.022918701171875,-0.9832916259765624,0.002542519941926,0.0344794131815433,0.0061447117477655
1769145760354,0.083160400390625,0.0243988037109375,-0.9862213134765624,-0.0062911855056881,0.0247040148824453,0.0068014468997716
1769145760364,0.0800018310546875,0.0301666259765625,-0.98663330078125,-0.0126090021803975,0.0202032718807458,0.002298308070749
1769145760374,0.0750274658203125,0.030120849609375,-0.9881744384765624,-0.0177933778613805,0.0153627106919884,-0.0056139435619115
1769145760384,0.082672119140625,0.0294189453125,-0.9911041259765624,-0.0168785825371742,0.0020253339316695,-0.0083197150379419
1769145760394,0.08984375,0.03656005859375,-0.9976348876953124,-0.0012133361306041,-0.0092808501794934,-0.0083556678146123
1769145760404,0.0888671875,0.038055419921875,-1.010406494140625,0.0178623534739017,-0.0037643781397491,-0.0110023170709609
1769145760414,0.0919342041015625,0.0306243896484375,-1.0112152099609375,0.0254979021847248,-0.0043540019541978,-0.0059106196276843
1769145760424,0.0955810546875,0.0306243896484375,-0.9997406005859376,0.0338588990271091,-0.0108065754175186,-0.0008825715631246
1769145760434,0.088287353515625,0.0266571044921875,-0.990203857421875,0.0202733129262924,-0.0004665858286898,-0.0054024886339902
1769145760444,0.0829925537109375,0.014495849609375,-0.9766998291015624,-0.0066011771559715,0.0078230360522866,-0.0074826837517321
1769145760454,0.0884246826171875,0.0146484375,-0.9662322998046876,-0.0199617240577936,0.0025864620693027,-0.0029076393693685
1769145760465,0.0877685546875,0.025970458984375,-0.9782257080078124,-0.0048669269308447,0.001340635237284,-0.0034498588647693
1769145760475,0.080780029296875,0.0382843017578125,-1.004425048828125,0.0249471608549356,0.0048442902043461,-0.0040911482647061
1769145760485,0.0756988525390625,0.04290771484375,-1.01177978515625,0.0379319339990615,0.007987885735929,-0.0060930461622774
1769145760495,0.0763702392578125,0.0401153564453125,-0.9976959228515624,0.0299134235829114,0.0135336518287658,-0.0068581723608076
1769145760505,0.078155517578125,0.036956787109375,-0.987457275390625,0.0161427501589059,0.0072837453335523,-0.0114201670512557
1769145760515,0.08050537109375,0.02960205078125,-0.981231689453125,-0.0091013526543974,0.0023228090722113,-0.0134207336232066
1769145760525,0.0876617431640625,0.022216796875,-0.9727935791015624,-0.0328085459768772,0.0021286646369844,-0.0096483658999204
1769145760535,0.094085693359375,0.0204315185546875,-0.97381591796875,-0.0435972772538661,-0.0046879625879228,-0.0093277217820286
1769145760545,0.0962066650390625,0.020477294921875,-0.985687255859375,-0.041050761938095,-0.0194903444498777,-0.0111711621284484
1769145760555,0.094024658203125,0.0220947265625,-0.9955902099609376,-0.0308710969984531,-0.0261266753077507,-0.0172871109098196
1769145760565,0.0921173095703125,0.0243072509765625,-0.9999237060546876,-0.0108736865222454,-0.019669309258461,-0.0169904343783855
1769145760575,0.091033935546875,0.0279541015625,-1.0084228515625,0.0030815436039119,-0.0201984792947769,-0.0139592252671718
1769145760585,0.0881195068359375,0.0301666259765625,-1.003265380859375,0.007358047645539,-0.0114635769277811,-0.0107634318992495
1769145760595,0.0850067138671875,0.0309600830078125,-0.9976654052734376,0.0087636644020676,0.007685350254178,-0.003214701777324
1769145760605,0.0848236083984375,0.033172607421875,-1.0007171630859375,0.0189129710197448,0.0153264915570616,-0.0006095975404605
1769145760615,0.0873565673828125,0.030364990234375,-1.0033416748046875,0.0208328440785408,0.0161914862692356,0.0075458004139363
1769145760625,0.09295654296875,0.0295257568359375,-0.9963531494140624,0.0203044731169939,0.023608922958374,0.0133709330111742
1769145760635,0.09185791015625,0.0276031494140625,-0.995574951171875,0.0189643707126379,0.0165544748306274,0.0162926875054836
1769145760645,0.09002685546875,0.0235443115234375,-0.9859771728515624,0.0087886974215507,0.0029925941489636,0.0174980331212282
1769145760655,0.0879058837890625,0.025421142578125,-0.97662353515625,-0.0048397625796496,0.0051992894150316,0.0165142621845006
1769145760666,0.0786590576171875,0.0284881591796875,-0.9717254638671876,-0.0130774527788162,0.0099509013816714,0.0074573834426701
1769145760676,0.0703582763671875,0.0289306640625,-0.9719696044921876,-0.020533237606287,0.00776844099164,-0.0014152037911117
1769145760686,0.0698394775390625,0.0289764404296875,-0.9759063720703124,-0.0299578979611396,0.0027185548096895,-0.0072762886993587
1769145760696,0.074951171875,0.0224151611328125,-0.9791412353515624,-0.0441677272319793,-0.0025981799699366,-0.0085210502147674
1769145760708,0.08447265625,0.0150604248046875,-0.98284912109375,-0.0527913086116313,-0.0198434796184301,-0.0050618704408407
1769145760716,0.0874786376953125,0.0268096923828125,-0.996826171875,-0.0264297425746917,-0.0298332627862691,-0.0054775895550847
1769145760726,0.082550048828125,0.029998779296875,-1.022186279296875,0.0075473985634744,-0.0130313793197274,-0.0076379459351301
1769145760736,0.080902099609375,0.029052734375,-1.0247955322265625,0.0278462786227464,-0.0022210762836039,-0.001365668955259
1769145760746,0.086395263671875,0.02716064453125,-1.0144500732421875,0.0403801798820495,-0.001203748746775,0.0071340757422149
1769145760756,0.0889739990234375,0.031158447265625,-1.006317138671875,0.0480082705616951,0.0107309408485889,0.0163667220622301
1769145760766,0.0857391357421875,0.029693603515625,-1.000335693359375,0.0502242892980575,0.0176722034811973,0.021304490044713
1769145760776,0.0838623046875,0.0337066650390625,-0.9933013916015624,0.0440233834087848,0.0133445672690868,0.0167800448834896
1769145760786,0.0812835693359375,0.029937744140625,-0.9791717529296876,0.0240920204669237,0.0056895771995186,0.0099346563220024
1769145760796,0.0789794921875,0.0259246826171875,-0.965057373046875,0.0006287723081186,-0.0009544769418425,0.0012125372886657
1769145760806,0.0812225341796875,0.0229034423828125,-0.956695556640625,-0.0239825639873743,-0.0078555261716246,-0.0050996872596442
1769145760816,0.08099365234375,0.0233917236328125,-0.9610595703125,-0.0418158881366252,-0.0155169079080224,-0.0063889236189424
1769145760826,0.0853729248046875,0.028594970703125,-0.973358154296875,-0.0503851436078548,-0.02647022344172,-0.0085825687274336
1769145760836,0.08563232421875,0.0273590087890625,-0.9843292236328124,-0.0510408133268356,-0.0258347932249307,-0.0094582168385386
1769145760846,0.084503173828125,0.0255126953125,-0.9936370849609376,-0.0468564555048942,-0.0132340462878346,-0.0019672771450132
1769145760856,0.0864410400390625,0.0274505615234375,-1.0080108642578125,-0.0300108958035707,0.0069678947329521,0.0028626318089663
1769145760866,0.0874786376953125,0.026702880859375,-1.0118255615234375,-0.0139901181682944,0.0190557166934013,0.0076179723255336
1769145760876,0.087646484375,0.02740478515625,-1.0136566162109375,0.0069119683466851,0.0140729416161775,0.0085317026823759
1769145760887,0.0883026123046875,0.029052734375,-1.0148468017578125,0.0229540523141622,0.0083095952868461,0.0131847774609923
1769145760897,0.0903778076171875,0.0303955078125,-1.0086517333984375,0.0344533137977123,0.0033382724504917,0.0197590570896863
1769145760907,0.0907745361328125,0.02972412109375,-1.000213623046875,0.0336580947041511,-0.0039878175593912,0.0181055013090372
1769145760917,0.0875701904296875,0.0265045166015625,-0.9895477294921876,0.023854199796915,-0.003165965899825,0.0157944094389677
1769145760927,0.0836639404296875,0.0242156982421875,-0.98260498046875,0.0141048999503254,-0.0027206854429095,0.0144244795665144
1769145760938,0.0794219970703125,0.0272979736328125,-0.9825897216796876,0.002078330842778,-0.0017632789677008,0.0076973345130681
1769145760947,0.072784423828125,0.03106689453125,-0.9799957275390624,-0.0037515950389206,0.0044999434612691,-0.0014357101172208
1769145760957,0.0736083984375,0.030792236328125,-0.988922119140625,0.0024764735717326,0.0069194249808788,-0.0056011602282524
1769145760967,0.0812225341796875,0.0299224853515625,-0.994873046875,0.0044093956239521,0.0049236523918807,-0.0054011568427085
1769145760977,0.0843353271484375,0.025299072265625,-0.9923858642578124,0.0096198702231049,0.0084392912685871,-0.0023148194886744
1769145760987,0.086761474609375,0.0222930908203125,-0.99578857421875,0.0104704843834042,0.0045667886734008,-0.0006601976347155
1769145760997,0.0902862548828125,0.022247314453125,-0.998138427734375,0.0104196174070239,-0.0082131884992122,0.0010548781137913
1769145761007,0.090606689453125,0.0211334228515625,-0.9967803955078124,0.0080885523930192,-0.0160950794816017,0.0011217234423384
1769145761017,0.0883636474609375,0.0236358642578125,-0.9951019287109376,0.0038602519780397,-0.0220898557454347,0.0034570493735373
1769145761027,0.0849609375,0.02276611328125,-0.9896392822265624,-0.0087916273623704,-0.0274974051862955,0.0036416065413504
1769145761037,0.083038330078125,0.022552490234375,-0.9787750244140624,-0.0248403679579496,-0.0169875063002109,0.0099303945899009
1769145761047,0.0833892822265625,0.0227508544921875,-0.9749755859375,-0.0340999141335487,-0.0027752800378948,0.0157896149903535
1769145761057,0.0792388916015625,0.0304107666015625,-0.9861907958984376,-0.0162301026284694,-0.0026911243330687,0.0101120229810476
1769145761067,0.071807861328125,0.0333251953125,-1.00433349609375,-0.0162301026284694,-0.0026911243330687,0.0101120229810476
1769145761077,0.0796051025390625,0.030181884765625,-1.0084228515625,0.0030128341168165,0.0044874264858663,0.0035353463608771
1769145761087,0.0845489501953125,0.029693603515625,-0.99884033203125,0.0223471168428659,0.005274390336126,0.0099130840972065
1769145761098,0.080963134765625,0.019927978515625,-0.9890899658203124,0.0063758739270269,0.0113288210704922,0.0040211067534983
1769145761108,0.0811004638671875,0.0119781494140625,-0.974609375,-0.0179358571767807,0.0112678343430161,0.0010077401529997
1769145761118,0.08441162109375,0.017364501953125,-0.97320556640625,-0.0242608655244112,4.261057620169595e-05,-0.0020836573094129
1769145761128,0.0825958251953125,0.030059814453125,-0.9871368408203124,-0.0084430193528532,-0.0009590042755007,0.0012311793398112
1769145761138,0.0796966552734375,0.0395050048828125,-1.0058746337890625,0.0134383104741573,0.0087127974256873,0.0010740528814494
1769145761148,0.082366943359375,0.04052734375,-1.0100250244140625,0.0245207883417606,0.0030221552588045,0.0033742249943315
1769145761158,0.0821685791015625,0.039642333984375,-0.99835205078125,0.0174386445432901,0.003924966789782,0.0031784826423972
1769145761168,0.0816192626953125,0.0314788818359375,-0.986907958984375,0.0126910274848341,0.0130470925942063,-0.0004106594424229
1769145761178,0.083160400390625,0.0245208740234375,-0.9899139404296876,0.011134410277009,0.019564114511013,0.0008343683439306
1769145761188,0.0863494873046875,0.018280029296875,-0.985137939453125,0.0025606292765587,0.0219228751957416,0.0013371731620281
1769145761198,0.0839691162109375,0.0196380615234375,-0.9854888916015624,0.0052075451239943,0.0300543047487735,0.0012479572324082
1769145761208,0.0874786376953125,0.0163116455078125,-0.9933929443359376,0.0119099225848913,0.0213681384921073,0.0049747847951948
1769145761218,0.0841827392578125,0.0237274169921875,-0.9940185546875,0.0205915607511997,0.0283240489661693,0.0051569449715316
1769145761228,0.0800933837890625,0.0208892822265625,-0.99749755859375,0.0266350731253623,0.0332524962723255,0.0053902380168437
1769145761238,0.0772247314453125,0.0264892578125,-0.995941162109375,0.0266380030661821,0.0219063647091388,0.0087852356955409
1769145761248,0.07916259765625,0.02880859375,-0.997589111328125,0.0258499737828969,0.0076382122933864,0.0037076529115438
1769145761258,0.07696533203125,0.0226287841796875,-0.992828369140625,0.0164173226803541,0.0020253339316695,0.0010684601729735
1769145761268,0.07965087890625,0.023590087890625,-0.98492431640625,0.002093510935083,0.0036120454315096,-0.0024804682470858
1769145761278,0.0820465087890625,0.0231170654296875,-0.97760009765625,-0.0113184349611401,-0.0022074941080063,-0.0024112260434776
1769145761288,0.0866241455078125,0.0245361328125,-0.97412109375,-0.0244787111878395,-0.008569786325097,-0.0034727619495242
1769145761298,0.0937347412109375,0.0244293212890625,-0.9756927490234376,-0.0280233789235353,-0.0164442211389541,-0.0014687333023175
1769145761309,0.096282958984375,0.02667236328125,-0.9835357666015624,-0.0227809455245733,-0.0128327077254652,0.0019683423452079
1769145761319,0.097625732421875,0.0255584716796875,-0.9959564208984376,-0.0156418103724718,-0.0021526331547647,0.0059886504895985
1769145761329,0.0962677001953125,0.0224151611328125,-0.996307373046875,-0.0090124029666185,0.0145158255472779,0.0111703630536794
1769145761339,0.093902587890625,0.023468017578125,-1.002288818359375,0.0071149012073874,0.0231894757598638,0.0132641401141881
1769145761349,0.0865020751953125,0.02569580078125,-1.0098419189453125,0.0183936543762683,0.029095035046339,0.0063737435266375
1769145761359,0.0819244384765625,0.022857666015625,-1.010040283203125,0.0327952317893505,0.0325190611183643,0.0055308528244495
1769145761369,0.0856781005859375,0.0150299072265625,-1.010406494140625,0.0274563916027545,0.0315605886280536,0.0106838028877973
1769145761379,0.0924530029296875,0.014556884765625,-0.995452880859375,0.0178287979215383,0.0264065731316804,0.0168977566063404
1769145761389,0.088043212890625,0.0187225341796875,-0.9892730712890624,0.0239197146147489,0.0259154867380857,0.0114659732207655
1769145761399,0.0774078369140625,0.0227813720703125,-0.99566650390625,0.0266521163284778,0.030305441468954,0.0089008165523409
1769145761409,0.0774078369140625,0.026275634765625,-0.9940643310546876,0.0212203338742256,0.0216871853917837,0.0068733524531126
1769145761419,0.0796661376953125,0.0283203125,-0.9840850830078124,0.0118745025247335,0.0089319758117198,0.0077047911472618
1769145761429,0.082672119140625,0.0320587158203125,-0.987762451171875,0.0064307348802685,0.001463406952098,0.0049505499191582
1769145761439,0.0889892578125,0.0266265869140625,-0.9876861572265624,0.0025284050498157,0.0043795681558549,0.0128161963075399
1769145761449,0.097412109375,0.025390625,-0.98876953125,0.0045188516378402,0.0085327681154012,0.022121014073491
1769145761459,0.09869384765625,0.0218505859375,-0.990325927734375,0.0020170782227069,0.0135773280635476,0.0256811287254095
1769145761469,0.0955810546875,0.01605224609375,-0.984832763671875,-0.0034591800067573,0.0218419153243303,0.0236880183219909
1769145761479,0.0951690673828125,0.0130462646484375,-0.9849090576171876,-0.0077748326584696,0.0213572196662426,0.0251106787472963
1769145761489,0.0935821533203125,0.013763427734375,-0.9856109619140624,-0.012327772565186,0.019328424707055,0.023233151063323
1769145761499,0.0879058837890625,0.016937255859375,-0.98480224609375,-0.0144921233877539,0.0141874579712748,0.0234009306877851
1769145761510,0.08624267578125,0.0208282470703125,-0.9917449951171876,-0.0135743981227278,0.0018415758386254,0.0202280394732952
1769145761519,0.08099365234375,0.0225067138671875,-0.992279052734375,-0.0151736261323094,-0.0038855520542711,0.016790697351098
1769145761530,0.076568603515625,0.023468017578125,-0.992889404296875,-0.0127922277897596,0.0002484729338902,0.0116939404979348
1769145761540,0.0774688720703125,0.0244140625,-0.9989166259765624,-0.006599046755582,0.0047614658251404,0.0115759624168276
1769145761550,0.078155517578125,0.0214385986328125,-0.997467041015625,-0.0058179418556392,0.0085657909512519,0.0171752590686082
1769145761560,0.0844573974609375,0.0260772705078125,-0.99908447265625,0.0019334548851475,0.0182908568531274,0.0200461465865373
1769145761570,0.082275390625,0.023162841796875,-1.0013427734375,0.0029723541811108,0.0248635374009609,0.0180152188986539
1769145761580,0.083099365234375,0.0205535888671875,-0.993133544921875,0.0026831347495317,0.0257125534117221,0.0146580385044217
1769145761590,0.0854034423828125,0.0193023681640625,-0.9896240234375,0.0006133259739726,0.0229798834770917,0.0107296099886298
1769145761600,0.086273193359375,0.0204010009765625,-0.984649658203125,-0.0031049794051796,0.0148657653480768,0.0070896008983254
1769145761610,0.083526611328125,0.0190582275390625,-0.9791259765625,-0.0098318578675389,0.0119948778301477,0.0026658242568373
1769145761620,0.0833892822265625,0.0167236328125,-0.981414794921875,-0.0133562851697206,0.008886968716979,-0.0007099987124092
1769145761630,0.0878143310546875,0.020477294921875,-0.9831085205078124,-0.0180133543908596,-0.003132942598313,-0.0039169774390757
1769145761640,0.085357666015625,0.023895263671875,-0.984771728515625,-0.0159683134406805,-0.0066861324012279,-0.0090406332165002
1769145761650,0.0776519775390625,0.02716064453125,-0.9929962158203124,-0.0097812581807374,-0.0045071337372064,-0.015311311930418
1769145761660,0.0742645263671875,0.0296173095703125,-1.0004425048828125,-0.0006199838826432,0.0067074373364448,-0.0203348323702812
1769145761670,0.0781707763671875,0.0264892578125,-0.9999847412109376,0.0045891590416431,0.0066144932061433,-0.0216272640973329
1769145761680,0.08843994140625,0.022796630859375,-0.9980926513671876,0.0034439999144524,0.0063556339591741,-0.0138764008879661
1769145761690,0.0970001220703125,0.0157928466796875,-0.99444580078125,-0.0030908647459,0.0103554353117942,-0.0026509105227887
1769145761700,0.101715087890625,0.0142669677734375,-0.9854888916015624,-0.0099618202075362,0.0026522420812398,0.0046922233887016
1769145761711,0.098388671875,0.015411376953125,-0.9822540283203124,-0.0160452798008918,0.0025225460994988,9.960222087102012e-05
1769145761721,0.0920257568359375,0.01788330078125,-0.98541259765625,-0.0148918638005852,0.0003254382754676,-0.0038820898625999
1769145761730,0.0883331298828125,0.02471923828125,-0.99334716796875,-0.0107613010331988,-0.0038695731200277,-0.0015544871566817
1769145761741,0.086090087890625,0.0241546630859375,-0.9936065673828124,-0.009784453548491,-0.0035872780717909,-0.0063806674443185
1769145761751,0.083404541015625,0.0187835693359375,-0.991668701171875,-0.0103929862380027,0.0037191044539213,-0.0088398307561874
1769145761761,0.08612060546875,0.0224151611328125,-0.991912841796875,-0.0034751589410007,0.0041896849870681,-0.0146580385044217
1769145761771,0.0880126953125,0.021148681640625,-0.9955902099609376,0.0004889564006589,0.01156797260046,-0.0090542146936059
1769145761781,0.093048095703125,0.025787353515625,-0.9932098388671876,0.0015851134667173,0.0130028836429119,-0.0006849650526419
1769145761791,0.0899505615234375,0.0288848876953125,-0.991668701171875,0.0051391017623245,0.0230097118765115,0.0013366405619308
1769145761801,0.0854339599609375,0.0176544189453125,-0.9908447265625,-0.0096246637403965,0.0333603546023368,0.0042072618380188
1769145761811,0.0955657958984375,0.007781982421875,-0.9774627685546876,-0.0314665809273719,0.031325165182352,0.0101975100114941
1769145761821,0.1011199951171875,0.0152130126953125,-0.9816741943359376,-0.0241010747849941,0.0157217048108577,0.008290153928101
1769145761831,0.0918426513671875,0.0267333984375,-1.0076904296875,0.0077940071932971,0.0097450390458107,0.0026106967125087
1769145761841,0.0868988037109375,0.0310516357421875,-1.0204620361328125,0.0355524010956287,0.0111027183011174,0.0029609024059027
1769145761851,0.0897216796875,0.03125,-1.0135955810546875,0.0420643612742424,0.0093820504844188,0.0093152048066258
1769145761861,0.0887603759765625,0.0290374755859375,-0.994476318359375,0.0270188339054584,0.0052735917270183,0.0046168561093509
1769145761871,0.0822296142578125,0.0229949951171875,-0.9769287109375,-0.0004303668392822,0.0017060210229828,-0.0003464772598817
1769145761881,0.0813140869140625,0.0223846435546875,-0.96649169921875,-0.0296495053917169,0.0003467435599304,-0.0035334820859134
1769145761891,0.082183837890625,0.019256591796875,-0.9631805419921876,-0.0513958111405372,0.0023086944129318,-0.0062874569557607
1769145761901,0.0858001708984375,0.0183563232421875,-0.9678497314453124,-0.0625739023089408,0.0030442595016211,-0.0069937272928655
1769145761915,0.08843994140625,0.019805908203125,-0.9809417724609376,-0.0580281503498554,0.0041382857598364,-0.0060126185417175
1769145761921,0.092529296875,0.0247039794921875,-0.9975128173828124,-0.0408526249229908,0.0030224213842302,-0.0048466869629919
1769145761932,0.093414306640625,0.024932861328125,-1.011810302734375,-0.0185521133244037,0.0016727314796298,-0.0031838091090321
1769145761942,0.0959320068359375,0.0263214111328125,-1.01800537109375,0.0040637175552546,0.0049846386536955,0.0003549993562046
1769145761952,0.0956878662109375,0.02142333984375,-1.0178680419921875,0.0201276391744613,0.010310960933566,0.0049367016181349
1769145761962,0.095855712890625,0.0201416015625,-1.0107574462890625,0.0263980515301227,0.0080012008547782,0.0055377772077918
1769145761972,0.0916290283203125,0.020660400390625,-0.99993896484375,0.0274651795625686,0.0009462211164645,0.0083319656550884
1769145761982,0.0867462158203125,0.023040771484375,-0.9928436279296876,0.027992220595479,-0.0017630126094445,0.0053875748999416
1769145761992,0.0830230712890625,0.026275634765625,-0.9882659912109376,0.0225026458501815,0.0016330503858625,0.0037230991292744
1769145762002,0.0850830078125,0.025360107421875,-0.9772186279296876,0.0154130449518561,0.0060115535743534,0.0026061693206429
1769145762012,0.0895233154296875,0.0218505859375,-0.9734039306640624,0.0029379993211477,0.0074552530422806,0.0083085298538208
1769145762022,0.091033935546875,0.0235443115234375,-0.97369384765625,-0.0080568613484501,0.0094433026388287,0.0095469001680612
1769145762032,0.0892181396484375,0.023345947265625,-0.9780120849609376,-0.0188013836741447,0.0016852483386173,0.0034439999144524
1769145762042,0.0902862548828125,0.0225677490234375,-0.980010986328125,-0.0322932265698909,-0.0060621537268161,0.0007070692372508
1769145762052,0.0931396484375,0.023773193359375,-0.982696533203125,-0.0484168007969856,-0.0030407973099499,0.0021060276776552
1769145762063,0.0893402099609375,0.0238037109375,-0.983917236328125,-0.050136137753725,0.0059172776527702,0.0012918994762003
1769145762072,0.0880889892578125,0.0221099853515625,-0.995849609375,-0.0378579013049602,0.0095181372016668,-0.0020658141002058
1769145762082,0.0927581787109375,0.01898193359375,-1.0074462890625,-0.0236203745007514,0.0088038779795169,0.0020887171849608
1769145762092,0.097747802734375,0.019927978515625,-1.009979248046875,-0.015926769003272,0.0067963870242238,0.0061215418390929
1769145762102,0.097198486328125,0.0228118896484375,-1.012298583984375,0.0130007537081837,0.0021971079986542,0.0052650696597993
1769145762116,0.0879364013671875,0.024261474609375,-1.024078369140625,0.0469086542725563,0.0124305710196495,0.001284708851017
1769145762124,0.0832061767578125,0.0238800048828125,-1.02294921875,0.0621507242321968,0.0210701320320367,-0.002298840554431
1769145762133,0.084869384765625,0.0261688232421875,-1.003387451171875,0.0609794631600379,0.0137879839166998,-0.001735049416311
1769145762142,0.085845947265625,0.0247039794921875,-0.9873809814453124,0.0386959984898567,0.0063087623566389,-0.0063239424489438
1769145762153,0.08294677734375,0.023651123046875,-0.9712677001953124,0.0137499002739787,-0.0023662187159061,-0.0113908722996711
1769145762163,0.0814666748046875,0.0269317626953125,-0.9639739990234376,-0.0126990173012018,0.0051404335536062,-0.0249857772141695
1769145762173,0.07855224609375,0.0227508544921875,-0.9625244140625,-0.0384903997182846,0.0023819312918931,-0.0253005623817443
1769145762183,0.088531494140625,0.0208740234375,-0.962738037109375,-0.0518131293356418,-0.000438888935605,-0.0143776079639792
1769145762193,0.1004486083984375,0.019287109375,-0.978271484375,-0.0443570762872695,0.0048972871154546,-0.0070515177212655
1769145762203,0.1035919189453125,0.015350341796875,-0.9966278076171876,-0.0267093759030103,0.0012048140633851,-0.0033087113406509
1769145762213,0.0980987548828125,0.01654052734375,-1.005950927734375,-0.00924729462713,-0.0021217404864728,-0.0044442829675972
1769145762223,0.0954742431640625,0.017425537109375,-1.01123046875,0.0100864563137292,0.0057918424718081,-0.0029385320376604
1769145762233,0.09503173828125,0.0172882080078125,-1.0109100341796875,0.0197678450495004,0.0089815109968185,-0.0001230380439665
1769145762243,0.0938873291015625,0.018646240234375,-1.0063018798828125,0.02481853030622,0.0039966059848666,0.0030059099663048
1769145762253,0.0908203125,0.0210418701171875,-1.000823974609375,0.0212256591767072,-0.0001315601548412,0.0070075755938887
1769145762263,0.0872039794921875,0.0235748291015625,-0.98870849609375,0.0101591609418392,0.0006743124104104,0.0060783987864851
1769145762273,0.08526611328125,0.022216796875,-0.98236083984375,0.0008844357798807,0.0005597964627668,0.00581288151443
1769145762283,0.084136962890625,0.0239410400390625,-0.9775543212890624,-0.0104965828359127,-0.0040306942537426,0.0031760858837515
1769145762293,0.08428955078125,0.022979736328125,-0.97412109375,-0.0226030461490154,-0.0111051155254244,-0.0010908307740464
1769145762303,0.0853729248046875,0.0222015380859375,-0.97113037109375,-0.0331853851675987,-0.0086257122457027,-0.000811465200968
1769145762313,0.0886688232421875,0.0225067138671875,-0.9772796630859376,-0.0379015766084194,-0.007422496099025,-0.0032599754631519
1769145762323,0.09075927734375,0.021484375,-0.9825897216796876,-0.0377385914325714,-0.0148055776953697,-0.0040693101473152
1769145762333,0.093841552734375,0.020904541015625,-0.99151611328125,-0.0332503654062747,-0.0054807853884994,-0.0024682176299393
1769145762343,0.0939788818359375,0.0216522216796875,-0.9987640380859376,-0.0286108721047639,-0.0133791882544755,-0.0047960868105292
1769145762354,0.0916290283203125,0.0253753662109375,-1.000091552734375,-0.0187470559030771,-0.0102915195748209,-0.0103389238938689
1769145762364,0.08758544921875,0.0279998779296875,-1.008392333984375,-0.0034216293133795,-0.0057276603765785,-0.0131277861073613
1769145762374,0.0857086181640625,0.03070068359375,-1.011444091796875,0.0105993812903761,-0.005550826434046,-0.0130697293207049
1769145762384,0.0880279541015625,0.02874755859375,-1.007568359375,0.0174948368221521,0.0002769687562249,-0.0076629798859357
1769145762394,0.0921630859375,0.0221405029296875,-0.998443603515625,0.0131027521565556,0.008159658871591,-0.0010721886064857
1769145762404,0.0947265625,0.018768310546875,-0.988983154296875,0.0091008199378848,0.0125099327415227,0.006598247680813
1769145762414,0.0915679931640625,0.017730712890625,-0.984161376953125,0.0042306976392865,0.0115639781579375,0.0052517536096274
1769145762424,0.0883636474609375,0.02008056640625,-0.9842529296875,-0.006319148465991,0.009918144904077,5.858954318682663e-05
1769145762434,0.0841827392578125,0.019073486328125,-0.977386474609375,-0.0250773895531892,0.0068046427331864,-0.0022058964241296
1769145762444,0.08660888671875,0.02032470703125,-0.9757843017578124,-0.038038995116949,0.0042221755720674,-0.009328787215054
1769145762454,0.088348388671875,0.0160369873046875,-0.982025146484375,-0.0521375015377998,0.0025435851421207,-0.0118545284494757
1769145762464,0.095611572265625,0.02117919921875,-0.987579345703125,-0.0453682802617549,0.0005771070136688,-0.0091266529634594
1769145762474,0.097747802734375,0.02777099609375,-1.00677490234375,-0.0150399357080459,0.0124481478706002,0.0020580908749252
1769145762484,0.1025238037109375,0.0314178466796875,-1.0236968994140625,0.015114770270884,0.0142100946977734,0.0123416213318705
1769145762494,0.0968170166015625,0.0347747802734375,-1.0216217041015625,0.0473267696797847,0.0162138566374778,0.0101096257567405
1769145762504,0.0860137939453125,0.0247802734375,-1.0181121826171875,0.062097992748022,0.0253543592989444,0.0110443951562047
1769145762514,0.09063720703125,0.0112457275390625,-0.995147705078125,0.0374935790896415,0.0285075418651103,0.0144886616617441
1769145762526,0.0942230224609375,0.0087432861328125,-0.9665374755859376,0.0074499268084764,0.0173963010311126,0.010489392094314
1769145762534,0.0845184326171875,0.0162811279296875,-0.964080810546875,-0.0073937340639531,0.0039332224987447,-0.004375307355076
1769145762544,0.07269287109375,0.026763916015625,-0.970001220703125,-0.0163464825600385,0.0028274781070649,-0.0137957073748111
1769145762554,0.071990966796875,0.033905029296875,-0.97515869140625,-0.0227516517043113,0.007455519400537,-0.0165677908807992
1769145762565,0.07855224609375,0.035980224609375,-0.979339599609375,-0.0307270195335149,0.0059979711659252,-0.0152426026761531
1769145762575,0.090362548828125,0.031890869140625,-0.9806365966796876,-0.0451698750257492,-0.0019217369845137,-0.0093924365937709
1769145762585,0.0977020263671875,0.0293121337890625,-0.98345947265625,-0.0503659695386886,-0.0073615098372101,-0.0027465180028229
1769145762595,0.0986480712890625,0.0272064208984375,-0.99493408203125,-0.0449144765734672,-0.0030525152105838,-0.003319896524772
1769145762605,0.0965423583984375,0.0216064453125,-1.0030975341796875,-0.0300372615456581,0.0078992024064064,0.0004340952436905
1769145762615,0.0992889404296875,0.0213775634765625,-1.011962890625,-0.0099921803921461,0.0146170258522033,0.0036240296903997
1769145762625,0.0966644287109375,0.018890380859375,-1.0181732177734375,0.0107759488746523,0.0168873704969882,0.0039356192573904
1769145762635,0.0911407470703125,0.01812744140625,-1.0133056640625,0.0218144841492176,0.0196834243834018,0.0001161138206953
1769145762645,0.08544921875,0.0193634033203125,-1.0023345947265625,0.0210831817239522,0.0236137174069881,-0.0037856835406273
1769145762655,0.08203125,0.019256591796875,-0.9905853271484376,0.0122579978778958,0.0090155992656946,-0.0080097233876585
1769145762665,0.0867919921875,0.0211334228515625,-0.9803466796875,-0.0024234766606241,3.355582884978503e-05,-0.0073276874609291
1769145762675,0.0882720947265625,0.0247955322265625,-0.9768218994140624,-0.014592258259654,-0.0127144632861018,-0.0127062080428004
1769145762685,0.0865325927734375,0.025543212890625,-0.9755401611328124,-0.0229926668107509,-0.0191063173115253,-0.0104819359257817
1769145762700,0.0924072265625,0.0312042236328125,-0.9825439453125,-0.0210514888167381,-0.014707307331264,-0.0049516153521835
1769145762706,0.0950469970703125,0.0293731689453125,-0.9894256591796876,-0.0147057091817259,-0.0111764883622527,-0.0014263890916481
1769145762715,0.096923828125,0.0294647216796875,-0.9882049560546876,-0.0168415643274784,-0.0051540154963731,0.0029585056472569
1769145762725,0.0982513427734375,0.026702880859375,-0.986846923828125,-0.0160338282585144,-0.002225070958957,0.0047183223068714
1769145762735,0.09661865234375,0.0241241455078125,-0.98541259765625,-0.0247037485241889,0.0002053297212114,0.0033856767695397
1769145762745,0.09344482421875,0.02197265625,-0.9809417724609376,-0.0309419371187686,0.0065617626532912,0.0014679343439638
1769145762755,0.0927886962890625,0.0250701904296875,-0.9857025146484376,-0.0297752059996128,0.0157936103641986,0.0001587244041729
1769145762765,0.09283447265625,0.0243682861328125,-0.992584228515625,-0.0262457188218832,0.0194740984588861,0.0060674799606204
1769145762775,0.095367431640625,0.023468017578125,-0.9968109130859376,-0.0197854228317737,0.0171784535050392,0.0102435825392603
1769145762786,0.096832275390625,0.0236663818359375,-0.9985198974609376,-0.0212147403508424,0.0105618303641676,0.0113663710653781
1769145762796,0.0955352783203125,0.0207061767578125,-0.9955596923828124,-0.0300069004297256,-0.0057982341386377,0.0080531323328614
1769145762806,0.09521484375,0.027557373046875,-0.99639892578125,-0.0224437899887561,-0.0219313967972993,0.0074499268084764
1769145762816,0.0889892578125,0.0296783447265625,-1.009765625,-0.0046962182968854,-0.0196594558656215,0.0057103498838841
1769145762826,0.08734130859375,0.0317535400390625,-1.0130157470703125,0.0081319622695446,-0.0109871374443173,0.0057239322923123
1769145762836,0.081787109375,0.032135009765625,-1.0038909912109375,0.0170338451862335,0.0017544905422255,0.0026000442449003
1769145762846,0.080810546875,0.030059814453125,-1.0005950927734375,0.0153720322996377,0.0123059349134564,0.0024341291282325
1769145762856,0.082550048828125,0.03076171875,-0.997894287109375,0.0179478414356708,0.0168471578508615,-0.0015140071045607
1769145762866,0.0861968994140625,0.0244903564453125,-0.996490478515625,0.0198493376374244,0.016328640282154,-0.0026487798895686
1769145762876,0.0940093994140625,0.0222320556640625,-0.9937744140625,0.0208240561187267,0.0149701610207557,0.0031095067970454
1769145762886,0.1004638671875,0.0206146240234375,-0.9918670654296876,0.0233929399400949,0.0078480690717697,0.0042725093662738
1769145762896,0.1010589599609375,0.019866943359375,-0.989898681640625,0.0206972882151603,-0.0009933591354638,0.0038139128591865
1769145762906,0.0967864990234375,0.0204315185546875,-0.9864501953125,0.0199010036885738,-0.0024189492687582,0.0027694210875779
1769145762916,0.09490966796875,0.02093505859375,-0.986053466796875,0.0194221679121255,-0.0028157602064311,0.002845321316272
1769145762926,0.089630126953125,0.02386474609375,-0.98333740234375,0.0086672576144337,-0.0002090581401716,0.0089428946375846
1769145762937,0.0872802734375,0.0263519287109375,-0.9768218994140624,0.0038666436448693,0.0067111658863723,0.0062712118960917
1769145762946,0.0867462158203125,0.0244293212890625,-0.9814910888671876,-0.0129637354984879,0.0119179124012589,0.0063748084940016
1769145762956,0.085968017578125,0.0255126953125,-0.975372314453125,-0.0214794594794511,0.0241338312625885,0.0073604444041848
1769145762966,0.0859222412109375,0.0250244140625,-0.9854888916015624,-0.0221718810498714,0.025244103744626,0.0078150462359189
1769145762977,0.0908966064453125,0.022491455078125,-0.9912567138671876,-0.0172578170895576,0.0133397737517952,0.0084978807717561
1769145762987,0.093597412109375,0.02447509765625,-1.0005950927734375,-0.0027984497137367,0.0085000116378068,0.0065204836428165
1769145762997,0.094329833984375,0.022064208984375,-1.007080078125,0.0125040737912058,-0.0012796488590538,0.0046546729281544
1769145763007,0.0922698974609375,0.0196075439453125,-1.0047760009765625,0.0239998754113912,-0.0090102730318903,0.0009845705935731
1769145763017,0.0878448486328125,0.0209503173828125,-1.0000457763671875,0.0275818258523941,-0.0082414178177714,-0.0017446368001401
1769145763027,0.082305908203125,0.022796630859375,-0.9975128173828124,0.0287717264145612,-0.0078824236989021,-0.0049193911254405
1769145763037,0.0811920166015625,0.0249481201171875,-0.9942626953125,0.0238137207925319,-0.0056006275117397,-0.0110638365149497
1769145763047,0.0825653076171875,0.024322509765625,-0.9896240234375,0.017183780670166,-0.0015760586829856,-0.0064568337984383
1769145763057,0.0887298583984375,0.0222015380859375,-0.9860076904296876,0.0044544031843543,-0.0024884575977921,-0.0091285174712538
1769145763067,0.0931549072265625,0.022125244140625,-0.9791259765625,-0.0092566153034567,0.0143816024065017,-0.0041763694025576
1769145763077,0.09381103515625,0.0225067138671875,-0.9771881103515624,-0.0114353476092219,0.0289935674518346,0.0001510012370999
1769145763090,0.09686279296875,0.024505615234375,-0.9827728271484376,-0.0096648782491683,0.0291509609669446,0.0019696739036589
1769145763097,0.0969390869140625,0.0310211181640625,-0.9891204833984376,0.0002335592289455,0.0240542031824588,0.0008069378091022
1769145763107,0.0959320068359375,0.0316162109375,-0.99664306640625,0.0039904806762933,0.0120641198009252,-0.0016176040517166
1769145763117,0.09588623046875,0.0252532958984375,-0.9940948486328124,-0.0040922132320702,-0.0046099317260086,-0.0044514737091958
1769145763127,0.0993194580078125,0.0188751220703125,-0.98077392578125,-0.0212134104222059,-0.0092395711690187,-0.0053508230485022
1769145763140,0.09674072265625,0.01507568359375,-0.9793853759765624,-0.0319827012717723,-0.010922422632575,-0.005094626918435
1769145763148,0.0903472900390625,0.0177154541015625,-0.983489990234375,-0.0374381840229034,-0.010358365252614,-0.0067340689711272
1769145763157,0.0890655517578125,0.022125244140625,-0.9889373779296876,-0.0338812693953514,-0.0042325616814196,-0.0043691820465028
1769145763167,0.0881805419921875,0.0268402099609375,-1.0003814697265625,-0.0187425278127193,0.011207646690309,-0.0004756405542138
1769145763177,0.0893402099609375,0.0204620361328125,-1.0055999755859375,-0.0111706294119358,0.0260379929095506,0.0034543862566351
1769145763187,0.100341796875,0.0186004638671875,-1.004913330078125,0.0070147663354873,0.0291198026388883,0.0141278030350804
1769145763198,0.10675048828125,0.0222625732421875,-1.0126953125,0.0351638458669185,0.032131303101778,0.02152606472373
1769145763208,0.104705810546875,0.0266265869140625,-1.0186767578125,0.0511633194983005,0.0230805519968271,0.0287640038877725
1769145763218,0.096649169921875,0.0323944091796875,-1.0074005126953125,0.0589378848671913,0.0071961274370551,0.0235410127788782
1769145763228,0.0858917236328125,0.031036376953125,-0.998382568359375,0.058428157120943,0.0112731605768203,0.0164186544716358
1769145763238,0.0845184326171875,0.0181121826171875,-0.98101806640625,0.0253887139260768,0.006025668233633,0.0163779072463512
1769145763248,0.0875701904296875,0.0142822265625,-0.9553985595703124,-0.0156689751893281,0.0013321131700649,0.0123970145359635
1769145763258,0.0811614990234375,0.020599365234375,-0.9488067626953124,-0.0414457097649574,0.0031696942169219,-0.0073748254217207
1769145763268,0.07470703125,0.021636962890625,-0.9614410400390624,-0.0453488379716873,0.0082446141168475,-0.014854846522212
1769145763278,0.0817108154296875,0.02911376953125,-0.98016357421875,-0.029472405090928,0.0027545075863599,-0.0146079715341329
1769145763288,0.09112548828125,0.034759521484375,-0.9988555908203124,-0.0133807864040136,-0.0021262678783386,-0.0118718398734927
1769145763298,0.0960693359375,0.03302001953125,-1.0051422119140625,-0.0044919536449015,0.0008391620358452,-0.0063250074163079
1769145763308,0.097442626953125,0.029388427734375,-1.0043182373046875,-0.0038943404797464,-0.0035039209760725,3.781688792514615e-05
1769145763318,0.0942840576171875,0.027801513671875,-1.001617431640625,-0.001669269404374,-0.0015092133544385,0.001710015698336
1769145763328,0.0964202880859375,0.02362060546875,-1.00537109375,0.0041566616855561,0.0011552792275324,0.0035433357115834
1769145763338,0.0944061279296875,0.019744873046875,-1.0028228759765625,0.006237655878067,0.0051806471310555,0.0014439659425988
1769145763348,0.0916290283203125,0.018524169921875,-1.00341796875,0.0178415812551975,0.0101072285324335,0.0004455468442756
1769145763358,0.0893707275390625,0.0179290771484375,-1.00201416015625,0.0227607060223817,0.0157640501856803,-0.0029417276382446
1769145763368,0.090789794921875,0.0180816650390625,-0.9969482421875,0.0249844454228878,0.0155334193259477,-0.0044591967016458
1769145763378,0.091766357421875,0.0205841064453125,-0.991546630859375,0.0204789098352193,0.0140308644622564,-0.0036293559242039
1769145763388,0.0906829833984375,0.020782470703125,-0.9832916259765624,0.0090813795104622,0.0115144429728388,-0.0061066281050443
1769145763399,0.0913238525390625,0.0211944580078125,-0.976898193359375,0.0042970106005668,0.0005065332516096,-0.0074382089078426
1769145763409,0.0942840576171875,0.0253448486328125,-0.9856719970703124,0.0066874637268483,-0.0132026206701993,-0.0070464578457176
1769145763419,0.0961151123046875,0.0257110595703125,-0.989166259765625,0.0089101381599903,-0.016058063134551,-0.0089181270450353
1769145763429,0.0951385498046875,0.022979736328125,-0.9893341064453124,0.0096267946064472,-0.0081601915881037,-0.0087990844622254
1769145763439,0.0952911376953125,0.021697998046875,-0.99139404296875,0.0123815685510635,0.0002261023764731,-0.006090915761888
1769145763449,0.0921783447265625,0.0199127197265625,-0.98895263671875,0.0021489046048372,0.0099975066259503,-0.0054674698039889
1769145763459,0.0891571044921875,0.01708984375,-0.981689453125,-0.0078786956146359,0.02374261431396,-0.0068832063116133
1769145763469,0.0931243896484375,0.0147857666015625,-0.981414794921875,-0.0132409706711769,0.0177851226180791,-0.007595335599035
1769145763479,0.101104736328125,0.0183563232421875,-0.98675537109375,-0.0161576643586158,-0.0029838057234883,-0.0046293730847537
1769145763489,0.099212646484375,0.0240325927734375,-0.991455078125,-0.0135552231222391,-0.0183587670326232,-0.0065103634260594
1769145763499,0.0947723388671875,0.02392578125,-0.992279052734375,-0.0060001020319759,-0.0127429589629173,-0.0050296462140977
1769145763509,0.0990142822265625,0.0194549560546875,-0.99737548828125,-0.0030485205352306,-0.0052677327767014,0.0018450380302965
1769145763519,0.1073760986328125,0.0146636962890625,-0.99566650390625,-0.0120348250493407,-0.0045840991660952,0.0124904913827776
1769145763529,0.1083526611328125,0.016632080078125,-0.9916229248046876,-0.0064083645120263,0.0012743226252496,0.0201737117022275
1769145763539,0.0958251953125,0.0153961181640625,-0.998138427734375,-0.001931590726599,0.0161102600395679,0.0174682065844535
1769145763549,0.0859527587890625,0.02130126953125,-1.0003204345703125,0.0129533493891358,0.0133938360959291,0.0092038847506046
1769145763559,0.0798797607421875,0.0241241455078125,-1.0044403076171875,0.0234501976519823,0.0108907306566834,0.0008231831016018
1769145763569,0.0782470703125,0.023895263671875,-1.000579833984375,0.0276966094970703,0.0137839894741773,-0.0052458946593105
1769145763579,0.084991455078125,0.023468017578125,-0.996185302734375,0.0279980786144733,0.0070898672565817,-0.0037276265211403
1769145763589,0.0875091552734375,0.0234527587890625,-0.9923248291015624,0.0238877553492784,-0.0009384979493916,-0.0075814868323504
1769145763600,0.0844573974609375,0.019500732421875,-0.9849700927734376,0.0130074117332696,-0.0081117218360304,-0.0169225241988897
1769145763609,0.085906982421875,0.01763916015625,-0.97802734375,-0.006256298162043,-0.0110406670719385,-0.0188924651592969
1769145763619,0.0924224853515625,0.0165863037109375,-0.9749603271484376,-0.0222909245640039,-0.0110111059620976,-0.0167877692729234
1769145763629,0.0976409912109375,0.0159759521484375,-0.9767608642578124,-0.0275354869663715,-0.0044725127518177,-0.0112561164423823
1769145763640,0.1036529541015625,0.017730712890625,-0.983489990234375,-0.0264960564672946,0.0077711041085422,-0.004046939779073
1769145763650,0.104522705078125,0.018951416015625,-0.9887542724609376,-0.0173840504139661,0.013023124076426,0.0042248386889696
1769145763660,0.103912353515625,0.023101806640625,-0.9978790283203124,-0.0051630702801048,0.0163981486111879,0.008144212886691
1769145763670,0.0987091064453125,0.021697998046875,-1.0022735595703125,0.0004087952256668,0.0229303501546382,0.0093383742496371
1769145763680,0.0925750732421875,0.019989013671875,-0.997589111328125,0.0064134243875741,0.0301773436367511,0.0107522467151284
1769145763690,0.0894622802734375,0.0188751220703125,-0.9994354248046876,0.0083194486796855,0.0315733738243579,0.0068488512188196
1769145763700,0.0866851806640625,0.016845703125,-0.998504638671875,0.0129405660554766,0.0221079643815755,-0.0007616640650667
1769145763710,0.0847320556640625,0.0184478759765625,-1.00018310546875,0.0148750860244035,0.0134170055389404,-0.0053750579245388
1769145763720,0.0831298828125,0.0170745849609375,-1.000732421875,0.0166346374899148,-9.400958515470847e-05,-0.0061681475490331
1769145763730,0.0845947265625,0.018707275390625,-0.995880126953125,0.0135554894804954,-0.0050810449756681,-0.0070674968883395
1769145763740,0.0879364013671875,0.0181427001953125,-0.99114990234375,0.0106550408527255,-0.0024426514282822,-0.0069846725091338
1769145763750,0.088836669921875,0.02020263671875,-0.98895263671875,0.0092915026471018,-0.0050887679681181,-0.0037305559962987
1769145763760,0.0945587158203125,0.0228729248046875,-0.990997314453125,0.0114305531606078,-0.0111855426803231,-0.0036011263728141
1769145763771,0.0979461669921875,0.0226593017578125,-0.99462890625,0.0131669342517852,-0.0069971894845366,-0.0055843824520707
1769145763780,0.0987548828125,0.020782470703125,-0.9896240234375,0.0131773212924599,-0.0014261227333918,-0.004383829422295
1769145763792,0.1013336181640625,0.020233154296875,-0.9889068603515624,0.0074805533513426,0.0067628310061991,-0.0004918858758173
1769145763801,0.0985870361328125,0.0209808349609375,-0.983551025390625,0.0005254416610114,0.0180967114865779,-0.0040890173986554
1769145763810,0.0916290283203125,0.0244598388671875,-0.9855194091796876,0.0011076086666435,0.0251980312168598,-0.0143283391371369
1769145763821,0.08648681640625,0.0234375,-0.987274169921875,0.0002870887692552,0.0295981056988239,-0.0208384357392787
1769145763830,0.0880889892578125,0.0211944580078125,-0.9891204833984376,0.0006418218254111,0.0290614794939756,-0.0200437493622303
1769145763841,0.095916748046875,0.0204315185546875,-0.996978759765625,0.0119341574609279,0.0235769655555486,-0.0162135902792215
1769145763851,0.1016082763671875,0.0154876708984375,-1.0016021728515625,0.0206711906939744,0.009033708833158,-0.0097639476880431
1769145763861,0.1033172607421875,0.011962890625,-0.9950408935546876,0.0182852633297443,-0.0042123217135667,-0.005012335255742
1769145763871,0.0979156494140625,0.01239013671875,-0.9903717041015624,0.0137461721897125,0.0014791196445003,-0.004889297299087
1769145763881,0.092559814453125,0.013031005859375,-0.9901123046875,0.021261878311634,0.007953530177474,-0.0022064289078116
1769145763891,0.092010498046875,0.0159912109375,-1.0030059814453125,0.0373769327998161,0.018199510872364,0.0066800070926547
1769145763901,0.10260009765625,0.01556396484375,-1.00146484375,0.0350578539073467,0.0133227296173572,0.0116995330899953
1769145763911,0.1002044677734375,0.013763427734375,-0.9968719482421876,0.0344786159694194,0.0270704999566078,0.0144564369693398
1769145763921,0.1018829345703125,0.0169219970703125,-0.9979705810546876,0.0438886284828186,0.0220022369176149,0.012206332758069
1769145763931,0.095855712890625,0.023101806640625,-1.005096435546875,0.0557109341025352,0.0199990086257457,0.0037228327710181
1769145763941,0.0958251953125,0.0238494873046875,-1.0065155029296875,0.0630756393074989,0.011779960244894,0.0029132319614291
1769145763951,0.092010498046875,0.0277252197265625,-1.0030670166015625,0.091721661388874,0.0197729058563709,-0.0014189322246238
1769145763961,0.09576416015625,0.017364501953125,-1.0133056640625,0.0937206298112869,0.0293837208300828,0.0018506306223571
1769145763973,0.1030731201171875,0.006256103515625,-0.9927215576171876,0.0814839377999305,0.0329848490655422,0.0056232647038996
1769145763981,0.1085662841796875,0.0030059814453125,-0.9808502197265624,0.0641153380274772,0.0355401523411273,0.0105037735775113
1769145763991,0.09881591796875,0.00872802734375,-0.97509765625,0.0532168820500373,0.0255258660763502,0.0025454494170844
1769145764001,0.0837554931640625,0.0120697021484375,-0.979217529296875,0.0392291620373725,0.0236187763512134,-0.0069452575407922
1769145764011,0.0785369873046875,0.013702392578125,-0.9708251953125,0.0111714284867048,0.0121296336874365,-0.0151347443461418
1769145764021,0.08343505859375,0.012451171875,-0.9561767578125,-0.0256904494017362,-0.0056365802884101,-0.0182722136378288
1769145764031,0.0917510986328125,0.010345458984375,-0.9486541748046876,-0.063071109354496,-0.0303989183157682,-0.0201729126274585
1769145764042,0.0934906005859375,0.0129241943359375,-0.9554901123046876,-0.0835638716816902,-0.0519721210002899,-0.0278678499162197
1769145764052,0.091552734375,0.0111083984375,-0.9694366455078124,-0.0941773653030395,-0.0616377964615821,-0.0356986075639724
1769145764062,0.0921783447265625,0.010040283203125,-0.98443603515625,-0.0851431265473365,-0.0515872947871685,-0.0366379059851169
1769145764072,0.096832275390625,0.0107421875,-1.00372314453125,-0.0608790628612041,-0.0344876684248447,-0.0299608279019594
1769145764082,0.1032257080078125,0.0077667236328125,-1.0165557861328125,-0.037387054413557,-0.0154695035889744,-0.0242912247776985
1769145764092,0.10113525390625,0.0080718994140625,-1.0213470458984375,-0.012664396315813,0.0046323025599122,-0.0149382026866078
1769145764102,0.0988311767578125,0.010589599609375,-1.021148681640625,0.0079934783279895,0.0178517010062932,-0.0129006188362836
1769145764112,0.095245361328125,0.0125274658203125,-1.01458740234375,0.0163677874952554,0.0193060543388128,-0.0115219000726938
1769145764122,0.0920257568359375,0.0139007568359375,-1.0063018798828125,0.0291767939925193,0.0204200539737939,-0.0071093086153268
1769145764132,0.09222412109375,0.0178985595703125,-1.0052337646484375,0.0387766920030117,0.0123235117644071,-0.0044658547267317
1769145764142,0.0946502685546875,0.016571044921875,-0.9971160888671876,0.0500746183097362,0.0077529945410788,-0.0021265340037643
1769145764152,0.09832763671875,0.0106964111328125,-0.9959716796875,0.056223589926958,-0.0010620686225593,0.0036911412607878
1769145764162,0.100677490234375,0.0109710693359375,-0.9903717041015624,0.0521606728434562,-0.0112324142828583,0.0066086342558264
1769145764172,0.096923828125,0.00787353515625,-0.976104736328125,0.0292638782411813,-0.020379839465022,0.0041073933243751
1769145764182,0.09197998046875,0.0070037841796875,-0.9603424072265624,-0.0033904702868312,-0.0235450062900781,-0.0039444076828658
1769145764192,0.08660888671875,0.008575439453125,-0.9538421630859376,-0.0382403284311294,-0.0203284416347742,-0.0104489121586084
1769145764202,0.08489990234375,0.0099639892578125,-0.9551239013671876,-0.0540310107171535,-0.01535205822438,-0.0159547310322523
1769145764212,0.08984375,0.0125274658203125,-0.9705657958984376,-0.0544805526733398,-0.0140979755669832,-0.0185443889349699
1769145764222,0.0973968505859375,0.012603759765625,-0.9861907958984376,-0.0466521903872489,-0.0123070003464818,-0.0142055675387382
1769145764232,0.10791015625,0.0072021484375,-0.9936676025390624,-0.0484982952475547,-0.0052051483653485,-0.0042133871465921
1769145764243,0.1135101318359375,0.004425048828125,-0.99761962890625,-0.0441669300198555,-0.005241101142019,0.008600678294897
1769145764253,0.1089630126953125,0.0109100341796875,-1.0070343017578125,-0.0202773083001375,-0.0018580874893814,0.0088590057566761
1769145764263,0.090606689453125,0.0157623291015625,-1.0174102783203125,0.0027481159195303,0.0101413177326321,0.0026090987958014
1769145764273,0.0824127197265625,0.0140533447265625,-1.016143798828125,0.0177185423672199,0.0133685357868671,-0.0013158678775653
1769145764283,0.088470458984375,0.013336181640625,-1.0067596435546875,0.0191566497087478,0.0108158960938453,0.0028743497096002
1769145764293,0.0899200439453125,0.012603759765625,-0.9935150146484376,0.0121858259662985,0.0038008634001016,0.0021750037558376
1769145764303,0.0863037109375,0.012603759765625,-0.9824371337890624,0.0004564658156596,-0.0105908587574958,-0.0058094197884202
1769145764313,0.0798187255859375,0.0147247314453125,-0.9766998291015624,-0.0167888328433036,-0.0152196995913982,-0.0141017045825719
1769145764323,0.0790863037109375,0.01104736328125,-0.97344970703125,-0.0316950790584087,-0.0086315711960196,-0.0203984826803207
1769145764333,0.081939697265625,0.0107269287109375,-0.9759063720703124,-0.0389713682234287,0.0014183996245265,-0.0248395688831806
1769145764343,0.08929443359375,0.0088348388671875,-0.9828033447265624,-0.0403631366789341,0.0092100100591778,-0.0238480754196643
1769145764353,0.096282958984375,0.0127410888671875,-0.9904632568359376,-0.0338927209377288,0.0066432552412152,-0.0201393570750951
1769145764363,0.0995941162109375,0.0144195556640625,-1.0005035400390625,-0.0278007388114929,0.0031539816409349,-0.017321465536952
1769145764373,0.1004486083984375,0.0133209228515625,-1.0032806396484375,-0.0183454509824514,-0.0019883159548044,-0.0173124112188816
1769145764383,0.0997161865234375,0.0125274658203125,-1.0037689208984375,-0.0118824923411011,-0.0027614317368716,-0.0147722885012626
1769145764393,0.101806640625,0.009429931640625,-1.001495361328125,-0.006630471907556,-0.0011137339752167,-0.0099634183570742
1769145764403,0.1056365966796875,0.0074005126953125,-1.0001220703125,0.0079545956104993,-0.00033928672201,0.0063543021678924
1769145764413,0.1077423095703125,0.0126190185546875,-1.005523681640625,0.0168727226555347,0.0067460532300174,0.0155206359922885
1769145764423,0.0978546142578125,0.0162811279296875,-0.99371337890625,0.0160173159092664,0.0146109005436301,0.0137291280552744
1769145764434,0.084503173828125,0.0183258056640625,-0.9859771728515624,0.0069942600093781,0.013817012310028,0.0039928774349391
1769145764443,0.0807342529296875,0.018310546875,-0.979339599609375,-0.0100145507603883,0.0064432518556714,-0.0032341429032385
1769145764454,0.0821380615234375,0.0157928466796875,-0.97430419921875,-0.0329947024583816,0.0090369042009115,-0.0080004017800092
1769145764464,0.082275390625,0.0179290771484375,-0.9682769775390624,-0.0497433207929134,0.0080688456073403,-0.0107660945504903
1769145764474,0.08306884765625,0.021453857421875,-0.974151611328125,-0.054776694625616,0.0058160773478448,-0.0214016959071159
1769145764484,0.0855255126953125,0.0204620361328125,-0.9853057861328124,-0.0488455705344677,0.0021646174136549,-0.0273687727749347
1769145764494,0.0910797119140625,0.0212249755859375,-0.9936981201171876,-0.0408795215189456,0.001235706731677,-0.0261823348701
1769145764505,0.0977935791015625,0.017974853515625,-0.9967041015625,-0.0334980376064777,0.0008106662426143,-0.0193625129759311
1769145764514,0.102386474609375,0.0173187255859375,-1.000213623046875,-0.0234635137021541,-0.0050632017664611,-0.0153872119262814
1769145764524,0.1005706787109375,0.0171356201171875,-1.000274658203125,-0.0219383221119642,-0.0146766807883977,-0.0185364000499248
1769145764534,0.094512939453125,0.0158843994140625,-0.9936065673828124,-0.0223183557391166,-0.0172125417739152,-0.0184730160981416
1769145764544,0.09564208984375,0.01824951171875,-0.9994049072265624,-0.0190336126834154,-0.0181518401950597,-0.0166365001350641
1769145764554,0.0914459228515625,0.0168304443359375,-0.998779296875,-0.0140961119905114,-0.0095058875158429,-0.0141501734033226
1769145764564,0.08892822265625,0.0170440673828125,-0.9952239990234376,-0.0127301765605807,0.0025387913919985,-0.0129216574132442
1769145764574,0.088287353515625,0.0159149169921875,-0.9918060302734376,-0.018737468868494,0.0099290637299418,-0.0126087358221411
1769145764584,0.0931549072265625,0.0189361572265625,-0.9890594482421876,-0.0169558133929967,-0.0021718079224228,-0.0177526324987411
1769145764594,0.0890350341796875,0.026153564453125,-0.99725341796875,-0.0056629455648362,-0.0144785419106483,-0.0248350426554679
1769145764605,0.085357666015625,0.026702880859375,-1.001739501953125,-0.0012306467397138,-0.0046735815703868,-0.0246147979050874
1769145764614,0.0958099365234375,0.0214691162109375,-0.9953155517578124,0.0040029971860349,-0.0005597964627668,-0.0103149553760886
1769145764624,0.1014404296875,0.02197265625,-0.9933929443359376,0.0119408154860138,0.0001360875321552,-0.0076568545773625
1769145764634,0.09991455078125,0.01239013671875,-0.9876556396484376,-0.0084078656509518,-0.0016511598369106,-0.0078398138284683
1769145764645,0.1013031005859375,0.004302978515625,-0.970703125,-0.0318740420043468,-0.0082552665844559,-0.0077567230910062
1769145764654,0.1045989990234375,0.0067291259765625,-0.97015380859375,-0.039841953665018,-0.0130407009273767,-0.0023302659392356
1769145764665,0.09698486328125,0.0195159912109375,-0.9810638427734376,-0.0340032391250133,-0.0022788669448345,-0.0077628483995795
1769145764675,0.084930419921875,0.0276031494140625,-0.9908294677734376,-0.030027674511075,0.0107690244913101,-0.0071117053739726
1769145764685,0.0817108154296875,0.0359649658203125,-0.989959716796875,-0.0301405917853117,0.013749367557466,-0.0135898450389504
1769145764695,0.079681396484375,0.034393310546875,-0.9920806884765624,-0.0320143923163414,-0.0022168152499943,-0.0236683115363121
1769145764705,0.082489013671875,0.0334930419921875,-0.9951019287109376,-0.0377324633300304,-0.0094409063458442,-0.0276547968387603
1769145764715,0.0894927978515625,0.0257415771484375,-0.997039794921875,-0.0384182296693325,-0.0030724888201802,-0.0264467876404523
1769145764725,0.1006927490234375,0.01776123046875,-1.0018157958984375,-0.0313651114702224,-0.0031103058718144,-0.0199350919574499
1769145764735,0.10565185546875,0.0146026611328125,-1.008514404296875,-0.014027401804924,-0.004879976157099,-0.0141597613692283
1769145764745,0.105682373046875,0.014984130859375,-1.0107879638671875,0.0022506373934447,0.0036402747500687,-0.0102427834644913
1769145764755,0.1014404296875,0.0133819580078125,-1.0099945068359375,0.0157041288912296,0.0119314938783645,-0.0072754896245896
1769145764765,0.0952301025390625,0.0169219970703125,-1.0088043212890625,0.0260827336460351,0.0192426703870296,-0.0055383099243044
1769145764775,0.0919189453125,0.0182037353515625,-1.0005340576171875,0.024461667984724,0.0232520587742328,-0.0055811866186559
1769145764785,0.0885162353515625,0.0182037353515625,-0.985870361328125,0.0166354347020387,0.0231657736003398,-0.0038498656358569
1769145764795,0.0872955322265625,0.02288818359375,-0.979949951171875,0.0067870658822357,0.0175081528723239,-0.0088680600747466
1769145764805,0.087310791015625,0.025482177734375,-0.977081298828125,0.0022658174857497,0.0099868541583418,-0.008501342497766
1769145764815,0.09161376953125,0.024993896484375,-0.9798583984375,0.0006439523422159,0.001538508106023,-0.008839564397931
1769145764825,0.0968017578125,0.024749755859375,-0.9813690185546876,-0.0024764735717326,-0.0085218492895364,-0.0091716600582003
1769145764835,0.09783935546875,0.02166748046875,-0.9801483154296876,-0.012141884304583,-0.0122428173199296,-0.0088683264330029
1769145764846,0.09771728515625,0.0196533203125,-0.975494384765625,-0.0256355889141559,-0.0159589927643537,-0.005078381858766
1769145764855,0.0995635986328125,0.0184173583984375,-0.970855712890625,-0.041812427341938,-0.0177835244685411,-0.0051353736780583
1769145764865,0.096954345703125,0.0179595947265625,-0.974884033203125,-0.0521031469106674,-0.0146718872711062,-0.0048890309408307
1769145764876,0.093658447265625,0.020751953125,-0.983612060546875,-0.048831719905138,-0.0110723581165075,-0.0002777676854748
1769145764886,0.0953826904296875,0.0196685791015625,-0.9933319091796876,-0.0388123765587806,-0.0035129757598042,0.0097594195976853
1769145764896,0.102325439453125,0.0137176513671875,-1.000946044921875,-0.0344314761459827,0.002379800658673,0.0207606721669435
1769145764906,0.1094818115234375,0.01287841796875,-1.0075225830078125,-0.0136178079992532,-0.007260575890541,0.0309086479246616
1769145764916,0.1009674072265625,0.0206756591796875,-1.0167083740234375,0.0161022711545228,-0.0042789010331034,0.0286031495779752
1769145764926,0.085662841796875,0.0218963623046875,-1.0191497802734375,0.0330399759113788,-0.0006889597862027,0.0171113424003124
1769145764936,0.079803466796875,0.0227813720703125,-1.0033416748046875,0.0280422866344451,-0.014002101495862,0.0100398510694503
1769145764946,0.0768585205078125,0.0242462158203125,-0.986907958984375,0.0099269328638911,-0.0139930471777915,0.0026162895374
1769145764956,0.0745697021484375,0.0255584716796875,-0.973236083984375,-0.0052799829281866,-0.0054261907935142,-0.0010037453612312
1769145764966,0.0745849609375,0.0276031494140625,-0.973907470703125,-0.0193545222282409,-0.0064368601888418,-0.0070776166394352
1769145764976,0.0803070068359375,0.026885986328125,-0.9737396240234376,-0.0361542738974094,-0.0153131764382123,-0.0109666306525468
1769145764986,0.0875396728515625,0.02313232421875,-0.972686767578125,-0.0472167804837226,-0.0209897048771381,-0.0133104790002107
1769145764996,0.0946502685546875,0.0236968994140625,-0.984649658203125,-0.04148805513978,-0.0215915776789188,-0.0113623766228556
1769145765008,0.1039581298828125,0.0208587646484375,-0.997955322265625,-0.0300484467297792,-0.0173867139965295,-0.0025584988761693
1769145765016,0.1062164306640625,0.01934814453125,-1.003082275390625,-0.0239804331213235,-0.0071436632424592,0.0079189091920852
1769145765026,0.104888916015625,0.01922607421875,-1.001739501953125,-0.0160016026347875,0.0102608930319547,0.0148162301629781
1769145765036,0.099365234375,0.018585205078125,-1.0047454833984375,-0.0087586045265197,0.010122675448656,0.0165547411888837
1769145765046,0.0952606201171875,0.01751708984375,-1.0078277587890625,0.0004737763665616,0.0099833915010094,0.0149270175024867
1769145765057,0.092681884765625,0.0178680419921875,-1.005401611328125,0.0077050575055181,0.0131381722167134,0.0165100004523992
1769145765067,0.0894927978515625,0.0187835693359375,-1.00408935546875,0.0174642112106084,0.0147376665845513,0.0150947971269488
1769145765077,0.08807373046875,0.0190277099609375,-1.002777099609375,0.028023112565279,0.0047619980759918,0.019409917294979
1769145765087,0.0897064208984375,0.0231475830078125,-0.9980926513671876,0.0321052074432373,-0.0055771917104721,0.0214941073209047
1769145765097,0.0865325927734375,0.0247650146484375,-0.9890899658203124,0.0252632778137922,-0.0057015614584088,0.0197886191308498
1769145765107,0.0861053466796875,0.01934814453125,-0.979095458984375,0.0064315339550375,-0.0009837717516347,0.0196775645017623
1769145765117,0.08892822265625,0.020599365234375,-0.965911865234375,-0.0178096238523721,0.0012229235144332,0.0241303704679012
1769145765127,0.093170166015625,0.022674560546875,-0.96697998046875,-0.0311097167432308,0.0002013349730987,0.0215534958988428
1769145765137,0.0910797119140625,0.0277862548828125,-0.9805145263671876,-0.0319294370710849,0.0019952403381466,0.0167331732809543
1769145765147,0.08941650390625,0.028167724609375,-0.992889404296875,-0.0222632270306348,0.015303854830563,0.0168444942682981
