timestamp_ms,acc_x,acc_y,acc_z,gyro_x,gyro_y,gyro_z
1770451749720,-0.087554931640625,-0.269805908203125,-0.95172119140625,-0.0520658642053604,0.010986871086061,-0.0023915185593068
1770451749729,-0.0946502685546875,-0.2657470703125,-0.9569549560546876,-0.0412265323102474,0.0130606740713119,-0.0002751045394688
1770451749738,-0.09783935546875,-0.2693634033203125,-0.96435546875,-0.0302875973284244,0.0171406380832195,-0.0045204497873783
1770451749748,-0.1031646728515625,-0.267669677734375,-0.96429443359375,-0.0220536366105079,0.0043113916181027,-0.0099298628047108
1770451749758,-0.1036529541015625,-0.26348876953125,-0.964752197265625,-0.0183523762971162,-0.009868343360722,-0.0130779854953289
1770451749768,-0.1016082763671875,-0.2647552490234375,-0.967803955078125,-0.0164865646511316,-0.0122414864599704,-0.0149512523785233
1770451749779,-0.098052978515625,-0.269989013671875,-0.96160888671875,-0.0215124823153018,-0.0045934203080832,-0.0142756085842847
1770451749789,-0.08770751953125,-0.2750244140625,-0.95574951171875,-0.0265767499804496,0.0049220542423427,-0.0054807853884994
1770451749799,-0.0866851806640625,-0.270965576171875,-0.9546661376953124,-0.0262206848710775,0.017454357817769,-0.0088414279744029
1770451749809,-0.09735107421875,-0.2667388916015625,-0.960479736328125,-0.0158327594399452,0.0303632318973541,-0.0096334526315331
1770451749819,-0.09814453125,-0.2607269287109375,-0.9723052978515624,0.0042373556643724,0.0269935335963964,-0.0323976203799247
1770451749829,-0.1073760986328125,-0.2481231689453125,-0.9716949462890624,0.0230001248419284,0.0194855500012636,-0.0506836846470832
1770451749839,-0.1047210693359375,-0.272003173828125,-0.96893310546875,0.0184248127043247,-0.0204381626099348,-0.042389802634716
1770451749849,-0.0949859619140625,-0.2722320556640625,-0.95611572265625,0.0029808762483298,-0.0250014904886484,-0.0343060418963432
1770451749859,-0.090667724609375,-0.2774810791015625,-0.9471893310546876,-0.0051300469785928,-0.0039502666331827,-0.0239455457776784
1770451749869,-0.08636474609375,-0.270660400390625,-0.946990966796875,-0.0148860048502683,0.0205028783529996,-0.0176122821867465
1770451749879,-0.090118408203125,-0.2615509033203125,-0.943450927734375,-0.0158300958573818,0.0423501208424568,-0.024074176326394
1770451749889,-0.0978851318359375,-0.2554779052734375,-0.9517364501953124,-0.0103197488933801,0.0451104864478111,-0.0371369831264019
1770451749899,-0.0999908447265625,-0.252685546875,-0.958984375,-0.0079338233917951,0.0231577828526496,-0.0449994318187236
1770451749909,-0.102203369140625,-0.2516632080078125,-0.9598541259765624,-0.0091247884556651,-0.0048496164381504,-0.0457784086465835
1770451749919,-0.0996856689453125,-0.256866455078125,-0.9600982666015624,-0.0117075219750404,-0.0180373229086399,-0.0420702211558818
1770451749929,-0.096893310546875,-0.2627410888671875,-0.96197509765625,-0.0121855596080422,-0.0069668292999267,-0.0360528081655502
1770451749939,-0.090789794921875,-0.272125244140625,-0.9598541259765624,-0.0145416585728526,0.0234110504388809,-0.0263775456696748
1770451749950,-0.084716796875,-0.2744140625,-0.958343505859375,-0.0130984913557767,0.0445333793759346,-0.0192527901381254
1770451749959,-0.0812835693359375,-0.27569580078125,-0.9583740234375,-0.014991732314229,0.0339100286364555,-0.0131940990686416
1770451749969,-0.08056640625,-0.27191162109375,-0.9530181884765624,-0.0175403784960508,0.0284114014357328,-0.0087420921772718
1770451749980,-0.0846405029296875,-0.2690277099609375,-0.957061767578125,-0.0122047346085309,0.0250992272049188,-0.0081846928223967
1770451749989,-0.088104248046875,-0.267425537109375,-0.9586029052734376,-0.0040900828316807,0.0279264394193887,-0.0070017166435718
1770451749999,-0.0938873291015625,-0.2650146484375,-0.96099853515625,0.005633118096739,0.0085170557722449,-0.0083388900384306
1770451750010,-0.0999908447265625,-0.260162353515625,-0.9597320556640624,0.0072437981143593,-0.0045468150638043,-0.0094611458480358
1770451750020,-0.101654052734375,-0.2580718994140625,-0.9583740234375,0.0031547807157039,-0.0134231308475136,-0.0138843897730112
1770451750030,-0.0999603271484375,-0.2606353759765625,-0.9476776123046876,-0.0086329029873013,-0.0113378753885626,-0.0094851143658161
1770451750040,-0.089935302734375,-0.26055908203125,-0.944732666015625,-0.0079029304906725,0.005722067784518,-0.0058749332092702
1770451750050,-0.0868988037109375,-0.26556396484375,-0.9554595947265624,-0.0059175440110266,0.0083431508392095,-0.004784102551639
1770451750060,-0.0923919677734375,-0.2650909423828125,-0.9573211669921876,-0.0016074840677902,0.0142865274101495,-0.0012359730899333
1770451750070,-0.0894012451171875,-0.265777587890625,-0.9607086181640624,0.002984870923683,0.0192980635911226,-0.0001595233479747
1770451750080,-0.089447021484375,-0.2686309814453125,-0.9609375,0.0068674935027956,0.0223979838192462,6.364954606397077e-05
1770451750090,-0.0943145751953125,-0.267303466796875,-0.9691619873046876,0.0141792017966508,0.0132324481382966,0.000266049784841
1770451750100,-0.094512939453125,-0.265960693359375,-0.9688720703125,0.0143027724698185,0.00063942495035,0.0011829761788249
1770451750110,-0.0929107666015625,-0.2689666748046875,-0.960723876953125,0.0167789794504642,-0.0024711471050977,0.0070099723525345
1770451750120,-0.089599609375,-0.2708587646484375,-0.965057373046875,0.0224829390645027,-0.0132737271487712,0.0062323296442627
1770451750130,-0.0962066650390625,-0.268341064453125,-0.9620513916015624,0.0242376960813999,-0.0055497614666819,0.0061857243999838
1770451750140,-0.0919647216796875,-0.269073486328125,-0.958221435546875,0.0262406580150127,0.0074691013433039,0.0072792181745171
1770451750150,-0.0856170654296875,-0.269927978515625,-0.9510345458984376,0.0248259883373975,0.0068661617115139,0.0058498997241258
1770451750160,-0.0889129638671875,-0.2712554931640625,-0.947998046875,0.017316672950983,0.0093426350504159,0.0052645369432866
1770451750170,-0.090850830078125,-0.2652435302734375,-0.946533203125,0.0136473691090941,0.0115290908142924,0.0044836979359388
1770451750180,-0.093170166015625,-0.262725830078125,-0.9466400146484376,0.0083181168884038,0.0104270745068788,0.0054978295229375
1770451750190,-0.0941162109375,-0.26800537109375,-0.9472198486328124,-0.0048352354206144,0.0034685009159147,0.0147163616493344
1770451750200,-0.0872802734375,-0.2674713134765625,-0.9359283447265624,-0.0177773982286453,0.017446368932724,0.0241002757102251
1770451750211,-0.08282470703125,-0.2715301513671875,-0.9374542236328124,-0.0251498278230428,0.028276378288865,0.0307693649083375
1770451750221,-0.085723876953125,-0.2699127197265625,-0.9455108642578124,-0.0222011767327785,0.0397242419421672,0.0302077028900384
1770451750231,-0.0882568359375,-0.2717132568359375,-0.9606170654296876,-0.017290573567152,0.0280324332416057,0.0329110771417617
1770451750241,-0.08807373046875,-0.2726287841796875,-0.962371826171875,-0.0141999749466776,0.0197622533887624,0.0318436846137046
1770451750251,-0.0932159423828125,-0.2678070068359375,-0.9620361328125,-0.0103415874764323,0.0206927619874477,0.0244542099535465
1770451750261,-0.0991973876953125,-0.266143798828125,-0.9606781005859376,-0.0027987160719931,0.0283839702606201,0.0186791457235813
1770451750271,-0.1012725830078125,-0.2648468017578125,-0.962615966796875,0.0066496469080448,0.0334410481154918,0.0088757835328578
1770451750281,-0.1015472412109375,-0.26416015625,-0.9608001708984376,0.0143128931522369,0.0248997565358877,-0.0010500843636691
1770451750291,-0.1015625,-0.2639007568359375,-0.9631500244140624,0.0231702998280525,0.0092512890696525,-0.003180346917361
1770451750301,-0.09649658203125,-0.26806640625,-0.9686737060546876,0.0255498345941305,-0.0022335932590067,-0.009336776100099
1770451750311,-0.0974273681640625,-0.2679595947265625,-0.9580841064453124,0.0159094575792551,-0.0111503889784216,-0.0099594239145517
1770451750321,-0.092620849609375,-0.267059326171875,-0.9503326416015624,0.0150604424998164,0.0044978125952184,-0.0077111828140914
1770451750331,-0.089202880859375,-0.2720947265625,-0.9545745849609376,0.0156908128410577,0.0090685961768031,-0.0065606972202658
1770451750341,-0.088775634765625,-0.270355224609375,-0.9526824951171876,0.0177145488560199,0.0054986285977065,-0.0041971416212618
1770451750351,-0.0866546630859375,-0.2705535888671875,-0.9584503173828124,0.0155363492667675,-0.0026197514962404,-0.0029350698459893
1770451750361,-0.0871124267578125,-0.2724761962890625,-0.9583740234375,0.0216352548450231,0.0040400153957307,-0.0029214876703917
1770451750371,-0.0889434814453125,-0.274200439453125,-0.958770751953125,0.0250041522085666,0.0057918424718081,-0.0023768711835145
1770451750381,-0.09173583984375,-0.2721710205078125,-0.9588623046875,0.0296250041574239,0.0086784427985548,-0.0044863610528409
1770451750391,-0.0920257568359375,-0.271820068359375,-0.9589080810546876,0.0303413942456245,0.0167233198881149,-0.0074738953262567
1770451750401,-0.0953216552734375,-0.2719879150390625,-0.9534912109375,0.0263855345547199,0.0160615239292383,-0.0115930065512657
1770451750411,-0.09356689453125,-0.2686767578125,-0.945953369140625,0.0132026206701993,0.0095215998589992,-0.0130399018526077
1770451750421,-0.0915069580078125,-0.2677764892578125,-0.946258544921875,0.0094371773302555,0.0061353906057775,-0.0097495662048459
1770451750431,-0.0897064208984375,-0.268768310546875,-0.9505462646484376,0.0075314193964004,0.0045566684566438,-0.0128739867359399
1770451750441,-0.0924835205078125,-0.2675628662109375,-0.9528350830078124,0.0108491852879524,0.0036850159522145,-0.0149773517623543
1770451750452,-0.0926666259765625,-0.2712860107421875,-0.9582366943359376,0.0119067272171378,-0.006548979319632,-0.0135229993611574
1770451750462,-0.089752197265625,-0.27215576171875,-0.9562530517578124,0.0171939004212617,-0.0094342483207583,-0.018288193270564
1770451750472,-0.0900115966796875,-0.2738189697265625,-0.961181640625,0.0176229365170002,-0.0144809382036328,-0.0208722576498985
1770451750482,-0.09100341796875,-0.2747039794921875,-0.9540252685546876,0.0148535147309303,-0.0085101313889026,-0.0222296714782714
1770451750492,-0.0881805419921875,-0.273651123046875,-0.9512939453125,0.0177073571830987,0.0069553777575492,-0.0178506355732679
1770451750502,-0.084014892578125,-0.28033447265625,-0.953216552734375,0.017690846696496,0.0131160682067275,-0.0114009929820895
1770451750512,-0.0804290771484375,-0.2788238525390625,-0.9498443603515624,0.0152026545256376,0.0073252907022833,-0.0025246767327189
1770451750522,-0.0813751220703125,-0.2703399658203125,-0.946502685546875,0.0019038938917219,0.0005584649043157,-0.0010442254133522
1770451750532,-0.0889129638671875,-0.264862060546875,-0.9421844482421876,-0.0056554889306426,0.007546333130449,-0.0009203884401358
1770451750542,-0.08978271484375,-0.2660675048828125,-0.94158935546875,-0.0152998603880405,0.0201872941106557,0.000216514992644
1770451750552,-0.0868988037109375,-0.269378662109375,-0.9444580078125,-0.0306178294122219,0.0201689172536134,0.0037891454994678
1770451750562,-0.085723876953125,-0.2699737548828125,-0.9407501220703124,-0.0401032119989395,0.0276968758553266,0.0029859361238777
1770451750572,-0.0877227783203125,-0.2731475830078125,-0.94891357421875,-0.0379636287689209,0.0330066867172718,0.0087546091526746
1770451750582,-0.081787109375,-0.2756195068359375,-0.961151123046875,-0.0305898673832416,0.0170458294451236,0.0106630306690931
1770451750592,-0.088775634765625,-0.2796173095703125,-0.9666748046875,-0.0168524831533432,0.0109724896028637,0.0179012361913919
1770451750602,-0.084869384765625,-0.274505615234375,-0.9734039306640624,-0.0038413435686379,0.0118960738182067,0.010661432519555
1770451750612,-0.087615966796875,-0.2776641845703125,-0.9687347412109376,0.0093650063499808,0.007799067068845,0.0131610753014683
1770451750623,-0.088226318359375,-0.25421142578125,-0.9605560302734376,0.0160213112831115,0.012501411139965,-0.0114180371165275
1770451750632,-0.10101318359375,-0.252044677734375,-0.9569244384765624,0.028276378288865,0.0033268209081143,-0.0082856267690658
1770451750643,-0.0875396728515625,-0.28411865234375,-0.9649810791015624,0.0186258815228939,-0.0234366171061992,0.0082371570169925
1770451750653,-0.0765838623046875,-0.2841949462890625,-0.946197509765625,0.0057508298195898,-0.0064059677533805,0.0118145812302827
1770451750663,-0.0811004638671875,-0.280548095703125,-0.9420318603515624,-0.004585696849972,0.0202373601496219,0.0184826049953699
1770451750673,-0.0807037353515625,-0.277435302734375,-0.940948486328125,-0.0154205011203885,0.0368445664644241,0.02393489331007
1770451750683,-0.0802154541015625,-0.2731781005859375,-0.939605712890625,-0.0267503876239061,0.046014629304409,0.0217636190354824
1770451750693,-0.081268310546875,-0.2623291015625,-0.9454498291015624,-0.0315568596124649,0.0297815967351198,0.0085532739758491
1770451750703,-0.09326171875,-0.25628662109375,-0.95086669921875,-0.0346684977412223,0.0079114530235528,-0.0039848880842328
1770451750714,-0.0999603271484375,-0.2585906982421875,-0.95794677734375,-0.0396347604691982,-0.0102249402552843,-0.0069383336231112
1770451750723,-0.095458984375,-0.26373291015625,-0.956756591796875,-0.0353912785649299,-0.0172202661633491,-0.000794953550212
1770451750733,-0.0941925048828125,-0.2682952880859375,-0.9629669189453124,-0.0216365866363048,-0.0217849239706993,0.0034778220579028
1770451750743,-0.08978271484375,-0.275177001953125,-0.971343994140625,-0.0100875217467546,-0.018737468868494,0.0076203690841794
1770451750753,-0.08544921875,-0.2786865234375,-0.97039794921875,0.0013544837711378,-0.0058821239508688,0.0049473545514047
1770451750763,-0.0840911865234375,-0.2801666259765625,-0.9685821533203124,0.0149840097874403,0.011020160280168,0.0028067054226994
1770451750773,-0.0816497802734375,-0.2789459228515625,-0.9699859619140624,0.0271575842052698,0.011355984956026,0.001546763931401
1770451750783,-0.0868988037109375,-0.275360107421875,-0.965972900390625,0.0393202416598796,0.0088472869247198,-0.0009749832679517
1770451750793,-0.0918426513671875,-0.271514892578125,-0.9673309326171876,0.0443096756935119,-0.0103325322270393,-0.0006719155353493
1770451750803,-0.095001220703125,-0.2698211669921875,-0.95867919921875,0.0354029983282089,-0.0209774542599916,-0.0026589001063257
1770451750813,-0.09283447265625,-0.270416259765625,-0.9440155029296876,0.0246153306216001,-0.0030378678347915,-0.0036067189648747
1770451750823,-0.0914154052734375,-0.2705078125,-0.938629150390625,0.0060384515672922,0.0152937350794672,-0.0061668157577514
1770451750833,-0.0904693603515625,-0.2716827392578125,-0.9343414306640624,-0.0077343522571027,0.023872310295701,-0.0016357135027647
1770451750843,-0.086639404296875,-0.272247314453125,-0.9339599609375,-0.0383386015892028,0.0136191397905349,0.0013744573807343
1770451750854,-0.0856781005859375,-0.2712554931640625,-0.9250640869140624,-0.0636026784777641,0.0125703867524862,0.006851780693978
1770451750864,-0.081878662109375,-0.26788330078125,-0.9289093017578124,-0.0781427398324012,0.0247444938868284,0.0100374538451433
1770451750874,-0.0840606689453125,-0.2707061767578125,-0.938995361328125,-0.0854888036847114,0.0227484554052352,0.0133592151105403
1770451750884,-0.0853271484375,-0.2712249755859375,-0.9489288330078124,-0.0825843587517738,0.0296359229832887,0.0179739408195018
1770451750894,-0.0853118896484375,-0.2705078125,-0.96295166015625,-0.0650333315134048,0.0215907786041498,0.0184037741273641
1770451750904,-0.0875091552734375,-0.2692413330078125,-0.976837158203125,-0.0479534119367599,-0.0119948778301477,0.0153762931004166
1770451750914,-0.0902862548828125,-0.271820068359375,-0.9822845458984376,-0.02912512794137,-0.0297445803880691,0.0166972205042839
1770451750924,-0.0914154052734375,-0.274749755859375,-0.9840240478515624,-0.0106004467234015,-0.0370080843567848,0.0174322538077831
1770451750934,-0.092132568359375,-0.27130126953125,-0.985321044921875,0.0060706757940351,-0.0410699397325515,0.0113557185977697
1770451750944,-0.098876953125,-0.277587890625,-0.98016357421875,0.0232715010643005,-0.0301602985709905,0.006768689956516
1770451750954,-0.0952301025390625,-0.2726593017578125,-0.9769744873046876,0.0312849506735801,-0.0213758628815412,0.0011150655336678
1770451750964,-0.09295654296875,-0.272491455078125,-0.965606689453125,0.0307829454541206,-0.016300143674016,-0.0031364047899842
1770451750974,-0.0880279541015625,-0.27130126953125,-0.95770263671875,0.0358783714473247,-0.0043920851312577,-0.0051068775355815
1770451750984,-0.0877838134765625,-0.2713470458984375,-0.959808349609375,0.0299935843795537,-0.0060845240950584,-0.0037598507478833
1770451750994,-0.0902252197265625,-0.27008056640625,-0.9490203857421876,0.0229971949011087,-0.0091295829042792,0.0007267766632139
1770451751004,-0.0851287841796875,-0.269287109375,-0.94134521484375,0.0053247241303324,-0.0107613010331988,0.0132878422737121
1770451751014,-0.0802001953125,-0.2693939208984375,-0.933868408203125,-0.0074832164682447,0.0035854137968271,0.021041901782155
1770451751024,-0.083038330078125,-0.2719268798828125,-0.939361572265625,-0.0147776147350668,0.0104627609252929,0.0248369071632623
1770451751034,-0.0852508544921875,-0.273529052734375,-0.9446563720703124,-0.0244329050183296,0.0163374282419681,0.0273035261780023
1770451751044,-0.08642578125,-0.2738189697265625,-0.950469970703125,-0.0319600626826286,0.0183771438896656,0.0269285533577203
1770451751054,-0.0903778076171875,-0.2728729248046875,-0.951812744140625,-0.0341569036245346,0.0144042391330003,0.0234805587679147
1770451751064,-0.0962066650390625,-0.2661285400390625,-0.9564056396484376,-0.0290580168366432,0.0078486017882823,0.0183049719780683
1770451751075,-0.09625244140625,-0.267852783203125,-0.965545654296875,-0.0183409247547388,0.0032069785520434,0.0162165202200412
1770451751085,-0.0951385498046875,-0.2718048095703125,-0.96697998046875,-0.0106891291216015,-0.0048176585696637,0.015634087845683
1770451751095,-0.09210205078125,-0.2688140869140625,-0.9630584716796876,-0.002396312309429,-0.0126556074246764,0.0129935629665851
1770451751105,-0.091339111328125,-0.2694244384765625,-0.965545654296875,0.0037582528311759,-0.0200240425765514,0.0115764951333403
1770451751115,-0.09197998046875,-0.2710113525390625,-0.9623565673828124,0.0081213098019361,-0.0140503048896789,0.0084033384919166
1770451751125,-0.0921783447265625,-0.269927978515625,-0.9578094482421876,0.0039417445659637,-0.011895009316504,0.0110774189233779
1770451751135,-0.090118408203125,-0.265625,-0.949615478515625,0.0003949467791244,-0.0057388455606997,0.010350908152759
1770451751145,-0.0914306640625,-0.267852783203125,-0.94921875,-0.0069681610912084,-0.0042796996422111,0.0141653539612889
1770451751155,-0.089874267578125,-0.2669830322265625,-0.9477996826171876,-0.0088643319904804,-0.0064211478456854,0.0184679571539163
1770451751165,-0.089141845703125,-0.2678680419921875,-0.9546356201171876,-0.0105599658563733,-0.0099780652672052,0.0140393860638141
1770451751175,-0.0946807861328125,-0.26812744140625,-0.955047607421875,-0.011535482481122,-0.012098740786314,0.0118500012904405
1770451751185,-0.093963623046875,-0.2698822021484375,-0.95843505859375,-0.0004199804970994,-0.0024509071372449,0.01811801828444
1770451751195,-0.0844573974609375,-0.2749481201171875,-0.9651336669921876,0.0032141690608114,-0.0064416541717946,0.0171488933265209
1770451751205,-0.0909576416015625,-0.274871826171875,-0.9597930908203124,0.0096710035577416,-0.0090691288933157,0.0149520514532923
1770451751215,-0.0978240966796875,-0.2693328857421875,-0.965545654296875,0.0162434186786413,-0.0175939071923494,0.0090129356831312
1770451751225,-0.0972900390625,-0.266754150390625,-0.9632415771484376,0.0226443260908126,-0.0138047616928815,0.004546548705548
1770451751235,-0.0970001220703125,-0.2618255615234375,-0.9564208984375,0.0283600017428398,-0.0059649483300745,-0.001945971744135
1770451751245,-0.0961456298828125,-0.26153564453125,-0.95550537109375,0.0311075858771801,-0.0099831251427531,-0.0083990776911377
1770451751255,-0.0949249267578125,-0.2637939453125,-0.9518890380859376,0.0254603531211614,-0.0198490712791681,-0.0098326569423079
1770451751265,-0.0941009521484375,-0.2622222900390625,-0.9465789794921876,0.0151464622467756,-0.0194783601909875,-0.0051782503724098
1770451751275,-0.090362548828125,-0.26434326171875,-0.9425811767578124,0.002944657113403,-0.0097240004688501,-0.0015994944842532
1770451751286,-0.084869384765625,-0.2723236083984375,-0.942352294921875,-0.0111482581123709,-0.0018045579781755,0.0015009575290605
1770451751296,-0.0871429443359375,-0.2754669189453125,-0.9379730224609376,-0.0322303734719753,0.0063934507779777,0.0089575424790382
1770451751306,-0.0895538330078125,-0.2711334228515625,-0.937469482421875,-0.0437040701508522,0.0128329740837216,0.0117093864828348
1770451751316,-0.0918731689453125,-0.271759033203125,-0.9456787109375,-0.0451781302690506,0.0217974409461021,0.0121147194877266
1770451751326,-0.0919647216796875,-0.2707672119140625,-0.9550018310546876,-0.048263669013977,0.0108494516462087,0.0145645616576075
1770451751336,-0.091094970703125,-0.2691497802734375,-0.956787109375,-0.0427133738994598,0.0070768180303275,0.0160016026347875
1770451751346,-0.089752197265625,-0.267730712890625,-0.9622039794921876,-0.0344746187329292,-0.0073700319044291,0.0200922191143035
1770451751356,-0.090179443359375,-0.2632904052734375,-0.9646453857421876,-0.0147014483809471,-0.0094837825745344,0.0136732012033462
1770451751366,-0.0980682373046875,-0.2643585205078125,-0.976318359375,0.0066288742236793,-0.0097479680553078,0.0091831116005778
1770451751376,-0.0982513427734375,-0.268402099609375,-0.9756317138671876,0.0231764260679483,-0.0072089107707142,0.0064986455254256
1770451751386,-0.0912017822265625,-0.269012451171875,-0.9710540771484376,0.0296756029129028,-0.0134348487481474,0.0040184436365962
1770451751396,-0.09429931640625,-0.267791748046875,-0.9604949951171876,0.0273717027157545,-0.0198741052299737,0.0030133668333292
1770451751406,-0.096954345703125,-0.268646240234375,-0.956207275390625,0.0221851971000432,-0.0133144734427332,0.0079055940732359
1770451751416,-0.0924530029296875,-0.273284912109375,-0.9538116455078124,0.0150420665740966,-0.013612481765449,0.0169622059911489
1770451751426,-0.0893707275390625,-0.2793731689453125,-0.947357177734375,-0.0009382316493429,-0.019565712660551,0.0258883219212293
1770451751436,-0.091522216796875,-0.2742767333984375,-0.94635009765625,-0.0100606232881546,0.0038959383964538,0.0234094522893428
1770451751446,-0.0943603515625,-0.27447509765625,-0.9540863037109376,-0.0060925134457647,0.013610883615911,0.0236094556748867
1770451751456,-0.0964508056640625,-0.262359619140625,-0.9610595703125,-0.0002655171556398,0.000941960082855,0.0018442390719428
1770451751466,-0.1100616455078125,-0.2560272216796875,-0.9561767578125,0.0019161443924531,-0.0114116454496979,-0.0090177301317453
1770451751476,-0.1053009033203125,-0.267547607421875,-0.960784912109375,-0.0060142166912555,-0.0398432873189449,-0.0030517163686454
1770451751487,-0.0945281982421875,-0.2773284912109375,-0.950836181640625,-0.0115567874163389,-0.0412454418838024,0.0020759340841323
1770451751497,-0.0946197509765625,-0.2746429443359375,-0.949981689453125,-0.0207899659872055,-0.0179310627281665,0.0100797982886433
1770451751506,-0.0901641845703125,-0.2793426513671875,-0.947235107421875,-0.0136484345421195,0.0235561914741992,0.0213833190500736
1770451751517,-0.0846099853515625,-0.278961181640625,-0.953460693359375,-0.010105631314218,0.0327227935194969,0.0197931453585624
1770451751527,-0.0887451171875,-0.2665863037109375,-0.9536895751953124,-0.00413029640913,0.0283842366188764,0.0099250683560967
1770451751537,-0.094451904296875,-0.2582550048828125,-0.961395263671875,-0.0019257317762821,0.0153477974236011,0.004439755808562
1770451751547,-0.096160888671875,-0.258270263671875,-0.9589691162109376,-0.003664243267849,0.0042096585966646,-0.0010407633380964
1770451751557,-0.099273681640625,-0.2613677978515625,-0.956085205078125,-0.0069146314635872,0.0042117894627153,0.0021275994367897
1770451751567,-0.1010894775390625,-0.26849365234375,-0.955230712890625,-0.0073559172451496,0.0197002012282609,0.0082600601017475
1770451751577,-0.0987091064453125,-0.2711181640625,-0.958984375,-0.0013385047204792,0.0298282038420438,0.0106467856094241
1770451751587,-0.1022491455078125,-0.2747955322265625,-0.9652099609375,-0.0009531453251838,0.0258675497025251,0.0046514770947396
1770451751597,-0.1016082763671875,-0.2732696533203125,-0.9676513671875,0.0038562573026865,0.0216144807636737,-0.0005366269615478
1770451751607,-0.100006103515625,-0.2691802978515625,-0.965087890625,0.005919674411416,-0.0006551376427523,-0.0050094057805836
1770451751617,-0.0984039306640625,-0.2655181884765625,-0.965423583984375,0.0121741080656647,-0.0168314445763826,-0.0074552530422806
1770451751627,-0.100311279296875,-0.2675933837890625,-0.9648284912109376,0.0074914721772074,-0.0256595574319362,-0.0066592344082891
1770451751637,-0.09759521484375,-0.264404296875,-0.9508209228515624,0.0153414057567715,-0.00412257341668,0.0067764134146273
1770451751647,-0.086395263671875,-0.2677459716796875,-0.954132080078125,0.020248545333743,4.261057711119065e-06,0.0132833151146769
1770451751657,-0.08837890625,-0.2671051025390625,-0.95208740234375,0.0195420105010271,-0.00716124009341,0.0123006086796522
1770451751667,-0.092620849609375,-0.2642364501953125,-0.95111083984375,0.0121903531253337,-0.0095855155959725,0.0119272330775856
1770451751677,-0.092254638671875,-0.26678466796875,-0.9473876953125,0.0032527849543839,-0.0075167720206081,0.0166559424251317
1770451751687,-0.086944580078125,-0.269012451171875,-0.947723388671875,-0.0008141283178701,-0.0043617254123091,0.018238391727209
1770451751697,-0.0938720703125,-0.2743072509765625,-0.9538726806640624,0.0011808456620201,0.0038578552193939,0.0176586229354143
1770451751707,-0.097259521484375,-0.2722015380859375,-0.9574432373046876,0.0017856494523584,0.0032362733036279,0.0136556243523955
1770451751718,-0.0987396240234375,-0.2720794677734375,-0.958160400390625,0.0039966059848666,-0.0041537322103977,0.0197654496878385
1770451751728,-0.0963134765625,-0.27301025390625,-0.9644622802734376,0.0017624800093472,-0.0203151255846023,0.0213601496070623
1770451751738,-0.0970458984375,-0.2718048095703125,-0.9581451416015624,-0.00276436121203,-0.0155920088291168,0.0190943330526351
1770451751749,-0.0970611572265625,-0.2721405029296875,-0.955718994140625,0.0027462516445666,0.0018679412314668,0.0174588859081268
1770451751758,-0.0992279052734375,-0.2755279541015625,-0.962646484375,0.0132992938160896,-0.0051212585531175,0.0142694832757115
1770451751768,-0.1021270751953125,-0.271209716796875,-0.9660186767578124,0.0146585712209343,-0.0197697095572948,0.0090656662359833
1770451751778,-0.1049041748046875,-0.2646331787109375,-0.96527099609375,0.0258012376725673,-0.0243349000811576,0.0052789179608225
1770451751788,-0.103912353515625,-0.27020263671875,-0.9642486572265624,0.0317922830581665,-0.0249966960400342,0.0068387314677238
1770451751798,-0.0980377197265625,-0.27398681640625,-0.95880126953125,0.0304391328245401,-0.0210283193737268,0.012507801875472
1770451751808,-0.09130859375,-0.27386474609375,-0.951934814453125,0.0323129333555698,-0.0093444995582103,0.0153387421742081
1770451751818,-0.0906524658203125,-0.279998779296875,-0.953521728515625,0.0222341995686292,-0.0065614962950348,0.0179212093353271
1770451751828,-0.0945587158203125,-0.275482177734375,-0.945831298828125,0.0124340327456593,0.0106931244954466,0.0175539590418338
1770451751838,-0.0950164794921875,-0.273590087890625,-0.945404052734375,0.0026378610637038,0.0165640637278556,0.0187670290470123
1770451751848,-0.0989990234375,-0.2741546630859375,-0.9427337646484376,-0.0155752310529351,0.0159273017197847,0.0225362014025449
1770451751858,-0.0996246337890625,-0.271270751953125,-0.9348297119140624,-0.0337646231055259,0.014618357643485,0.0245274472981691
1770451751868,-0.1022186279296875,-0.2706756591796875,-0.9383544921875,-0.0418632924556732,0.0167909637093544,0.023871511220932
1770451751878,-0.1007537841796875,-0.272918701171875,-0.9503173828125,-0.0430236347019672,0.0174069534987211,0.0255240015685558
1770451751888,-0.0977325439453125,-0.27215576171875,-0.955474853515625,-0.0430145785212516,0.014151238836348,0.0196898151189088
1770451751898,-0.1028594970703125,-0.2719573974609375,-0.958526611328125,-0.0359657257795333,0.0127594713121652,0.0165821723639965
1770451751908,-0.1008148193359375,-0.2735137939453125,-0.9639739990234376,-0.0245399642735719,0.0097871171310544,0.0153094474226236
1770451751918,-0.0992584228515625,-0.2748870849609375,-0.9674224853515624,-0.011259046383202,0.0101921837776899,0.0137930437922477
1770451751928,-0.1001129150390625,-0.2778472900390625,-0.97137451171875,0.0003973436250817,0.0054011568427085,0.0101106911897659
1770451751939,-0.1022796630859375,-0.27886962890625,-0.968902587890625,0.0133949015289545,0.0057819890789687,0.0092720612883567
1770451751949,-0.1020965576171875,-0.2776641845703125,-0.96697998046875,0.0228179637342691,0.004376106429845,0.0080922814086079
1770451751959,-0.0989532470703125,-0.2794189453125,-0.9611663818359376,0.028993833810091,0.0020418455824255,0.0091998903080821
1770451751969,-0.1021881103515625,-0.2714385986328125,-0.96087646484375,0.0339478477835655,-0.0097178751602768,-0.0015845808666199
1770451751979,-0.1088104248046875,-0.270660400390625,-0.958709716796875,0.0346607752144336,-0.0223617646843194,-0.0052514872513711
1770451751989,-0.1057891845703125,-0.267578125,-0.953399658203125,0.0280513409525156,-0.0263493154197931,-0.0108044445514678
1770451751999,-0.10601806640625,-0.2655792236328125,-0.94537353515625,0.0154724335297942,-0.0149403335526585,-0.0152505915611982
1770451752009,-0.104400634765625,-0.2680816650390625,-0.9407501220703124,0.0044128578156232,0.0069521819241344,-0.0153768258169293
1770451752019,-0.0995635986328125,-0.272674560546875,-0.9414520263671876,0.0038434739690274,0.0205721203237772,-0.0149483233690261
1770451752029,-0.095306396484375,-0.2740631103515625,-0.949127197265625,-0.000524376402609,0.0073726950213313,-0.0113730290904641
1770451752039,-0.093841552734375,-0.2785491943359375,-0.9513092041015624,-0.0078930770978331,-0.0039920783601701,-0.0081820301711559
1770451752049,-0.0971527099609375,-0.2759552001953125,-0.9499664306640624,-0.0177214723080396,-0.0058613512665033,-0.0052922335453331
1770451752059,-0.095306396484375,-0.2714996337890625,-0.9423370361328124,-0.0240845642983913,0.0071010529063642,-0.0006141249323263
1770451752069,-0.0976715087890625,-0.274688720703125,-0.950469970703125,-0.0188029818236827,0.0195097848773002,0.0015275891637429
1770451752079,-0.0969085693359375,-0.274566650390625,-0.9586181640625,-0.0153035884723067,0.0153656406328082,0.0024993766564875
1770451752089,-0.0982208251953125,-0.273101806640625,-0.9564056396484376,-0.0199284348636865,0.0031872710678726,0.0024229439441114
1770451752099,-0.0993499755859375,-0.2700042724609375,-0.95361328125,-0.0123275062069296,0.0011704593198373,-0.0016186692519113
1770451752109,-0.101837158203125,-0.2665863037109375,-0.9635467529296876,-0.0065156896598637,-0.0086789755150675,-0.0062488410621881
1770451752119,-0.1032562255859375,-0.26715087890625,-0.962066650390625,0.0004689826746471,-0.0115970009937882,-0.0060858558863401
1770451752129,-0.099700927734375,-0.269287109375,-0.9655303955078124,0.0125906262546777,-0.0125903598964214,-0.004612062126398
1770451752139,-0.0944671630859375,-0.273193359375,-0.96478271484375,0.0177374519407749,-0.0102150868624448,-0.007603058591485
1770451752150,-0.098236083984375,-0.272369384765625,-0.9595489501953124,0.0188637021929025,-0.007588677573949,-0.0121096596121788
1770451752159,-0.1002197265625,-0.27471923828125,-0.9583740234375,0.0199524033814668,-0.0047891624271869,-0.0136614833027124
1770451752170,-0.100189208984375,-0.277130126953125,-0.955291748046875,0.0159779004752635,5.060006060375599e-06,-0.0115993982180953
1770451752180,-0.0980987548828125,-0.27459716796875,-0.95123291015625,0.0072485916316509,-0.0046834349632263,-0.0056038233451545
1770451752190,-0.0927886962890625,-0.2747039794921875,-0.94720458984375,0.0030101709999144,0.0040645166300237,-0.0015070828376337
1770451752200,-0.093048095703125,-0.274322509765625,-0.9498443603515624,-0.0011632688110694,0.0089130671694874,-0.0016386429779231
1770451752210,-0.0979156494140625,-0.27032470703125,-0.9467010498046876,-0.0094723310321569,0.0026589001063257,0.002053297124803
1770451752220,-0.0975494384765625,-0.2652740478515625,-0.9427337646484376,-0.015824768692255,-0.0059771984815597,0.0061090253293514
1770451752230,-0.0954742431640625,-0.267547607421875,-0.9486541748046876,-0.0184788759797811,-0.0021441110875457,0.0077298250980675
1770451752240,-0.0926361083984375,-0.2693634033203125,-0.9498443603515624,-0.0214781276881694,0.002813629573211,0.0092185316607356
1770451752250,-0.091766357421875,-0.2740020751953125,-0.945648193359375,-0.0293842535465955,0.0102845951914787,0.0113077815622091
1770451752260,-0.0951995849609375,-0.2724151611328125,-0.94390869140625,-0.0384435281157493,0.0182306692004203,0.0152865443378686
1770451752270,-0.0959625244140625,-0.2679901123046875,-0.9462127685546876,-0.0382922627031803,0.0244110673666,0.0156292933970689
1770451752280,-0.0985565185546875,-0.272430419921875,-0.9581451416015624,-0.0293371155858039,0.0190522540360689,0.0174993649125099
1770451752290,-0.0986328125,-0.2771453857421875,-0.96337890625,-0.0156766977161169,0.0088701909407973,0.0165246482938528
1770451752300,-0.100311279296875,-0.2794189453125,-0.9687957763671876,-0.00646588858217,-0.0089916307479143,0.0204639956355094
1770451752310,-0.1011810302734375,-0.2776947021484375,-0.9703216552734376,0.0060815946198999,-0.020741231739521,0.0123586654663085
1770451752320,-0.1060791015625,-0.2765045166015625,-0.97235107421875,0.0179244056344032,-0.011248392984271,0.0050389668904244
1770451752330,-0.1054534912109375,-0.2626495361328125,-0.9678192138671876,0.033930268138647,0.0017691379180178,-0.0151999918743968
1770451752340,-0.1088104248046875,-0.25933837890625,-0.962799072265625,0.0335177481174469,-0.0140154175460338,-0.0214557573199272
1770451752350,-0.107696533203125,-0.2671661376953125,-0.9601898193359376,0.0330562219023704,-0.0240779053419828,-0.0222547054290771
1770451752360,-0.1027984619140625,-0.2794952392578125,-0.9570770263671876,0.0295323263853788,-0.0253474339842796,-0.0165840368717908
1770451752371,-0.0967254638671875,-0.2823333740234375,-0.9535980224609376,0.0246635340154171,-0.021599568426609,-0.0030855385120958
1770451752381,-0.0942535400390625,-0.28265380859375,-0.9489288330078124,0.0214802585542202,-0.002012550830841,0.005003813188523
1770451752391,-0.0903167724609375,-0.2783660888671875,-0.949920654296875,0.0241655241698026,0.0155725684016942,0.0060328589752316
1770451752401,-0.089599609375,-0.272064208984375,-0.95086669921875,0.0208237897604703,0.0186205562204122,-0.0049327067099511
1770451752411,-0.09814453125,-0.2676544189453125,-0.94854736328125,0.0112124411389231,0.0135826542973518,-0.0140929156914353
1770451752421,-0.0991058349609375,-0.2675628662109375,-0.94677734375,0.0036613137926906,-0.0009446232579648,-0.0135397771373391
1770451752431,-0.09808349609375,-0.2692413330078125,-0.9461517333984376,0.0012668657582253,-0.0032578448299318,-0.0118958074599504
1770451752441,-0.1010589599609375,-0.271728515625,-0.949859619140625,-0.0035835495218634,0.0077916104346513,-0.0040946099907159
1770451752451,-0.095916748046875,-0.2766571044921875,-0.9523468017578124,-0.0124340327456593,0.0054648066870868,0.0108217550441622
1770451752461,-0.091827392578125,-0.2792816162109375,-0.95068359375,-0.0174575541168451,0.0135525604709982,0.0146532449871301
1770451752471,-0.0954437255859375,-0.27783203125,-0.9550018310546876,-0.0151227600872516,0.0173710007220506,0.0141626903787255
1770451752482,-0.0959320068359375,-0.2769775390625,-0.9585723876953124,-0.0124755781143903,0.0133544215932488,0.0124995466321706
1770451752491,-0.0967559814453125,-0.2762603759765625,-0.9577789306640624,-0.0068328725174069,0.0081261033192276,0.0098531637340784
1770451752501,-0.102203369140625,-0.2763214111328125,-0.96173095703125,0.0009430253412574,0.0067806742154061,0.0029004486277699
1770451752511,-0.106689453125,-0.2761077880859375,-0.960357666015625,0.0095314532518386,0.0181608945131301,-0.0008777778712101
1770451752521,-0.1095123291015625,-0.272216796875,-0.96319580078125,0.0211686678230762,0.0136031601577997,-0.0111040500923991
1770451752531,-0.1143646240234375,-0.2718353271484375,-0.9625701904296876,0.0207375027239322,-0.0079892165958881,-0.020640030503273
1770451752541,-0.1131439208984375,-0.2714691162109375,-0.956146240234375,0.0259564984589815,-0.0140463104471564,-0.0216091554611921
1770451752551,-0.1052398681640625,-0.272735595703125,-0.958984375,0.0272396095097064,-0.0234414096921682,-0.0240507405251264
1770451752561,-0.1012420654296875,-0.274322509765625,-0.9523162841796876,0.0195329543203115,-0.0299501754343509,-0.0247807130217552
1770451752571,-0.0979766845703125,-0.276336669921875,-0.9434661865234376,0.0148889347910881,-0.0157019980251789,-0.0152204977348446
1770451752582,-0.0885467529296875,-0.282379150390625,-0.9453582763671876,0.0147435255348682,0.0031987228430807,-0.0049114017747342
1770451752591,-0.088653564453125,-0.2834320068359375,-0.9502716064453124,0.0091652683913707,0.0075346152298152,-0.0064898570999503
1770451752602,-0.0973052978515625,-0.278106689453125,-0.9469146728515624,-0.0020751350093632,0.0145717523992061,-0.0010570086305961
1770451752612,-0.094573974609375,-0.275482177734375,-0.9432525634765624,-0.008423046208918,0.0104710170999169,0.0037771612405776
1770451752622,-0.0986480712890625,-0.273529052734375,-0.9480743408203124,-0.0190290845930576,0.0006527407676912,0.0023012375459074
1770451752632,-0.103546142578125,-0.2726898193359375,-0.94903564453125,-0.0206823758780956,0.0003965446958318,0.001185639295727
1770451752642,-0.1016998291015625,-0.2757720947265625,-0.9563140869140624,-0.0250970982015132,0.0047753141261637,-0.0005869606975466
1770451752652,-0.097503662109375,-0.274627685546875,-0.9523162841796876,-0.0220238100737333,0.0100100236013531,0.003638677066192
1770451752662,-0.095550537109375,-0.2799072265625,-0.955535888671875,-0.0269314832985401,-0.0006008091149851,0.0095980325713753
1770451752672,-0.0923919677734375,-0.2795257568359375,-0.9498291015625,-0.034041590988636,-0.0045611960813403,0.0150971934199333
1770451752682,-0.092803955078125,-0.27386474609375,-0.947509765625,-0.035280492156744,-0.0048773130401968,0.0156354177743196
1770451752692,-0.0955352783203125,-0.2758026123046875,-0.9512176513671876,-0.0357002057135105,-0.0010420948965474,0.0161286368966102
1770451752702,-0.1004638671875,-0.2740631103515625,-0.95501708984375,-0.0274262987077236,0.0030780816450715,0.0096659427508711
1770451752712,-0.1027374267578125,-0.271331787109375,-0.9588165283203124,-0.0226073078811168,-0.0006258428329601,0.0056704026646912
1770451752722,-0.102935791015625,-0.2730560302734375,-0.95941162109375,-0.0173749960958957,-0.0029774140566587,0.0042421491816639
1770451752732,-0.104766845703125,-0.2730255126953125,-0.96136474609375,-0.0050735883414745,0.0046863644383847,-0.0046887611970305
1770451752742,-0.1053009033203125,-0.2794189453125,-0.9663238525390624,-0.0006783071439713,-0.0037233654875308,-0.0039049931801855
1770451752752,-0.1049346923828125,-0.278778076171875,-0.96258544921875,0.0050996872596442,-0.000341150938766,-0.0117575898766517
1770451752763,-0.1069793701171875,-0.2777099609375,-0.9642333984375,0.0122084626927971,-0.0055569517426192,-0.0149184959009289
1770451752772,-0.1026458740234375,-0.2790374755859375,-0.95947265625,0.011902998201549,-0.0101503720507025,-0.0140005042776465
1770451752783,-0.1004180908203125,-0.27972412109375,-0.958709716796875,0.0107208210974931,-0.0132825160399079,-0.0104936538264155
1770451752792,-0.0992584228515625,-0.2782135009765625,-0.95477294921875,0.0101109575480222,-0.0124143250286579,-0.0085905585438013
1770451752803,-0.097991943359375,-0.2783050537109375,-0.955963134765625,0.0074959993362426,-0.010882475413382,-0.0050948932766914
1770451752813,-0.0984344482421875,-0.2785186767578125,-0.951812744140625,0.0106502473354339,-0.0008343683439306,-0.0026208166964352
1770451752823,-0.1009979248046875,-0.2776947021484375,-0.952789306640625,0.0078235678374767,0.0058443071320652,-0.0033079122658818
1770451752833,-0.0997314453125,-0.27685546875,-0.9475555419921876,-0.0062174159102141,-0.0052458946593105,-0.0022461100015789
1770451752843,-0.100433349609375,-0.273284912109375,-0.9400177001953124,-0.009860087186098,0.004128432366997,-0.000406664708862
1770451752853,-0.097442626953125,-0.274688720703125,-0.9477081298828124,-0.0128148645162582,-0.0003480751474853,-0.0011504855938255
1770451752863,-0.100250244140625,-0.27386474609375,-0.9457550048828124,-0.0165925584733486,-0.0016053534345701,-0.0026482474058866
1770451752873,-0.102813720703125,-0.272735595703125,-0.950469970703125,-0.0186628997325897,-0.001055943313986,-0.0060413810424506
1770451752883,-0.1035003662109375,-0.2734527587890625,-0.95166015625,-0.019757991656661,-0.0006130596739239,-0.0062344600446522
1770451752893,-0.1024322509765625,-0.274169921875,-0.9503631591796876,-0.0225897319614887,0.0015531554818153,-0.0050924965180456
1770451752903,-0.101409912109375,-0.2764892578125,-0.95318603515625,-0.0237617883831262,0.0062150191515684,-0.0037627802230417
1770451752913,-0.1004486083984375,-0.277252197265625,-0.9516448974609376,-0.0277911517769098,0.0007422229973599,-0.003492469433695
1770451752923,-0.1031036376953125,-0.2762298583984375,-0.952423095703125,-0.0318828299641609,-0.0010271812789142,-0.0048261806368827
1770451752933,-0.1046142578125,-0.2757568359375,-0.951904296875,-0.0243141278624534,0.0133972978219389,-0.0043532028794288
1770451752943,-0.1019439697265625,-0.2729034423828125,-0.962188720703125,-0.0160514041781425,0.0050000851042568,-0.011658520437777
1770451752953,-0.11016845703125,-0.27313232421875,-0.9640655517578124,-0.0136798592284321,-0.0052150022238492,-0.014608503319323
1770451752963,-0.105926513671875,-0.27630615234375,-0.960540771484375,-0.0181739442050457,-0.0043153860606253,-0.0099791307002305
1770451752973,-0.094512939453125,-0.279998779296875,-0.95013427734375,-0.0193444024771451,0.0152849461883306,-0.0081958780065178
1770451752983,-0.0921630859375,-0.277740478515625,-0.949462890625,-0.0176535621285438,0.0155131798237562,-0.0055558867752552
1770451752993,-0.1003570556640625,-0.265594482421875,-0.95635986328125,-0.0175481010228395,-0.0103394566103816,-0.00365572120063
1770451753003,-0.106231689453125,-0.2682037353515625,-0.959747314453125,-0.014567757025361,-0.0228938646614551,-0.0071239559911191
1770451753014,-0.1025848388671875,-0.27520751953125,-0.958099365234375,-0.0118273645639419,-0.0048738508485257,-0.006524212192744
1770451753024,-0.097991943359375,-0.2765045166015625,-0.9550323486328124,-0.0096651446074247,0.0130803817883133,-0.0052637378685176
1770451753034,-0.0986785888671875,-0.275146484375,-0.9544525146484376,-0.0096305226907134,0.0223132949322462,-0.0053457631729543
1770451753044,-0.10113525390625,-0.2712860107421875,-0.9556121826171876,-0.0132468296214938,0.0044477451592683,-0.0059771984815597
1770451753054,-0.1024322509765625,-0.26739501953125,-0.9532012939453124,-0.0161792356520891,-0.0036975329276174,-0.0066035743802785
1770451753064,-0.10198974609375,-0.267547607421875,-0.953582763671875,-0.0106555735692381,-0.0060522998683154,-0.0068741515278816
1770451753074,-0.1011962890625,-0.269561767578125,-0.9636688232421876,-0.0006966829532757,-0.0005621932796202,-0.0092574143782258
1770451753084,-0.09844970703125,-0.2745208740234375,-0.966827392578125,0.009613212198019,0.0038578552193939,-0.0076517942361533
1770451753094,-0.096282958984375,-0.275115966796875,-0.9591522216796876,0.0075125112198293,0.0057028932496905,-0.005338838789612
1770451753104,-0.0968017578125,-0.274932861328125,-0.9527435302734376,0.0043979440815746,0.0098712723702192,-0.0032623722217977
1770451753114,-0.0982818603515625,-0.2720184326171875,-0.9495086669921876,0.0005709817050956,0.0210978277027606,-0.0018833875656127
1770451753124,-0.0970611572265625,-0.2706298828125,-0.9483642578125,-0.0055170045234262,0.012198076583445,-0.0023550332989543
1770451753134,-0.101715087890625,-0.2678680419921875,-0.9464111328125,-0.0146122323349118,0.0110324108973145,-0.0055236625485122
1770451753144,-0.103912353515625,-0.2677001953125,-0.9482574462890624,-0.0195294935256242,0.0114558534696698,-0.0050389668904244
1770451753154,-0.100189208984375,-0.26953125,-0.9506072998046876,-0.0213292576372623,0.0119842244312167,-0.0042647859081625
1770451753164,-0.100128173828125,-0.270660400390625,-0.95147705078125,-0.0218613557517528,0.0091058807447552,-0.0057052900083363
1770451753174,-0.104583740234375,-0.2703704833984375,-0.9504241943359376,-0.0315020009875297,-0.0019765980541706,0.0008362325606867
1770451753184,-0.0972900390625,-0.2757568359375,-0.9448089599609376,-0.0392957404255867,-0.0048996838741004,0.0125631960108876
1770451753195,-0.0917510986328125,-0.2767486572265625,-0.95294189453125,-0.0335712768137455,0.0059050270356237,0.0134849157184362
1770451753204,-0.0963897705078125,-0.282379150390625,-0.9615325927734376,-0.0199958123266696,0.0071436632424592,0.0076344837434589
1770451753215,-0.103759765625,-0.25732421875,-0.9632110595703124,-0.0018863170407712,0.0102323973551392,-0.0130119388923048
1770451753224,-0.1147918701171875,-0.2603759765625,-0.96929931640625,0.0167803112417459,-0.0027206854429095,-0.0174357146024703
1770451753235,-0.107391357421875,-0.2733154296875,-0.9697113037109376,0.0194690395146608,-0.0243085362017154,-0.0114326840266585
1770451753245,-0.0982208251953125,-0.275787353515625,-0.9602508544921876,0.0147933270782232,-0.0208070110529661,-0.0077956048771739
1770451753255,-0.097198486328125,-0.2789154052734375,-0.9505462646484376,0.005649097263813,-0.0086576705798506,-0.0015358449891209
1770451753265,-0.096954345703125,-0.27398681640625,-0.945526123046875,-0.0013563479296863,0.0215220693498849,-0.0051185954362154
1770451753275,-0.0991973876953125,-0.26904296875,-0.942626953125,-0.0048557417467236,0.0413269326090812,-0.010774883441627
1770451753285,-0.096771240234375,-0.2635040283203125,-0.94903564453125,-0.0102028362452983,0.0390102490782737,-0.0192695688456296
1770451753295,-0.0972442626953125,-0.2621307373046875,-0.9500885009765624,-0.0195039268583059,0.0241945516318082,-0.0217391178011894
1770451753305,-0.0989837646484375,-0.263458251953125,-0.9503326416015624,-0.0281336326152086,0.0043878243304789,-0.0171307828277349
1770451753315,-0.1025543212890625,-0.2685699462890625,-0.953277587890625,-0.0322106666862964,0.0013840447645634,-0.0120574617758393
1770451753325,-0.102935791015625,-0.2727203369140625,-0.957244873046875,-0.032013326883316,0.0107181584462523,-0.0019576896447688
1770451753335,-0.0935516357421875,-0.273529052734375,-0.957550048828125,-0.0327768549323082,0.0163163896650075,0.0002058623504126
1770451753345,-0.093994140625,-0.27587890625,-0.9585113525390624,-0.0228219591081142,0.0265775490552186,-0.0039790291339159
1770451753355,-0.0984344482421875,-0.272735595703125,-0.9705810546875,-0.0134228644892573,0.0208189953118562,-0.01316240709275
1770451753365,-0.1039886474609375,-0.2708282470703125,-0.9704437255859376,-0.00646588858217,0.0007179882377386,-0.0164194535464048
1770451753375,-0.10284423828125,-0.2696380615234375,-0.967987060546875,0.0127040771767497,-0.0017259946325793,-0.0207391008734703
1770451753385,-0.102630615234375,-0.2735595703125,-0.97406005859375,0.0328721962869167,-0.0137040941044688,-0.0237130522727966
1770451753395,-0.105133056640625,-0.2728729248046875,-0.969329833984375,0.0443863719701767,-0.0281168557703495,-0.0286489557474851
1770451753405,-0.106719970703125,-0.2675933837890625,-0.9645538330078124,0.0462987907230854,-0.0402480885386467,-0.0314545966684818
1770451753415,-0.1024017333984375,-0.2675933837890625,-0.9552154541015624,0.0450015626847744,-0.0291565544903278,-0.0335206761956214
1770451753425,-0.0972137451171875,-0.2720184326171875,-0.94854736328125,0.0345465242862701,-0.0192772913724184,-0.0329574160277843
1770451753436,-0.0984649658203125,-0.271759033203125,-0.9383697509765624,0.0133288549259305,-0.0028205539565533,-0.0287650693207979
1770451753445,-0.0920257568359375,-0.2728424072265625,-0.9335479736328124,-0.0096528939902782,0.0155211687088012,-0.0172026883810758
1770451753455,-0.083282470703125,-0.276123046875,-0.929107666015625,-0.0342067070305347,0.0281280409544706,-0.0038389465771615
1770451753466,-0.084747314453125,-0.2771759033203125,-0.9294586181640624,-0.0529763996601104,0.0425690300762653,0.0029238844290375
1770451753476,-0.090179443359375,-0.2718658447265625,-0.9373626708984376,-0.0583844818174839,0.0492264032363891,0.0070065106265246
1770451753486,-0.0987548828125,-0.26953125,-0.951629638671875,-0.0528594851493835,0.0372922457754612,0.0056416406296193
1770451753496,-0.100616455078125,-0.2704315185546875,-0.9686737060546876,-0.0352493338286876,0.0135544249787926,0.0003486077766865
1770451753506,-0.105255126953125,-0.271392822265625,-0.9827728271484376,-0.0116465361788868,-0.0117253651842474,-0.007015299052
1770451753516,-0.106903076171875,-0.2728424072265625,-0.983062744140625,0.0101205445826053,-0.030109966173768,-0.0138974394649267
1770451753526,-0.1082763671875,-0.2692108154296875,-0.97894287109375,0.0283389631658792,-0.0249865762889385,-0.0158599223941564
1770451753536,-0.1038818359375,-0.27728271484375,-0.970367431640625,0.0321861654520034,-0.0203758459538221,-0.0178945790976285
1770451753546,-0.09619140625,-0.274261474609375,-0.95587158203125,0.0307283513247966,-0.0098385158926248,-0.0180162843316793
1770451753556,-0.093017578125,-0.2730865478515625,-0.945831298828125,0.0189587771892547,-0.0083617931231856,-0.0193638447672128
1770451753566,-0.092620849609375,-0.2759552001953125,-0.93731689453125,0.0008455536444671,0.0020341223571449,-0.0161427501589059
1770451753576,-0.091552734375,-0.271484375,-0.9347991943359376,-0.0081245051696896,0.0126042086631059,-0.0109117701649665
1770451753586,-0.09271240234375,-0.27142333984375,-0.9379730224609376,-0.0238299649208784,0.0110654346644878,0.0007472829893231
1770451753596,-0.0932769775390625,-0.2703094482421875,-0.9366455078125,-0.0292497649788856,0.0195883493870496,0.0071149012073874
1770451753606,-0.09393310546875,-0.2712249755859375,-0.94415283203125,-0.0435613244771957,0.0110182967036962,0.0106507800519466
1770451753616,-0.0951385498046875,-0.2713470458984375,-0.944305419921875,-0.0458124950528144,0.0138990376144647,0.0094302529469132
1770451753626,-0.0958251953125,-0.272857666015625,-0.9559326171875,-0.0451150126755237,0.0054847802966833,0.0089812446385622
1770451753636,-0.098358154296875,-0.276824951171875,-0.963592529296875,-0.029684392735362,0.0088741853833198,0.0082803005352616
1770451753646,-0.09912109375,-0.277923583984375,-0.9736175537109376,-0.0174410417675972,0.0071998559869825,0.0061670821160078
1770451753657,-0.0975189208984375,-0.2765045166015625,-0.9682159423828124,-0.0078472699970006,0.0112473284825682,0.007669371087104
1770451753667,-0.097900390625,-0.27490234375,-0.96661376953125,0.0017108146566897,0.0109112374484539,0.0087253144010901
1770451753677,-0.09783935546875,-0.276397705078125,-0.967071533203125,0.0151240918785333,0.0095594162121415,0.0088113350793719
1770451753687,-0.09661865234375,-0.2757720947265625,-0.969818115234375,0.0266214907169342,0.0020796624012291,0.0054885088466107
1770451753697,-0.1009063720703125,-0.270660400390625,-0.966796875,0.034343060106039,-0.0092070801183581,0.0005795038305222
1770451753707,-0.1039886474609375,-0.26873779296875,-0.9640655517578124,0.037175066769123,-0.0146862678229808,-0.0049470881931483
1770451753717,-0.105499267578125,-0.2681121826171875,-0.95416259765625,0.0313347540795803,-0.0144260767847299,-0.0112531874328851
1770451753727,-0.1060791015625,-0.266387939453125,-0.9464263916015624,0.0225303433835506,-0.0053588128648698,-0.0128540135920047
1770451753737,-0.098663330078125,-0.2686004638671875,-0.9393310546875,0.0077263629063963,0.0023654196411371,-0.0124113960191607
1770451753750,-0.096405029296875,-0.271087646484375,-0.9372100830078124,-0.0039529297500848,0.011462777853012,-0.0116409435868263
1770451753757,-0.0938720703125,-0.2760467529296875,-0.93975830078125,-0.0183483809232711,0.0094784563407301,-0.0061708106659352
1770451753767,-0.0931854248046875,-0.2690582275390625,-0.9382781982421876,-0.0252997633069753,0.0059540290385484,-0.0005531385540962
1770451753777,-0.0936126708984375,-0.2719879150390625,-0.946441650390625,-0.026878485456109,0.0031686290167272,-0.0007025419035926
1770451753787,-0.097900390625,-0.2730255126953125,-0.953338623046875,-0.0219497736543416,0.0037491980474442,0.0010836402652785
1770451753797,-0.0966796875,-0.269195556640625,-0.9593505859375,-0.0098979044705629,0.0024612934794276,0.0009472863748669
1770451753807,-0.0969696044921875,-0.2725372314453125,-0.9666748046875,0.0007017429452389,-0.0062400526367127,-0.0025270734913647
1770451753817,-0.100311279296875,-0.2725677490234375,-0.964630126953125,0.0016223976854234,-0.0089109372347593,-0.0061942464672029
1770451753827,-0.10003662109375,-0.2718963623046875,-0.9550933837890624,0.0012373046483844,0.0110814133659005,-0.0088001498952507
1770451753837,-0.09808349609375,-0.2716064453125,-0.9517822265625,-0.0008279767935164,0.0220525711774826,-0.0071873390115797
1770451753847,-0.0984344482421875,-0.272796630859375,-0.9529266357421876,0.0046386937610805,0.0184828713536262,-0.0101184137165546
1770451753857,-0.1012115478515625,-0.2751007080078125,-0.958099365234375,-0.001023719087243,-0.0031686290167272,-0.0103692840784788
1770451753868,-0.101409912109375,-0.2691650390625,-0.9527130126953124,-0.003948668949306,-0.0076099829748272,-0.0130689302459359
1770451753878,-0.10150146484375,-0.2694854736328125,-0.9506072998046876,-0.0120372213423252,-0.0059140818193554,-0.0104124275967478
1770451753887,-0.0972900390625,-0.268157958984375,-0.9466552734375,-0.0127983530983328,0.0041127195581793,-0.0099682118743658
1770451753898,-0.0952301025390625,-0.2671051025390625,-0.9506072998046876,-0.0112912701442837,0.0072174328379333,-0.0072848107665777
1770451753908,-0.0929718017578125,-0.26788330078125,-0.9533233642578124,-0.0084917554631829,0.0068991850130259,-0.0055747949518263
1770451753918,-0.091827392578125,-0.2689056396484375,-0.9565887451171876,-0.0071207601577043,-0.0014359764754772,-0.0015387744642794
1770451753928,-0.08746337890625,-0.269866943359375,-0.953277587890625,-0.0058086207136511,0.0024541029706597,0.0027164241764694
1770451753938,-0.0914154052734375,-0.26947021484375,-0.953948974609375,0.0011052117915824,0.0112190982326865,0.0031790153589099
1770451753948,-0.09332275390625,-0.265655517578125,-0.9566802978515624,0.0047721182927489,0.0047550741583108,0.0051465588621795
1770451753958,-0.09625244140625,-0.2660980224609375,-0.960357666015625,0.0122193815186619,0.0039140479639172,0.0032831449061632
1770451753968,-0.09588623046875,-0.2740020751953125,-0.9641265869140624,0.0155941396951675,0.0075969332829117,0.0054975631646811
1770451753978,-0.09521484375,-0.2752838134765625,-0.9571533203125,0.0156420767307281,0.0163432862609624,0.0035238948184996
1770451753988,-0.09478759765625,-0.274749755859375,-0.95159912109375,0.012680641375482,0.0150191634893417,0.0084302360191941
1770451753998,-0.0921173095703125,-0.272552490234375,-0.9546966552734376,0.0067175575532019,0.0061942464672029,0.01140658557415
1770451754008,-0.0947265625,-0.272918701171875,-0.954193115234375,-0.0025723471771925,0.0033017871901392,0.0112798186019063
1770451754018,-0.0995635986328125,-0.275970458984375,-0.9498138427734376,-0.0065127601847052,0.0051699946634471,0.0216528307646513
1770451754028,-0.0925750732421875,-0.2720794677734375,-0.9527740478515624,-0.0049697249196469,0.0070688282139599,0.0177944432944059
1770451754038,-0.098297119140625,-0.2742919921875,-0.96112060546875,0.0100350575521588,0.0058528291992843,0.0203590672463178
1770451754049,-0.0953826904296875,-0.26763916015625,-0.965545654296875,0.0239591281861066,0.0026125609874725,-0.0036634444259107
1770451754058,-0.107513427734375,-0.2513275146484375,-0.9608001708984376,0.028565065935254,0.0068208882585167,-0.0135371144860982
1770451754068,-0.10113525390625,-0.27716064453125,-0.9537506103515624,0.0228533837944269,-0.0148095721378922,0.0077572553418576
1770451754078,-0.0905609130859375,-0.283172607421875,-0.9483184814453124,0.018367288634181,-0.00617400649935,0.0145365986973047
1770451754089,-0.09185791015625,-0.2829742431640625,-0.9473876953125,0.0066818711347877,-0.0016801883466541,0.0250270552933216
1770451754099,-0.09014892578125,-0.280181884765625,-0.9408111572265624,-0.0103596961125731,0.0110635701566934,0.035471174865961
1770451754109,-0.0861663818359375,-0.2751312255859375,-0.9355316162109376,-0.0203145928680896,0.0290345810353755,0.032826654613018
1770451754119,-0.0923614501953125,-0.269012451171875,-0.9413299560546876,-0.0286473575979471,0.0357569307088851,0.0220741424709558
1770451754129,-0.0989990234375,-0.261016845703125,-0.946807861328125,-0.0348748937249183,0.0312442053109407,0.0108009818941354
1770451754139,-0.1063079833984375,-0.260528564453125,-0.95135498046875,-0.0343955233693122,0.0120694460347294,0.0059244679287076
1770451754149,-0.1109619140625,-0.2628631591796875,-0.9601593017578124,-0.0310418047010898,-0.0033103092573583,0.0027499801944941
1770451754159,-0.11126708984375,-0.2689971923828125,-0.9659423828125,-0.0127181923016905,-0.0066962521523237,0.0056142099201679
1770451754169,-0.106903076171875,-0.2733917236328125,-0.9756317138671876,-0.0018439727136865,-0.0199342928826808,0.0028889970853924
1770451754179,-0.101409912109375,-0.2764892578125,-0.968353271484375,0.011176754720509,-0.023720508441329,0.0012005530297756
1770451754189,-0.0957183837890625,-0.2786712646484375,-0.9685211181640624,0.0215803924947977,-0.0254734028130769,-0.0004695153038483
1770451754199,-0.0944976806640625,-0.2806549072265625,-0.9655303955078124,0.0338615588843822,-0.0223673563450574,-0.0031089743133634
1770451754209,-0.094879150390625,-0.2767486572265625,-0.9630889892578124,0.0390757620334625,-0.0241391584277153,-0.0050203250721096
1770451754219,-0.09857177734375,-0.2764892578125,-0.955810546875,0.0438132621347904,-0.01152562815696,-0.0028530445415526
1770451754230,-0.0988006591796875,-0.2718658447265625,-0.9529571533203124,0.043404996395111,-0.0105503788217902,-0.0017395768081769
1770451754239,-0.1010284423828125,-0.27374267578125,-0.950347900390625,0.0422651655972003,-0.0227820109575986,-0.0023430490400642
1770451754249,-0.1022796630859375,-0.2740478515625,-0.9499664306640624,0.029765885323286,-0.0387282222509384,-0.0030890004709362
1770451754259,-0.1038360595703125,-0.2698516845703125,-0.9388427734375,0.0202498771250247,-0.0242563374340534,-0.0017648768844082
1770451754269,-0.097930908203125,-0.272369384765625,-0.941680908203125,0.0092124063521623,-0.0129413651302456,-0.0025033713318407
1770451754280,-0.099029541015625,-0.2761688232421875,-0.94049072265625,0.0066128950566053,-0.0123807694762945,-0.0001560612436151
1770451754289,-0.09832763671875,-0.274688720703125,-0.9478912353515624,-0.0015773903578519,-0.0172261241823434,-0.0001155811914941
1770451754299,-0.0995330810546875,-0.2771759033203125,-0.951446533203125,-0.0035071168094873,-0.0092310486361384,-0.0028810077346861
1770451754309,-0.100830078125,-0.27606201171875,-0.9539031982421876,-0.0105849998071789,-0.0107546430081129,-0.0013811152894049
1770451754320,-0.1009368896484375,-0.2754669189453125,-0.9493560791015624,-0.0162852294743061,-0.0089825764298439,0.000711330329068
1770451754330,-0.099334716796875,-0.2750091552734375,-0.9534149169921876,-0.0220935847610235,-0.003344930242747,0.0006114617572166
1770451754340,-0.0997467041015625,-0.2767181396484375,-0.95556640625,-0.0142532382160425,0.0083522060886025,0.0066190203651785
1770451754350,-0.0947113037109375,-0.2821807861328125,-0.962921142578125,-0.011584217660129,0.0007981493836268,0.0119032645598053
1770451754360,-0.096527099609375,-0.2755279541015625,-0.9635009765625,-0.0049007488414645,-0.0095074847340583,0.007448861375451
1770451754370,-0.10479736328125,-0.278961181640625,-0.96380615234375,0.0022604910191148,-0.0023651532828807,0.0104877948760986
1770451754380,-0.0991363525390625,-0.27716064453125,-0.9588165283203124,-0.0018200043123215,-0.0006402239087037,0.0085753789171576
1770451754390,-0.0995635986328125,-0.2738494873046875,-0.948211669921875,0.0009712548344396,0.0078150462359189,0.0025555694010108
1770451754400,-0.103546142578125,-0.2750701904296875,-0.9544525146484376,-0.001137968734838,0.0030136329587548,-0.0021315941121429
1770451754410,-0.1042327880859375,-0.26953125,-0.951202392578125,-0.0019297265680506,-0.0015374429058283,-0.0049742520786821
1770451754420,-0.1041107177734375,-0.2707672119140625,-0.9522247314453124,0.004071706905961,-0.0003241066879127,-0.0027108315844088
1770451754430,-0.1016998291015625,-0.278106689453125,-0.953948974609375,0.001709749456495,-0.0010330402292311,0.0021116205025464
1770451754440,-0.1010894775390625,-0.27496337890625,-0.9448089599609376,-0.0036232306156307,0.0068826735951006,0.0064563015475869
1770451754450,-0.0969085693359375,-0.275054931640625,-0.943450927734375,-0.0121954139322042,0.0122542697936296,0.0158529989421367
1770451754460,-0.09283447265625,-0.283172607421875,-0.943878173828125,-0.0187550447881221,0.0166138634085655,0.0218032989650964
1770451754470,-0.0924072265625,-0.2813873291015625,-0.949371337890625,-0.0234147775918245,0.0079599218443036,0.0221314020454883
1770451754480,-0.09930419921875,-0.2799072265625,-0.95556640625,-0.0164146590977907,0.0003059972077608,0.020054668188095
1770451754490,-0.1042633056640625,-0.2760467529296875,-0.9609222412109376,-0.0086025428026914,0.001382180606015,0.0192155055701732
1770451754500,-0.1014404296875,-0.27410888671875,-0.961944580078125,-0.0067417924292385,-0.0045574675314128,0.0232315529137849
1770451754510,-0.1004180908203125,-0.2723541259765625,-0.9597625732421876,0.0020884508267045,-0.0009137305896729,0.0205367002636194
1770451754521,-0.10211181640625,-0.27630615234375,-0.9670867919921876,0.0158969406038522,-0.0019715381786227,0.0210642721503973
1770451754531,-0.1011810302734375,-0.279754638671875,-0.967681884765625,0.0241538062691688,-0.0062933159060776,0.01865597628057
1770451754541,-0.10211181640625,-0.2786102294921875,-0.9647064208984376,0.0321448855102062,-0.0121746407821774,0.0133272567763924
1770451754551,-0.1066131591796875,-0.2761688232421875,-0.9617462158203124,0.0337867252528667,-0.0129956938326358,0.0077364831231534
1770451754561,-0.1083984375,-0.271514892578125,-0.95361328125,0.0265437271445989,-0.0171526223421096,0.0025534387677907
1770451754571,-0.1104888916015625,-0.2718353271484375,-0.9463348388671876,0.0263162925839424,-0.0096899112686514,0.0012325108982622
1770451754581,-0.104736328125,-0.278045654296875,-0.9490509033203124,0.0250800531357526,-0.0030296121258288,-0.0006162554491311
1770451754591,-0.1029510498046875,-0.2808074951171875,-0.945526123046875,0.0202030055224895,0.0015137407463043,-0.0001328917423961
1770451754601,-0.101654052734375,-0.2783050537109375,-0.942657470703125,0.00534043693915,-0.0067468523047864,0.0023941819090396
1770451754611,-0.1016387939453125,-0.2738800048828125,-0.934234619140625,-0.0106587698683142,-0.0188653003424406,0.0082379560917615
1770451754621,-0.0976715087890625,-0.2724456787109375,-0.93450927734375,-0.0222030393779277,0.0011163970921188,0.0117421438917517
1770451754631,-0.095947265625,-0.2780914306640625,-0.9420013427734376,-0.0241506099700927,0.0217974409461021,0.0200583972036838
1770451754641,-0.094146728515625,-0.2755126953125,-0.947906494140625,-0.0232067853212356,0.0177592895925045,0.0187393333762884
1770451754651,-0.1040191650390625,-0.2777099609375,-0.954925537109375,-0.0230288859456777,0.0082637891173362,0.0193348154425621
1770451754661,-0.1022491455078125,-0.2771453857421875,-0.956512451171875,-0.0184075031429529,0.0027358653023838,0.0210557505488395
1770451754671,-0.1020965576171875,-0.2768707275390625,-0.9585723876953124,-0.0184626299887895,-0.0015520902816206,0.0184738151729106
1770451754681,-0.105072021484375,-0.276214599609375,-0.95733642578125,-0.0104017741978168,0.0072589782066643,0.0173531584441661
1770451754691,-0.10650634765625,-0.2738800048828125,-0.9613800048828124,-0.0024847292806953,0.0122830318287014,0.0134654752910137
1770451754701,-0.108642578125,-0.2769012451171875,-0.9632568359375,0.0034389398060739,0.002135056303814,0.0092534190043807
1770451754711,-0.1085662841796875,-0.27655029296875,-0.966278076171875,0.0130952959880232,-0.0041502700187265,0.0038735677953809
1770451754721,-0.107421875,-0.277557373046875,-0.96722412109375,0.0210373736917972,-0.008632636629045,-0.0023398532066494
1770451754731,-0.1089019775390625,-0.27490234375,-0.96197509765625,0.0224768128246068,-0.015688681975007,-0.0076224994845688
1770451754742,-0.109405517578125,-0.275299072265625,-0.95770263671875,0.0267304144799709,-0.0119610549882054,-0.0074296868406236
1770451754752,-0.1092376708984375,-0.2754974365234375,-0.956787109375,0.0235932096838951,-0.0156926773488521,-0.009468869306147
1770451754762,-0.1077423095703125,-0.2772064208984375,-0.9504852294921876,0.021820344030857,-0.0126188565045595,-0.0085487468168139
1770451754772,-0.1017608642578125,-0.2789764404296875,-0.9501800537109376,0.0155701711773872,-0.0133797209709882,-0.0069039785303175
1770451754782,-0.0994873046875,-0.2774658203125,-0.947265625,0.0071098413318395,-0.0086629968136549,-0.0026746126823127
1770451754792,-0.098876953125,-0.2779388427734375,-0.9450531005859376,0.0062696137465536,0.0001771002134773,0.0014615427935495
1770451754802,-0.0973968505859375,-0.2773284912109375,-0.9449310302734376,-0.0031742216087877,0.0029502499382942,0.001463406952098
1770451754812,-0.0989990234375,-0.276092529296875,-0.945159912109375,-0.0033385388087481,0.01271259970963,0.0072826803661882
1770451754822,-0.0964202880859375,-0.2759246826171875,-0.9499969482421876,-0.0082352934405207,0.0073505910113453,0.0113043198361992
1770451754832,-0.0958404541015625,-0.2798919677734375,-0.9495086669921876,-0.0148143656551837,0.0044179176911711,0.0134779922664165
1770451754842,-0.1005706787109375,-0.2790985107421875,-0.9461669921875,-0.0158423464745283,0.0128787802532315,0.0161818992346525
1770451754852,-0.100067138671875,-0.278045654296875,-0.9537811279296876,-0.0137349870055913,0.0156873501837253,0.0161254405975341
1770451754862,-0.104156494140625,-0.2790374755859375,-0.9589080810546876,-0.0051958272233605,0.0098339887335896,0.0185443889349699
1770451754872,-0.1055755615234375,-0.2812652587890625,-0.9600677490234376,-0.0023997745011001,0.0024682176299393,0.0247602071613073
1770451754883,-0.101348876953125,-0.2800140380859375,-0.9565582275390624,-0.0042328280396759,-0.0066392603330314,0.0287016853690147
1770451754892,-0.1023712158203125,-0.278411865234375,-0.959625244140625,0.0001954760227818,-0.0066416575573384,0.0193089824169874
1770451754902,-0.109619140625,-0.2805023193359375,-0.9579925537109376,0.0034882084000855,0.0018048242200165,0.0074765584431588
1770451754912,-0.1131591796875,-0.2603912353515625,-0.9523468017578124,-0.0038666436448693,0.0146780125796794,-0.0116036590188741
1770451754922,-0.1121978759765625,-0.268463134765625,-0.944488525390625,-0.011126154102385,0.0118550611659884,-0.0131690651178359
1770451754932,-0.104827880859375,-0.2826995849609375,-0.943939208984375,-0.0213303230702877,0.0021739383228123,-0.0023494407068938
1770451754942,-0.1007843017578125,-0.2836761474609375,-0.9472808837890624,-0.0207862388342618,0.0036938043776899,0.0046765110455453
1770451754953,-0.101837158203125,-0.2832489013671875,-0.9537353515625,-0.0167552772909402,-0.0043758400715887,0.0130691966041922
1770451754963,-0.0978546142578125,-0.27813720703125,-0.95379638671875,-0.0072147697210311,0.0131176663562655,0.0118822259828448
1770451754973,-0.0963287353515625,-0.27508544921875,-0.954803466796875,-0.0002191781532019,0.0218142177909612,0.0056863813661038
1770451754983,-0.096435546875,-0.266387939453125,-0.9493408203125,-0.0067156930454075,0.0225476529449224,-0.0023816649336367
1770451754993,-0.1012420654296875,-0.26727294921875,-0.947967529296875,-0.0100952442735433,0.0201830323785543,-0.0063503077253699
1770451755003,-0.1057586669921875,-0.270233154296875,-0.9503173828125,-0.0186437256634235,0.0027912592049688,-0.0057590859942138
1770451755013,-0.1096038818359375,-0.2726593017578125,-0.952392578125,-0.0148399323225021,0.0015901734586805,8.841694943839684e-05
1770451755023,-0.1057586669921875,-0.2794952392578125,-0.96295166015625,-0.0104310689494013,-0.0017009610310196,0.0042988746426999
1770451755033,-0.1084136962890625,-0.2784576416015625,-0.964202880859375,0.0002607234637252,-0.0029651634395122,0.003728159237653
1770451755043,-0.1078643798828125,-0.2779388427734375,-0.9681396484375,0.0037119139451533,-0.0045079328119754,-0.0026857978664338
1770451755053,-0.1058502197265625,-0.2779998779296875,-0.9614105224609376,0.0079175774008035,0.003639209549874,-0.0061542987823486
1770451755063,-0.100067138671875,-0.2779083251953125,-0.9568328857421876,0.0063819992356002,0.0027348001021891,-0.0074901403859257
1770451755073,-0.10009765625,-0.2784423828125,-0.9543304443359376,0.0071729579940438,-0.0068752164952456,-0.0032466596458107
1770451755084,-0.0997772216796875,-0.27734375,-0.9494476318359376,0.0040996703319251,-0.0168263837695121,0.0025158883072435
1770451755093,-0.0972747802734375,-0.276153564453125,-0.9462738037109376,-0.0006239786162041,-0.0091053480282425,0.005381183233112
1770451755103,-0.1031341552734375,-0.2775115966796875,-0.9433746337890624,-0.0029731530230492,0.0073042516596615,0.0065316688269376
1770451755113,-0.10009765625,-0.2778778076171875,-0.9449920654296876,-0.0084853637963533,0.0080797644332051,0.0104933874681591
1770451755123,-0.1018829345703125,-0.2776031494140625,-0.94561767578125,-0.0155147770419716,0.0044128578156232,0.0078057250939309
1770451755133,-0.1058502197265625,-0.2756195068359375,-0.945098876953125,-0.0222669560462236,0.0082906866446137,0.0074845477938652
1770451755143,-0.1029052734375,-0.2772064208984375,-0.9461212158203124,-0.0255306605249643,0.0153051866218447,0.0108380001038312
1770451755154,-0.102142333984375,-0.2823638916015625,-0.951324462890625,-0.0234896130859851,0.0157912131398916,0.0116188395768404
1770451755164,-0.1055908203125,-0.2779693603515625,-0.9554290771484376,-0.0167129337787628,0.0137693416327238,0.0105732819065451
1770451755174,-0.1069183349609375,-0.27557373046875,-0.9631195068359376,-0.0099679455161094,0.0018186726374551,0.0093919038772583
1770451755184,-0.1041412353515625,-0.27886962890625,-0.9650421142578124,-0.0038184402510523,-0.005330316722393,0.0045603970065712
1770451755194,-0.1063232421875,-0.2759552001953125,-0.9637908935546876,-0.0015627428656443,-0.0076869479380548,0.0037047234363853
1770451755204,-0.1080780029296875,-0.276458740234375,-0.9588165283203124,0.0044573326595127,-0.005258944351226,0.0037390780635178
1770451755215,-0.1038360595703125,-0.2820587158203125,-0.962158203125,0.0065883942879736,-0.0102912532165646,0.0053550843149423
1770451755224,-0.10235595703125,-0.2778472900390625,-0.957244873046875,0.005699963774532,-0.0138215394690632,0.0046416232362389
1770451755234,-0.1089935302734375,-0.2781524658203125,-0.955169677734375,0.0081857582554221,-0.0139797311276197,0.0071348748169839
1770451755244,-0.106475830078125,-0.278594970703125,-0.9519195556640624,0.004463457968086,-0.0133608123287558,0.0077750985510647
1770451755254,-0.1033172607421875,-0.2744903564453125,-0.945037841796875,0.0013507553376257,-0.0128383003175258,0.0075396751053631
1770451755264,-0.101959228515625,-0.2782135009765625,-0.9468994140625,-0.0044754422269761,-0.013777065090835,0.0113048525527119
1770451755274,-0.102020263671875,-0.2740631103515625,-0.9452972412109376,-0.0104220146313309,-0.0046333675272762,0.0100861899554729
1770451755284,-0.10443115234375,-0.2721710205078125,-0.94207763671875,-0.0134753286838531,0.0097474362701177,0.008854211308062
1770451755294,-0.1040802001953125,-0.2741546630859375,-0.9444122314453124,-0.0197505354881286,0.012966132722795,0.0104446513578295
1770451755304,-0.10455322265625,-0.272491455078125,-0.941986083984375,-0.0267530512064695,0.0113932695239782,0.012696087360382
1770451755315,-0.1037750244140625,-0.2752532958984375,-0.948486328125,-0.0275812931358814,0.0092883072793483,0.0168029479682445
1770451755324,-0.1038360595703125,-0.277069091796875,-0.953948974609375,-0.0327725932002067,0.0007952199084684,0.0173502285033464
1770451755334,-0.101959228515625,-0.2809600830078125,-0.9521942138671876,-0.0354975387454032,0.0068427259102463,0.0186900645494461
1770451755344,-0.102294921875,-0.2816925048828125,-0.9547576904296876,-0.0329704657196998,0.0164319705218076,0.018842663615942
1770451755354,-0.1060638427734375,-0.2799224853515625,-0.95831298828125,-0.0229497905820608,0.0222547054290771,0.0172141399234533
1770451755364,-0.1103668212890625,-0.277374267578125,-0.9671783447265624,-0.0113631756976246,0.0145139619708061,0.0142447156831622
1770451755374,-0.108856201171875,-0.2770233154296875,-0.9695281982421876,-0.0010005496442317,0.007187605369836,0.0101240072399377
1770451755385,-0.10955810546875,-0.2751617431640625,-0.96649169921875,0.0118289627134799,0.0033923345617949,0.0051745218224823
1770451755395,-0.1087646484375,-0.2749176025390625,-0.9671173095703124,0.0216174107044935,-0.0083825653418898,0.0028549085836857
1770451755405,-0.1086578369140625,-0.27484130859375,-0.964569091796875,0.0308356769382953,-0.0157725717872381,0.0008953547803685
1770451755415,-0.10687255859375,-0.2769012451171875,-0.9619598388671876,0.0329084135591983,-0.0236712414771318,-0.0029483856633305
1770451755425,-0.1090545654296875,-0.2756805419921875,-0.9522705078125,0.030434338375926,-0.0194469355046749,-0.0077876155264675
1770451755435,-0.108734130859375,-0.2757720947265625,-0.94488525390625,0.0156631153076887,-0.0179142858833074,-0.0080169141292572
1770451755445,-0.10577392578125,-0.2763824462890625,-0.9335174560546876,-0.0044844970107078,-0.0102545013651251,-0.0038730350788682
1770451755455,-0.104827880859375,-0.274566650390625,-0.9255523681640624,-0.0282950215041637,3.302319601061754e-05,-0.0007560714147984
1770451755465,-0.1029510498046875,-0.2732391357421875,-0.9257049560546876,-0.0508796907961368,0.0178090911358594,0.0008636631537228
1770451755475,-0.105560302734375,-0.2695159912109375,-0.9256439208984376,-0.0637717917561531,0.034243457019329,0.0049161952920258
1770451755485,-0.1027069091796875,-0.2680511474609375,-0.938446044921875,-0.0535945184528827,0.0308865439146757,0.0084113283082842
1770451755497,-0.1052093505859375,-0.2771148681640625,-0.96282958984375,-0.043904073536396,0.0088912295177578,0.0075873457826673
1770451755505,-0.10638427734375,-0.2734375,-0.9667510986328124,-0.0363830402493476,-0.0041880873031914,0.0030791468452662
1770451755515,-0.105316162109375,-0.2714080810546875,-0.9658355712890624,-0.0229053162038326,-0.0040741036646068,0.0052536176517605
1770451755525,-0.1049041748046875,-0.27642822265625,-0.9688262939453124,-0.0006578007596544,0.0032296155113726,0.0026184199377894
1770451755535,-0.10760498046875,-0.275390625,-0.97515869140625,0.0173885766416788,-0.0032045817933976,-0.0009097357979044
1770451755545,-0.1065826416015625,-0.2771148681640625,-0.9745635986328124,0.0273722354322671,-0.0132628083229064,0.0002743055811151
1770451755555,-0.102813720703125,-0.27874755859375,-0.966949462890625,0.0276273675262928,-0.0160631220787763,0.000517185893841
1770451755566,-0.1053619384765625,-0.2759246826171875,-0.96051025390625,0.0279104597866535,-0.0136636141687631,-0.0028261465486139
1770451755575,-0.1091156005859375,-0.2737579345703125,-0.95703125,0.0222597662359476,-0.0157824251800775,-0.0051931641064584
1770451755586,-0.10784912109375,-0.27337646484375,-0.9465179443359376,0.0083205141127109,-0.0135996984317898,-0.0028972530271857
1770451755596,-0.1016693115234375,-0.271942138671875,-0.9398651123046876,-0.0028738172259181,0.006214752793312,-0.0001643170398892
1770451755606,-0.0985565185546875,-0.2772216796875,-0.942657470703125,-0.0052357744425535,0.0149315455928444,0.0054837148636579
1770451755616,-0.0988006591796875,-0.2781524658203125,-0.948638916015625,-0.0148106375709176,-0.000286556140054,0.006680273450911
1770451755626,-0.1026763916015625,-0.2728118896484375,-0.945281982421875,-0.0235625840723514,-0.0013065468519926,0.0052070124074816
1770451755636,-0.1059417724609375,-0.273284912109375,-0.949615478515625,-0.0164024084806442,0.0065766763873398,0.0104100303724408
1770451755646,-0.1029510498046875,-0.275146484375,-0.9568328857421876,-0.0094592813402414,0.0030676953028887,0.0086968187242746
1770451755656,-0.1072998046875,-0.27569580078125,-0.958709716796875,0.0016298545524477,0.0024146882351487,0.006330067757517
1770451755666,-0.1046295166015625,-0.2777099609375,-0.962860107421875,0.0110393352806568,-0.0069556441158056,0.0096262618899345
1770451755676,-0.1043853759765625,-0.274383544921875,-0.9622650146484376,0.0206389650702476,-0.019676499068737,0.0066102319397032
1770451755686,-0.1074066162109375,-0.274627685546875,-0.9612884521484376,0.0261322688311338,-0.0253213346004486,0.0083591295406222
1770451755696,-0.10382080078125,-0.27734375,-0.9561767578125,0.0258299987763166,-0.0153451338410377,0.0083255739882588
1770451755706,-0.1044921875,-0.2777252197265625,-0.9505462646484376,0.02305125631392,-0.0059415125288069,0.0062283347360789
1770451755716,-0.1083831787109375,-0.27349853515625,-0.947052001953125,0.0096504967659711,-0.0067351344041526,0.0048682582564651
1770451755726,-0.105865478515625,-0.2716522216796875,-0.94366455078125,-0.0032780850306153,0.0021097562275826,0.0105972504243254
1770451755736,-0.1021881103515625,-0.27484130859375,-0.943328857421875,-0.0072733592242002,0.0067053069360554,0.0132124749943614
1770451755749,-0.10540771484375,-0.2814483642578125,-0.9443359375,-0.021517276763916,0.0124561367556452,0.021931929513812
1770451755756,-0.103057861328125,-0.2840118408203125,-0.9416961669921876,-0.0297190137207508,0.0204397607594728,0.0297086276113986
1770451755766,-0.1053009033203125,-0.279632568359375,-0.9483184814453124,-0.0255865864455699,0.0260430518537759,0.0283149946480989
1770451755776,-0.1077880859375,-0.2746124267578125,-0.9579620361328124,-0.0122292358428239,0.0117623833939433,0.0145472511649131
1770451755786,-0.118133544921875,-0.2587890625,-0.9628448486328124,-0.00375372543931,-0.0050118030048906,-0.0110310791060328
1770451755797,-0.1275177001953125,-0.2634735107421875,-0.9627227783203124,0.0108057763427495,-0.0181566327810287,-0.0216767992824316
1770451755806,-0.1197967529296875,-0.27392578125,-0.9665679931640624,0.0146612338721752,-0.0341009795665741,-0.0210213959217071
1770451755817,-0.1153411865234375,-0.281341552734375,-0.958770751953125,0.0084083983674645,-0.0329267904162406,-0.0172706004232168
1770451755827,-0.1077880859375,-0.284088134765625,-0.949951171875,0.0067316722124814,-0.0109517173841595,-0.0046722497791051
1770451755837,-0.0973052978515625,-0.2855987548828125,-0.9519195556640624,0.0114073837175965,0.001252218382433,0.0026461167726665
1770451755847,-0.095458984375,-0.2818450927734375,-0.9495697021484376,0.0139831937849521,0.0053201969712972,-0.0047388286329805
1770451755857,-0.102386474609375,-0.2750396728515625,-0.954620361328125,0.0179699454456567,0.0039920783601701,-0.0165044087916612
1770451755867,-0.1079559326171875,-0.2722015380859375,-0.954864501953125,0.0174056217074394,-0.0122247086837887,-0.0234752316027879
1770451755877,-0.111175537109375,-0.270477294921875,-0.9493408203125,0.0082051996141672,-0.0132383070886135,-0.0242275744676589
1770451755887,-0.1124725341796875,-0.2712249755859375,-0.9474334716796876,-0.0028346686158329,-0.0109117701649665,-0.0230651050806045
1770451755897,-0.11260986328125,-0.2740936279296875,-0.9439544677734376,-0.0133626768365502,0.004161455668509,-0.0106854010373353
1770451755907,-0.106170654296875,-0.2776031494140625,-0.941925048828125,-0.0307802837342023,0.008754875510931,0.0015555523568764
1770451755917,-0.1002197265625,-0.2789459228515625,-0.9377288818359376,-0.0381170250475406,0.014216486364603,0.0054829157888889
1770451755927,-0.1013946533203125,-0.2781524658203125,-0.9477386474609376,-0.0404872372746467,0.0142726795747876,0.0021510352380573
1770451755937,-0.106109619140625,-0.2724761962890625,-0.9544525146484376,-0.035400602966547,0.0116428071632981,0.0006761765689589
1770451755947,-0.1051788330078125,-0.2754364013671875,-0.96337890625,-0.0261306706815958,0.0080432789400219,0.0002074602525681
1770451755957,-0.1082763671875,-0.2763824462890625,-0.9635772705078124,-0.0134327178820967,0.0171779207885265,0.0011142665753141
1770451755967,-0.1088409423828125,-0.2750396728515625,-0.9672393798828124,0.0038575888611376,0.0131573472172021,-0.0054536210373044
1770451755977,-0.111907958984375,-0.2743988037109375,-0.967681884765625,0.0153890764340758,0.0004399542231112,-0.0071726916357874
1770451755987,-0.1129913330078125,-0.2735137939453125,-0.9654083251953124,0.0210608094930648,-0.0144881289452314,-0.0116808908060193
1770451755997,-0.116790771484375,-0.27294921875,-0.9594573974609376,0.0184285417199134,-0.017266871407628,-0.0145477838814258
1770451756007,-0.1121978759765625,-0.2728424072265625,-0.9514312744140624,0.0166365001350641,-0.0108425272628664,-0.0133600141853094
1770451756018,-0.1050262451171875,-0.279052734375,-0.9463653564453124,0.0061234063468873,-0.0054682684130966,-0.0073766899295151
1770451756028,-0.1017913818359375,-0.2815399169921875,-0.94122314453125,-0.0093463640660047,-0.0011321097845211,-0.0011227887589484
1770451756038,-0.1015777587890625,-0.2794952392578125,-0.9385223388671876,-0.0206413622945547,0.0079276980832219,-0.0001057274930644
1770451756049,-0.1036224365234375,-0.277679443359375,-0.941192626953125,-0.0363382995128631,0.012466256506741,0.0045840991660952
1770451756058,-0.103057861328125,-0.27386474609375,-0.938812255859375,-0.0494836643338203,0.0129144666716456,0.0085514103993773
1770451756068,-0.1046295166015625,-0.2745208740234375,-0.9432220458984376,-0.051200870424509,0.0169225241988897,0.0135384453460574
1770451756078,-0.1039886474609375,-0.2763824462890625,-0.95428466796875,-0.0475592613220214,0.0060885190032422,0.0143483132123947
1770451756088,-0.106781005859375,-0.272918701171875,-0.960784912109375,-0.0334503687918186,-0.0032402679789811,0.0143515085801482
1770451756098,-0.1073150634765625,-0.2738800048828125,-0.9701080322265624,-0.0228014532476663,-0.0184695553034544,0.0141666857525706
1770451756108,-0.107879638671875,-0.2803192138671875,-0.968994140625,-0.0062951799482107,-0.0145970517769455,0.0191872771829366
1770451756118,-0.1051483154296875,-0.278106689453125,-0.9711761474609376,0.0068845376372337,-0.0099591575562953,0.0152788218110799
1770451756128,-0.1076812744140625,-0.2770233154296875,-0.9681549072265624,0.0189870074391365,-0.0090566119179129,0.0125615978613495
1770451756138,-0.10894775390625,-0.2776031494140625,-0.96661376953125,0.0260134916752576,-0.0105501124635338,0.0050626690499484
1770451756148,-0.1147918701171875,-0.27685546875,-0.960113525390625,0.024580443277955,-0.0060712085105478,0.0013685984304174
1770451756158,-0.11383056640625,-0.27459716796875,-0.952239990234375,0.0182357300072908,-0.0006636597099713,-0.0008066715090535
1770451756168,-0.1090240478515625,-0.2786407470703125,-0.942840576171875,0.0025712819769978,0.0026088326703757,0.0027145601343363
1770451756178,-0.1094512939453125,-0.2774505615234375,-0.9373016357421876,-0.0094353137537837,0.0059846555814146,0.0034756914246827
1770451756188,-0.1129608154296875,-0.273651123046875,-0.9426727294921876,-0.0163161233067512,0.0007571366732008,0.0065567027777433
1770451756198,-0.1085052490234375,-0.2758331298828125,-0.94683837890625,-0.0197593234479427,-0.0030333404429256,0.0053835799917578
1770451756208,-0.10906982421875,-0.2768707275390625,-0.950653076171875,-0.0163171887397766,-0.0007504787645302,0.0073143718764185
1770451756219,-0.105224609375,-0.2769012451171875,-0.9544830322265624,-0.0165944229811429,0.003311374457553,0.0065710837952792
1770451756228,-0.106964111328125,-0.278594970703125,-0.95196533203125,-0.0061274007894098,0.0161014720797538,0.0080310283228755
1770451756239,-0.109039306640625,-0.2773895263671875,-0.9586181640625,0.0008588694618083,0.0145371314138174,0.0069591063074767
1770451756249,-0.11138916015625,-0.2768402099609375,-0.962005615234375,0.0105831362307071,0.0105903260409832,0.000606668065302
1770451756259,-0.11383056640625,-0.2780609130859375,-0.964569091796875,0.0146721536293625,0.0038184402510523,-0.0030884679872542
1770451756269,-0.1142578125,-0.2763214111328125,-0.957916259765625,0.0148109039291739,0.0012599414912983,-0.006221676710993
1770451756279,-0.11273193359375,-0.2756500244140625,-0.9523468017578124,0.0147118344902992,0.002920422470197,-0.0096270609647035
1770451756289,-0.1127471923828125,-0.278106689453125,-0.94866943359375,0.0053628073073923,-0.0046062031760811,-0.0091042825952172
1770451756299,-0.1126251220703125,-0.27532958984375,-0.941009521484375,-0.005576126743108,-0.0098891155794262,-0.0070896008983254
1770451756309,-0.109222412109375,-0.2762298583984375,-0.9427490234375,-0.0165640637278556,-0.0074834828265011,-0.0088523477315902
1770451756319,-0.1085052490234375,-0.2770538330078125,-0.9388275146484376,-0.0274691749364137,0.0003459446306806,-0.0065308697521686
1770451756329,-0.1076812744140625,-0.2776947021484375,-0.9433135986328124,-0.0308372750878334,0.0009861685102805,-0.0081591261550784
1770451756339,-0.1090545654296875,-0.276031494140625,-0.94512939453125,-0.037769217044115,0.0033838124945759,-0.0080755036324262
1770451756349,-0.1103973388671875,-0.2724456787109375,-0.9442596435546876,-0.0414161495864391,0.0112390723079442,-0.0051657333970069
1770451756359,-0.1097564697265625,-0.2732086181640625,-0.9475555419921876,-0.0451882518827915,0.0150433983653783,-0.0091658011078834
1770451756369,-0.1116485595703125,-0.2742156982421875,-0.951324462890625,-0.0443671979010105,0.0080579267814755,-0.0069071743637323
1770451756379,-0.1082763671875,-0.275665283203125,-0.9561614990234376,-0.0465408712625503,0.0026591662317514,-0.0092587461695075
1770451756389,-0.11053466796875,-0.277374267578125,-0.9589996337890624,-0.0379351302981376,0.0073220948688685,-0.0089452918618917
1770451756399,-0.112091064453125,-0.2746124267578125,-0.9638519287109376,-0.028343491256237,0.0080978740006685,-0.0143110286444425
1770451756409,-0.1155548095703125,-0.2731475830078125,-0.969146728515625,-0.0104209491983056,0.0034019220620393,-0.0186794120818376
1770451756420,-0.1166839599609375,-0.2709197998046875,-0.9747467041015624,0.0062997075729072,-0.0034019220620393,-0.0257162824273109
1770451756429,-0.1162567138671875,-0.27294921875,-0.970916748046875,0.0168024152517318,-0.0068352692760527,-0.0311595164239406
1770451756439,-0.1133880615234375,-0.2744293212890625,-0.965362548828125,0.0258931163698434,0.0020266654901206,-0.0336410515010356
1770451756450,-0.1104736328125,-0.2755889892578125,-0.9605560302734376,0.029500899836421,-0.0022533005103468,-0.0327986925840377
1770451756460,-0.106109619140625,-0.2759246826171875,-0.9564361572265624,0.0307187642902135,-0.0049390983767807,-0.0285291131585836
1770451756470,-0.1042327880859375,-0.27838134765625,-0.9518280029296876,0.0161560662090778,-0.013122459873557,-0.02709287032485
1770451756480,-0.10601806640625,-0.2722015380859375,-0.9386749267578124,-0.000213319202885,-0.0200717132538557,-0.0201068669557571
1770451756490,-0.0993194580078125,-0.2711181640625,-0.93548583984375,-0.0140801323577761,-0.0091524859890341,-0.0127610685303807
1770451756500,-0.0970916748046875,-0.274017333984375,-0.9377288818359376,-0.0256491713225841,5.965480886516161e-05,-0.0086076026782393
1770451756510,-0.1051025390625,-0.270843505859375,-0.9384918212890624,-0.033366210758686,0.0135685391724109,-0.0089226551353931
1770451756520,-0.1052093505859375,-0.26837158203125,-0.9450836181640624,-0.0375705435872077,0.0223156921565532,-0.0060288640670478
1770451756530,-0.10369873046875,-0.2696380615234375,-0.9503021240234376,-0.0358781069517135,0.024099476635456,-0.0013046825770288
1770451756540,-0.1016082763671875,-0.2735595703125,-0.95989990234375,-0.0307901371270418,0.0205630660057067,-0.0016575515037402
1770451756550,-0.10296630859375,-0.2726898193359375,-0.960205078125,-0.027575435116887,0.0089956251904368,0.000449807906989
1770451756560,-0.1046600341796875,-0.26995849609375,-0.956298828125,-0.0218799989670515,0.0123733123764395,-0.0010578075889497
1770451756570,-0.1068878173828125,-0.2731781005859375,-0.959930419921875,-0.0121935494244098,0.012352273799479,-0.0032967270817607
1770451756580,-0.1110687255859375,-0.272003173828125,-0.964599609375,-0.0034850125666707,-0.0031260184478014,-0.0079585909843444
1770451756590,-0.114227294921875,-0.2705841064453125,-0.9653472900390624,-0.0046014096587896,-0.0170442312955856,-0.0120622552931308
1770451756600,-0.111419677734375,-0.2744598388671875,-0.9594879150390624,-0.0096752643585205,-0.0180106926709413,-0.0117021957412362
1770451756610,-0.106201171875,-0.277557373046875,-0.9496307373046876,-0.0114673050120472,-0.0165765788406133,-0.0043316315859556
1770451756620,-0.10345458984375,-0.282806396484375,-0.9507293701171876,-0.0193657092750072,-0.0075756278820335,0.0063566989265382
1770451756630,-0.1036376953125,-0.2765350341796875,-0.948638916015625,-0.0242313034832477,0.0123906228691339,0.0066286078654229
1770451756640,-0.106231689453125,-0.2765350341796875,-0.9529266357421876,-0.0243886969983577,0.015491341240704,0.0112694324925541
1770451756651,-0.1046142578125,-0.2612457275390625,-0.95587158203125,-0.01640853472054,0.0149208921939134,-0.0138811944052577
1770451756661,-0.1177978515625,-0.2537994384765625,-0.9582672119140624,-0.0121077951043844,0.0114678377285599,-0.024793229997158
1770451756671,-0.1107177734375,-0.270721435546875,-0.957000732421875,-0.015622635371983,-0.0027859327383339,-0.0133863789960742
1770451756681,-0.10174560546875,-0.2760162353515625,-0.9491119384765624,-0.0158580597490072,-0.0003653856983873,-0.0098315915092825
1770451756691,-0.1052703857421875,-0.27606201171875,-0.9557647705078124,-0.0071335430257022,0.006017945241183,-0.0008580705034546
1770451756701,-0.1028594970703125,-0.27593994140625,-0.96185302734375,0.0001243696169694,0.0067913271486759,0.0023853934835642
1770451756711,-0.101348876953125,-0.27178955078125,-0.9615020751953124,0.0075423386879265,0.015345400199294,-0.0048301750794053
1770451756721,-0.1036834716796875,-0.26513671875,-0.959136962890625,0.0127019463106989,0.0295504350215196,-0.0180066972970962
1770451756731,-0.111297607421875,-0.2606048583984375,-0.956512451171875,0.0079998699948191,0.0249812491238117,-0.0283040758222341
1770451756741,-0.1125335693359375,-0.2639312744140625,-0.95068359375,-0.0040370859205722,0.0100358566269278,-0.0270646400749683
1770451756751,-0.1131439208984375,-0.2703094482421875,-0.9493865966796876,-0.0142694832757115,0.0061124870553612,-0.0173582173883914
1770451756761,-0.1083984375,-0.27679443359375,-0.9489593505859376,-0.0297592263668775,0.0060773333534598,-0.010398312471807
1770451756771,-0.1064910888671875,-0.27679443359375,-0.9443817138671876,-0.0347981937229633,0.0270939357578754,-0.0036442696582525
1770451756781,-0.1024627685546875,-0.2742156982421875,-0.9521026611328124,-0.0372680090367794,0.0321696549654006,-0.002519350266084
1770451756791,-0.1039276123046875,-0.2714691162109375,-0.952850341796875,-0.0326612740755081,0.0215865187346935,-0.0044954158365726
1770451756801,-0.1049957275390625,-0.2693023681640625,-0.9615020751953124,-0.0277405511587858,0.0113437343388795,-0.0080454098060727
1770451756811,-0.1054840087890625,-0.2671051025390625,-0.9578704833984376,-0.0229194313287735,0.0042711775749921,-0.0113312173634767
1770451756821,-0.105194091796875,-0.265045166015625,-0.95263671875,-0.0113421371206641,0.003361441893503,-0.007464041467756
1770451756831,-0.106475830078125,-0.2674713134765625,-0.96075439453125,-0.0031068436801433,-0.0060898503288626,-0.011234545148909
1770451756841,-0.1142425537109375,-0.2655487060546875,-0.9579620361328124,-0.001799231627956,-0.0063638896681368,-0.0171534195542335
1770451756851,-0.1158447265625,-0.26348876953125,-0.9530792236328124,0.0066339340992271,0.0019622170366346,-0.0222935881465673
1770451756861,-0.1105804443359375,-0.26922607421875,-0.9577484130859376,0.009384180419147,0.0043888892978429,-0.0260089635848999
1770451756871,-0.1113739013671875,-0.2723541259765625,-0.9563140869140624,0.0096022933721542,0.0082882894203066,-0.032139029353857
1770451756882,-0.11114501953125,-0.274078369140625,-0.9566192626953124,0.0061194114387035,0.0057489657774567,-0.0307003874331712
1770451756892,-0.1058349609375,-0.270965576171875,-0.9562835693359376,0.0050621363334357,-0.0062557654455304,-0.0303203556686639
1770451756902,-0.1064910888671875,-0.2717437744140625,-0.9586029052734376,0.0023747407831251,-0.0159432794898748,-0.0313890799880027
1770451756912,-0.10772705078125,-0.2738800048828125,-0.95416259765625,-0.0016319850692525,-0.010505904443562,-0.0282052718102931
1770451756922,-0.1020660400390625,-0.2730712890625,-0.9515228271484376,-0.007226487621665,-0.0013725932221859,-0.0223628301173448
1770451756932,-0.09979248046875,-0.2757110595703125,-0.9502410888671876,-0.0133986296132206,0.0049111354164779,-0.014593057334423
1770451756942,-0.098876953125,-0.27508544921875,-0.9488983154296876,-0.0217604227364063,0.0043169842101633,-0.0057606836780905
1770451756952,-0.0993499755859375,-0.2716827392578125,-0.9498138427734376,-0.0263051073998212,0.0096781933680176,-0.0017443705582991
1770451756962,-0.10125732421875,-0.2687835693359375,-0.9539642333984376,-0.0236235707998275,0.0214536264538764,0.0025941852945834
1770451756972,-0.1025390625,-0.2732696533203125,-0.9564361572265624,-0.0184389278292655,0.0287288501858711,0.0029827402904629
1770451756982,-0.0997314453125,-0.2695465087890625,-0.9584197998046876,-0.0166484843939542,0.0208328440785408,0.0024064322933554
1770451756992,-0.1005706787109375,-0.266082763671875,-0.9562225341796876,-0.0063846623525023,0.0184461195021867,-0.0020839234348386
1770451757002,-0.103515625,-0.2703094482421875,-0.9663848876953124,0.006679474376142,0.0064523066394031,-0.0034975295420736
1770451757012,-0.103668212890625,-0.268890380859375,-0.9652099609375,0.016226639971137,-0.0052078114822506,-0.0095293233171105
1770451757022,-0.1082611083984375,-0.2711334228515625,-0.9644622802734376,0.0267791505903005,-0.0059138154610991,-0.0101074948906898
1770451757032,-0.1099395751953125,-0.2740936279296875,-0.9587249755859376,0.0253532938659191,-0.006957774516195,-0.0121184485033154
1770451757042,-0.10906982421875,-0.271820068359375,-0.9480133056640624,0.0168548803776502,0.002495115622878,-0.0137491011992096
1770451757052,-0.108154296875,-0.271881103515625,-0.9433135986328124,0.0043425504118204,0.0127040771767497,-0.013734720647335
1770451757062,-0.1030426025390625,-0.275634765625,-0.94427490234375,-0.0023957795929163,0.0129730561748147,-0.0081740403547883
1770451757072,-0.099273681640625,-0.274932861328125,-0.9482421875,-0.0102813998237252,0.0055114119313657,-0.0039223036728799
1770451757083,-0.1000823974609375,-0.274505615234375,-0.94866943359375,-0.0095117464661598,0.0084030721336603,-0.0015768576413393
1770451757093,-0.102142333984375,-0.2709808349609375,-0.954559326171875,-0.0035710327792912,0.0075263595208525,-0.0003451456723269
1770451757103,-0.103179931640625,-0.2681427001953125,-0.9590911865234376,0.0073729613795876,0.0063345949165523,-0.000328367750626
1770451757113,-0.104248046875,-0.2705535888671875,-0.963958740234375,0.0081862909719347,-0.0072280853055417,-0.0001118527652579
1770451757123,-0.104644775390625,-0.2695465087890625,-0.9518280029296876,0.0045252433046698,0.000222906586714,0.0008237157016992
1770451757133,-0.100555419921875,-0.2705841064453125,-0.9492034912109376,0.004381965380162,0.0181917864829301,0.0057654771953821
1770451757143,-0.0976409912109375,-0.274627685546875,-0.948150634765625,0.0002806971897371,0.0288044828921556,0.0081692468374967
1770451757153,-0.1013946533203125,-0.271484375,-0.9487152099609376,-0.0051529505290091,0.0317209102213382,0.0050339070148766
1770451757163,-0.1071929931640625,-0.2697906494140625,-0.9491119384765624,-0.011649465188384,0.0254318565130233,0.0017539578257128
1770451757173,-0.1072540283203125,-0.2689208984375,-0.9497222900390624,-0.0115253617987036,0.0195622500032186,0.000417051021941
1770451757183,-0.1070556640625,-0.2690582275390625,-0.9553375244140624,-0.012450810521841,0.0092179989442229,-0.0039185751229524
1770451757193,-0.1067047119140625,-0.2701416015625,-0.9537200927734376,-0.0063013052567839,0.0137488357722759,-0.0073718959465622
1770451757203,-0.104339599609375,-0.274169921875,-0.959625244140625,0.0038653120864182,0.0142519064247608,-0.0069628343917429
1770451757214,-0.1021728515625,-0.2767486572265625,-0.959381103515625,0.0017305220244452,0.0004988100845366,-0.0057138120755553
1770451757223,-0.1014251708984375,-0.27252197265625,-0.950531005859375,0.0013984258985146,0.0032157669775187,-0.0030389330349862
1770451757233,-0.1013336181640625,-0.2711944580078125,-0.9519805908203124,0.0009949569357559,-0.0028418591246008,-0.0026314693968743
1770451757243,-0.102447509765625,-0.2695159912109375,-0.9494476318359376,-0.0040266993455588,-0.0052632051520049,-0.0030011162161827
1770451757253,-0.1036834716796875,-0.2695770263671875,-0.950408935546875,-0.0025987126864492,0.0030402645934373,-0.0036607813090085
1770451757263,-0.104248046875,-0.2700653076171875,-0.95196533203125,-0.0032850091811269,0.0113274892792105,-0.0089303776621818
1770451757273,-0.10418701171875,-0.270111083984375,-0.9519500732421876,-0.0080952104181051,0.0086057391017675,-0.0093607446178793
1770451757283,-0.1020050048828125,-0.271942138671875,-0.9499359130859376,-0.0014503574930131,0.0161771047860384,-0.0064749433659017
1770451757293,-0.102264404296875,-0.2733154296875,-0.9585113525390624,-0.0012239888310432,0.0047161919064819,-0.0125842345878481
1770451757304,-0.1093292236328125,-0.2708587646484375,-0.9581298828125,0.0078126490116119,-0.0021411816123872,-0.0149784171953797
1770451757315,-0.10614013671875,-0.271453857421875,-0.9622039794921876,0.0062176822684705,-0.0085186529904603,-0.0142412539571523
1770451757324,-0.1012725830078125,-0.274322509765625,-0.9551239013671876,0.0041830269619822,-0.0109634352847933,-0.0123176528140902
1770451757334,-0.1004791259765625,-0.2693634033203125,-0.950439453125,0.0004484763194341,-0.0093634082004427,-0.0108340056613087
1770451757344,-0.1020660400390625,-0.2688140869140625,-0.947235107421875,-0.0098204063251614,-0.0052831787616014,-0.011281150393188
1770451757354,-0.1011505126953125,-0.2669677734375,-0.9449615478515624,-0.0163510106503963,0.004055461846292,-0.006752444896847
1770451757364,-0.096649169921875,-0.271575927734375,-0.9472198486328124,-0.0145347341895103,0.0072464612312614,-0.0024554345291107
1770451757374,-0.0958709716796875,-0.2710113525390625,-0.9544677734375,-0.0150953298434615,0.0059231366030871,-0.0025824673939496
1770451757384,-0.0966339111328125,-0.2729949951171875,-0.9520111083984376,-0.0162865612655878,0.0064086308702826,0.0014178669080138
1770451757394,-0.09765625,-0.2703704833984375,-0.95062255859375,-0.021335382014513,0.0064965151250362,0.0066901268437504
1770451757404,-0.099517822265625,-0.27117919921875,-0.9512786865234376,-0.0190863423049449,0.0150266196578741,0.0040426785126328
1770451757415,-0.1035308837890625,-0.2698974609375,-0.9538421630859376,-0.0181595627218484,0.0210520215332508,0.0040360204875469
1770451757424,-0.1014251708984375,-0.2702178955078125,-0.952728271484375,-0.0191625095903873,0.0203606653958559,0.007578557357192
1770451757434,-0.1021728515625,-0.26861572265625,-0.9579620361328124,-0.0108217550441622,0.0033782199025154,0.0045883604325354
1770451757444,-0.1050262451171875,-0.2695159912109375,-0.96563720703125,-0.0054605454206466,-0.0081665832549333,0.0009076052810996
1770451757454,-0.109130859375,-0.2712249755859375,-0.9659271240234376,0.0013219931861385,-0.0067316722124814,-0.002028263406828
1770451757464,-0.1048431396484375,-0.2752685546875,-0.9588623046875,0.0058722700923681,-0.0015270565636456,0.0061489725485444
1770451757474,-0.099609375,-0.27911376953125,-0.9564666748046876,0.004546548705548,-0.0064789382740855,0.0105860652402043
1770451757485,-0.097412109375,-0.2720489501953125,-0.9593353271484376,0.0091189295053482,-0.0059098205529153,0.0125895617529749
1770451757494,-0.097015380859375,-0.27685546875,-0.960662841796875,0.0124713173136115,-0.0099831251427531,0.0039739687927067
1770451757505,-0.1047515869140625,-0.2473907470703125,-0.951873779296875,0.0197939444333314,0.0100363884121179,-0.0223588347434997
1770451757515,-0.113037109375,-0.2624969482421875,-0.9561767578125,0.0228978581726551,-0.0086699211969971,-0.0110542485490441
1770451757524,-0.09893798828125,-0.2846221923828125,-0.9551544189453124,0.0164335686713457,-0.0230794865638017,0.0015843145083636
1770451757535,-0.0933837890625,-0.2807159423828125,-0.94903564453125,0.0108811436221003,-0.0135360490530729,0.0088867023587226
1770451757545,-0.09649658203125,-0.27862548828125,-0.9490814208984376,0.005772934295237,-0.0069857379421591,0.0134018259122967
1770451757555,-0.1004638671875,-0.2761688232421875,-0.945159912109375,-0.001978195970878,0.0143227465450763,0.0112987272441387
1770451757566,-0.0973358154296875,-0.271636962890625,-0.9427947998046876,-0.0083905551582574,0.0336620882153511,0.0032357405871152
1770451757575,-0.0988616943359375,-0.26190185546875,-0.94268798828125,-0.0195047259330749,0.03345862403512,-0.0088198566809296
1770451757585,-0.111602783203125,-0.2590179443359375,-0.9454498291015624,-0.028189294040203,0.018989935517311,-0.0159680470824241
1770451757595,-0.1171875,-0.2609100341796875,-0.9505615234375,-0.0308764223009347,0.0084097301587462,-0.0144092990085482
1770451757605,-0.1124114990234375,-0.2647857666015625,-0.9557952880859376,-0.0307640377432107,-0.0018490327056497,-0.0117994016036391
1770451757616,-0.107757568359375,-0.272796630859375,-0.9569854736328124,-0.0343079045414924,-0.0053846454247832,-0.003606985323131
1770451757625,-0.0984954833984375,-0.2746429443359375,-0.954071044921875,-0.0332295931875705,0.0083114597946405,-0.0034988611005246
1770451757635,-0.0953216552734375,-0.2763214111328125,-0.9586029052734376,-0.0274326894432306,0.019408319145441,-0.0016434367280453
1770451757645,-0.0931854248046875,-0.2770233154296875,-0.9609222412109376,-0.0160942804068326,0.0236581917852163,0.000876446312759
1770451757655,-0.095123291015625,-0.275115966796875,-0.9662322998046876,-0.006385195069015,0.0124793061986565,-0.0010620686225593
1770451757665,-0.1005401611328125,-0.2744293212890625,-0.96728515625,0.0066089006140828,0.0032352081034332,-0.0018807243322953
1770451757675,-0.1062164306640625,-0.2736358642578125,-0.9628753662109376,0.0147802773863077,0.0026711504906415,0.0001182443520519
1770451757685,-0.10565185546875,-0.26922607421875,-0.9575347900390624,0.0223119631409645,-0.0014317154418677,-0.0066299396567046
1770451757695,-0.111785888671875,-0.269622802734375,-0.95703125,0.0207249857485294,-0.0070600397884845,-0.0135738654062151
1770451757705,-0.110931396484375,-0.2694244384765625,-0.9533843994140624,0.0135115478187799,-0.0164191871881485,-0.0176921784877777
1770451757715,-0.1046295166015625,-0.27178955078125,-0.9451446533203124,-0.0017188041238114,-0.0178788658231496,-0.0160506051033735
1770451757725,-0.1020050048828125,-0.2711029052734375,-0.937713623046875,-0.016865799203515,-0.0139275332912802,-0.0112822158262133
1770451757736,-0.1001129150390625,-0.272064208984375,-0.9362335205078124,-0.0329070836305618,0.0031185615807771,-0.0063961138948798
1770451757745,-0.0965118408203125,-0.2744598388671875,-0.937774658203125,-0.0425589121878147,0.0128971561789512,0.0024985778145492
1770451757756,-0.09271240234375,-0.2718505859375,-0.9459228515625,-0.0468348823487758,0.0125890290364623,0.0077974693849682
1770451757766,-0.097442626953125,-0.2696685791015625,-0.9555511474609376,-0.040654219686985,0.0083415526896715,0.008944759145379
1770451757776,-0.1006622314453125,-0.269012451171875,-0.96533203125,-0.0357521399855613,-0.0008282430935651,0.0059830574318766
1770451757786,-0.1048736572265625,-0.2689666748046875,-0.963165283203125,-0.0284412279725074,0.0064757424406707,0.0090475566685199
1770451757796,-0.102386474609375,-0.27734375,-0.9612579345703124,-0.0297456458210945,0.0139626869931817,0.016195748001337
1770451757806,-0.0978851318359375,-0.2704620361328125,-0.958526611328125,-0.0209124721586704,0.0169025510549545,0.0141331292688846
1770451757816,-0.1016082763671875,-0.274932861328125,-0.966217041015625,-0.0077900122851133,0.0135938394814729,0.013670272193849
1770451757826,-0.102874755859375,-0.27642822265625,-0.9725494384765624,-0.0020285297650843,-0.0015986956423148,0.0103519735857844
1770451757836,-0.106719970703125,-0.2691802978515625,-0.9673309326171876,0.0077031934633851,-0.0039457394741475,0.0042597260326147
1770451757846,-0.106292724609375,-0.269012451171875,-0.9675750732421876,0.0145874647423625,-0.0052429651841521,-0.0042536007240414
1770451757856,-0.1099395751953125,-0.26385498046875,-0.9600982666015624,0.0112198973074555,-0.0081748394295573,-0.008077367208898
1770451757866,-0.1062774658203125,-0.263763427734375,-0.9505157470703124,0.0158037301152944,0.0001094559193006,-0.003107376396656
1770451757876,-0.09979248046875,-0.2708282470703125,-0.9542388916015624,0.0142638906836509,-0.0028170917648822,0.000224238159717
1770451757886,-0.0977935791015625,-0.2721710205078125,-0.94757080078125,0.0087175918743014,0.0007443535141646,0.0059127500280737
1770451757896,-0.0966339111328125,-0.2726898193359375,-0.9498291015625,-0.0006466155173256,-0.000157392816618,0.0116619821637868
1770451757906,-0.0984039306640625,-0.2742919921875,-0.9417572021484376,-0.0175845865160226,0.0039782300591468,0.0139957107603549
1770451757916,-0.099273681640625,-0.27301025390625,-0.938720703125,-0.033940389752388,0.0131456293165683,0.0174695383757352
1770451757926,-0.0969390869140625,-0.271209716796875,-0.939727783203125,-0.0378709509968757,0.0189992580562829,0.0200067311525344
1770451757936,-0.1029510498046875,-0.27276611328125,-0.9513397216796876,-0.0351337529718875,0.0162170529365539,0.0173523593693971
1770451757946,-0.1069183349609375,-0.270721435546875,-0.9630279541015624,-0.0271120443940162,0.0062957126647233,0.0110590429976582
1770451757957,-0.108306884765625,-0.266510009765625,-0.9649505615234376,-0.0139150163158774,-0.0044823666103184,0.0097684748470783
1770451757967,-0.106597900390625,-0.2689208984375,-0.969390869140625,0.0012982910266146,-0.0085303708910942,0.0048378985375165
1770451757977,-0.1091766357421875,-0.2691192626953125,-0.9710693359375,0.0124252438545227,-0.0066749467514455,-0.0029752836562693
1770451757987,-0.1096343994140625,-0.2698822021484375,-0.966094970703125,0.0201763752847909,-0.0006255765329115,-0.004561994690448
1770451757997,-0.10406494140625,-0.26953125,-0.9585113525390624,0.0176096204668283,-0.0010229201288893,-0.0058541605249047
1770451758007,-0.1031494140625,-0.2684173583984375,-0.951019287109375,0.0144324684515595,-0.004554271697998,-0.007921839132905
1770451758017,-0.10723876953125,-0.2709503173828125,-0.9525604248046876,0.0050671966746449,-0.0074027888476848,-0.0086965523660182
1770451758027,-0.10595703125,-0.2709503173828125,-0.9429931640625,-0.005395564250648,0.0086118644103407,-0.0079300943762063
1770451758037,-0.10028076171875,-0.269866943359375,-0.940948486328125,-0.0130241895094513,0.0116928750649094,-0.0022578279022127
1770451758048,-0.0985565185546875,-0.2710113525390625,-0.9455718994140624,-0.0131909027695655,0.003155313199386,0.0044203149154782
1770451758057,-0.099029541015625,-0.27154541015625,-0.955047607421875,-0.0139738721773028,-0.0039484025910496,-0.0004024036461487
1770451758067,-0.1060028076171875,-0.2683563232421875,-0.95513916015625,-0.0171733945608139,-0.0106475846841931,0.0010687265312299
1770451758077,-0.1006011962890625,-0.2653656005859375,-0.951568603515625,-0.0159483402967453,-0.0062842611223459,0.0043713124468922
1770451758087,-0.0989532470703125,-0.268585205078125,-0.95367431640625,-0.018367288634181,0.0081146517768502,0.0029792783316224
1770451758097,-0.101959228515625,-0.2681732177734375,-0.9518280029296876,-0.0151030523702502,0.0250291861593723,0.0014932344201952
1770451758107,-0.1042938232421875,-0.2675323486328125,-0.957763671875,-0.0114673050120472,0.014896391890943,0.0027188211679458
1770451758118,-0.1027984619140625,-0.269134521484375,-0.9582977294921876,-0.0093980291858315,0.0032929987646639,0.0057460363022983
1770451758127,-0.1009674072265625,-0.2680206298828125,-0.962188720703125,-0.0082278363406658,-0.0152508579194545,0.0062853265553712
1770451758137,-0.1025848388671875,-0.26690673828125,-0.9581451416015624,-0.0062248725444078,-0.0112156365066766,0.0050970241427421
1770451758147,-0.10418701171875,-0.2675323486328125,-0.959808349609375,-0.0049500176683068,0.0035667715128511,0.008150071837008
1770451758157,-0.1002655029296875,-0.2679443359375,-0.95831298828125,0.0001150485550169,0.0053721284493803,0.0061630872078239
1770451758168,-0.1014404296875,-0.2700347900390625,-0.960540771484375,0.0056927730329334,0.0001970739249372,0.0066073024645447
1770451758177,-0.1013641357421875,-0.2691802978515625,-0.9620208740234376,0.0080331591889262,-0.0075977323576807,0.0084075992926955
1770451758188,-0.102508544921875,-0.2679901123046875,-0.9591064453125,0.0084797712042927,-0.006425142288208,0.0054951664060354
1770451758198,-0.1071929931640625,-0.2676544189453125,-0.9591827392578124,0.0093610109761357,-0.0011147991754114,0.0002282329078298
1770451758208,-0.1073150634765625,-0.2687225341796875,-0.955169677734375,0.0069929282180964,0.0057923751883208,-9.321063771494664e-06
1770451758218,-0.1031951904296875,-0.268524169921875,-0.9522247314453124,0.0048786448314785,0.0006359628750942,0.0022064289078116
1770451758228,-0.10284423828125,-0.2686004638671875,-0.953948974609375,-0.0012719257501885,-0.0056666741147637,0.0013225257862359
1770451758238,-0.1049652099609375,-0.266571044921875,-0.95050048828125,-0.0006447513005696,0.0031057784799486,0.0027137610595673
1770451758248,-0.1012115478515625,-0.27166748046875,-0.9542236328125,0.00379393924959,0.0038416099268943,0.0078478027135133
1770451758258,-0.0973968505859375,-0.271697998046875,-0.9534912109375,-0.0024341291282325,0.0054813181050121,0.0066826702095568
1770451758268,-0.0991973876953125,-0.267425537109375,-0.9458160400390624,-0.0096062887459993,0.0106065720319747,0.0114718321710824
1770451758278,-0.100372314453125,-0.2681884765625,-0.9432220458984376,-0.0113993948325514,0.0145280761644244,0.0113072488456964
1770451758288,-0.1031036376953125,-0.26922607421875,-0.9548187255859376,-0.0136457709595561,0.0049574743025004,0.0081314295530319
1770451758298,-0.106353759765625,-0.267547607421875,-0.955078125,-0.0140891876071691,-0.0032495891209691,0.0086001455783844
1770451758308,-0.103729248046875,-0.267059326171875,-0.957672119140625,-0.004283694550395,-0.0127600040286779,0.0094422372058033
1770451758318,-0.1049041748046875,-0.270721435546875,-0.9628448486328124,0.0046101980842649,-0.0277290996164083,0.0093671362847089
1770451758328,-0.1086273193359375,-0.2740478515625,-0.9586944580078124,0.0064973141998052,-0.0180668849498033,0.0122974123805761
1770451758338,-0.106414794921875,-0.2717742919921875,-0.9552764892578124,0.002454369328916,-0.0094760600477457,0.0125871645286679
1770451758349,-0.1048736572265625,-0.27386474609375,-0.9552154541015624,0.00696523161605,-0.000834634702187,0.0150260869413614
1770451758358,-0.1033782958984375,-0.270416259765625,-0.9604949951171876,0.0149698946624994,0.0079934783279895,-0.00631994754076
1770451758369,-0.1168670654296875,-0.25189208984375,-0.9580841064453124,0.0186663623899221,0.0091785844415426,-0.0210235267877578
1770451758378,-0.1148681640625,-0.2691192626953125,-0.956451416015625,0.0093463640660047,-0.0081133199855685,-0.0137815922498703
1770451758389,-0.1053466796875,-0.27801513671875,-0.9490203857421876,-0.001202417188324,-0.0037577203474938,-0.0083026709035038
1770451758399,-0.102783203125,-0.2798614501953125,-0.947540283203125,-0.0038077877834439,0.0107008479535579,0.0015172028215602
1770451758409,-0.101318359375,-0.2810821533203125,-0.9509124755859376,-0.0085894931107759,0.0095474328845739,0.0078129153698682
1770451758419,-0.0968017578125,-0.2717132568359375,-0.9476470947265624,-0.0107889985665678,0.0107423923909664,0.0063018379732966
1770451758429,-0.0991363525390625,-0.263458251953125,-0.95050048828125,-0.009826797991991,0.0108095044270157,-0.0078603196889162
1770451758439,-0.1045074462890625,-0.25787353515625,-0.953765869140625,-0.0087042758241295,0.0058922437019646,-0.018695656210184
1770451758449,-0.1094512939453125,-0.257568359375,-0.9532470703125,-0.0116244321689009,-0.0045028729364275,-0.0183555707335472
1770451758459,-0.105377197265625,-0.261077880859375,-0.95404052734375,-0.0136401783674955,-0.0039345542900264,-0.015820775181055
1770451758469,-0.1070709228515625,-0.268585205078125,-0.9558563232421876,-0.0192466657608747,-0.0049737198278307,-0.0048717204481363
1770451758479,-0.103759765625,-0.2723388671875,-0.9542694091796876,-0.0208070110529661,0.0093096122145652,0.002901780186221
1770451758489,-0.09954833984375,-0.278289794921875,-0.9629669189453124,-0.0132361771538853,0.019891683012247,0.0057745319791138
1770451758499,-0.098876953125,-0.2777252197265625,-0.9654083251953124,-0.0060443105176091,0.0207084733992815,-0.0026397253386676
1770451758509,-0.107086181640625,-0.2723388671875,-0.96783447265625,0.0107565075159072,0.0126654617488384,-0.0130715938284993
1770451758519,-0.1087493896484375,-0.2700042724609375,-0.974578857421875,0.029453495517373,-0.0083053344860672,-0.0179758053272962
1770451758529,-0.1106719970703125,-0.269195556640625,-0.973419189453125,0.0411152131855487,-0.0369028896093368,-0.0194277595728635
1770451758539,-0.10845947265625,-0.2660064697265625,-0.9656829833984376,0.0516117960214614,-0.0413687452673912,-0.019095929339528
1770451758549,-0.1056060791015625,-0.267974853515625,-0.95343017578125,0.0451773330569267,-0.0311925411224365,-0.0185909941792488
1770451758559,-0.105010986328125,-0.2677459716796875,-0.9420623779296876,0.0351028591394424,-0.0132976956665515,-0.0220017060637474
1770451758569,-0.10565185546875,-0.26806640625,-0.936126708984375,0.015982162207365,0.000291083502816,-0.0199923496693372
1770451758579,-0.1008148193359375,-0.2683563232421875,-0.9311370849609376,0.000390685716411,0.0095857819542288,-0.0146290101110935
1770451758589,-0.0966796875,-0.275115966796875,-0.93658447265625,-0.0169318448752164,0.011995144188404,-0.0112625081092119
1770451758600,-0.0968017578125,-0.27398681640625,-0.937744140625,-0.0299323331564664,0.0148439267650246,-0.0039289616979658
1770451758610,-0.0971221923828125,-0.26983642578125,-0.9417572021484376,-0.0423309467732906,0.0087633980438113,0.0044911550357937
1770451758620,-0.097259521484375,-0.2701873779296875,-0.945098876953125,-0.0376536361873149,0.0193345490843057,0.0129152657464146
1770451758630,-0.0955657958984375,-0.2756805419921875,-0.96099853515625,-0.0389716327190399,0.009115201421082,0.0173739306628704
1770451758640,-0.0995330810546875,-0.27056884765625,-0.9566497802734376,-0.0388158373534679,0.0007930893916636,0.0174271930009126
1770451758650,-0.099853515625,-0.27056884765625,-0.960113525390625,-0.0298194140195846,0.0037124464288353,0.022966569289565
1770451758660,-0.0994415283203125,-0.273773193359375,-0.9680938720703124,-0.0189182981848716,-0.0077197048813104,0.0214751977473497
1770451758670,-0.105682373046875,-0.268463134765625,-0.973968505859375,-0.00027563716867,-0.011568771675229,0.016170447692275
1770451758680,-0.1124420166015625,-0.266876220703125,-0.97802734375,0.0191494598984718,-0.0149043807759881,0.0135283255949616
1770451758690,-0.110260009765625,-0.272735595703125,-0.97735595703125,0.0326045490801334,-0.0252683386206626,0.0053521548397839
1770451758700,-0.11065673828125,-0.268402099609375,-0.969696044921875,0.0413676798343658,-0.0225479193031787,-0.0063756075687706
1770451758710,-0.1148529052734375,-0.2723846435546875,-0.9639434814453124,0.0485592782497406,-0.0170807167887687,-0.0101189464330673
1770451758720,-0.1089324951171875,-0.27569580078125,-0.9582061767578124,0.0458412580192089,-0.0251152068376541,-0.0112473284825682
1770451758730,-0.106658935546875,-0.2724456787109375,-0.9515533447265624,0.0440857037901878,-0.0302031766623258,-0.0142697496339678
1770451758740,-0.1096649169921875,-0.2723846435546875,-0.9512176513671876,0.0405969619750976,-0.0316791012883186,-0.0096052233129739
1770451758750,-0.1059112548828125,-0.27227783203125,-0.9447021484375,0.0325922966003418,-0.0302873309701681,-0.0033680999185889
1770451758760,-0.09930419921875,-0.2711944580078125,-0.939697265625,0.0201819669455289,-0.0361191220581531,0.0032828785479068
1770451758770,-0.0997467041015625,-0.27252197265625,-0.9366912841796876,0.0071873390115797,-0.0333209373056888,0.0055809202603995
1770451758780,-0.1055755615234375,-0.271759033203125,-0.93505859375,-0.0125354994088411,-0.0072997245006263,0.0101242726668715
1770451758790,-0.102630615234375,-0.273162841796875,-0.9317626953125,-0.0258720777928829,0.0127725200727581,0.0139040974900126
1770451758801,-0.1029815673828125,-0.2772064208984375,-0.9388275146484376,-0.0392454080283641,0.0170314479619264,0.0171249248087406
1770451758810,-0.10235595703125,-0.2784423828125,-0.943450927734375,-0.0516024753451347,0.020659739151597,0.0186176262795925
1770451758820,-0.1025390625,-0.2757568359375,-0.9460601806640624,-0.0532360561192035,0.0295424461364746,0.0236794967204332
1770451758831,-0.105621337890625,-0.273895263671875,-0.954376220703125,-0.0489635467529296,0.0170879065990448,0.0210267212241888
1770451758841,-0.110443115234375,-0.2717132568359375,-0.9626007080078124,-0.0390611141920089,0.0018663433147594,0.0203441530466079
1770451758851,-0.111541748046875,-0.2725067138671875,-0.9659576416015624,-0.0275517329573631,0.0025363946333527,0.0174879133701324
1770451758861,-0.1116943359375,-0.273529052734375,-0.96649169921875,-0.01081483066082,0.0058530955575406,0.0104337325319647
1770451758871,-0.111663818359375,-0.2724151611328125,-0.9666290283203124,-0.003534014802426,0.0011243865592405,0.0086731165647506
1770451758881,-0.1136627197265625,-0.2675323486328125,-0.96026611328125,0.0009914948605,-0.0033068470656871,0.0008301073103211
1770451758891,-0.1148834228515625,-0.2662811279296875,-0.957550048828125,0.002084988867864,-0.0142788039520382,-0.0024146882351487
1770451758901,-0.1113433837890625,-0.270538330078125,-0.9562835693359376,-5.379585491027683e-05,-0.0216973051428794,-0.0024168186355382
1770451758911,-0.11138916015625,-0.270782470703125,-0.9521942138671876,-0.004350806120783,-0.0159480739384889,-0.0050762514583766
1770451758921,-0.110321044921875,-0.27178955078125,-0.9455718994140624,-0.005315136630088,-0.0034282873384654,-0.0076499301940202
1770451758931,-0.1077728271484375,-0.276763916015625,-0.951416015625,-0.0087524792179465,0.0063034361228346,-0.0079002669081091
1770451758941,-0.107513427734375,-0.2757415771484375,-0.95123291015625,-0.0144897270947694,0.0102031026035547,-0.0050874366424977
1770451758951,-0.1043701171875,-0.269073486328125,-0.9506988525390624,-0.014028200879693,0.0090883038938045,-0.0010122675448656
1770451758961,-0.105316162109375,-0.271453857421875,-0.9576873779296876,-0.0094928378239274,-0.0024767396971583,-0.0029824741650372
1770451758971,-0.1093902587890625,-0.2740020751953125,-0.9627685546875,0.0021797972731292,-0.0024940504226833,-0.002886866685003
1770451758981,-0.10711669921875,-0.2734832763671875,-0.963165283203125,0.0049694585613906,-0.0118276309221982,6.870955257909372e-05
1770451758991,-0.107818603515625,-0.271697998046875,-0.958648681640625,0.0100451773032546,-0.0158213078975677,-0.0046253781765699
1770451759001,-0.1135711669921875,-0.27471923828125,-0.9612579345703124,0.0109527828171849,-0.0075926720164716,-0.0094086816534399
1770451759011,-0.1120147705078125,-0.2711944580078125,-0.954803466796875,0.0081777684390544,-0.002567553659901,-0.0053124735131859
1770451759022,-0.10614013671875,-0.269195556640625,-0.9489593505859376,0.0053207296878099,-0.000216514992644,-0.0043281693942844
1770451759032,-0.105926513671875,-0.2708282470703125,-0.951202392578125,0.0007355650886893,-0.0091090761125087,-0.0046541402116417
