timestamp_ms,acc_x,acc_y,acc_z,gyro_x,gyro_y,gyro_z
1769249287868,-0.0865936279296875,-0.156494140625,-0.9804534912109376,-0.0516924895346164,0.0768428519368171,0.0521625354886055
1769249287878,-0.0883636474609375,-0.157989501953125,-0.9841766357421876,-0.0432731732726097,0.067179836332798,0.0713671222329139
1769249287886,-0.0968017578125,-0.1429595947265625,-0.98431396484375,-0.0299347285181283,0.0723194703459739,0.077750988304615
1769249287896,-0.1084747314453125,-0.1730194091796875,-0.9789276123046876,-0.041200965642929,0.0177358537912368,0.0810391902923584
1769249287906,-0.097381591796875,-0.2311859130859375,-0.9903411865234376,-0.0405349098145961,0.042484875768423,0.0976911410689354
1769249287916,-0.081146240234375,-0.0912017822265625,-0.994720458984375,-0.0437160544097423,0.0773227512836456,0.0888169556856155
1769249287926,-0.1280364990234375,-0.0174713134765625,-0.9846038818359376,0.055470447987318,0.2324710637331009,0.0275930110365152
1769249287936,-0.1779327392578125,-0.1396484375,-0.98681640625,-0.0096869822591543,-0.0240483451634645,-0.0286795813590288
1769249287946,-0.133087158203125,-0.2534027099609375,-0.9619903564453124,0.0068922606296837,0.0264332052320241,-0.0142540372908115
1769249287957,-0.0855865478515625,-0.089141845703125,-0.99493408203125,0.0355705097317695,0.142482578754425,-0.0187995210289955
1769249287966,-0.1288909912109375,-0.0812225341796875,-0.97296142578125,0.048687644302845,0.1079573556780815,-0.0622271560132503
1769249287976,-0.161041259765625,-0.16326904296875,-0.9623870849609376,0.0352421440184116,0.0292806569486856,-0.0825225710868835
1769249287987,-0.128570556640625,-0.1552581787109375,-0.963226318359375,0.0258995071053504,-0.0164673905819654,-0.0897993966937065
1769249287997,-0.11065673828125,-0.1728057861328125,-0.9816436767578124,0.027899807319045,-0.0350258946418762,-0.1062595918774604
1769249288007,-0.1069488525390625,-0.2139434814453125,-0.9932098388671876,0.0144668240100145,-0.0265836734324693,-0.1114234626293182
1769249288017,-0.088104248046875,-0.2267608642578125,-0.9903564453125,-0.0206498838961124,-0.0157589893788099,-0.1081541702151298
1769249288027,-0.072357177734375,-0.2078399658203125,-0.9861602783203124,-0.0540824085474014,0.0038903458043932,-0.0909727811813354
1769249288037,-0.0680084228515625,-0.14630126953125,-0.992584228515625,-0.0715735182166099,0.0243404936045408,-0.0744523927569389
1769249288047,-0.085205078125,-0.1102447509765625,-0.9894256591796876,-0.0657542422413826,0.0213873144239187,-0.0713306367397308
1769249288057,-0.1120452880859375,-0.1130828857421875,-0.9975738525390624,-0.0498530454933643,-0.0015795208746567,-0.0699407383799552
1769249288067,-0.114990234375,-0.1465911865234375,-1.0071258544921875,-0.0426169671118259,-0.0077681746333837,-0.0605562888085842
1769249288077,-0.0947265625,-0.1769561767578125,-0.99591064453125,-0.0299347285181283,0.0060496367514133,-0.0574502423405647
1769249288087,-0.0814971923828125,-0.16082763671875,-0.9894256591796876,-0.0116308229044079,0.0445072799921035,-0.0522653348743915
1769249288097,-0.077362060546875,-0.1450347900390625,-0.9804534912109376,0.0061830612830817,0.0464697629213333,-0.0577165596187114
1769249288107,-0.0842437744140625,-0.16290283203125,-0.9772491455078124,0.0358560010790824,0.0401058755815029,-0.0549761652946472
1769249288117,-0.083526611328125,-0.1610260009765625,-0.981842041015625,0.0620868057012558,0.0245969556272029,-0.0431725047528743
1769249288127,-0.078369140625,-0.1590118408203125,-0.979034423828125,0.0774383321404457,-0.0016242619603872,-0.0219969116151332
1769249288137,-0.070068359375,-0.1626434326171875,-0.98211669921875,0.0894840732216835,-0.0169470254331827,-0.0023715449497103
1769249288147,-0.0714111328125,-0.16766357421875,-0.9837646484375,0.090758666396141,-0.0201137904077768,0.0091689974069595
1769249288157,-0.0780029296875,-0.1662139892578125,-0.9761810302734376,0.0846810638904571,-0.0192634426057338,0.0146388635039329
1769249288167,-0.08233642578125,-0.16845703125,-0.97113037109375,0.071433700621128,0.0018943065078929,0.0178205426782369
1769249288177,-0.084075927734375,-0.1641693115234375,-0.9711151123046876,0.057338923215866,0.03806908801198,0.0195529293268919
1769249288187,-0.08099365234375,-0.1573486328125,-0.980926513671875,0.0576824694871902,0.0368315167725086,0.0243029426783323
1769249288198,-0.082305908203125,-0.1497039794921875,-0.986907958984375,0.0583205632865428,0.0385604426264762,0.0246568769216537
1769249288208,-0.093414306640625,-0.145904541015625,-0.9907379150390624,0.0530166141688823,0.0295238029211759,0.0202205833047628
1769249288218,-0.098388671875,-0.1480560302734375,-0.9847869873046876,0.0405237227678298,0.0239514056593179,0.0163978822529315
1769249288228,-0.1019287109375,-0.150787353515625,-0.9755096435546876,0.0101730087772011,0.041186586022377,0.0102462461218237
1769249288238,-0.1009521484375,-0.151885986328125,-0.9605865478515624,-0.0227164980024099,0.0302106328308582,0.0005829659639857
1769249288248,-0.097564697265625,-0.153533935546875,-0.9441375732421876,-0.0508016608655452,0.037497840821743,-0.003132942598313
1769249288258,-0.0972747802734375,-0.1538543701171875,-0.950042724609375,-0.0826567932963371,0.0034485273063182,-0.0116273611783981
1769249288268,-0.0942535400390625,-0.19091796875,-0.9618682861328124,-0.1166882663965225,-0.0732268095016479,-0.007350324653089
1769249288278,-0.0749359130859375,-0.1947021484375,-0.9918060302734376,-0.082646943628788,0.0209052823483943,-0.0046831686049699
1769249288288,-0.08758544921875,-0.0456695556640625,-1.0042266845703125,-0.0476852320134639,0.1166864037513732,-0.046314500272274
1769249288298,-0.1490631103515625,-0.101226806640625,-1.0043487548828125,-0.035319373011589,0.0820386782288551,-0.1019532606005668
1769249288308,-0.1285400390625,-0.26495361328125,-0.977325439453125,-0.0725168138742446,-0.0470394156873226,-0.0808040350675582
1769249288318,-0.0374603271484375,-0.1904144287109375,-0.98822021484375,-0.0150228915736079,0.1069890335202217,-0.0487323850393295
1769249288328,-0.0516815185546875,-0.0596466064453125,-0.9818572998046876,0.0221977140754461,0.1534207165241241,-0.0663811564445495
1769249288338,-0.13360595703125,-0.1280670166015625,-0.9566802978515624,0.0203092657029628,0.0828216448426246,-0.0785102546215057
1769249288348,-0.123382568359375,-0.1723480224609375,-0.97357177734375,0.0165350344032049,-0.006330067757517,-0.0412675440311431
1769249288358,-0.071685791015625,-0.1667327880859375,-0.9890899658203124,0.0107642309740185,-0.1006017103791236,-0.0250033531337976
1769249288368,-0.0752410888671875,-0.212432861328125,-0.9948577880859376,0.0030072415247559,-0.1128205582499504,-0.0226757507771253
1769249288379,-0.0764312744140625,-0.223052978515625,-0.992919921875,-0.0169901680201292,-0.0807723402976989,-0.0147118344902992
1769249288388,-0.063079833984375,-0.2068328857421875,-0.990447998046875,-0.0392187759280204,-0.0405559465289115,0.0023699470330029
1769249288398,-0.0630035400390625,-0.1610107421875,-0.9945068359375,-0.0424822121858596,0.038895733654499,0.0135256620123982
1769249288409,-0.079376220703125,-0.09747314453125,-1.0027008056640625,-0.0299698822200298,0.1129510551691055,-0.0029393308795988
1769249288419,-0.1138153076171875,-0.10687255859375,-1.0120849609375,-0.0045132590457797,0.1076305881142616,-0.0212248619645833
1769249288429,-0.1151885986328125,-0.13458251953125,-0.998382568359375,0.0088867023587226,0.0506916716694831,-0.0204000808298587
1769249288439,-0.1012420654296875,-0.17120361328125,-0.98992919921875,0.0176013633608818,0.0123844975605607,-0.0154665745794773
1769249288449,-0.0851898193359375,-0.1981964111328125,-0.995513916015625,0.0226302109658718,0.0270153731107711,-0.0120369549840688
1769249288459,-0.0783538818359375,-0.173553466796875,-0.98248291015625,0.0252622123807668,0.0325510203838348,-0.0205390974879264
1769249288469,-0.086395263671875,-0.161468505859375,-0.9698028564453124,0.0364477559924125,0.0165291763842105,-0.0250254590064287
1769249288479,-0.0850982666015625,-0.1551971435546875,-0.9751129150390624,0.0637443587183952,0.0227319430559873,-0.0186336059123277
1769249288489,-0.08074951171875,-0.14691162109375,-0.9826507568359376,0.0871836394071579,-0.0032799490727484,-0.016784306615591
1769249288499,-0.082763671875,-0.1612548828125,-0.9814910888671876,0.0906974151730537,-0.0336905866861343,-0.0119514679536223
1769249288509,-0.08056640625,-0.1630401611328125,-0.9739532470703124,0.083669863641262,-0.0149576440453529,-0.008088020607829
1769249288519,-0.0795745849609375,-0.165435791015625,-0.9722747802734376,0.0766202062368393,-0.0096840523183345,-0.0133392410352826
1769249288529,-0.08740234375,-0.1699676513671875,-0.968017578125,0.0690672174096107,-0.0150961289182305,-0.0195569228380918
1769249288539,-0.091461181640625,-0.17095947265625,-0.9698638916015624,0.0600638687610626,-0.0159981418401002,-0.01455311011523
1769249288549,-0.0838470458984375,-0.165618896484375,-0.969573974609375,0.0453355237841606,-0.0274364184588193,-0.0056871804408729
1769249288559,-0.081268310546875,-0.15997314453125,-0.96917724609375,0.0348615758121013,-0.0223385952413082,0.0013680658303201
1769249288569,-0.083251953125,-0.1676177978515625,-0.9778594970703124,0.0338692851364612,-0.0174522269517183,0.0063889236189424
1769249288579,-0.084991455078125,-0.1706085205078125,-0.985748291015625,0.0308953318744897,-0.030515031889081,0.0119107216596603
1769249288590,-0.08868408203125,-0.17364501953125,-0.9741973876953124,0.0207090061157941,-0.0509966053068637,0.020085560157895
1769249288599,-0.0867156982421875,-0.172271728515625,-0.97247314453125,0.0202285721898078,-0.0467531234025955,0.0289656054228544
1769249288609,-0.085052490234375,-0.1657562255859375,-0.978240966796875,0.0288044828921556,-0.0198517348617315,0.035802736878395
1769249288619,-0.08935546875,-0.15673828125,-0.979278564453125,0.0424555800855159,-0.0177829917520284,0.0335997715592384
1769249288630,-0.0982208251953125,-0.156402587890625,-0.97589111328125,0.0358030050992965,-0.0750771760940551,0.0250291861593723
1769249288640,-0.0996551513671875,-0.1768646240234375,-0.98040771484375,0.0500570423901081,-0.0857338160276413,0.0207588076591491
1769249288650,-0.0908966064453125,-0.12249755859375,-0.9921875,0.083865076303482,-0.0053020874038338,0.0023715449497103
1769249288660,-0.11334228515625,-0.0426177978515625,-0.9841156005859376,0.1594525128602981,0.0872227847576141,-0.0562624745070934
1769249288670,-0.15875244140625,-0.1797637939453125,-0.980438232421875,0.1062894240021705,-0.085383340716362,-0.0767120867967605
1769249288680,-0.092132568359375,-0.264495849609375,-0.94549560546875,0.1050619706511497,-0.1148158013820648,-0.0502703599631786
1769249288690,-0.0394287109375,-0.173431396484375,-0.966033935546875,0.1452754288911819,0.0193721000105142,-0.0261013749986886
1769249288700,-0.075531005859375,-0.0911712646484375,-0.9380645751953124,0.1486800163984298,0.0713056027889251,-0.0402353033423423
1769249288710,-0.1383514404296875,-0.1597900390625,-0.92919921875,0.132901057600975,-0.0367574803531169,-0.0454308651387691
1769249288720,-0.1073760986328125,-0.19439697265625,-0.9422454833984376,0.0860097184777259,-0.1405951976776123,-0.0105857988819479
1769249288730,-0.067047119140625,-0.1870574951171875,-0.957122802734375,0.0414811298251152,-0.1440051048994064,0.0053249904885888
1769249288740,-0.07916259765625,-0.20068359375,-0.9688720703125,0.0075465994887053,-0.1183964163064956,0.0072166337631642
1769249288750,-0.080169677734375,-0.212127685546875,-0.9730377197265624,-0.0371495001018047,-0.0983175113797187,0.0140782687813043
1769249288760,-0.0699005126953125,-0.199310302734375,-0.9703521728515624,-0.0674038082361221,-0.0420292094349861,0.02374660782516
1769249288770,-0.0746307373046875,-0.151031494140625,-0.97607421875,-0.064382717013359,0.0225330051034688,0.0264523793011903
1769249288780,-0.0904388427734375,-0.1345062255859375,-0.9907073974609376,-0.0519966222345829,0.0338133573532104,0.0143006425350904
1769249288790,-0.107421875,-0.1521453857421875,-0.9955291748046876,-0.0393929444253444,0.023642212152481,0.0066741481423377
1769249288800,-0.112823486328125,-0.1571502685546875,-0.989715576171875,-0.0348133742809295,0.0065247444435954,0.0029265477787703
1769249288810,-0.11065673828125,-0.1865234375,-0.9827117919921876,-0.0372272618114948,-0.0104321343824267,0.0016474314033985
1769249288821,-0.10223388671875,-0.20941162109375,-0.9816741943359376,-0.0290186014026403,0.004367584362626,0.0002050634066108
1769249288830,-0.0918121337890625,-0.1741485595703125,-0.984283447265625,-0.021899439394474,0.0259836632758378,-0.007514907978475
1769249288841,-0.093780517578125,-0.1606903076171875,-0.986541748046875,0.0081729749217629,0.041988730430603,-0.0153816193342208
1769249288851,-0.093994140625,-0.157958984375,-0.9925994873046876,0.0410361178219318,0.0316034667193889,-0.0218408498913049
1769249288861,-0.0974884033203125,-0.1718902587890625,-0.9894256591796876,0.0539971888065338,-0.0136969033628702,-0.0175390467047691
1769249288871,-0.0897216796875,-0.17266845703125,-0.97711181640625,0.0589863546192646,-0.0398922897875309,-0.0070818779058754
1769249288881,-0.0882110595703125,-0.1741943359375,-0.9723663330078124,0.0591232404112815,-0.049873549491167,-0.0072611086070537
1769249288891,-0.09478759765625,-0.1844329833984375,-0.97259521484375,0.0553032010793685,-0.056368201971054,-0.0058962386101484
1769249288901,-0.0907745361328125,-0.18896484375,-0.97210693359375,0.0481526143848896,-0.0584981963038444,-0.0019856528379023
1769249288911,-0.0892486572265625,-0.18853759765625,-0.9766387939453124,0.0476279743015766,-0.0541561804711818,0.0034011229872703
1769249288921,-0.092803955078125,-0.18914794921875,-0.9794769287109376,0.0359942205250263,-0.0418867282569408,0.0088510159403085
1769249288931,-0.0949249267578125,-0.1860809326171875,-0.9752655029296876,0.0170873738825321,-0.0322165265679359,0.0226163621991872
1769249288941,-0.0906219482421875,-0.17620849609375,-0.96380615234375,-0.0144934551790356,-0.0222278069704771,0.0327619425952434
1769249288951,-0.0977020263671875,-0.172637939453125,-0.9495849609375,-0.0547612495720386,-0.019275426864624,0.039394810795784
1769249288961,-0.0985565185546875,-0.172027587890625,-0.9417724609375,-0.0836110040545463,-0.0090579437091946,0.0417525060474872
1769249288971,-0.1043243408203125,-0.173736572265625,-0.9602203369140624,-0.082781434059143,0.0183276087045669,0.0422087050974369
1769249288981,-0.1097869873046875,-0.164459228515625,-0.9882659912109376,-0.0683265924453735,0.0158820282667875,0.0427032560110092
1769249288991,-0.1092071533203125,-0.16058349609375,-0.99298095703125,-0.0582204312086105,-0.0312551259994506,0.045019406825304
1769249289001,-0.104461669921875,-0.204559326171875,-0.9861297607421876,-0.0869772434234619,-0.1212340146303176,0.0518908947706222
1769249289011,-0.08343505859375,-0.23687744140625,-0.9866790771484376,-0.0767187476158142,-0.1006128937005996,0.071824125945568
1769249289021,-0.074462890625,-0.0952301025390625,-0.9958038330078124,-0.043071836233139,0.0112694324925541,0.0426063165068626
1769249289031,-0.1414642333984375,-0.0593109130859375,-1.008697509765625,0.0523508228361606,0.1407744288444519,-0.0206727869808673
1769249289041,-0.1738739013671875,-0.2094573974609375,-0.9879150390625,-0.0123557355254888,-0.0925781354308128,-0.0359686538577079
1769249289051,-0.0989227294921875,-0.269012451171875,-0.9695892333984376,0.0301038399338722,-0.0280947517603635,-0.0048919604159891
1769249289062,-0.05902099609375,-0.13983154296875,-1.002960205078125,0.073855847120285,0.0761419087648391,0.008003331720829
1769249289072,-0.1015777587890625,-0.11376953125,-0.97601318359375,0.0934910699725151,0.0397745780646801,-0.0192277561873197
1769249289082,-0.1417236328125,-0.1906280517578125,-0.9734649658203124,0.1046318709850311,-0.0628772303462028,-0.0191555842757225
1769249289092,-0.1082763671875,-0.1898956298828125,-0.9854888916015624,0.1113622114062309,-0.1073975637555122,0.0050477553158998
1769249289102,-0.08575439453125,-0.1943359375,-1.0050506591796875,0.1277140229940414,-0.1087086349725723,0.0152258248999714
1769249289112,-0.0916595458984375,-0.220062255859375,-1.0131988525390625,0.1377288401126861,-0.0928830653429031,0.0330857820808887
1769249289122,-0.0817413330078125,-0.2251129150390625,-0.9963836669921876,0.1228052824735641,-0.0776657685637474,0.0419085696339607
1769249289132,-0.0821380615234375,-0.20904541015625,-0.973480224609375,0.1009860038757324,-0.0400017462670803,0.0524951666593551
1769249289142,-0.087249755859375,-0.1550750732421875,-0.96807861328125,0.0826703757047653,0.0218128878623247,0.0548403449356555
1769249289152,-0.10345458984375,-0.139923095703125,-0.970367431640625,0.0595962181687355,0.0247945617884397,0.0470529943704605
1769249289163,-0.116485595703125,-0.162445068359375,-0.9669952392578124,0.049708966165781,-0.0076715019531548,0.0457176864147186
1769249289172,-0.11981201171875,-0.1808013916015625,-0.9757232666015624,0.0495110936462879,-0.0292103495448827,0.0488322526216506
1769249289182,-0.1149444580078125,-0.2097015380859375,-0.9830474853515624,0.0408441014587879,-0.0280782394111156,0.0461808107793331
1769249289192,-0.1051025390625,-0.19775390625,-0.9718170166015624,0.0338378585875034,-0.0209806486964225,0.0410318560898304
1769249289202,-0.1067657470703125,-0.1732635498046875,-0.9609527587890624,0.0265184268355369,0.0062989084981381,0.0169875063002109
1769249289212,-0.1237640380859375,-0.169952392578125,-0.962188720703125,0.0370277911424636,0.0380989164113998,-0.0032381375785917
1769249289222,-0.12066650390625,-0.1764984130859375,-0.9618988037109376,0.0454737432301044,0.0090723242610692,-0.0077687073498964
1769249289232,-0.1025390625,-0.1905975341796875,-0.96240234375,0.0473488718271255,-0.0255357194691896,-0.0030490530189126
1769249289242,-0.0988311767578125,-0.197235107421875,-0.9626922607421876,0.0456500425934791,-0.029688386246562,-0.0044426852837204
1769249289252,-0.106475830078125,-0.19354248046875,-0.9604339599609376,0.0357747748494148,-0.0233450029045343,0.0001496696495451
1769249289262,-0.0981597900390625,-0.1952667236328125,-0.9547271728515624,0.0130422990769147,-0.0155677739530801,0.0096084186807274
1769249289272,-0.0876922607421875,-0.201629638671875,-0.9447021484375,-0.0174322538077831,0.0118531975895166,0.0239247735589742
1769249289283,-0.0904998779296875,-0.19390869140625,-0.9424285888671876,-0.0403612703084945,0.0319044031202793,0.0350778251886367
1769249289293,-0.0945587158203125,-0.189453125,-0.948028564453125,-0.0561663322150707,0.017934525385499,0.0472324937582016
1769249289303,-0.096771240234375,-0.1876983642578125,-0.9568634033203124,-0.0680256560444831,0.0151224937289953,0.0570355877280235
1769249289313,-0.1010589599609375,-0.1863861083984375,-0.966217041015625,-0.0898302868008613,0.0394845604896545,0.0707785636186599
1769249289324,-0.0979156494140625,-0.1892852783203125,-0.96453857421875,-0.1064872965216636,0.0519183240830898,0.0821598470211029
1769249289333,-0.0977935791015625,-0.19317626953125,-0.971527099609375,-0.1089267507195472,0.0451714731752872,0.094735562801361
1769249289343,-0.0998687744140625,-0.1854400634765625,-0.98187255859375,-0.1068193912506103,0.0286122038960456,0.1024419516324997
1769249289353,-0.1038818359375,-0.1678009033203125,-0.983856201171875,-0.0993377715349197,0.0143733462318778,0.1025324985384941
1769249289363,-0.1174163818359375,-0.1716461181640625,-0.977325439453125,-0.1033868417143821,-0.022726085036993,0.0941262319684028
1769249289373,-0.1203765869140625,-0.2259979248046875,-0.96783447265625,-0.1399416625499725,-0.0739147067070007,0.0905432179570198
1769249289383,-0.09906005859375,-0.227783203125,-0.9793853759765624,-0.1263915002346038,-0.0138404481112957,0.1043937802314758
1769249289393,-0.0936737060546875,-0.075469970703125,-0.9852447509765624,-0.0804508998990058,0.112699382007122,0.073094718158245
1769249289403,-0.1511688232421875,-0.0770721435546875,-1.0058135986328125,-0.0453038327395916,0.1503607481718063,0.0080930804833769
1769249289413,-0.1653594970703125,-0.2168426513671875,-0.95855712890625,-0.0956058874726295,-0.0360328368842601,-0.0160261038690805
1769249289423,-0.1184234619140625,-0.2360382080078125,-0.979278564453125,-0.0431346856057643,0.037643514573574,-0.000235157116549
1769249289433,-0.1020050048828125,-0.1223907470703125,-1.0054931640625,-0.0072453957982361,0.0563218630850315,-0.0037342845462262
1769249289443,-0.130401611328125,-0.1556396484375,-0.9773712158203124,-0.0048054079525172,-0.0039113848470151,-0.0257666166871786
1769249289453,-0.128753662109375,-0.2041015625,-0.9694061279296876,-0.0199404191225767,-0.0255181435495615,-0.0306497886776924
1769249289463,-0.10650634765625,-0.18798828125,-0.964691162109375,-0.0291147418320179,-0.0213969014585018,-0.0249333120882511
1769249289473,-0.099639892578125,-0.1943206787109375,-0.9740753173828124,-0.0211462974548339,-0.0324594043195247,-0.0165451541543006
1769249289483,-0.096954345703125,-0.211761474609375,-0.9881439208984376,-0.0260499771684408,-0.0339446514844894,-0.0023987090680748
1769249289494,-0.08984375,-0.212615966796875,-0.9821624755859376,-0.0518719851970672,-0.0093801859766244,0.0166543442755937
1769249289503,-0.0796661376953125,-0.184967041015625,-0.9662933349609376,-0.0815891325473785,0.0364805124700069,0.0342519804835319
1769249289514,-0.0858001708984375,-0.1475677490234375,-0.9697265625,-0.093982420861721,0.0599448271095752,0.0377982445061206
1769249289524,-0.106842041015625,-0.142303466796875,-0.98486328125,-0.1004693508148193,0.0425463952124118,0.031589351594448
1769249289534,-0.12017822265625,-0.1594696044921875,-0.9951324462890624,-0.0939986631274223,0.007858189754188,0.0286918319761753
1769249289544,-0.1255340576171875,-0.1785888671875,-1.0002593994140625,-0.0831553414463996,-0.0022959110792726,0.0257655512541532
1769249289554,-0.1206817626953125,-0.199249267578125,-0.996734619140625,-0.0768843963742256,0.0223202183842659,0.0212765261530876
1769249289564,-0.1080169677734375,-0.1730499267578125,-0.986175537109375,-0.0749264359474182,0.0527870468795299,0.0171768553555011
1769249289574,-0.1044921875,-0.1562957763671875,-0.982879638671875,-0.0613541714847087,0.0790785700082779,0.0042666504159569
1769249289584,-0.1108856201171875,-0.16143798828125,-0.9808502197265624,-0.048451155424118,0.0678221881389617,-0.0069204904139041
1769249289594,-0.1086578369140625,-0.1638031005859375,-0.9725189208984376,-0.0363542772829532,0.0330756604671478,-0.0037553233560174
1769249289604,-0.1024169921875,-0.16558837890625,-0.9683837890625,-0.0268699638545513,0.01788792014122,-0.0027616980951279
1769249289614,-0.1036224365234375,-0.1730804443359375,-0.9705963134765624,-0.0222911909222602,0.0189902018755674,-0.0035739622544497
1769249289625,-0.1032257080078125,-0.1742401123046875,-0.969207763671875,-0.0271485298871994,0.022168418392539,-0.0018069547368213
1769249289634,-0.0980377197265625,-0.1759033203125,-0.963043212890625,-0.0325648672878742,0.0274348203092813,0.006270679179579
1769249289644,-0.0916748046875,-0.17742919921875,-0.9671783447265624,-0.0354916825890541,0.0317728444933891,0.0175206698477268
1769249289654,-0.092041015625,-0.17828369140625,-0.972381591796875,-0.0417786054313182,0.0350104495882988,0.0241093300282955
1769249289664,-0.0976715087890625,-0.1743621826171875,-0.9747772216796876,-0.0519654639065265,0.036910880357027,0.028082501143217
1769249289674,-0.1037139892578125,-0.1724395751953125,-0.977508544921875,-0.0563085451722145,0.0421429276466369,0.0344599708914756
1769249289684,-0.1028900146484375,-0.171783447265625,-0.979156494140625,-0.066530555486679,0.0427083149552345,0.0444691963493824
1769249289694,-0.10125732421875,-0.164520263671875,-0.972747802734375,-0.0756723880767822,0.033854104578495,0.0497302711009979
1769249289704,-0.102020263671875,-0.16229248046875,-0.97442626953125,-0.0836424306035041,0.029722474515438,0.0501731559634208
1769249289715,-0.11053466796875,-0.1475982666015625,-0.97802734375,-0.080982469022274,0.0512677133083343,0.0420494489371776
1769249289725,-0.118377685546875,-0.13507080078125,-0.9869232177734376,-0.0635046735405922,0.053476009517908,0.0303387306630611
1769249289735,-0.1223907470703125,-0.157623291015625,-0.9863739013671876,-0.0672410875558853,-0.002511627273634,0.0203063376247882
1769249289745,-0.115753173828125,-0.2260894775390625,-0.9786529541015624,-0.0957390442490577,-0.0341606326401233,0.0253903120756149
1769249289755,-0.0836181640625,-0.161956787109375,-0.98175048828125,-0.1106394305825233,0.0071015851572155,0.0285789147019386
1769249289765,-0.1020965576171875,-0.06048583984375,-0.9831085205078124,-0.0242819041013717,0.2098858505487442,-0.0228182300925254
1769249289775,-0.157501220703125,-0.0786285400390625,-1.005340576171875,-0.0484868437051773,0.0731879249215126,-0.0871772468090057
1769249289785,-0.1388397216796875,-0.2210540771484375,-0.9588165283203124,-0.0705292969942092,-0.0600644014775753,-0.0807057619094848
1769249289795,-0.087677001953125,-0.1686553955078125,-0.9954681396484376,-0.0500668957829475,0.0368198007345199,-0.0514251068234443
1769249289805,-0.094268798828125,-0.1138458251953125,-0.9865264892578124,-0.0407090783119201,0.0338391885161399,-0.0714094713330268
1769249289815,-0.12677001953125,-0.1755828857421875,-0.966094970703125,-0.0423663668334484,-0.0101232081651687,-0.077162429690361
1769249289825,-0.0953826904296875,-0.1666259765625,-0.9677581787109376,-0.0441405624151229,-0.0273189730942249,-0.0641321167349815
1769249289835,-0.072723388671875,-0.16265869140625,-0.97186279296875,-0.0386328808963298,-0.0231284890323877,-0.0579730235040187
1769249289845,-0.0842132568359375,-0.188079833984375,-0.983795166015625,-0.0269479937851429,-0.0243069380521774,-0.0470908135175704
1769249289855,-0.084716796875,-0.19183349609375,-0.9870452880859376,-0.0175923090428113,-0.0191513244062662,-0.0270449332892894
1769249289865,-0.0755615234375,-0.188385009765625,-0.98565673828125,-0.0161166526377201,-0.0123187182471156,0.0034362766891717
1769249289875,-0.0657806396484375,-0.15838623046875,-0.9940032958984376,-0.0163811035454273,0.0067646955139935,0.0236717741936445
1769249289885,-0.0792083740234375,-0.1293487548828125,-1.00445556640625,-0.0112140383571386,0.0076174396090209,0.0254446398466825
1769249289895,-0.0991058349609375,-0.1275482177734375,-1.010345458984375,-0.0134239299222826,-0.0083926860243082,0.0239588618278503
1769249289905,-0.109375,-0.1442413330078125,-1.0019073486328125,-0.0162825658917427,-0.013106214813888,0.0308569818735122
1769249289915,-0.10498046875,-0.1700286865234375,-0.995208740234375,-0.0097575560212135,-0.0028061727061867,0.0372397787868976
1769249289925,-0.0975189208984375,-0.1826171875,-0.99176025390625,-0.0151912029832601,0.0237058624625206,0.0417967140674591
1769249289936,-0.09161376953125,-0.1497955322265625,-0.9823150634765624,-0.016811205074191,0.0534957163035869,0.0395769700407981
1769249289946,-0.0985870361328125,-0.1363372802734375,-0.9801025390625,-0.0116121815517544,0.0604726634919643,0.0326884388923645
1769249289956,-0.1049957275390625,-0.1447296142578125,-0.9752960205078124,-0.0056581520475447,0.045212484896183,0.027330957353115
1769249289966,-0.1033782958984375,-0.1558990478515625,-0.9734649658203124,0.0099855223670601,0.0385098420083522,0.0215769317001104
1769249289976,-0.1012420654296875,-0.156768798828125,-0.9816436767578124,0.0198735725134611,0.0404414311051368,0.017402958124876
1769249289986,-0.101837158203125,-0.152984619140625,-0.9770355224609376,0.0256944447755813,0.0320495441555976,0.0113818179816007
1769249289996,-0.1020355224609375,-0.1566162109375,-0.9694976806640624,0.0279717128723859,0.0172104127705097,0.0038237667176872
1769249290006,-0.09967041015625,-0.1616973876953125,-0.968994140625,0.0238861571997404,0.0088536785915493,0.0028200212400406
1769249290016,-0.0956878662109375,-0.1613616943359375,-0.96429443359375,0.0093495594337582,0.0126886311918497,0.0027832696214318
1769249290026,-0.095916748046875,-0.1600341796875,-0.9610443115234376,-0.0074424697086215,0.0201406888663768,0.0062427157536149
1769249290036,-0.0935821533203125,-0.15838623046875,-0.9626922607421876,-0.0231338143348693,0.0326942950487136,0.0086278431117534
1769249290046,-0.0979461669921875,-0.1584320068359375,-0.964111328125,-0.0313091874122619,0.0380541756749153,0.0120915500447154
1769249290056,-0.0962371826171875,-0.1544342041015625,-0.97332763671875,-0.0408547557890415,0.0271136425435543,0.0252366475760936
1769249290066,-0.0881805419921875,-0.1521148681640625,-0.977783203125,-0.0528054237365722,0.0054046190343797,0.0347691662609577
1769249290076,-0.0845489501953125,-0.15545654296875,-0.97296142578125,-0.0683209970593452,-0.0059170112945139,0.0443616062402725
1769249290086,-0.092803955078125,-0.1360626220703125,-0.98187255859375,-0.056724265217781,0.0104955174028873,0.0469166412949562
1769249290096,-0.1046142578125,-0.1410980224609375,-0.99029541015625,-0.0396914854645729,-0.0099138831719756,0.0484074801206588
1769249290106,-0.1013031005859375,-0.1761322021484375,-0.9859161376953124,-0.0476697832345962,-0.0618998520076274,0.0508935414254665
1769249290116,-0.097991943359375,-0.2458038330078125,-0.973388671875,-0.0685689374804496,-0.0464007891714572,0.0666823610663414
1769249290126,-0.078521728515625,-0.1419219970703125,-0.975738525390625,-0.0950753837823867,-0.0177981723099946,0.0556081347167491
1769249290136,-0.118408203125,-0.0597076416015625,-0.9733428955078124,-0.0211180690675973,0.1530057936906814,0.0242741797119379
1769249290147,-0.148284912109375,-0.0761566162109375,-0.9830322265625,-0.0588196404278278,-0.0429197698831558,-0.0529340542852878
1769249290157,-0.1358489990234375,-0.2206268310546875,-0.972137451171875,-0.0656754150986671,-0.1038217395544052,-0.0380182228982448
1769249290167,-0.0929412841796875,-0.0942535400390625,-1.0041656494140625,-0.0453802645206451,-0.0296745393425226,-0.0403490215539932
1769249290177,-0.1302947998046875,-0.110809326171875,-0.9963836669921876,-0.0553346276283264,-0.070995345711708,-0.0825697109103202
1769249290187,-0.144378662109375,-0.187713623046875,-0.9753875732421876,-0.0633211806416511,-0.1032954975962638,-0.0986610651016235
1769249290197,-0.1067352294921875,-0.1853485107421875,-0.9903564453125,-0.0635664612054824,-0.1112016215920448,-0.0950199887156486
1769249290207,-0.083221435546875,-0.1850433349609375,-1.00152587890625,-0.0586787611246109,-0.1009902656078338,-0.084963358938694
1769249290217,-0.0833740234375,-0.1964569091796875,-0.9892425537109376,-0.0558432936668396,-0.0778351426124572,-0.0675907582044601
1769249290227,-0.0821075439453125,-0.1981353759765625,-0.980499267578125,-0.0567311905324459,-0.0359835661947727,-0.0394802987575531
1769249290237,-0.072540283203125,-0.1726226806640625,-0.9818572998046876,-0.0720387697219848,-0.0054999603889882,-0.0104923220351338
1769249290247,-0.0692901611328125,-0.141937255859375,-0.98504638671875,-0.094057522714138,0.0136676086112856,0.0109346732497215
1769249290257,-0.08294677734375,-0.10345458984375,-0.987548828125,-0.1120170801877975,0.034229077398777,0.0127552095800638
1769249290267,-0.1099700927734375,-0.0970458984375,-0.99090576171875,-0.1026440858840942,0.0106872655451297,0.0092403702437877
1769249290277,-0.1211700439453125,-0.1334228515625,-1.00640869140625,-0.0744316205382347,-0.0328157357871532,0.0083306338638067
1769249290287,-0.121673583984375,-0.1669921875,-1.01617431640625,-0.0396057330071926,-0.0530853234231472,0.0118617191910743
1769249290297,-0.11236572265625,-0.17230224609375,-1.0182037353515625,-0.0290638748556375,-0.0484903044998645,0.0171179994940757
1769249290307,-0.1053009033203125,-0.12213134765625,-1.0078277587890625,-0.0044743767939507,-0.0229210276156663,0.0048970207571983
1769249290317,-0.1207122802734375,-0.1176605224609375,-1.0064544677734375,0.0198192447423934,-0.021444572135806,-0.0140356579795479
1769249290327,-0.1212615966796875,-0.142181396484375,-0.9995880126953124,0.0454654842615127,-0.0325371697545051,-0.0252555552870035
1769249290337,-0.1105194091796875,-0.159759521484375,-0.9962310791015624,0.0608250014483928,-0.0248504877090454,-0.026722690090537
1769249290347,-0.0980072021484375,-0.1583404541015625,-0.9858551025390624,0.0547777600586414,-0.0167446248233318,-0.0261996462941169
1769249290358,-0.093475341796875,-0.143951416015625,-0.965850830078125,0.0389367453753948,-0.0029558425303548,-0.026635605841875
1769249290368,-0.09552001953125,-0.1425933837890625,-0.9548797607421876,0.0178714077919721,0.0088981539011001,-0.0288670677691698
1769249290378,-0.0975341796875,-0.1540679931640625,-0.956268310546875,-0.0004186489095445,0.0279565341770648,-0.0298662856221199
1769249290388,-0.0973663330078125,-0.15435791015625,-0.9659576416015624,-0.0097676757723093,0.0480330400168895,-0.0272116474807262
1769249290398,-0.0990142822265625,-0.150054931640625,-0.9733428955078124,-0.0229141041636466,0.0630692467093467,-0.0258736759424209
1769249290408,-0.09906005859375,-0.143585205078125,-0.9720458984375,-0.0316689796745777,0.0650658160448074,-0.0229303501546382
1769249290418,-0.0970611572265625,-0.1423492431640625,-0.979034423828125,-0.0380243472754955,0.0612726770341396,-0.018742261454463
1769249290428,-0.0973358154296875,-0.1439971923828125,-0.9802093505859376,-0.0419216156005859,0.0503787510097026,-0.0173235964030027
1769249290438,-0.1001739501953125,-0.1444091796875,-0.9829559326171876,-0.0440438911318779,0.037079457193613,-0.0138135505840182
1769249290448,-0.1000213623046875,-0.1400299072265625,-0.9880523681640624,-0.0521300472319126,0.0220967791974544,-0.0071492558345198
1769249290458,-0.0983428955078125,-0.1259918212890625,-0.98065185546875,-0.0447759926319122,0.0265903323888778,-0.0039771646261215
1769249290468,-0.104736328125,-0.1221771240234375,-0.9822235107421876,-0.0344602391123771,0.0120715769007802,0.0012287824647501
1769249290478,-0.1038970947265625,-0.16748046875,-0.9854888916015624,-0.062733955681324,-0.065158762037754,-0.0034237599465996
1769249290488,-0.0911865234375,-0.2076568603515625,-0.9861602783203124,-0.0615011788904666,-0.0284042116254568,0.009924535639584
1769249290498,-0.081695556640625,-0.0548248291015625,-0.988494873046875,-0.0420901961624622,0.0544115751981735,-0.0121770380064845
1769249290508,-0.135101318359375,-0.0183563232421875,-1.000396728515625,0.0318716466426849,0.1718409955501556,-0.0607826560735702
1769249290518,-0.155975341796875,-0.174041748046875,-0.9781951904296876,-0.0393306277692317,-0.0929121002554893,-0.0990072712302208
1769249290528,-0.1011810302734375,-0.22808837890625,-0.9731292724609376,-0.0081444792449474,0.0350389443337917,-0.0607496351003646
1769249290538,-0.0648956298828125,-0.0618743896484375,-0.9902801513671876,0.0146798761561512,0.1059706434607505,-0.0626860186457634
1769249290548,-0.1236724853515625,-0.1060333251953125,-0.95477294921875,0.0078070568852126,0.021262677386403,-0.0872515514492988
1769249290558,-0.1303863525390625,-0.172515869140625,-0.9595489501953124,0.003752393880859,-0.0590675808489322,-0.0728521049022674
1769249290568,-0.0875396728515625,-0.1569366455078125,-0.9886474609375,-0.0060871872119605,-0.0892305448651313,-0.0520618706941604
1769249290578,-0.08380126953125,-0.192230224609375,-0.9937286376953124,-0.0183462500572204,-0.0754982158541679,-0.0522629395127296
1769249290589,-0.0881805419921875,-0.2102813720703125,-0.9913330078125,-0.0453070290386676,-0.0434026010334491,-0.0437568016350269
1769249290599,-0.0752105712890625,-0.1931610107421875,-0.9834442138671876,-0.0783424749970436,-0.0122305676341056,-0.0242432877421379
1769249290609,-0.0699615478515625,-0.1702880859375,-0.9819488525390624,-0.0877210646867752,0.0372746661305427,-0.0026589001063257
1769249290619,-0.075225830078125,-0.09893798828125,-1.003387451171875,-0.0820887461304664,0.0673524066805839,0.0042751724831759
1769249290629,-0.107879638671875,-0.078765869140625,-1.01116943359375,-0.0643464997410774,0.0430950075387954,-0.0039710393175482
1769249290639,-0.1302642822265625,-0.09619140625,-1.0111083984375,-0.0453789345920085,0.015369102358818,-0.0116366818547248
1769249290649,-0.123870849609375,-0.1236114501953125,-1.01116943359375,-0.0397186502814292,-0.0074991951696574,-0.0019600866362452
1769249290659,-0.10089111328125,-0.1602020263671875,-0.9990997314453124,-0.0351143106818199,-0.0065596322529017,-0.0036096484400331
1769249290669,-0.098114013671875,-0.158233642578125,-0.989837646484375,-0.010661432519555,0.0300567019730806,-0.0122281704097986
1769249290679,-0.10595703125,-0.137176513671875,-0.9914093017578124,0.0201502759009599,0.0338165536522865,-0.0371705368161201
1769249290689,-0.114410400390625,-0.14227294921875,-0.99810791015625,0.0622939988970756,0.0313344858586788,-0.0492309294641017
1769249290699,-0.1052398681640625,-0.1325225830078125,-0.9981842041015624,0.08572768419981,-6.844323797849938e-05,-0.0533745400607585
1769249290709,-0.0934906005859375,-0.1415252685546875,-0.984893798828125,0.0864597931504249,-0.0379902571439743,-0.0458814725279808
1769249290719,-0.085662841796875,-0.1438446044921875,-0.9763031005859376,0.0803651437163353,-0.032196819782257,-0.0371556244790554
1769249290729,-0.0842742919921875,-0.148651123046875,-0.975860595703125,0.0748854279518127,-0.0177808608859777,-0.0294982381165027
1769249290739,-0.0832977294921875,-0.1548004150390625,-0.9756317138671876,0.0653686225414276,-0.0037169738207012,-0.0271309539675712
1769249290749,-0.0871124267578125,-0.1572418212890625,-0.9762115478515624,0.0561181306838989,0.0022980417124927,-0.0206738524138927
1769249290759,-0.0893402099609375,-0.1509246826171875,-0.9776763916015624,0.054313838481903,0.0074033215641975,-0.0155339520424604
1769249290769,-0.094573974609375,-0.1433868408203125,-0.98712158203125,0.0550736375153064,0.0223484486341476,-0.0079689770936965
1769249290779,-0.0933380126953125,-0.13336181640625,-0.9972381591796876,0.0542901344597339,0.0369244627654552,-0.0012972257100045
1769249290790,-0.092559814453125,-0.1297149658203125,-0.9974365234375,0.0494295991957187,0.043712593615055,0.0051952945068478
1769249290799,-0.0988006591796875,-0.1386260986328125,-0.9862213134765624,0.0386491231620311,0.0376640222966671,0.0082667181268334
1769249290810,-0.0996856689453125,-0.141021728515625,-0.9785614013671876,0.0331736654043197,0.0266720913350582,0.0190732926130294
1769249290820,-0.0918731689453125,-0.135101318359375,-0.9808807373046876,0.0343438573181629,0.0421916618943214,0.0255327895283699
1769249290830,-0.097747802734375,-0.134857177734375,-0.9816741943359376,0.0454170145094394,0.0595842339098453,0.0274675767868757
1769249290840,-0.1032257080078125,-0.1336669921875,-0.9810791015625,0.0341071039438247,0.0180490408092737,0.0237359553575515
1769249290850,-0.1023406982421875,-0.166900634765625,-0.96929931640625,-0.0077050575055181,-0.04218340665102,0.0141957141458988
1769249290860,-0.0987548828125,-0.1844329833984375,-0.9749298095703124,0.0109413312748074,0.0416776724159717,0.007978031411767
1769249290870,-0.101226806640625,-0.050537109375,-0.9824981689453124,0.0277948789298534,0.1606101840734481,-0.0280747767537832
1769249290880,-0.1497802734375,-0.0741119384765625,-0.97882080078125,0.0372365862131118,0.1610413491725921,-0.0855090394616127
1769249290890,-0.1465911865234375,-0.2218475341796875,-0.9513702392578124,-0.0217527002096176,-0.0087602017447352,-0.0995689332485199
1769249290900,-0.07806396484375,-0.1884765625,-0.9705657958984376,0.0310934707522392,0.1010403335094451,-0.0817832797765731
1769249290910,-0.068603515625,-0.065460205078125,-0.9934844970703124,0.0704158395528793,0.1330374181270599,-0.0861460715532302
1769249290920,-0.12469482421875,-0.108367919921875,-0.964996337890625,0.0634617954492569,0.0518221855163574,-0.0926228761672973
1769249290930,-0.1229248046875,-0.1684417724609375,-0.9646453857421876,0.0428505279123783,-0.0380363315343856,-0.0733895301818847
1769249290940,-0.0852203369140625,-0.1708221435546875,-0.98297119140625,0.0118209728971123,-0.0787603259086608,-0.0562129393219947
1769249290950,-0.077667236328125,-0.1938018798828125,-0.98858642578125,-0.0161241088062524,-0.0653185546398162,-0.0534339286386966
1769249290960,-0.0740966796875,-0.2040252685546875,-0.979156494140625,-0.0560496859252452,-0.0387966632843017,-0.0511840917170047
1769249290970,-0.059722900390625,-0.1843719482421875,-0.97418212890625,-0.0873583406209945,0.0105402590706944,-0.0304910633713006
1769249290980,-0.0520172119140625,-0.1443634033203125,-0.982696533203125,-0.0909922271966934,0.0800932347774505,-0.0092989597469568
1769249290991,-0.0642852783203125,-0.098663330078125,-0.9981536865234376,-0.0685851871967315,0.1142043396830558,-0.011043063364923
1769249291000,-0.0963897705078125,-0.1060028076171875,-1.011962890625,-0.0360437557101249,0.1045048385858535,-0.0134633444249629
1769249291011,-0.1038360595703125,-0.126708984375,-1.0057525634765625,-0.0156423430889844,0.0618585720658302,-0.011005513370037
1769249291020,-0.101531982421875,-0.147735595703125,-0.9926605224609376,-0.0043060649186372,-0.0003731088654603,-0.0106475846841931
1769249291031,-0.0987701416015625,-0.1829833984375,-0.9940643310546876,-0.0033747577108442,-0.0105357319116592,-0.0083207804709672
1769249291041,-0.0792388916015625,-0.1675262451171875,-0.9862213134765624,-0.0075705680064857,0.0069436598569154,-0.0047356327995657
1769249291051,-0.07476806640625,-0.14276123046875,-0.9730682373046876,0.000997353810817,0.0097999004647135,-0.000958737975452
1769249291061,-0.080902099609375,-0.145294189453125,-0.9809417724609376,0.0485965646803379,0.0092281196266412,-0.0028109664563089
1769249291071,-0.08770751953125,-0.13543701171875,-1.004150390625,0.081019215285778,-0.0139706768095493,-0.0032615733798593
1769249291081,-0.087799072265625,-0.1475372314453125,-0.9948883056640624,0.0925251394510269,-0.037224069237709,-0.0015110776294022
1769249291091,-0.086669921875,-0.152008056640625,-0.9871673583984376,0.1056140437722206,-0.045012217015028,-0.0049814428202807
1769249291101,-0.09332275390625,-0.1597137451171875,-0.9886016845703124,0.1114437058568,-0.0455461777746677,-0.0093330480158329
1769249291111,-0.0911102294921875,-0.1609039306640625,-0.984100341796875,0.1051413342356681,-0.0419684872031211,-0.0076635121367871
1769249291121,-0.087188720703125,-0.153778076171875,-0.9745635986328124,0.0926617607474327,-0.034768633544445,0.0022224078420549
1769249291131,-0.0810394287109375,-0.15228271484375,-0.9678802490234376,0.0664426758885383,-0.0215148795396089,0.0159794986248016
1769249291141,-0.075927734375,-0.1521148681640625,-0.9576873779296876,0.0475041344761848,-0.0029004486277699,0.0291949026286602
1769249291151,-0.074798583984375,-0.1562652587890625,-0.9643402099609376,0.0327723287045955,0.0067670922726392,0.0426880754530429
1769249291161,-0.076934814453125,-0.161529541015625,-0.9703216552734376,0.0196293611079454,-0.0073029203340411,0.0480580739676952
1769249291171,-0.09063720703125,-0.15692138671875,-0.966583251953125,0.006606503855437,0.0004040015337523,0.046903058886528
1769249291181,-0.10748291015625,-0.153045654296875,-0.9751129150390624,-0.0046879625879228,0.0264840722084045,0.0310101136565208
1769249291191,-0.1128082275390625,-0.1478729248046875,-0.9819793701171876,-0.0081173153594136,0.0295927803963422,0.0261676888912916
1769249291201,-0.1050262451171875,-0.1416778564453125,-0.978973388671875,-0.0033598439767956,0.0221476461738348,0.0201417542994022
1769249291211,-0.10540771484375,-0.1468505859375,-0.9881591796875,-0.0048261806368827,-0.030918501317501,0.013947507366538
1769249291221,-0.1034698486328125,-0.173095703125,-0.9891815185546876,-0.0253074876964092,-0.0753874331712722,0.0110686300322413
1769249291232,-0.0904083251953125,-0.1743316650390625,-1.0029754638671875,-0.0030908647459,0.0253543592989444,0.0102089615538716
1769249291242,-0.0846099853515625,-0.060089111328125,-1.006439208984375,0.0248041488230228,0.1495372951030731,-0.0207369700074195
1769249291252,-0.12615966796875,-0.095245361328125,-0.9824981689453124,0.0058610849082469,0.0881524980068206,-0.0652293339371681
1769249291262,-0.11614990234375,-0.24267578125,-0.946502685546875,-0.0321065373718738,-0.036847498267889,-0.0616236813366413
1769249291272,-0.05047607421875,-0.2117462158203125,-0.9760284423828124,0.0282236486673355,0.0806463733315467,-0.0317347608506679
1769249291282,-0.044189453125,-0.101348876953125,-0.98333740234375,0.066455453634262,0.1282346695661544,-0.0231889430433511
1769249291292,-0.102874755859375,-0.1349029541015625,-0.95098876953125,0.0679343119263649,0.0703705698251724,-0.0230933353304862
1769249291302,-0.11077880859375,-0.1828155517578125,-0.957366943359375,0.0501486547291278,-0.0334812626242637,0.0071303476579487
1769249291312,-0.0786590576171875,-0.1740570068359375,-0.975433349609375,0.0470713712275028,-0.0812306702136993,0.0259607601910829
1769249291322,-0.0771026611328125,-0.1846923828125,-1.0057830810546875,0.0427405387163162,-0.0807513073086738,0.0253700707107782
1769249291332,-0.0736541748046875,-0.17901611328125,-1.0150146484375,0.0308047849684953,-0.0542509891092777,0.0229394044727087
1769249291342,-0.073486328125,-0.16375732421875,-1.0040130615234375,0.0160362236201763,-0.016009060665965,0.021229388192296
1769249291352,-0.0809326171875,-0.1459197998046875,-0.995361328125,0.0232358146458864,0.047901477664709,0.027172764763236
1769249291362,-0.0876007080078125,-0.1241455078125,-0.994232177734375,0.0403873696923255,0.0824767649173736,0.0212163385003805
1769249291372,-0.1007843017578125,-0.1353912353515625,-0.9877166748046876,0.0652493089437484,0.0750215128064155,0.0203135274350643
1769249291382,-0.098297119140625,-0.1448516845703125,-0.9836883544921876,0.0843393802642822,0.0574289374053478,0.0241277068853378
1769249291392,-0.0946502685546875,-0.1612091064453125,-0.9785919189453124,0.0918614789843559,0.025800172239542,0.0230613760650157
1769249291402,-0.0945892333984375,-0.1972503662109375,-0.9718170166015624,0.0895368084311485,-0.0140005042776465,0.024468058720231
1769249291412,-0.0827484130859375,-0.187347412109375,-0.9636383056640624,0.0824991390109062,-0.0210485607385635,0.0376392528414726
1769249291422,-0.0776519775390625,-0.1537017822265625,-0.9547882080078124,0.077357105910778,-0.0201872941106557,0.0355657152831554
1769249291432,-0.0892333984375,-0.1427001953125,-0.9556732177734376,0.093630351126194,-0.0028021780308336,0.0260768737643957
1769249291443,-0.0945587158203125,-0.14337158203125,-0.962066650390625,0.094911865890026,-0.0138630848377943,0.0198559965938329
1769249291453,-0.0902557373046875,-0.1580963134765625,-0.960296630859375,0.0888939201831817,-0.0318423509597778,0.0241647250950336
1769249291463,-0.08770751953125,-0.1625518798828125,-0.9622955322265624,0.0768202096223831,-0.0330897755920887,0.0206746514886617
1769249291473,-0.0936126708984375,-0.1682281494140625,-0.9562225341796876,0.052552156150341,-0.0270963329821825,0.0138785308226943
1769249291483,-0.0969085693359375,-0.174072265625,-0.9506988525390624,0.0270079150795936,-0.0190274864435195,0.009638512507081
1769249291493,-0.0939483642578125,-0.1718292236328125,-0.954132080078125,0.0032104407437145,-0.0136793265119194,0.0049859699793159
1769249291503,-0.090606689453125,-0.168914794921875,-0.9588470458984376,-0.0172767248004674,-0.005722866859287,-0.0017387778498232
1769249291513,-0.096527099609375,-0.167510986328125,-0.961944580078125,-0.0293206050992012,-0.0004434163274709,-0.0039028625469654
1769249291523,-0.094696044921875,-0.1654052734375,-0.9721832275390624,-0.0366765223443508,0.0037108487449586,-0.001275121467188
1769249291533,-0.0893707275390625,-0.1607666015625,-0.9747772216796876,-0.0457368604838848,0.0023696806747466,0.0023571639321744
1769249291543,-0.0973358154296875,-0.163543701171875,-0.974945068359375,-0.0553439483046531,-0.0052956957370042,9.34769559535198e-05
1769249291553,-0.1016693115234375,-0.1660003662109375,-0.9705963134765624,-0.068446971476078,-0.0070555126294493,-0.0012487561907619
1769249291563,-0.098052978515625,-0.163909912109375,-0.9717254638671876,-0.075366124510765,0.0057841194793581,-0.0016370450612157
1769249291573,-0.0957794189453125,-0.15472412109375,-0.97357177734375,-0.0784508660435676,0.0131123401224613,-0.0044980789534747
1769249291583,-0.095184326171875,-0.1605224609375,-0.9737548828125,-0.0865450128912925,-0.0169603414833545,-0.0083836307749152
1769249291593,-0.0951690673828125,-0.201568603515625,-0.981536865234375,-0.106694221496582,-0.0654256120324134,-0.0056632119230926
1769249291603,-0.078704833984375,-0.1946563720703125,-1.00250244140625,-0.07649876922369,-0.0001874865411082,0.0008657936705276
1769249291613,-0.08148193359375,-0.052764892578125,-1.0081939697265625,-0.0251285228878259,0.1426066756248474,-0.0398283712565898
1769249291623,-0.1438446044921875,-0.10333251953125,-1.01141357421875,-0.0155864162370562,0.07884182035923,-0.0876832455396652
1769249291633,-0.129302978515625,-0.2459259033203125,-0.972259521484375,-0.0353827588260173,-0.0944660529494285,-0.0794146656990051
1769249291643,-0.0652313232421875,-0.2284393310546875,-0.9912109375,0.0230768229812383,-0.0045510758645832,-0.0494399890303611
1769249291653,-0.052459716796875,-0.0984344482421875,-0.99188232421875,0.0647062882781028,0.0672860965132713,-0.0590161830186843
1769249291663,-0.111541748046875,-0.127105712890625,-0.9633941650390624,0.0741482600569725,0.0194234997034072,-0.0777352750301361
1769249291674,-0.1184844970703125,-0.19158935546875,-0.970123291015625,0.0512261688709259,-0.0539790801703929,-0.051363855600357
1769249291684,-0.0706939697265625,-0.1846160888671875,-0.9737091064453124,0.0343627668917179,-0.0893136337399482,-0.0224501807242631
1769249291695,-0.0630035400390625,-0.1915740966796875,-0.9862213134765624,0.0299717467278242,-0.0799805894494056,-0.0179164167493581
1769249291704,-0.078033447265625,-0.198455810546875,-0.9930877685546876,0.0180370565503835,-0.0670533329248428,-0.0142053011804819
1769249291714,-0.0756683349609375,-0.1975860595703125,-0.9871063232421876,0.0002008023438975,-0.0556968189775943,-0.0021608888637274
1769249291724,-0.070098876953125,-0.168548583984375,-0.9884033203125,-0.0036139094736427,-0.0132660046219825,0.0113112442195415
1769249291734,-0.076690673828125,-0.126251220703125,-0.99554443359375,-0.000351537251845,0.0188312120735645,0.0078462054952979
1769249291744,-0.1002044677734375,-0.1458740234375,-0.9973602294921876,0.0003531351685523,0.0149616384878754,0.0011576761025935
1769249291754,-0.1028289794921875,-0.15850830078125,-0.99212646484375,0.0010447581298649,0.0129698608070611,0.0031595742329955
1769249291764,-0.09808349609375,-0.1573638916015625,-0.981964111328125,0.0026029737200587,0.0093053514137864,0.0001693770464044
1769249291774,-0.100494384765625,-0.1910247802734375,-0.9742279052734376,0.0096108159050345,-0.0106723513454198,-0.0004554005572572
1769249291784,-0.0864410400390625,-0.1941070556640625,-0.974639892578125,0.014094247482717,-0.0049321744590997,0.0040405481122434
1769249291794,-0.0740509033203125,-0.1502532958984375,-0.9723358154296876,0.0246611386537551,0.0193864814937114,0.0002607234637252
1769249291804,-0.0891265869140625,-0.1502227783203125,-0.9686279296875,0.0392869524657726,0.0151123739778995,-0.0191934015601873
1769249291814,-0.1007080078125,-0.1629486083984375,-0.9637298583984376,0.0501459911465644,-0.0216166116297245,-0.0233476664870977
1769249291824,-0.09466552734375,-0.162628173828125,-0.968536376953125,0.0482788495719432,-0.0398542061448097,-0.0220208801329135
1769249291834,-0.091552734375,-0.165985107421875,-0.96563720703125,0.0335558280348777,-0.0361454859375953,-0.0189281515777111
1769249291844,-0.0862579345703125,-0.1713104248046875,-0.958770751953125,0.0205689240247011,-0.0265714228153228,-0.0164247788488864
1769249291855,-0.0853271484375,-0.1693572998046875,-0.9609832763671876,0.0047681233845651,-0.0179049652069807,-0.0163968168199062
1769249291864,-0.085540771484375,-0.170166015625,-0.96588134765625,-0.0070451265200972,-0.0210144706070423,-0.0091114733368158
1769249291874,-0.08245849609375,-0.169525146484375,-0.9705810546875,-0.0195300262421369,-0.0205494835972785,-0.0032136365771293
1769249291885,-0.083221435546875,-0.17138671875,-0.970611572265625,-0.0366536192595958,-0.0073127741925418,0.0032288164366036
1769249291895,-0.086151123046875,-0.17010498046875,-0.96368408203125,-0.0607312582433223,0.0077229007147252,0.0055007589980959
1769249291905,-0.09063720703125,-0.17041015625,-0.9613494873046876,-0.085177481174469,0.0167488865554332,0.0112151037901639
1769249291915,-0.0901947021484375,-0.1717681884765625,-0.9617156982421876,-0.1006017103791236,0.0141970450058579,0.0206237863749265
1769249291925,-0.09307861328125,-0.1736602783203125,-0.96563720703125,-0.1098673790693283,0.0119184451177716,0.0207295138388872
1769249291935,-0.09814453125,-0.16021728515625,-0.9760894775390624,-0.107537642121315,0.0188562460243701,0.0181688833981752
1769249291945,-0.1044921875,-0.142547607421875,-0.987518310546875,-0.0953001528978347,0.0211537554860115,0.0143475141376256
1769249291955,-0.1043243408203125,-0.1488037109375,-0.9949493408203124,-0.0842789262533187,-0.018094316124916,0.0187672954052686
1769249291965,-0.0923614501953125,-0.199066162109375,-0.9920654296875,-0.1191535517573356,-0.0958362445235252,0.0122830318287014
1769249291975,-0.086029052734375,-0.206573486328125,-0.9871368408203124,-0.0865926817059516,-0.0066230152733623,0.0211862456053495
1769249291985,-0.078460693359375,-0.0554656982421875,-1.0066986083984375,-0.0324311777949333,0.1396479159593582,-0.0156095856800675
1769249291995,-0.1385040283203125,-0.08026123046875,-1.01715087890625,-0.0030370689928531,0.1318528354167938,-0.0669028684496879
1769249292005,-0.140899658203125,-0.215789794921875,-0.965789794921875,-0.0439514778554439,-0.0877956300973892,-0.0744329541921615
1769249292015,-0.0839385986328125,-0.22344970703125,-0.984771728515625,0.0119807627052068,-0.0155472680926322,-0.0555431544780731
1769249292025,-0.0665283203125,-0.0974884033203125,-1.0015106201171875,0.0361068733036518,0.0463493876159191,-0.0601331107318401
1769249292035,-0.115478515625,-0.1214752197265625,-0.9637298583984376,0.0375388525426387,-0.0201896894723176,-0.0843148827552795
1769249292045,-0.127593994140625,-0.1888885498046875,-0.9727935791015624,0.0371769294142723,-0.099631518125534,-0.0648466423153877
1769249292055,-0.0782012939453125,-0.1774444580078125,-0.9868316650390624,0.0260214805603027,-0.1325319409370422,-0.0301704183220863
1769249292065,-0.060302734375,-0.1887359619140625,-0.9846649169921876,0.0166178587824106,-0.1189468950033187,-0.0151832140982151
1769249292075,-0.0698394775390625,-0.2033538818359375,-0.9831695556640624,0.0053457631729543,-0.0777413994073867,0.0064797373488545
1769249292086,-0.068206787109375,-0.199432373046875,-0.984527587890625,-0.0010982876410707,-0.0393812283873558,0.0350490622222423
1769249292095,-0.0586090087890625,-0.174957275390625,-0.9932098388671876,-0.0043300334364175,-0.0100318612530827,0.0585011281073093
1769249292105,-0.0690765380859375,-0.13006591796875,-0.99530029296875,-0.0138737373054027,0.0059305932372808,0.0587871484458446
1769249292116,-0.09832763671875,-0.1322174072265625,-0.9886627197265624,-0.0280204489827156,-0.0024391892366111,0.050481017678976
1769249292126,-0.11376953125,-0.1523590087890625,-0.9879913330078124,-0.0283179245889186,-0.0155749646946787,0.0456013083457946
1769249292136,-0.1132965087890625,-0.160980224609375,-0.9913177490234376,-0.0212091486901044,-0.021385982632637,0.0400102660059928
1769249292146,-0.1122894287109375,-0.1778564453125,-0.9915008544921876,-0.0195603854954242,-0.0107732852920889,0.0254864506423473
1769249292156,-0.1107940673828125,-0.167694091796875,-0.9849853515625,-0.0234241001307964,0.0159970764070749,0.0082696480676531
1769249292166,-0.111083984375,-0.1393280029296875,-0.9766845703125,-0.0188077762722969,0.0296982415020465,-0.0160045325756073
1769249292176,-0.1082305908203125,-0.1360931396484375,-0.9722137451171876,-0.0013273194199427,0.0212461668998003,-0.0250406377017498
1769249292186,-0.0942535400390625,-0.14849853515625,-0.977203369140625,0.0183316022157669,-0.0122739765793085,-0.0264619681984186
1769249292196,-0.08837890625,-0.1630401611328125,-0.9771881103515624,0.0271024573594331,-0.0221535060554742,-0.0276366882026195
1769249292206,-0.091552734375,-0.164398193359375,-0.9732208251953124,0.0336809977889061,-0.0080115878954529,-0.0278302989900112
1769249292216,-0.0933380126953125,-0.16522216796875,-0.9754486083984376,0.0293887816369533,-0.0002913498319685,-0.0267133694142103
1769249292226,-0.0866241455078125,-0.1682891845703125,-0.9658660888671876,0.0179925821721553,-0.0206474885344505,-0.0097676757723093
1769249292236,-0.0783233642578125,-0.1629638671875,-0.9604034423828124,7.456851108145202e-06,-0.0192107129842042,0.001398958498612
1769249292246,-0.084228515625,-0.164703369140625,-0.964691162109375,-0.0136167425662279,0.0066014435142278,0.0138971731066703
1769249292256,-0.084991455078125,-0.168731689453125,-0.976531982421875,-0.0321795083582401,0.0218624211847782,0.0308207627385854
1769249292266,-0.082550048828125,-0.1641082763671875,-0.97052001953125,-0.053384393453598,0.0235247667878866,0.0492775328457355
1769249292276,-0.086334228515625,-0.1643218994140625,-0.96905517578125,-0.0692467167973518,0.0244510136544704,0.0562321133911609
1769249292286,-0.097503662109375,-0.168121337890625,-0.968841552734375,-0.0909631922841072,0.02763082832098,0.0590068623423576
1769249292296,-0.1017913818359375,-0.1661224365234375,-0.966217041015625,-0.1097501963376998,0.0331592857837677,0.0613049007952213
1769249292306,-0.102783203125,-0.154266357421875,-0.971038818359375,-0.1212883442640304,0.0445807836949825,0.0589762330055236
1769249292317,-0.1086273193359375,-0.1389617919921875,-0.9815216064453124,-0.1135404109954834,0.0533375218510627,0.0528006292879581
1769249292327,-0.1135711669921875,-0.1426849365234375,-0.986358642578125,-0.1130653023719787,0.0194924753159284,0.0477062687277793
1769249292337,-0.108001708984375,-0.197845458984375,-0.9832305908203124,-0.1358678191900253,-0.0381143614649772,0.045964028686285
1769249292347,-0.088470458984375,-0.207244873046875,-0.9962615966796876,-0.1154328510165214,0.017697237432003,0.0644255951046943
1769249292357,-0.077117919921875,-0.05767822265625,-0.9998016357421876,-0.0689540356397628,0.1334214359521865,0.0301397927105426
1769249292367,-0.1442413330078125,-0.0556640625,-1.010894775390625,-0.022138325497508,0.156251385807991,-0.0302178226411342
1769249292377,-0.156707763671875,-0.1868438720703125,-0.979156494140625,-0.0586928725242614,-0.0838387086987495,-0.0404840447008609
1769249292387,-0.0999603271484375,-0.209259033203125,-0.9945831298828124,-0.0107628991827368,-0.0064650899730622,-0.0231732297688722
1769249292397,-0.0813751220703125,-0.1115570068359375,-1.0063629150390625,0.0002143844612874,0.0422867350280284,-0.0317422151565551
1769249292407,-0.1210174560546875,-0.1382293701171875,-0.95941162109375,-0.0022964437957853,-0.008960205130279,-0.0604753270745277
1769249292417,-0.1262969970703125,-0.1715087890625,-0.9603271484375,0.0025776736438274,-0.0497012436389923,-0.05504647269845
1769249292427,-0.088134765625,-0.1526947021484375,-0.984405517578125,0.0096228001639246,-0.0570494383573532,-0.0481387674808502
1769249292437,-0.0902557373046875,-0.1810302734375,-0.996429443359375,0.0130010200664401,-0.0546818859875202,-0.0455152876675128
1769249292447,-0.0943756103515625,-0.1928253173828125,-0.9898834228515624,0.0043398872949182,-0.0525367110967636,-0.0286628045141696
1769249292457,-0.07916259765625,-0.177520751953125,-0.9844970703125,-0.00637773796916,-0.0339726135134696,-0.0032980586402118
1769249292467,-0.067962646484375,-0.160552978515625,-0.98846435546875,-0.0242755115032196,0.00065407238435,0.0162402223795652
1769249292477,-0.07666015625,-0.1254730224609375,-0.9853668212890624,-0.0458942539989948,0.0261905919760465,0.0197481382638216
1769249292487,-0.0987548828125,-0.1234283447265625,-0.9808502197265624,-0.0554715134203434,0.0023028354626148,0.0175291933119297
1769249292497,-0.111053466796875,-0.1513824462890625,-0.991729736328125,-0.0550022646784782,-0.016516126692295,0.0142220789566636
1769249292507,-0.1124114990234375,-0.1619720458984375,-0.9924774169921876,-0.0491869859397411,-0.0156122492626309,0.0118633173406124
1769249292517,-0.1132659912109375,-0.16827392578125,-0.985565185546875,-0.0484615415334701,-0.0096092177554965,0.0006290386663749
1769249292527,-0.1069488525390625,-0.15826416015625,-0.980316162109375,-0.0427954010665416,0.0075742965564131,-0.0029670277144759
1769249292538,-0.099090576171875,-0.1241455078125,-0.9840545654296876,-0.0218150168657302,0.0258688814938068,-0.0178469084203243
1769249292548,-0.1114959716796875,-0.1305389404296875,-0.9904937744140624,0.0104366615414619,0.0090941628441214,-0.0330929718911647
1769249292558,-0.1100921630859375,-0.14361572265625,-0.99310302734375,0.0351902097463607,-0.0251636765897274,-0.03550685942173
1769249292568,-0.099395751953125,-0.1478271484375,-0.989776611328125,0.0495302677154541,-0.0384690947830677,-0.0313174426555633
1769249292578,-0.0897216796875,-0.14837646484375,-0.98236083984375,0.0445536188781261,-0.0281626619398593,-0.0311219673603773
1769249292588,-0.08648681640625,-0.1516571044921875,-0.966339111328125,0.0318985432386398,-0.0189278852194547,-0.0324538126587867
1769249292598,-0.0863800048828125,-0.1624755859375,-0.955657958984375,0.0182421207427978,-0.0142492428421974,-0.0263053737580776
1769249292608,-0.0865325927734375,-0.1651763916015625,-0.9585723876953124,-0.0027188211679458,-0.0027515781112015,-0.0201151221990585
1769249292618,-0.083770751953125,-0.1580657958984375,-0.9617156982421876,-0.0196088552474975,0.0135688055306673,-0.0118899485096335
1769249292628,-0.0877838134765625,-0.151947021484375,-0.968902587890625,-0.0345148332417011,0.0160476751625537,-0.0029718214645981
1769249292638,-0.095184326171875,-0.152435302734375,-0.9683074951171876,-0.0563993602991104,0.0096576875075697,-0.0016865798970684
1769249292648,-0.1033477783203125,-0.1473236083984375,-0.9638214111328124,-0.0791086703538894,0.0093226619064807,0.003859719261527
1769249292658,-0.103607177734375,-0.143951416015625,-0.963714599609375,-0.1023175865411758,0.0059766662307083,0.0103066992014646
1769249292668,-0.1001434326171875,-0.1548614501953125,-0.9701385498046876,-0.1215589195489883,0.0008809737046249,0.017211478203535
1769249292678,-0.094268798828125,-0.148468017578125,-0.9775390625,-0.1295651793479919,0.0099881859496235,0.0202299039810895
1769249292688,-0.1036376953125,-0.127410888671875,-0.9846649169921876,-0.1230905055999755,0.0305488537997007,0.0120785003527998
1769249292698,-0.1148834228515625,-0.124359130859375,-0.986358642578125,-0.1127206906676292,0.014200241304934,0.0038655782118439
1769249292708,-0.11077880859375,-0.1815948486328125,-0.994232177734375,-0.1239842623472213,-0.0472101233899593,-0.0025158883072435
1769249292718,-0.083831787109375,-0.208343505859375,-1.0076446533203125,-0.1120053604245185,0.0049753175117075,0.0212104804813861
1769249292729,-0.0675811767578125,-0.063507080078125,-1.0005950927734375,-0.0764676108956337,0.1033761873841285,-0.00926274061203
1769249292738,-0.1340179443359375,-0.0164947509765625,-1.00927734375,-0.0080166477710008,0.1870564371347427,-0.0617746859788894
1769249292749,-0.156005859375,-0.149017333984375,-0.986480712890625,-0.0508424080908298,-0.093644730746746,-0.0934362038969993
1769249292759,-0.1019439697265625,-0.224884033203125,-1.0014495849609375,-0.0002101234131259,-0.0075756278820335,-0.0514919534325599
1769249292769,-0.0637054443359375,-0.09918212890625,-1.0196685791015625,0.0123645244166255,0.0432417467236518,-0.0558771155774593
1769249292779,-0.11163330078125,-0.139862060546875,-0.9695587158203124,0.0110222911462187,-0.0110326772555708,-0.0825207084417343
1769249292789,-0.119842529296875,-0.16790771484375,-0.964508056640625,0.0127426935359835,-0.0524485595524311,-0.0779592469334602
1769249292799,-0.081512451171875,-0.141845703125,-0.97930908203125,0.0139200761914253,-0.058670237660408,-0.0641158670186996
1769249292809,-0.0765838623046875,-0.167633056640625,-0.9887847900390624,0.0128260497003793,-0.0495284050703048,-0.0488274618983268
1769249292819,-0.07769775390625,-0.183807373046875,-0.9839019775390624,-0.004824848845601,-0.0321930907666683,-0.026560503989458
1769249292829,-0.067840576171875,-0.1735687255859375,-0.97100830078125,-0.0192416049540042,-0.011577027849853,0.0031670311000198
1769249292839,-0.065948486328125,-0.1490325927734375,-0.978240966796875,-0.0290508270263671,0.0115815550088882,0.0235002655535936
1769249292849,-0.07830810546875,-0.1263885498046875,-0.98895263671875,-0.0375662855803966,0.0311656426638364,0.0290617458522319
1769249292859,-0.093841552734375,-0.102813720703125,-0.991180419921875,-0.0492453090846538,0.021281586959958,0.0255711395293474
1769249292869,-0.1113128662109375,-0.124298095703125,-0.994049072265625,-0.0485616773366928,-0.0105370627716183,0.0226555112749338
1769249292879,-0.1133575439453125,-0.1490020751953125,-1.0004425048828125,-0.0377750769257545,-0.017990717664361,0.0206229873001575
1769249292889,-0.1111602783203125,-0.1554412841796875,-0.9999847412109376,-0.0332551598548889,-0.0026088326703757,0.0139578934758901
1769249292899,-0.10455322265625,-0.145477294921875,-0.9863433837890624,-0.0414648838341236,0.011772503145039,0.0061348578892648
1769249292909,-0.1021270751953125,-0.1219024658203125,-0.9744873046875,-0.0396118573844432,0.0306838769465684,-0.0097221359610557
1769249292919,-0.1114044189453125,-0.1292266845703125,-0.972259521484375,-0.0310844164341688,0.0330144092440605,-0.0169070772826671
1769249292929,-0.1055450439453125,-0.1357879638671875,-0.9707794189453124,-0.0203175228089094,0.0190834123641252,-0.0192069839686155
1769249292939,-0.0944671630859375,-0.137542724609375,-0.97625732421875,-0.0110800815746188,0.0078272968530654,-0.0197494700551033
1769249292949,-0.0935211181640625,-0.1410675048828125,-0.9805908203125,-0.0070166303776204,0.0013997574569657,-0.0234150439500808
1769249292960,-0.0950927734375,-0.1402130126953125,-0.9763641357421876,-0.0056357816793024,-0.0127115342766046,-0.0278236418962478
1769249292970,-0.091522216796875,-0.1365966796875,-0.9749603271484376,-0.008591890335083,-0.0191079135984182,-0.0279000736773014
1769249292980,-0.0886688232421875,-0.13983154296875,-0.9777374267578124,-0.0128950262442231,-0.0113288210704922,-0.0254955068230628
1769249292990,-0.087799072265625,-0.139862060546875,-0.976776123046875,-0.0219345930963754,-0.0069516492076218,-0.0189278852194547
1769249293000,-0.0833892822265625,-0.1406707763671875,-0.9704132080078124,-0.0352623835206031,-0.0051433630287647,-0.0091913677752017
1769249293010,-0.085205078125,-0.145294189453125,-0.9680328369140624,-0.0479611344635486,0.0040192427113652,-0.0018394453218206
1769249293020,-0.0915374755859375,-0.1494140625,-0.969818115234375,-0.0606220662593841,0.021173994988203,0.0024066986516118
1769249293030,-0.09429931640625,-0.146270751953125,-0.97076416015625,-0.0706651136279106,0.0231556519865989,0.0080339582636952
1769249293040,-0.09576416015625,-0.142364501953125,-0.9741668701171876,-0.0808304026722908,0.0062174159102141,0.0149408662691712
1769249293050,-0.09307861328125,-0.1281585693359375,-0.9853057861328124,-0.0758063495159149,0.0192032549530267,0.0257224068045616
1769249293060,-0.0946197509765625,-0.1129302978515625,-1.00299072265625,-0.0589863546192646,0.0263229496777057,0.0259421188384294
1769249293070,-0.1044769287109375,-0.1249237060546875,-1.0040283203125,-0.0464247576892375,0.0006961502949707,0.0293496325612068
1769249293080,-0.098968505859375,-0.1777191162109375,-0.9927520751953124,-0.0639547482132911,-0.0472548641264438,0.0341004468500614
1769249293090,-0.0786285400390625,-0.1998291015625,-0.990203857421875,-0.0710600614547729,0.0125309713184833,0.0634391605854034
1769249293100,-0.0678863525390625,-0.06640625,-0.9912109375,-0.0597669258713722,0.0995542854070663,0.032794963568449
1769249293110,-0.1331787109375,-0.01434326171875,-1.0029144287109375,0.0033619746100157,0.2163642644882202,-0.010742925107479
1769249293120,-0.1547698974609375,-0.1177520751953125,-0.9818267822265624,-0.0365204587578773,-0.05204588919878,-0.0553620569407939
1769249293130,-0.1158294677734375,-0.20751953125,-0.9918212890625,-0.0041516018100082,-0.0214722696691751,-0.0267008524388074
1769249293140,-0.0816802978515625,-0.0999298095703125,-1.0140838623046875,-0.0086219841614365,0.0176740679889917,-0.0364940948784351
1769249293150,-0.1151885986328125,-0.1315155029296875,-0.9683837890625,-0.0206426940858364,-0.0160032007843256,-0.071062721312046
1769249293160,-0.120574951171875,-0.1494140625,-0.96356201171875,-0.018016017973423,-0.0198562629520893,-0.0749416202306747
1769249293170,-0.0882415771484375,-0.1310882568359375,-0.985137939453125,-0.005665342323482,-0.0217042304575443,-0.0685891807079315
1769249293181,-0.08258056640625,-0.14654541015625,-0.9976348876953124,0.0033257554750889,-0.03186472132802,-0.0654655620455741
1769249293190,-0.0885772705078125,-0.165924072265625,-0.9886474609375,-0.0072824140079319,-0.0281341653317213,-0.0555799044668674
1769249293201,-0.086578369140625,-0.1638946533203125,-0.9726715087890624,-0.031344074755907,-0.0068408618681132,-0.0370869152247905
1769249293211,-0.075897216796875,-0.1387176513671875,-0.9739227294921876,-0.0529249981045722,0.0344631671905517,-0.0244859009981155
1769249293221,-0.07611083984375,-0.1232757568359375,-0.9871368408203124,-0.0809057652950286,0.0563807189464569,-0.0166785791516304
1769249293231,-0.0828094482421875,-0.1065826416015625,-0.991943359375,-0.0942130535840988,0.0515478774905204,-0.0153254270553588
1769249293241,-0.0984649658203125,-0.12158203125,-0.9997100830078124,-0.089880883693695,0.0349233634769916,-0.0147384656593203
1769249293251,-0.1072540283203125,-0.1394805908203125,-1.002166748046875,-0.0805560946464538,0.0201231110841035,-0.0105535751208662
1769249293261,-0.1045684814453125,-0.150054931640625,-0.9953765869140624,-0.0757099390029907,0.0199990086257457,-0.0126113994047045
1769249293271,-0.097381591796875,-0.1448516845703125,-0.9898834228515624,-0.0819859430193901,0.024017184972763,-0.0107426587492227
1769249293281,-0.0890655517578125,-0.10675048828125,-0.9921112060546876,-0.0655068382620811,0.0592500083148479,-0.0206349715590477
1769249293291,-0.1012420654296875,-0.1088714599609375,-1.008758544921875,-0.0325832441449165,0.0531391166150569,-0.0294060911983251
1769249293301,-0.10321044921875,-0.11993408203125,-1.0076904296875,0.0025787388440221,0.0096584865823388,-0.0340439863502979
1769249293311,-0.0958404541015625,-0.117889404296875,-0.998199462890625,0.0293072890490293,-0.0113839479163289,-0.0298183485865592
1769249293321,-0.090667724609375,-0.1130218505859375,-0.9884490966796876,0.0483374372124671,-0.0043715788051486,-0.0260941851884126
1769249293331,-0.08526611328125,-0.1219482421875,-0.9830474853515624,0.0619933307170867,0.0162058677524328,-0.0203894283622503
1769249293341,-0.0831298828125,-0.1279296875,-0.9785003662109376,0.075283832848072,0.0147587060928344,-0.0187611710280179
1769249293351,-0.0841217041015625,-0.126800537109375,-0.9815826416015624,0.0892489179968833,0.0002170476218452,-0.0115573201328516
1769249293361,-0.085205078125,-0.1233978271484375,-0.9827880859375,0.0927222147583961,-0.0302455201745033,-0.0100169479846954
1769249293371,-0.0871734619140625,-0.127685546875,-0.979461669921875,0.0891868695616722,-0.048318263143301,-0.0068576396442949
1769249293381,-0.09173583984375,-0.1361846923828125,-0.97979736328125,0.070887491106987,-0.0529204718768596,-0.0022527680266648
1769249293391,-0.09063720703125,-0.1392059326171875,-0.9710540771484376,0.0481347739696502,-0.0483108088374137,0.00042663840577
1769249293401,-0.0883636474609375,-0.14691162109375,-0.9685821533203124,0.021706361323595,-0.0559500828385353,0.0048711877316236
1769249293412,-0.0856475830078125,-0.1589202880859375,-0.9684295654296876,-0.0130652021616697,-0.0615557730197906,0.0166143961250782
1769249293422,-0.0773162841796875,-0.1549530029296875,-0.9722900390625,-0.0425024516880512,-0.0524546839296817,0.0358751751482486
1769249293432,-0.07647705078125,-0.1255340576171875,-0.989044189453125,-0.0485576838254928,-0.0327419675886631,0.0523340441286563
1769249293442,-0.0886383056640625,-0.11505126953125,-0.989898681640625,-0.0365593433380126,-0.0376110263168811,0.0566837862133979
1769249293452,-0.09783935546875,-0.1641082763671875,-0.9844512939453124,-0.0403769835829734,-0.0721636787056922,0.062285479158163
1769249293462,-0.0805206298828125,-0.22381591796875,-0.9808502197265624,-0.0575266741216182,-0.0410502292215824,0.086755134165287
1769249293472,-0.0499420166015625,-0.0981597900390625,-0.984130859375,-0.0784300938248634,0.0112617090344429,0.0692541748285293
1769249293482,-0.104400634765625,0.025787353515625,-0.992919921875,0.0243977513164281,0.2083899527788162,0.0412600897252559
1769249293492,-0.1498565673828125,-0.0296478271484375,-0.9965362548828124,0.0067053069360554,-0.0801001638174057,-0.0576150938868522
1769249293502,-0.1529998779296875,-0.2165679931640625,-0.9840087890625,0.0674557387828826,-0.1151111423969268,-0.0484769865870475
1769249293512,-0.096221923828125,-0.0731658935546875,-1.0279083251953125,0.1018816232681274,-0.0676730498671531,-0.0407807193696498
1769249293522,-0.1280517578125,-0.0880126953125,-0.98114013671875,0.1132852807641029,-0.0874273180961608,-0.0880694016814231
1769249293532,-0.153961181640625,-0.1317138671875,-0.9579620361328124,0.1127577051520347,-0.1151707991957664,-0.1113731265068054
1769249293542,-0.1204986572265625,-0.1286468505859375,-0.9681396484375,0.0995777249336242,-0.1340827047824859,-0.1176150441169738
1769249293552,-0.093780517578125,-0.1815643310546875,-0.9795989990234376,0.0742521286010742,-0.1602919399738311,-0.111364871263504
1769249293562,-0.0756378173828125,-0.2306976318359375,-0.9800872802734376,0.0253740660846233,-0.1548662781715393,-0.0764409750699997
1769249293572,-0.0540313720703125,-0.22283935546875,-0.97186279296875,-0.0366863757371902,-0.1122045665979385,-0.0224989168345928
1769249293582,-0.046295166015625,-0.181884765625,-0.97528076171875,-0.0835806503891944,-0.0416616946458816,0.0328887067735195
1769249293592,-0.0539398193359375,-0.141510009765625,-0.9868927001953124,-0.1259052008390426,0.0055958339944481,0.0694895982742309
1769249293602,-0.071136474609375,-0.0896148681640625,-1.0015106201171875,-0.1574607342481613,0.0345001854002475,0.0875580757856369
1769249293613,-0.0962982177734375,-0.0933380126953125,-1.00689697265625,-0.1752783358097076,0.0444923676550388,0.092985600233078
1769249293623,-0.1097564697265625,-0.117156982421875,-1.004669189453125,-0.1710122227668762,0.0709284991025924,0.1007569730281829
1769249293633,-0.10406494140625,-0.1240692138671875,-1.004058837890625,-0.1536982208490371,0.0825840905308723,0.1031892374157905
1769249293643,-0.10711669921875,-0.142974853515625,-0.993438720703125,-0.1347383707761764,0.0916324481368064,0.0931366011500358
1769249293653,-0.112457275390625,-0.10772705078125,-0.991973876953125,-0.0750361606478691,0.1048406586050987,0.0591922178864479
1769249293663,-0.139739990234375,-0.098297119140625,-1.0125274658203125,-0.0302894618362188,0.0544776245951652,0.0218227412551641
1769249293673,-0.1379852294921875,-0.125640869140625,-0.99560546875,0.0051931641064584,-0.0084470147266983,0.004430434666574
1769249293683,-0.1192626953125,-0.1334381103515625,-0.992034912109375,0.0272619817405939,-0.0503521189093589,0.001292698434554
1769249293693,-0.106475830078125,-0.1358184814453125,-0.9949951171875,0.031945414841175,-0.0475358255207538,0.0003579288604669
1769249293703,-0.0995330810546875,-0.1396942138671875,-0.98870849609375,0.0201625265181064,-0.0284585393965244,0.0110963266342878
1769249293713,-0.086761474609375,-0.1396484375,-0.9796295166015624,0.0212602820247411,-0.0087578054517507,0.0116750318557024
1769249293723,-0.0931549072265625,-0.1364898681640625,-0.996307373046875,0.0212672054767608,0.0106084356084465,0.0035787557717412
1769249293733,-0.098388671875,-0.132659912109375,-0.99798583984375,0.0117080546915531,0.0490740686655044,0.0074605792760849
1769249293743,-0.0878753662109375,-0.1215972900390625,-0.99029541015625,0.0240313000977039,0.0699436664581298,0.0117101855576038
1769249293753,-0.090545654296875,-0.116119384765625,-1.0030975341796875,0.0308953318744897,0.0758465602993965,0.0150742903351783
1769249293763,-0.0936126708984375,-0.121429443359375,-0.9973907470703124,0.0290931705385446,0.079906016588211,0.0189814139157533
1769249293773,-0.0974884033203125,-0.1209869384765625,-0.98272705078125,0.0316900201141834,0.0743858143687248,0.0241314359009265
1769249293783,-0.0966339111328125,-0.1276092529296875,-0.9820404052734376,0.0346847437322139,0.0565964356064796,0.0267349407076835
1769249293793,-0.1021881103515625,-0.1304168701171875,-0.9875335693359376,0.0377148874104023,0.0354842245578765,0.0306966602802276
1769249293803,-0.108306884765625,-0.1316375732421875,-0.981964111328125,0.0428800880908966,0.0298492424190044,0.0338628925383091
1769249293814,-0.1123809814453125,-0.1206817626953125,-0.97808837890625,0.0472958758473396,0.0026232136879116,0.0341249480843544
1769249293823,-0.113128662109375,-0.1397247314453125,-0.9819793701171876,0.025531193241477,-0.065181665122509,0.0339316017925739
1769249293834,-0.1022491455078125,-0.200897216796875,-0.983062744140625,0.0164514109492301,-0.0454801321029663,0.0473922826349735
1769249293844,-0.0830535888671875,-0.10028076171875,-0.9867095947265624,-0.0003573962021619,0.0306436624377965,0.049680471420288
1769249293854,-0.11590576171875,-0.006866455078125,-0.9801483154296876,0.0925174131989479,0.2280864268541336,-0.0085239792242646
1769249293864,-0.17938232421875,-0.0947113037109375,-0.9905548095703124,0.0228619053959846,-0.0180306658148765,-0.0628436803817749
1769249293874,-0.131072998046875,-0.21771240234375,-0.955841064453125,0.0577900633215904,0.0201550684869289,-0.0497387945652008
1769249293884,-0.06903076171875,-0.0783538818359375,-0.997711181640625,0.0681047514081001,0.1132666394114494,-0.0494549013674259
1769249293894,-0.112945556640625,-0.0560302734375,-0.9505462646484376,0.0463272854685783,0.0643371790647506,-0.0959236025810241
1769249293904,-0.157684326171875,-0.1556396484375,-0.934722900390625,0.0180905871093273,-0.0237327590584754,-0.0989673286676406
1769249293914,-0.1082305908203125,-0.1505126953125,-0.961029052734375,-0.0158988051116466,-0.0758018195629119,-0.0708832293748855
1769249293924,-0.078765869140625,-0.1638336181640625,-0.9757232666015624,-0.0392241030931472,-0.104471281170845,-0.0674738511443138
1769249293934,-0.0910186767578125,-0.1905364990234375,-0.9827117919921876,-0.0652168169617652,-0.1039695441722869,-0.0591863580048084
1769249293944,-0.079620361328125,-0.1856231689453125,-0.9785003662109376,-0.1091983914375305,-0.0563759244978427,-0.0398315675556659
1769249293954,-0.0660400390625,-0.1619110107421875,-0.9742584228515624,-0.1466038227081298,0.0169486235827207,-0.0115123130381107
1769249293964,-0.0627593994140625,-0.1138458251953125,-0.9869537353515624,-0.1586564928293228,0.087902158498764,0.0041329595260322
1769249293974,-0.084747314453125,-0.0694580078125,-1.000640869140625,-0.1393160820007324,0.1086596325039863,-0.0029177593532949
1769249293984,-0.117767333984375,-0.091888427734375,-1.019927978515625,-0.102687232196331,0.0732156261801719,-0.0146431252360343
1769249293995,-0.1192626953125,-0.1109466552734375,-1.0334930419921875,-0.0615240819752216,0.0300194174051284,-0.0159328933805227
1769249294004,-0.1107025146484375,-0.137725830078125,-1.036224365234375,-0.0263812728226184,0.0015438344562426,-0.0161323640495538
1769249294015,-0.0985870361328125,-0.1641387939453125,-1.0290374755859375,0.0066994479857385,0.032922264188528,-0.0118449414148926
1769249294024,-0.082275390625,-0.1280059814453125,-1.008026123046875,0.0303688254207372,0.0604135431349277,-0.008566590026021
1769249294034,-0.08135986328125,-0.1272430419921875,-0.9917144775390624,0.0707743018865585,0.0570816621184349,-0.0071055800653994
1769249294044,-0.08734130859375,-0.13299560546875,-1.0035858154296875,0.1125361323356628,0.0449738651514053,0.0028370653744786
1769249294055,-0.081787109375,-0.131317138671875,-0.9921417236328124,0.1271124184131622,0.0018628811230883,0.0155930742621421
1769249294065,-0.0767059326171875,-0.1402587890625,-0.9792633056640624,0.1335442066192627,0.0080877542495727,0.0280614625662565
1769249294075,-0.0789337158203125,-0.140625,-0.9830322265625,0.124778151512146,0.0389505960047245,0.0287059471011161
1769249294085,-0.083587646484375,-0.1435546875,-0.9782257080078124,0.1250045150518417,0.0494024381041526,0.0280534718185663
1769249294095,-0.086151123046875,-0.1435089111328125,-0.9823455810546876,0.1210595816373825,0.0439027436077594,0.0298969130963087
1769249294105,-0.0856170654296875,-0.1392059326171875,-0.9818572998046876,0.1106570065021514,0.045671347528696,0.0309949330985546
1769249294115,-0.08697509765625,-0.1369476318359375,-0.98297119140625,0.094320110976696,0.0509350858628749,0.0316466093063354
1769249294125,-0.09130859375,-0.135833740234375,-0.9756317138671876,0.0728025659918785,0.068603828549385,0.0294686760753393
1769249294135,-0.0969696044921875,-0.1299591064453125,-0.9704437255859376,0.0533537678420543,0.0733333379030227,0.0264406614005565
1769249294145,-0.0997467041015625,-0.1300506591796875,-0.973388671875,0.0400914922356605,0.0799590125679969,0.0274052582681179
1769249294155,-0.0958251953125,-0.1298370361328125,-0.9769287109375,0.0194685067981481,0.0827271044254303,0.0268643703311681
1769249294165,-0.1010284423828125,-0.13311767578125,-0.97235107421875,0.0098907137289643,0.0768420472741127,0.0252417065203189
1769249294175,-0.1055145263671875,-0.1326141357421875,-0.980133056640625,0.0040019322186708,0.072566881775856,0.0254720710217952
1769249294185,-0.1014404296875,-0.123382568359375,-0.9757232666015624,0.0097551587969064,0.0761778578162193,0.0143272737041115
1769249294195,-0.1059722900390625,-0.1231842041015625,-0.985198974609375,0.000449807906989,0.0156098520383238,-0.0007912251749075
1769249294205,-0.1033782958984375,-0.1663055419921875,-0.991058349609375,-0.0249085463583469,-0.0308937337249517,-0.0037963360082358
1769249294215,-0.0855560302734375,-0.154388427734375,-1.0016326904296875,0.0023113575298339,0.0530903823673725,-0.0069362032227218
1769249294225,-0.088897705078125,-0.030487060546875,-0.997955322265625,0.0425810143351554,0.151632934808731,-0.0564313195645809
1769249294235,-0.1438446044921875,-0.1010894775390625,-0.9864959716796876,0.017648234963417,0.0898254960775375,-0.0990211218595504
1769249294245,-0.1132354736328125,-0.2205810546875,-0.9681854248046876,0.0107277454808354,0.0342375971376895,-0.0927318036556243
1769249294255,-0.049530029296875,-0.165008544921875,-0.998260498046875,0.0564182698726654,0.1423331797122955,-0.0654176250100135
1769249294265,-0.05078125,-0.066162109375,-0.9637603759765624,0.0971752852201461,0.1368337422609329,-0.0714800432324409
1769249294276,-0.1107635498046875,-0.120361328125,-0.9618988037109376,0.0921839922666549,0.0891546458005905,-0.0671161860227584
1769249294286,-0.09619140625,-0.1675262451171875,-0.96630859375,0.0592822320759296,0.0213990323245525,-0.0277405511587858
1769249294296,-0.0582427978515625,-0.17596435546875,-0.97021484375,0.037115678191185,-0.0272177718579769,-0.0080059943720698
1769249294306,-0.06005859375,-0.1995849609375,-0.9860076904296876,0.0244384966790676,-0.0357034020125865,-0.0041774343699216
1769249294316,-0.0616455078125,-0.1871795654296875,-0.9941864013671876,0.002135056303814,-0.0082155857235193,0.0063303336501121
1769249294326,-0.0607452392578125,-0.1671600341796875,-0.988250732421875,-0.0191364102065563,0.0630719065666198,0.0181233435869216
1769249294336,-0.062042236328125,-0.1280975341796875,-1.0039215087890625,-0.0171073470264673,0.0999335199594497,0.0204570721834898
1769249294346,-0.082672119140625,-0.0888671875,-1.010406494140625,0.0018636800814419,0.0929866656661033,0.0067444555461406
1769249294356,-0.1086883544921875,-0.0981903076171875,-1.004364013671875,0.0267557147890329,0.0717639327049255,-0.0105144260451197
1769249294366,-0.112548828125,-0.1175994873046875,-1.002532958984375,0.03864486515522,0.0546067878603935,-0.010562895797193
1769249294376,-0.090911865234375,-0.1435546875,-0.988800048828125,0.037548441439867,0.040985781699419,-0.0129363052546978
1769249294386,-0.077117919921875,-0.1905364990234375,-0.9842071533203124,0.0316849574446678,0.0345057807862758,-0.008780175819993
1769249294396,-0.0630645751953125,-0.1726226806640625,-0.976226806640625,0.0290582831948995,0.0430188402533531,0.0003230414295103
1769249294406,-0.06439208984375,-0.1420135498046875,-0.9696807861328124,0.0437392257153987,0.0417096279561519,-0.0024743429385125
1769249294416,-0.0788726806640625,-0.14666748046875,-0.9841766357421876,0.0747906193137168,0.0408182702958583,0.0007861651247367
1769249294426,-0.0735015869140625,-0.1285400390625,-0.987945556640625,0.0908966138958931,0.0244254488497972,0.0041372207924723
1769249294436,-0.0713348388671875,-0.13946533203125,-0.98138427734375,0.0947097316384315,0.0136590870097279,0.0035358788445591
1769249294446,-0.07232666015625,-0.1512908935546875,-0.98681640625,0.095365397632122,0.0003070624661631,0.0025417208671569
1769249294457,-0.0699615478515625,-0.1529693603515625,-0.9799652099609376,0.0924148857593536,-0.0111173661425709,0.0040727723389863
1769249294466,-0.066986083984375,-0.154541015625,-0.9796600341796876,0.0945134535431861,-0.0096528939902782,0.0093263899907469
1769249294476,-0.0655517578125,-0.16131591796875,-0.986572265625,0.1036963015794754,-0.0339433178305625,0.0140652190893888
1769249294487,-0.06414794921875,-0.1600799560546875,-0.9887847900390624,0.1069948896765708,-0.0556462183594703,0.0221239440143108
1769249294497,-0.0686187744140625,-0.1571044921875,-0.9814300537109376,0.0991169959306716,-0.0312063880264759,0.028595957905054
1769249294507,-0.068756103515625,-0.1464385986328125,-0.9762115478515624,0.0838664025068283,0.0112481275573372,0.030590932816267
1769249294517,-0.0743255615234375,-0.1431884765625,-0.972808837890625,0.0704949423670768,0.0568177439272403,0.0285038128495216
1769249294527,-0.080596923828125,-0.1490631103515625,-0.9783172607421876,0.0552691146731376,0.0636612698435783,0.0287413671612739
1769249294537,-0.0785980224609375,-0.1566925048828125,-0.9747772216796876,0.0442859716713428,0.0580286830663681,0.0278542675077915
1769249294547,-0.0814361572265625,-0.16156005859375,-0.9773406982421876,0.0356730408966541,0.0562534183263778,0.0274713058024644
1769249294557,-0.0815887451171875,-0.1544952392578125,-0.9762725830078124,0.0350029915571212,0.03566425293684,0.0241274405270814
1769249294567,-0.08502197265625,-0.142974853515625,-0.9733123779296876,0.0287903696298599,0.0259503740817308,0.0177957750856876
1769249294577,-0.087677001953125,-0.15972900390625,-0.9788970947265624,0.000638093391899,-0.010138121433556,0.0102249402552843
1769249294587,-0.077789306640625,-0.1760101318359375,-0.988861083984375,-0.0022168152499943,0.0104726143181324,0.0049670618027448
1769249294597,-0.073333740234375,-0.09539794921875,-0.98626708984375,0.0045691854320466,0.090031087398529,-0.022589199244976
1769249294607,-0.110992431640625,-0.0620269775390625,-0.9706878662109376,0.0345260202884674,0.1126061752438545,-0.0780641734600067
1769249294617,-0.127197265625,-0.205078125,-0.961151123046875,-0.006875482853502,-0.0234858840703964,-0.086567647755146
1769249294627,-0.048095703125,-0.2373046875,-0.9794464111328124,0.0314748361706733,0.0464977286756038,-0.0534951835870742
1769249294637,-0.0195465087890625,-0.126068115234375,-0.9700469970703124,0.079209066927433,0.0730965808033943,-0.049290582537651
1769249294647,-0.0869903564453125,-0.1140289306640625,-0.936492919921875,0.1053993925452232,0.0099711418151855,-0.0525747947394847
1769249294657,-0.1041259765625,-0.1711883544921875,-0.95458984375,0.0906843617558479,-0.0582963302731514,-0.0091242557391524
1769249294667,-0.043426513671875,-0.170806884765625,-0.970855712890625,0.0706478059291839,-0.0882267951965332,0.0255221370607614
1769249294677,-0.0463714599609375,-0.1908721923828125,-0.98614501953125,0.0515646561980247,-0.0910811722278595,0.0250028222799301
1769249294687,-0.060272216796875,-0.1913909912109375,-0.9831695556640624,0.0274065900593996,-0.0508280284702777,0.0176160112023353
1769249294697,-0.062469482421875,-0.1724700927734375,-0.983123779296875,0.0055486960336565,-0.0133464317768812,0.0195001978427171
1769249294708,-0.0634307861328125,-0.1665191650390625,-0.9871673583984376,0.0040589235723018,0.0215194076299667,0.0207319092005491
1769249294718,-0.07330322265625,-0.1406707763671875,-0.99609375,0.0047185886651277,0.043423905968666,0.0200932845473289
1769249294728,-0.0870819091796875,-0.13299560546875,-0.9872894287109376,0.0032272185198962,0.033548105508089,0.0136313894763588
1769249294738,-0.09075927734375,-0.1392822265625,-0.9823150634765624,0.0046245791018009,0.0197795629501342,0.0122710475698113
1769249294748,-0.0831146240234375,-0.145965576171875,-0.97991943359375,0.010988469235599,0.0010325075127184,0.0097399791702628
1769249294758,-0.0824737548828125,-0.174957275390625,-0.980804443359375,0.0089719230309128,-0.0364099405705928,0.0031393342651426
1769249294768,-0.073211669921875,-0.2060089111328125,-0.97039794921875,0.0049918289296329,-0.0425437316298484,0.0086885625496506
1769249294778,-0.062225341796875,-0.1687164306640625,-0.9609375,0.00682701356709,-0.0205833055078983,0.0097996341064572
1769249294788,-0.071746826171875,-0.1440277099609375,-0.9586944580078124,0.0235676430165767,0.0090049467980861,-0.0062925168313086
1769249294798,-0.0849609375,-0.1463165283203125,-0.96575927734375,0.0427517257630825,0.0004652542411349,-0.0137280626222491
1769249294808,-0.072662353515625,-0.161956787109375,-0.9690704345703124,0.0482532829046249,-0.01868287473917,-0.0063806674443185
1769249294818,-0.0581207275390625,-0.1654052734375,-0.976715087890625,0.0495427846908569,-0.0265522487461566,0.0010916297324001
1769249294828,-0.0652618408203125,-0.169677734375,-0.979034423828125,0.049097504466772,-0.0369257926940918,-0.0033473272342234
1769249294838,-0.0771484375,-0.1678009033203125,-0.97418212890625,0.0347135066986084,-0.0302849356085062,-0.0047028763219714
1769249294848,-0.074798583984375,-0.1676788330078125,-0.9671630859375,0.0141400536522269,-0.0187068413943052,-0.0013598100049421
1769249294858,-0.068206787109375,-0.165130615234375,-0.9709930419921876,-0.0010668623726814,-0.0195305570960044,0.0008399609941989
1769249294869,-0.07086181640625,-0.166259765625,-0.9692230224609376,-0.0123368268832564,-0.0160671174526214,0.0040749027393758
1769249294878,-0.07550048828125,-0.169403076171875,-0.9698028564453124,-0.0254630148410797,-0.0009960222523659,0.0074214311316609
1769249294888,-0.0730438232421875,-0.17352294921875,-0.968994140625,-0.0367697328329086,0.0075564533472061,0.0176615510135889
1769249294898,-0.072174072265625,-0.170623779296875,-0.9688873291015624,-0.0422015152871608,0.0024807346053421,0.0240211803466081
1769249294908,-0.0776824951171875,-0.169219970703125,-0.973541259765625,-0.0440007485449314,-0.0048317732289433,0.026554113253951
1769249294919,-0.0795440673828125,-0.169952392578125,-0.9856414794921876,-0.0408859141170978,-0.0142095619812607,0.0269610434770584
1769249294929,-0.0798797607421875,-0.156982421875,-0.99383544921875,-0.0319768413901329,-0.018451178446412,0.0222911909222602
1769249294939,-0.0867156982421875,-0.145477294921875,-0.9913177490234376,-0.0154463341459631,-0.0225836057215929,0.012180233374238
1769249294949,-0.091278076171875,-0.1612091064453125,-0.9956207275390624,-0.023635821416974,-0.0535242110490798,0.0100417155772447
1769249294959,-0.076904296875,-0.2086944580078125,-0.995361328125,-0.0413317270576953,-0.0761285871267318,0.0145565718412399
1769249294969,-0.058624267578125,-0.177093505859375,-0.998382568359375,-0.0387652404606342,-0.0255351867526769,0.0207753200083971
1769249294979,-0.07403564453125,-0.0415496826171875,-0.9757843017578124,0.0310607142746448,0.1035753935575485,-0.0352690406143665
1769249294989,-0.1433868408203125,-0.1163330078125,-0.9813232421875,0.0091335773468017,-0.0355673134326934,-0.0693937242031097
1769249294999,-0.101959228515625,-0.2478485107421875,-0.969757080078125,0.0037670412566512,-0.0791209191083908,-0.0537338033318519
1769249295009,-0.0359344482421875,-0.21331787109375,-0.9994964599609376,0.0145416585728526,0.0241119936108589,-0.0327068120241165
1769249295019,-0.0475006103515625,-0.10089111328125,-0.9449462890625,0.032014925032854,0.0396243743598461,-0.0566033571958541
1769249295030,-0.1181182861328125,-0.1532135009765625,-0.94744873046875,0.0348557196557521,0.0080347573384642,-0.0603592135012149
1769249295039,-0.0892333984375,-0.1875,-0.978973388671875,0.0314729698002338,-0.04695525765419,-0.0287397690117359
1769249295049,-0.047515869140625,-0.1881256103515625,-1.000579833984375,0.0325704589486122,-0.1050483882427215,-0.0112212290987372
1769249295059,-0.0616302490234375,-0.2032470703125,-1.0006561279296875,0.0233303569257259,-0.0997044891119003,0.0003416835679672
1769249295069,-0.0677032470703125,-0.1970062255859375,-0.9833526611328124,0.00252600829117,-0.0783842876553535,0.0201886259019374
1769249295079,-0.0549163818359375,-0.1924285888671875,-0.9721527099609376,-0.0195382814854383,-0.0567042902112007,0.044325653463602
1769249295089,-0.052459716796875,-0.170745849609375,-0.9771728515625,-0.0265735536813735,-0.0072280853055417,0.0523526854813098
1769249295099,-0.072174072265625,-0.13201904296875,-0.9844970703125,-0.0343180261552333,-0.000835966260638,0.0407516919076442
1769249295109,-0.0979766845703125,-0.14019775390625,-0.9866485595703124,-0.0369502939283847,-0.0186399966478347,0.028612470254302
1769249295119,-0.0975494384765625,-0.1526947021484375,-0.9937896728515624,-0.0415583625435829,-0.0155685730278491,0.028236698359251
1769249295129,-0.0898895263671875,-0.157928466796875,-0.9891815185546876,-0.041041973978281,-0.0201476123183965,0.0170378386974334
1769249295140,-0.0983428955078125,-0.1927032470703125,-0.991363525390625,-0.0345302782952785,-0.0326788499951362,0.0065684206783771
1769249295150,-0.0885009765625,-0.18475341796875,-0.988677978515625,-0.0257631540298461,-0.0253106821328401,0.0058978362940251
1769249295160,-0.0774688720703125,-0.14678955078125,-0.98193359375,0.0005118595436215,-0.0095607480034232,-0.005215800832957
1769249295170,-0.092681884765625,-0.1519622802734375,-0.98736572265625,0.0283695887774229,-0.0244699232280254,-0.0153749613091349
1769249295180,-0.09124755859375,-0.1645050048828125,-0.9832000732421876,0.0490671433508396,-0.0534041039645671,-0.0118763670325279
1769249295190,-0.0785675048828125,-0.1622467041015625,-0.9808502197265624,0.0560155995190143,-0.0487909764051437,-0.0044349622912704
1769249295200,-0.077850341796875,-0.1603851318359375,-0.9736328125,0.0516421534121036,-0.0215116832405328,-0.0032866070978343
1769249295210,-0.0807647705078125,-0.167327880859375,-0.967926025390625,0.0486460998654365,-0.0229745581746101,-0.0045609297230839
1769249295220,-0.0760498046875,-0.1745147705078125,-0.9666900634765624,0.0423879362642765,-0.0153584498912096,0.0043524042703211
1769249295230,-0.073944091796875,-0.176788330078125,-0.966033935546875,0.0343321412801742,-0.0025590313598513,0.0048205880448222
1769249295240,-0.08013916015625,-0.1738433837890625,-0.9685516357421876,0.0267589092254638,-0.0135941058397293,0.0094049535691738
1769249295250,-0.0838165283203125,-0.172760009765625,-0.9661407470703124,0.0069812103174626,-0.0185371991246938,0.0124827688559889
1769249295260,-0.0843963623046875,-0.173309326171875,-0.958587646484375,-0.0220227446407079,-0.0051913000643253,0.0119333583861589
1769249295270,-0.084564208984375,-0.167388916015625,-0.953826904296875,-0.0536592341959476,0.003549727378413,0.0104750115424394
1769249295280,-0.0908355712890625,-0.1645050048828125,-0.9571990966796876,-0.0696445927023887,-0.0027806065045297,0.0091309137642383
1769249295290,-0.092803955078125,-0.1646270751953125,-0.97125244140625,-0.0770812034606933,-0.0152380745857954,0.006157228257507
1769249295300,-0.094512939453125,-0.1658935546875,-0.9869232177734376,-0.0811800733208656,-0.0129405660554766,0.0064824004657566
1769249295310,-0.0924835205078125,-0.1508026123046875,-0.9900970458984376,-0.0698392689228057,-0.0141547014936804,0.0091146687045693
1769249295320,-0.091949462890625,-0.1392669677734375,-0.994781494140625,-0.0506360121071338,-0.0256100222468376,0.0091556813567876
1769249295330,-0.0906524658203125,-0.1822052001953125,-0.99627685546875,-0.0643611475825309,-0.0682722628116607,0.0126116657629609
1769249295340,-0.07147216796875,-0.2269134521484375,-1.00238037109375,-0.0503899380564689,-0.0266443938016891,0.0298010390251874
1769249295351,-0.0556793212890625,-0.1065216064453125,-0.9944305419921876,-0.0299602951854467,0.0259338617324829,0.01295867562294
1769249295361,-0.11474609375,-0.0587005615234375,-0.9908599853515624,0.0615765452384948,0.1330392807722091,-0.0415122881531715
1769249295371,-0.149200439453125,-0.1705169677734375,-0.9832916259765624,0.0162420868873596,-0.0627510026097297,-0.0533196814358234
1769249295381,-0.086944580078125,-0.2371978759765625,-0.9919891357421876,0.0314045287668705,0.0056067528203129,-0.0319896228611469
1769249295391,-0.0534820556640625,-0.1585845947265625,-0.9948883056640624,0.0296950452029705,0.049909770488739,-0.026876887306571
1769249295401,-0.0905609130859375,-0.13262939453125,-0.9456329345703124,0.0234089195728302,0.0093586146831512,-0.0486769899725914
1769249295411,-0.11358642578125,-0.186187744140625,-0.9618072509765624,0.0091993575915694,-0.0101519702002406,-0.0344573110342025
1769249295421,-0.0704498291015625,-0.1725921630859375,-0.9757843017578124,0.0032344090286642,-0.0284737199544906,-0.0154431387782096
1769249295431,-0.06805419921875,-0.185455322265625,-0.990234375,0.0034975295420736,-0.0404949635267257,-0.0052237906493246
1769249295441,-0.0753021240234375,-0.194793701171875,-0.9910125732421876,-0.0037284255959093,-0.0767285972833633,0.0179638210684061
1769249295451,-0.07049560546875,-0.1886749267578125,-0.9704437255859376,-0.0196365509182214,-0.0500285476446151,0.0357840955257415
1769249295461,-0.06927490234375,-0.1829376220703125,-0.9718475341796876,-0.045603971928358,-0.0082637891173362,0.0477893613278865
1769249295471,-0.06915283203125,-0.1541595458984375,-0.9768218994140624,-0.0630463436245918,0.0129722580313682,0.0477230474352836
1769249295481,-0.0847320556640625,-0.1247711181640625,-0.9803314208984376,-0.0793182551860809,-0.001602690317668,0.0356562659144401
1769249295491,-0.1064300537109375,-0.1490631103515625,-0.9850006103515624,-0.0932170301675796,-0.0126132639124989,0.0222070347517728
1769249295501,-0.1082763671875,-0.1620025634765625,-0.992156982421875,-0.1072641387581825,-0.0057582869194447,0.0223817378282547
1769249295511,-0.1017913818359375,-0.1720123291015625,-0.98699951171875,-0.1087171584367752,-0.0062003717757761,0.0206043440848588
1769249295521,-0.096405029296875,-0.184234619140625,-0.9868011474609376,-0.1049578413367271,0.0119895515963435,0.0185747500509023
1769249295531,-0.08599853515625,-0.1468048095703125,-0.9859161376953124,-0.0888497084379196,0.027769312262535,0.0114689031615853
1769249295541,-0.09332275390625,-0.140655517578125,-0.9918365478515624,-0.0529300607740879,0.0190743580460548,0.0017118799732998
1769249295552,-0.0933685302734375,-0.15740966796875,-0.99591064453125,-0.0236752349883317,-0.0140111567452549,0.0043063312768936
1769249295562,-0.08184814453125,-0.163818359375,-0.99468994140625,-0.0098568918183445,-0.0209154020994901,0.0153171708807349
1769249295571,-0.077423095703125,-0.1667633056640625,-0.984405517578125,-0.0080989394336938,-0.0067276773042976,0.019965186715126
1769249295582,-0.080230712890625,-0.1616668701171875,-0.971710205078125,-0.0121088605374097,0.0110164321959018,0.0183265432715415
1769249295592,-0.0801239013671875,-0.155792236328125,-0.968780517578125,-0.0122771728783845,0.0288462955504655,0.0185425244271755
1769249295602,-0.0806427001953125,-0.1563568115234375,-0.970733642578125,-0.0172085482627153,0.0195236336439847,0.0161307659000158
1769249295612,-0.089385986328125,-0.161102294921875,-0.965362548828125,-0.0150196962058544,-0.0091295829042792,0.0235383491963148
1769249295622,-0.083587646484375,-0.1586761474609375,-0.9709625244140624,-0.0090393014252185,0.0140425823628902,0.033985398709774
1769249295632,-0.0800323486328125,-0.15570068359375,-0.9877166748046876,-0.0233133118599653,0.0176695417612791,0.0407831147313118
1769249295642,-0.08355712890625,-0.162109375,-0.9708099365234376,-0.0416763387620449,0.009656355716288,0.0406054817140102
1769249295652,-0.0953216552734375,-0.1574554443359375,-0.966156005859375,-0.0590084604918956,0.0125618642196059,0.0404265187680721
1769249295662,-0.0969085693359375,-0.1574554443359375,-0.967620849609375,-0.0758449658751487,0.0119956759735941,0.0418065674602985
1769249295672,-0.093536376953125,-0.1550140380859375,-0.97314453125,-0.0913416296243667,0.0192394740879535,0.0433890186250209
1769249295682,-0.0978240966796875,-0.13836669921875,-0.978424072265625,-0.1030835062265396,0.0410773940384388,0.0338924527168273
1769249295692,-0.108154296875,-0.129241943359375,-0.98358154296875,-0.1019167751073837,0.038594264537096,0.022569490596652
1769249295702,-0.1079254150390625,-0.1458892822265625,-0.980712890625,-0.1071885079145431,-0.0084981471300125,0.0198024660348892
1769249295712,-0.0958709716796875,-0.212005615234375,-0.9873809814453124,-0.1221975460648536,-0.0430665090680122,0.0231998618692159
1769249295722,-0.073699951171875,-0.1971282958984375,-1.0085906982421875,-0.1217458769679069,-0.0137706734240055,0.0415727421641349
1769249295732,-0.0791473388671875,-0.0611724853515625,-0.9918212890625,-0.0501324087381362,0.1089379340410232,-0.0147834736853837
1769249295742,-0.15484619140625,-0.040283203125,-1.0081939697265625,-0.0307549834251403,0.0519859679043293,-0.0635856315493583
1769249295752,-0.1377410888671875,-0.17047119140625,-0.975738525390625,-0.0449541583657264,-0.0702826827764511,-0.076112613081932
1769249295763,-0.080291748046875,-0.197967529296875,-1.0253448486328125,-0.0372688099741935,0.0101096257567405,-0.0384315438568592
1769249295772,-0.0595550537109375,-0.1097259521484375,-0.97674560546875,-0.0247269179672002,-0.002926813904196,-0.0569176115095615
1769249295782,-0.1183624267578125,-0.1549224853515625,-0.958221435546875,-0.0266278814524412,-0.0194775611162185,-0.0793139934539794
1769249295793,-0.103973388671875,-0.15936279296875,-0.9743804931640624,-0.0197944771498441,-0.0089415628463029,-0.0655355975031852
1769249295802,-0.0667572021484375,-0.145965576171875,-0.993499755859375,-0.0050916974432766,-0.0299717467278242,-0.0552273020148277
1769249295813,-0.075469970703125,-0.1832733154296875,-1.0010986328125,-0.0004314320976845,-0.0533929169178009,-0.0386770889163017
1769249295823,-0.0722503662109375,-0.190185546875,-0.9859771728515624,-0.0134859811514616,-0.0456676185131073,-0.0088773807510733
1769249295833,-0.057098388671875,-0.1814422607421875,-0.9731292724609376,-0.0329041555523872,-0.0109501192346215,0.0187166966497898
1769249295843,-0.05670166015625,-0.1590728759765625,-0.9806060791015624,-0.0529122166335582,0.0152093125507235,0.037447240203619
1769249295853,-0.0682220458984375,-0.1260986328125,-0.9833526611328124,-0.0647672787308693,0.0258795339614152,0.0462636351585388
1769249295863,-0.0879974365234375,-0.111114501953125,-0.9923095703125,-0.0602681338787078,0.0432601235806942,0.0356224440038204
1769249295873,-0.10491943359375,-0.129669189453125,-1.013153076171875,-0.0489856526255607,0.0111935324966907,0.0391620509326458
1769249295883,-0.1013946533203125,-0.147369384765625,-1.013641357421875,-0.0338402539491653,-0.0042565301991999,0.0445016883313655
1769249295893,-0.095001220703125,-0.1635894775390625,-1.0037689208984375,-0.0274350866675376,0.0056184707209467,0.0461890660226345
1769249295903,-0.0869293212890625,-0.1605224609375,-0.98846435546875,-0.028380773961544,0.0104867294430732,0.0432462729513645
1769249295913,-0.083038330078125,-0.123809814453125,-0.983245849609375,-0.0207364372909069,0.0293277949094772,0.0362450890243053
1769249295923,-0.092376708984375,-0.1240081787109375,-0.988525390625,-0.0003475425182841,0.0227444600313901,0.0268654357641935
1769249295933,-0.09466552734375,-0.1410369873046875,-0.991424560546875,0.0164269097149372,0.0043486757203936,0.0241743121296167
1769249295943,-0.0870819091796875,-0.145599365234375,-0.9865570068359376,0.021581457927823,0.0170626062899827,0.0249096099287271
1769249295953,-0.0853271484375,-0.1462249755859375,-0.9789581298828124,0.0198384188115596,0.024256071075797,0.0209316462278366
1769249295963,-0.0893707275390625,-0.1468353271484375,-0.971832275390625,0.0197899490594863,0.0259935166686773,0.0168293137103319
1769249295973,-0.08660888671875,-0.1474456787109375,-0.9727630615234376,0.0217827931046485,0.0223867986351251,0.0152274221181869
1769249295983,-0.086151123046875,-0.1452178955078125,-0.97955322265625,0.0221585649996995,0.0107296099886298,0.0191398728638887
1769249295994,-0.082427978515625,-0.1404266357421875,-0.9810333251953124,0.0176623500883579,0.0018540926976129,0.0262859314680099
1769249296003,-0.079742431640625,-0.1460723876953125,-0.9770050048828124,0.0104917893186211,-0.0084912227466702,0.0324892327189445
1769249296014,-0.0782470703125,-0.1522064208984375,-0.9718475341796876,-0.0033324135001748,-0.0076272934675216,0.0397008061408996
1769249296024,-0.0787506103515625,-0.150054931640625,-0.9647674560546876,-0.0173587501049041,0.0087317060679197,0.0462495200335979
1769249296034,-0.0787353515625,-0.1517486572265625,-0.96014404296875,-0.0369918383657932,0.0087578054517507,0.0530352555215358
1769249296044,-0.080230712890625,-0.1517791748046875,-0.958251953125,-0.0606412440538406,0.0059239356778562,0.0606484338641166
1769249296054,-0.0814208984375,-0.14324951171875,-0.961578369140625,-0.0759618729352951,0.0154042560607194,0.0657877996563911
1769249296064,-0.0898590087890625,-0.1264190673828125,-0.9793548583984376,-0.0738787502050399,0.0136726684868335,0.0591999404132366
1769249296074,-0.1020965576171875,-0.1246490478515625,-0.9866943359375,-0.061738733202219,-0.0040908819064497,0.0516062043607234
1769249296084,-0.1043853759765625,-0.1516265869140625,-0.9888458251953124,-0.0644631460309028,-0.0407990962266922,0.0510187074542045
1769249296094,-0.0887451171875,-0.2263641357421875,-0.9895477294921876,-0.0831353664398193,-0.0289914384484291,0.0676946267485618
1769249296104,-0.0567169189453125,-0.1223602294921875,-0.9872894287109376,-0.1034867092967033,0.0048639974556863,0.0610585585236549
1769249296114,-0.100921630859375,-0.0361785888671875,-0.972869873046875,-0.0245532803237438,0.1552156805992126,0.0073844129219651
1769249296124,-0.15411376953125,-0.0371856689453125,-0.9764251708984376,-0.0439101979136467,-0.0095231980085372,-0.0632420852780342
1769249296134,-0.1302337646484375,-0.2280731201171875,-0.9826812744140624,-0.0478844344615936,-0.0439075380563735,-0.0462407320737838
1769249296144,-0.0602569580078125,-0.1342926025390625,-1.0019683837890625,-0.0563540868461132,0.000384294136893,-0.0266049783676862
1769249296154,-0.093780517578125,-0.12200927734375,-0.96728515625,-0.0508650466799736,-0.0284465551376342,-0.0669422820210456
1769249296164,-0.13092041015625,-0.1643218994140625,-0.9762725830078124,-0.047291349619627,-0.0315965414047241,-0.0733788758516311
1769249296174,-0.0895843505859375,-0.1277618408203125,-0.9838409423828124,-0.0400084033608436,-0.0306942630559206,-0.072610817849636
1769249296184,-0.0788726806640625,-0.1405181884765625,-0.9996490478515624,-0.0286348406225442,-0.0620063804090023,-0.0728747397661209
1769249296194,-0.0857086181640625,-0.1639556884765625,-1.001739501953125,-0.029632993042469,-0.0586177743971347,-0.0562749914824962
1769249296204,-0.07550048828125,-0.16925048828125,-0.9885101318359376,-0.0502929985523223,-0.0299219470471143,-0.0325574092566967
1769249296215,-0.0678863525390625,-0.1617431640625,-0.98138427734375,-0.059428971260786,0.0029752836562693,-0.0092041511088609
1769249296224,-0.0731353759765625,-0.1377716064453125,-0.9898681640625,-0.0619307458400726,0.0195161774754524,-0.0015491608064621
1769249296235,-0.0834503173828125,-0.11474609375,-1.002899169921875,-0.0563325136899948,0.0070275492034852,-0.0001235706731677
1769249296245,-0.089202880859375,-0.1062469482421875,-1.0159912109375,-0.0438510775566101,-0.0128042120486497,-0.0037681066896766
1769249296255,-0.0971221923828125,-0.1273193359375,-1.0190887451171875,-0.0224898625165224,-0.0214155428111553,0.005682120565325
1769249296265,-0.0908203125,-0.1434326171875,-1.018890380859375,0.0028668928425759,-0.0189752895385026,0.0125903598964214
1769249296275,-0.084747314453125,-0.156646728515625,-1.0107879638671875,0.0122433500364422,-0.0131749240681529,0.0148583082482218
1769249296285,-0.08026123046875,-0.1331939697265625,-1.000640869140625,0.0259682163596153,0.0116292256861925,0.0173017587512731
1769249296295,-0.08856201171875,-0.1168212890625,-1.0045928955078125,0.0539236851036548,0.0238046646118164,0.0091972267255187
1769249296305,-0.0986175537109375,-0.1319732666015625,-1.0085296630859375,0.0843220725655555,0.0028908613603562,0.0103487772867083
1769249296315,-0.091033935546875,-0.1417694091796875,-1.00054931640625,0.1011801436543464,-0.0050647999159991,0.0209907684475183
1769249296325,-0.08355712890625,-0.1410980224609375,-0.9862823486328124,0.1022307649254798,0.0152210304513573,0.025139708071947
1769249296335,-0.0839691162109375,-0.140625,-0.9711456298828124,0.1033410355448722,0.0324743203818798,0.0210501570254564
1769249296345,-0.085357666015625,-0.1409454345703125,-0.9681854248046876,0.0978999286890029,0.0306955948472023,0.0201673191040754
1769249296355,-0.08538818359375,-0.1401519775390625,-0.9670867919921876,0.0947118625044822,0.027522437274456,0.0201454814523458
1769249296365,-0.0887298583984375,-0.1389007568359375,-0.96795654296875,0.0826967433094978,0.0149464588612318,0.0248342435806989
1769249296375,-0.09002685546875,-0.140655517578125,-0.962554931640625,0.0711577981710434,0.0085564702749252,0.0254997666925191
1769249296385,-0.097137451171875,-0.1390838623046875,-0.9658203125,0.0644383803009986,0.0093303844332695,0.0242387596517801
1769249296395,-0.1046142578125,-0.1347198486328125,-0.9682159423828124,0.0536376610398292,0.0145850675180554,0.0167203899472951
1769249296405,-0.1119537353515625,-0.1374969482421875,-0.968475341796875,0.0390672422945499,0.0113125760108232,0.0097828563302755
1769249296415,-0.1099853515625,-0.144256591796875,-0.967864990234375,0.0180708803236484,-0.0057793259620666,0.0102880578488111
1769249296425,-0.107330322265625,-0.1497344970703125,-0.96697998046875,-0.0178881864994764,-0.0231924038380384,0.0115266935899853
1769249296435,-0.1067047119140625,-0.1280517578125,-0.968902587890625,-0.0374730713665485,-0.0038115161005407,0.011551727540791
1769249296446,-0.12066650390625,-0.112060546875,-0.97247314453125,-0.0557191893458366,-0.0141613585874438,-0.0042567965574562
1769249296456,-0.12646484375,-0.134246826171875,-0.9738006591796876,-0.0742880776524543,-0.0242017433047294,-0.0095916409045457
1769249296466,-0.111846923828125,-0.208984375,-0.9739837646484376,-0.10385662317276,-0.0569604896008968,0.0073455306701362
1769249296476,-0.071441650390625,-0.27398681640625,-0.97674560546875,-0.1466211378574371,-0.0639733895659446,0.0572928488254547
1769249296486,-0.0418243408203125,-0.1339569091796875,-0.96759033203125,-0.1641255617141723,0.0054688011296093,0.0554440841078758
1769249296496,-0.107452392578125,0.0252838134765625,-0.984527587890625,-0.0863015949726104,0.1421155929565429,0.0179491732269525
1769249296506,-0.1639404296875,-0.1055755615234375,-0.9862213134765624,-0.0713929533958435,-0.1037413105368614,-0.0600598752498626
1769249296516,-0.117340087890625,-0.2340087890625,-1.0270538330078125,-0.0659984573721885,-0.0729828625917434,-0.0116278938949108
1769249296526,-0.04522705078125,-0.070343017578125,-1.004547119140625,-0.0490245334804058,-0.0244222525507211,-0.0455248728394508
1769249296536,-0.142791748046875,-0.1469268798828125,-0.9724884033203124,-0.0206216555088758,-0.0267386697232723,-0.1041005700826644
1769249296546,-0.145172119140625,-0.148345947265625,-0.96966552734375,0.0057377805933356,-0.029077723622322,-0.1185591369867324
1769249296556,-0.094879150390625,-0.12652587890625,-0.9852294921875,0.0340735465288162,-0.0614063702523708,-0.132788673043251
1769249296566,-0.0916595458984375,-0.1734619140625,-1.0115203857421875,0.0437994115054607,-0.0980586558580398,-0.1383237838745117
1769249296576,-0.0878753662109375,-0.196807861328125,-1.00604248046875,0.0369162075221538,-0.1195224002003669,-0.1178563311696052
1769249296586,-0.064544677734375,-0.1941986083984375,-0.9854736328125,0.0182176195085048,-0.1064580008387565,-0.0835793167352676
1769249296596,-0.0554656982421875,-0.179840087890625,-0.981292724609375,0.0073623089119791,-0.0587000660598278,-0.049094308167696
1769249296606,-0.0657196044921875,-0.150360107421875,-0.9932403564453124,-0.0293062236160039,-0.0218126215040683,-0.0154063869267702
1769249296617,-0.0695343017578125,-0.107147216796875,-0.9963836669921876,-0.054533015936613,0.0055090151727199,0.0008615325787104
1769249296626,-0.0964813232421875,-0.106719970703125,-1.009796142578125,-0.0585341490805149,0.0100076263770461,-6.125270374468528e-06
1769249296636,-0.1140289306640625,-0.1250762939453125,-1.016357421875,-0.0455211475491523,0.0154740307480096,0.0048008803278207
1769249296646,-0.1070098876953125,-0.1298065185546875,-1.011627197265625,-0.0395921505987644,0.0222549717873334,0.0089096054434776
1769249296656,-0.10089111328125,-0.143829345703125,-0.996429443359375,-0.054176952689886,0.0285791810601949,0.0069764168001711
1769249296667,-0.0974884033203125,-0.1181182861328125,-0.98455810546875,-0.0507412068545818,0.050919372588396,-0.0028844696935266
1769249296677,-0.1079559326171875,-0.1288299560546875,-0.99188232421875,-0.0264121666550636,0.0263202879577875,-0.0084273070096969
1769249296687,-0.103546142578125,-0.1583099365234375,-0.9941864013671876,-0.004095409065485,-0.000165115983691,0.0018002968281507
1769249296697,-0.086822509765625,-0.149993896484375,-0.9844818115234376,0.0046123284846544,0.0107581056654453,0.0109879365190863
1769249296707,-0.0882720947265625,-0.1418914794921875,-0.9718170166015624,0.0057265954092144,0.0382296778261661,0.0084291715174913
1769249296717,-0.0960235595703125,-0.1389007568359375,-0.963104248046875,0.0011265170760452,0.0542150363326072,0.0005848301807418
1769249296727,-0.091583251953125,-0.131744384765625,-0.9670562744140624,-0.0023614249657839,0.0585386753082275,-0.0060903830453753
1769249296737,-0.0883331298828125,-0.1355438232421875,-0.9829559326171876,-0.0029731530230492,0.0579626336693763,-0.0144417900592088
1769249296747,-0.091278076171875,-0.1444091796875,-0.991943359375,-0.0011651329696178,0.0429091192781925,-0.0183268096297979
1769249296757,-0.091644287109375,-0.140533447265625,-0.9949798583984376,-0.0012436961987987,0.0419764779508113,-0.0187158975750207
1769249296767,-0.0889892578125,-0.1333465576171875,-0.99383544921875,-0.00384400668554,0.0503811500966548,-0.0206355042755603
1769249296777,-0.0913238525390625,-0.1342620849609375,-0.9912872314453124,-0.0070198262110352,0.0575911253690719,-0.0236251689493656
1769249296787,-0.0920867919921875,-0.13616943359375,-0.9861602783203124,-0.0054498929530382,0.0627906769514083,-0.0268276184797287
1769249296797,-0.0889739990234375,-0.13470458984375,-0.9842376708984376,-0.0024719461798667,0.0492423810064792,-0.0239649880677461
1769249296807,-0.08636474609375,-0.137603759765625,-0.988861083984375,-0.0045963497832417,0.0393218398094177,-0.0209484249353408
1769249296817,-0.08740234375,-0.1371002197265625,-0.990264892578125,0.0027928571216762,0.0438140593469142,-0.0222781412303447
1769249296827,-0.091949462890625,-0.1328582763671875,-0.9941253662109376,0.0159573946148157,0.0376027673482894,-0.0216568261384964
1769249296837,-0.092559814453125,-0.1334686279296875,-0.9920806884765624,0.0257178805768489,0.0022477079182863,-0.0198626536875963
1769249296848,-0.08544921875,-0.182220458984375,-0.9895477294921876,0.011673966422677,-0.0572539679706096,-0.0106214853003621
1769249296857,-0.0645751953125,-0.1934356689453125,-0.99859619140625,0.011673966422677,-0.0572539679706096,-0.0106214853003621
1769249296868,-0.065155029296875,-0.024627685546875,-0.9902496337890624,0.0553775057196617,0.1319742798805236,-0.0289435014128685
1769249296877,-0.1449127197265625,-0.024871826171875,-0.9988861083984376,0.0948370322585105,0.0898262932896614,-0.0767472386360168
1769249296888,-0.139892578125,-0.1868896484375,-0.9735260009765624,0.0928361937403678,-0.0453544333577156,-0.0999899804592132
1769249296898,-0.071685791015625,-0.1738128662109375,-1.0161285400390625,0.1003476455807685,0.0842256620526313,-0.0621491260826587
1769249296908,-0.064971923828125,-0.042938232421875,-0.955657958984375,0.1304245889186859,0.0716885700821876,-0.0999465733766555
1769249296918,-0.15313720703125,-0.1244659423828125,-0.948150634765625,0.1281156241893768,-0.0003190466959495,-0.1249738931655883
1769249296928,-0.1182861328125,-0.1552734375,-0.9664306640625,0.0955180004239082,-0.0255900491029024,-0.1017934754490852
1769249296938,-0.067230224609375,-0.153411865234375,-0.970458984375,0.0483369044959545,-0.0485704652965068,-0.0931254178285598
1769249296948,-0.076324462890625,-0.195770263671875,-0.9558868408203124,0.002012550830841,-0.0503140352666378,-0.0940135791897773
1769249296958,-0.0767822265625,-0.2008209228515625,-0.944183349609375,-0.052520465105772,-0.0402233190834522,-0.0792338326573371
1769249296968,-0.0537872314453125,-0.1894073486328125,-0.94879150390625,-0.1029610037803649,-0.0099903158843517,-0.0492612905800342
1769249296978,-0.0510101318359375,-0.1540985107421875,-0.9696807861328124,-0.1294898092746734,0.0297917183488607,-0.0269442666321992
1769249296988,-0.0689239501953125,-0.0893402099609375,-0.9904937744140624,-0.1319010406732559,0.0393463410437107,-0.0279408209025859
1769249296998,-0.0983734130859375,-0.0952911376953125,-1.0030670166015625,-0.1182017400860786,0.0230539198964834,-0.0371162109076976
1769249297008,-0.1089324951171875,-0.1057586669921875,-1.0132598876953125,-0.1005596294999122,0.019456522539258,-0.0414329282939434
1769249297019,-0.101898193359375,-0.1274871826171875,-1.012176513671875,-0.0896665006875991,0.0076770945452153,-0.040543433278799
1769249297028,-0.0933685302734375,-0.172943115234375,-1.0037078857421875,-0.0820738300681114,0.0164215844124555,-0.0362498834729194
1769249297038,-0.070648193359375,-0.1606903076171875,-0.9929656982421876,-0.0643086805939674,0.041726142168045,-0.0275203082710504
1769249297048,-0.069549560546875,-0.140594482421875,-0.988372802734375,-0.0273666437715291,0.0351675748825073,-0.033027458935976
1769249297058,-0.08074951171875,-0.1484222412109375,-0.9976654052734376,0.009949835948646,0.0412957742810249,-0.025488581508398
1769249297068,-0.0718536376953125,-0.131866455078125,-0.9930877685546876,0.049577672034502,0.0267131030559539,-0.0154905430972576
1769249297078,-0.071929931640625,-0.1407623291015625,-0.9912109375,0.0631118565797805,-0.0022631543688476,-0.0057241981849074
1769249297089,-0.0735931396484375,-0.1464691162109375,-0.9817962646484376,0.0628447458148002,0.0062339273281395,0.0037119139451533
1769249297099,-0.0712890625,-0.141998291015625,-0.975830078125,0.0608716048300266,0.0200828984379768,0.003534014802426
1769249297109,-0.07672119140625,-0.145751953125,-0.9807891845703124,0.0558278448879718,0.0164205189794302,0.0015699334908276
1769249297119,-0.081451416015625,-0.1470947265625,-0.9795989990234376,0.0480777807533741,0.0163584668189287,0.0011355718597769
1769249297129,-0.083587646484375,-0.1392669677734375,-0.9835052490234376,0.0354871526360511,0.01726527325809,-0.0003728425363078
1769249297139,-0.0860443115234375,-0.137054443359375,-0.9821624755859376,0.0221095625311136,0.0193782243877649,0.0022493058349937
1769249297149,-0.085418701171875,-0.13995361328125,-0.9778594970703124,0.004661064594984,0.0318729765713214,0.0054885088466107
1769249297159,-0.0805206298828125,-0.1438446044921875,-0.979217529296875,-0.0057361824437975,0.0283418931066989,0.010669688694179
1769249297169,-0.083740234375,-0.149200439453125,-0.9812469482421876,-0.0161454137414693,0.0259871259331703,0.0167155973613262
1769249297179,-0.085662841796875,-0.1415557861328125,-0.9798431396484376,-0.034360371530056,0.0395055972039699,0.0185462534427642
1769249297189,-0.08514404296875,-0.138092041015625,-0.9809722900390624,-0.0444944985210895,0.0368682704865932,0.0197425447404384
