timestamp_ms,acc_x,acc_y,acc_z,gyro_x,gyro_y,gyro_z
1768626884171,-0.3799285888671875,-0.9251556396484376,0.000946044921875,-0.0089663304388523,0.0111410683020949,-0.0001712412631604
1768626884179,-0.3856964111328125,-0.925750732421875,-0.0007781982421875,-0.012491556815803,0.0068541774526238,-0.0062315305694937
1768626884189,-0.3849029541015625,-0.92236328125,-0.00506591796875,-0.0127112679183483,-0.0074366107583045,-0.0076339510269463
1768626884199,-0.3788299560546875,-0.920989990234375,-0.008270263671875,-0.0194019265472888,-0.0037622477393597,-0.0033238914329558
1768626884209,-0.3766326904296875,-0.9273834228515624,-0.0042724609375,-0.0282132625579834,-0.0041127195581793,-0.0060496367514133
1768626884219,-0.3842926025390625,-0.9359893798828124,-0.0052490234375,-0.0361167266964912,0.0011976235546171,-0.0047481497749686
1768626884229,-0.377349853515625,-0.9260711669921876,-0.00689697265625,-0.0356373563408851,-0.0017760620685294,-0.0007009439868852
1768626884239,-0.3795013427734375,-0.91943359375,-0.0156097412109375,-0.028850557282567,-0.0013986921403557,0.0017592841759324
1768626884249,-0.3832550048828125,-0.9186859130859376,-0.02288818359375,-0.016277240589261,-0.005869606975466,-0.0013592774048447
1768626884260,-0.3843536376953125,-0.9182281494140624,-0.0239105224609375,0.0052656019106507,-0.0023947143927216,-0.0042943470180034
1768626884270,-0.3831024169921875,-0.91851806640625,-0.0257568359375,0.0212962329387664,0.0054725296795368,-0.0039755669422447
1768626884280,-0.38330078125,-0.9244842529296876,-0.0219268798828125,0.033010147511959,0.0170788522809743,-0.0044698496349155
1768626884290,-0.3817138671875,-0.92608642578125,-0.015167236328125,0.0382496491074562,0.0202770419418811,0.0004391552647575
1768626884300,-0.3795013427734375,-0.9253387451171876,-0.009429931640625,0.0425751581788063,0.0097977695986628,-0.001325188903138
1768626884310,-0.380401611328125,-0.9239044189453124,-0.0032958984375,0.043249737471342,0.0032756880391389,-0.0011329087428748
1768626884320,-0.3820648193359375,-0.925506591796875,0.0011138916015625,0.0431059263646602,-0.0017089504981413,-0.0084795048460364
1768626884330,-0.3837890625,-0.9280548095703124,0.0058135986328125,0.0372906476259231,0.0055388421751558,-0.0104960501194
1768626884340,-0.37811279296875,-0.9255523681640624,0.01153564453125,0.0280662551522254,0.000507598510012,-0.010211625136435
1768626884350,-0.37994384765625,-0.928253173828125,0.01470947265625,0.0154236974194645,-0.0025798040442168,-0.0116718355566263
1768626884360,-0.3830413818359375,-0.9283447265625,0.014892578125,0.0030272151343524,0.0003723099071066,-0.0158894844353199
1768626884370,-0.3799896240234375,-0.9272003173828124,0.0138702392578125,-0.0096973683685064,-0.004163319710642,-0.0129493540152907
1768626884380,-0.3737030029296875,-0.926849365234375,0.015411376953125,-0.0247319787740707,-0.0064347297884523,-0.0080896178260445
1768626884390,-0.3704071044921875,-0.9276123046875,0.0162200927734375,-0.0395394191145896,-0.0060147494077682,-0.0011353056179359
1768626884400,-0.370697021484375,-0.9292449951171876,0.013580322265625,-0.0543335452675819,-0.0003227751294616,-0.0009291769238188
1768626884410,-0.373138427734375,-0.9296417236328124,0.0095367431640625,-0.0641022846102714,0.0057987668551504,-0.0001581917604198
1768626884420,-0.3714447021484375,-0.9252166748046876,0.0020904541015625,-0.0651872605085372,0.0005163869354873,0.0017651431262493
1768626884431,-0.3724517822265625,-0.924102783203125,-0.0051727294921875,-0.0651228129863739,0.004603540059179,0.0039870184846222
1768626884440,-0.3783111572265625,-0.9248046875,-0.011962890625,-0.057987667620182,0.0028234834317117,0.0012170645641162
1768626884451,-0.38153076171875,-0.92401123046875,-0.0185699462890625,-0.0464497916400432,-0.0004173173510935,-0.0025156219489872
1768626884461,-0.3795623779296875,-0.923431396484375,-0.0225830078125,-0.0337904542684555,0.0008860336965881,0.0018048242200165
1768626884471,-0.37298583984375,-0.9219818115234376,-0.0221405029296875,-0.0224541760981082,0.0095690041780471,0.0096193375065922
1768626884481,-0.3711090087890625,-0.9215850830078124,-0.023223876953125,-0.0116707710549235,0.0139839928597211,0.014788799919188
1768626884491,-0.37799072265625,-0.9251708984375,-0.020782470703125,-0.0070296800695359,0.0137075567618012,0.0169395692646503
1768626884501,-0.3745574951171875,-0.9270782470703124,-0.0152740478515625,0.0023374564480036,0.0109575763344764,0.0114028565585613
1768626884511,-0.382232666015625,-0.9225006103515624,-0.02142333984375,0.006352970842272,0.0050027482211589,0.0042970106005668
1768626884521,-0.3872222900390625,-0.924896240234375,-0.0184173583984375,0.0102379899471998,0.0107780788093805,-0.0037763623986393
1768626884531,-0.3851470947265625,-0.92437744140625,-0.017364501953125,0.0133815854787826,0.0090504866093397,-0.0027318706270307
1768626884541,-0.3817291259765625,-0.923797607421875,-0.0154876708984375,0.0146641638129949,0.007212106604129,-0.0054032877087593
1768626884551,-0.3824615478515625,-0.9246978759765624,-0.0132904052734375,0.0143509758636355,0.0053713293746113,-0.0048658614978194
1768626884561,-0.3818206787109375,-0.9248199462890624,-0.0106048583984375,0.0131184654310345,0.0091106742620468,-0.0038245655596256
1768626884571,-0.3829345703125,-0.9243927001953124,-0.009246826171875,0.0116790262982249,0.0068115671165287,-0.0042227082885801
1768626884581,-0.3824462890625,-0.923248291015625,-0.0080108642578125,0.0063788034021854,0.001896969624795,-0.0044088633731007
1768626884591,-0.383209228515625,-0.9229278564453124,-0.0028076171875,0.003932689782232,-0.0038077877834439,-0.0058624162338674
1768626884601,-0.3831939697265625,-0.9246673583984376,-0.001708984375,-0.0035007251426577,0.0008575378451496,-0.0071463263593614
1768626884611,-0.380096435546875,-0.92572021484375,-4.57763671875e-05,-0.0081748394295573,0.0061423145234584,-0.0056182043626904
1768626884621,-0.376129150390625,-0.924560546875,-0.002532958984375,-0.0094283893704414,0.0086363647133111,-0.000199204441742
1768626884631,-0.3763427734375,-0.9215545654296876,-0.006195068359375,-0.0119706429541111,0.0130905015394091,-0.0012855078093707
1768626884642,-0.379638671875,-0.92498779296875,-0.00750732421875,-0.0097229350358247,0.0111639713868498,-0.0022064289078116
1768626884651,-0.3784332275390625,-0.92425537109375,-0.008453369140625,-0.0090600736439228,0.0146180912852287,0.0003363572468515
1768626884661,-0.374908447265625,-0.921478271484375,-0.006988525390625,-0.0098544945940375,0.0046983486972749,0.0006351639167405
1768626884672,-0.3761138916015625,-0.924285888671875,-0.0051727294921875,-0.0134686706587672,0.0066275424323976,-0.0010769823566079
1768626884682,-0.380950927734375,-0.92950439453125,-0.0027313232421875,-0.0123607954010367,0.0136428419500589,-0.0013795174891129
1768626884692,-0.3824310302734375,-0.926239013671875,-0.007415771484375,-0.0105663575232028,0.01329290214926,6.258428766159341e-05
1768626884702,-0.37939453125,-0.9253387451171876,-0.0072784423828125,-0.0101149519905447,0.013750965707004,-0.0007246461464092
1768626884712,-0.3805389404296875,-0.926116943359375,-0.0060272216796875,-0.0120627880096435,0.0128580080345273,-0.0015694007743149
1768626884722,-0.38153076171875,-0.926483154296875,-0.00445556640625,-0.0147832073271274,0.0113093797117471,-0.0033063145820051
1768626884732,-0.3821563720703125,-0.9260711669921876,-0.003326416015625,-0.0118177775293588,-5.9921123465755954e-05,-0.0058576227165758
1768626884742,-0.380096435546875,-0.92529296875,-0.0051116943359375,-0.0092014875262975,-0.0054690674878656,-0.0068243504501879
1768626884752,-0.3770294189453125,-0.9251251220703124,-0.0053253173828125,-0.0032858080230653,-0.0117093864828348,-0.0098233362659811
1768626884762,-0.38006591796875,-0.926239013671875,-0.008514404296875,0.001790709560737,-0.012665195390582,-0.0106915263459086
1768626884772,-0.377655029296875,-0.926239013671875,-0.009307861328125,0.0109831430017948,-0.0029635655228048,-0.0091572795063257
1768626884782,-0.3739013671875,-0.9259033203125,-0.0081787109375,0.012639096006751,0.0130169987678527,-0.0002913498319685
1768626884792,-0.37310791015625,-0.9253692626953124,-0.0071563720703125,0.0144524425268173,0.0118718398734927,-0.0021209414117038
1768626884802,-0.380279541015625,-0.925872802734375,-0.0060272216796875,0.0140007706359028,0.0058190068230032,-0.0077695059590041
1768626884812,-0.3798675537109375,-0.92547607421875,-0.0035858154296875,0.0147826746106147,0.0021861889399588,-0.0141800008714199
1768626884822,-0.37884521484375,-0.9271087646484376,-0.0021209716796875,0.0090467585250735,0.0010511496802791,-0.0132119422778487
1768626884832,-0.3767242431640625,-0.927490234375,0.0006103515625,-0.0005701828049495,0.0025776736438274,-0.0132723953574895
1768626884842,-0.37042236328125,-0.926025390625,0.00103759765625,-0.0117304259911179,0.012867328710854,-0.0029158950783312
1768626884852,-0.3644561767578125,-0.9256134033203124,-0.001251220703125,-0.0240472797304391,0.025826271623373,0.0049854377284646
1768626884863,-0.368682861328125,-0.928558349609375,-0.0007171630859375,-0.040610808879137,0.0293983686715364,0.0103841973468661
1768626884873,-0.3759307861328125,-0.931304931640625,-0.0008544921875,-0.0452787987887859,0.0251753944903612,0.0109621034935116
1768626884883,-0.3751068115234375,-0.9251251220703124,-0.0071258544921875,-0.0409631468355655,0.0112782204523682,0.0124649256467819
1768626884893,-0.370635986328125,-0.9163665771484376,-0.016510009765625,-0.0336807332932949,-0.0016298545524477,0.0159696452319622
1768626884903,-0.3779449462890625,-0.9174957275390624,-0.0213470458984375,-0.0288476273417472,-0.0065748118795454,0.0058224690146744
1768626884913,-0.387664794921875,-0.9259033203125,-0.0204925537109375,-0.0208996888250112,-0.0040546627715229,-0.0046307044103741
1768626884923,-0.3843231201171875,-0.92742919921875,-0.0194549560546875,-0.0198661163449287,0.0017518273089081,-0.0025419872254133
1768626884933,-0.3751068115234375,-0.92498779296875,-0.0174407958984375,-0.0128193916752934,0.0118239028379321,0.0032535837963223
1768626884943,-0.375518798828125,-0.92816162109375,-0.020904541015625,-0.011648666113615,0.0202147234231233,0.0025483788922429
1768626884953,-0.3833160400390625,-0.93231201171875,-0.017242431640625,-0.0115764951333403,0.0241056028753519,0.0001595233479747
1768626884963,-0.38177490234375,-0.9272003173828124,-0.01544189453125,-0.0016397082945331,0.0217726733535528,0.0078432755544781
1768626884973,-0.373321533203125,-0.916107177734375,-0.01751708984375,0.011355185881257,0.013481986708939,0.0127730527892708
1768626884983,-0.371368408203125,-0.909515380859375,-0.018951416015625,0.0310971997678279,0.0203715842217206,0.0248672664165496
1768626884993,-0.37554931640625,-0.9080963134765624,-0.0200347900390625,0.0435735769569873,0.0278798341751098,0.0258078947663307
1768626885003,-0.3809661865234375,-0.919677734375,-0.0139312744140625,0.0433152504265308,0.0233095828443765,0.011920042335987
1768626885013,-0.3890533447265625,-0.9232330322265624,-0.0067596435546875,0.040687508881092,0.0053510894067585,0.0027739484794437
1768626885023,-0.38751220703125,-0.9284210205078124,0.0007171630859375,0.0276803635060787,-0.0050810449756681,-0.0017787253018468
1768626885033,-0.3878326416015625,-0.9309539794921876,0.0096435546875,0.0096108159050345,-0.0037529265973716,0.0015097459545359
1768626885043,-0.38092041015625,-0.9288177490234376,0.01318359375,-0.0076954700052738,-0.0011278487509116,0.0054035536013543
1768626885053,-0.379486083984375,-0.927276611328125,0.01177978515625,-0.0247871056199073,-0.0006836334359832,0.0108095044270157
1768626885063,-0.3794708251953125,-0.9260406494140624,0.0079345703125,-0.0330074839293956,0.0033377397339791,0.0121932830661535
1768626885073,-0.3813018798828125,-0.9246673583984376,0.005279541015625,-0.0382571071386337,0.0094555532559752,0.0108313420787453
1768626885083,-0.3834075927734375,-0.9262542724609376,-1.52587890625e-05,-0.042554385960102,0.0135616147890686,0.0138300620019435
1768626885094,-0.3814697265625,-0.926910400390625,-0.0032501220703125,-0.0436124578118324,0.0141690820455551,0.0122212460264563
1768626885104,-0.3846282958984375,-0.924468994140625,-0.0100250244140625,-0.0363140664994716,0.0086957532912492,0.0079956082627177
1768626885114,-0.388946533203125,-0.92596435546875,-0.017974853515625,-0.0251487623900175,0.0055039548315107,-0.0008543420699425
1768626885124,-0.387725830078125,-0.92596435546875,-0.021636962890625,-0.0154388770461082,0.0037744981236755,-0.0016479641199111
1768626885134,-0.3855743408203125,-0.9241485595703124,-0.0205230712890625,-0.0050924965180456,-0.0040538636967539,-0.0065947859548032
1768626885144,-0.3840484619140625,-0.925384521484375,-0.020782470703125,-0.0001776328426785,0.0040967408567667,-0.0083865607157349
1768626885154,-0.380584716796875,-0.92718505859375,-0.0165557861328125,0.0009235842735506,0.007594536524266,-0.0095112137496471
1768626885164,-0.3831634521484375,-0.9253082275390624,-0.015289306640625,0.0015483618481084,0.0133964987471699,-0.0101668834686279
1768626885174,-0.3802947998046875,-0.923736572265625,-0.011199951171875,0.0014594122767448,0.0196607857942581,-0.0085447523742914
1768626885184,-0.37225341796875,-0.9227294921875,-0.0068206787109375,-0.0010519486386328,0.0116766300052404,-0.0036693033762276
1768626885194,-0.3718719482421875,-0.9232177734375,-0.00640869140625,-0.0056933057494461,0.0086241140961647,-0.0052285841666162
1768626885204,-0.3731689453125,-0.9244842529296876,-0.004730224609375,-0.0091229248791933,0.0088350372388958,-0.0026700852904468
1768626885214,-0.3709259033203125,-0.925140380859375,-0.00439453125,-0.014324078336358,0.012311527505517,0.0025110945571213
1768626885224,-0.3680267333984375,-0.9246826171875,-0.0052947998046875,-0.0222014430910348,0.010627344250679,0.0078501999378204
1768626885234,-0.373199462890625,-0.92449951171875,-0.007080078125,-0.024685638025403,0.0019784623291343,0.0094134751707315
1768626885244,-0.3746185302734375,-0.92340087890625,-0.0126495361328125,-0.0246334411203861,-0.003687945427373,0.0063156862743198
1768626885254,-0.3802490234375,-0.9278411865234376,-0.01495361328125,-0.0259455796331167,-0.0077218357473611,-0.0052280514501035
1768626885264,-0.3895111083984375,-0.935302734375,-0.0129241943359375,-0.0337012372910976,-0.0082459459081292,-0.0127794444561004
1768626885274,-0.3841094970703125,-0.930908203125,-0.009857177734375,-0.0336479730904102,-0.008061122149229,-0.007056045345962
1768626885284,-0.3685302734375,-0.924224853515625,-0.012664794921875,-0.0357012711465358,0.0062214103527367,0.0041574607603251
1768626885295,-0.3675689697265625,-0.918914794921875,-0.015625,-0.0240904223173856,0.0091066788882017,0.0158764347434043
1768626885305,-0.3714141845703125,-0.91986083984375,-0.0242767333984375,-0.011724567040801,0.0028205539565533,0.0204773116856813
1768626885315,-0.375213623046875,-0.922271728515625,-0.024383544921875,-0.0038839541375637,0.0200496073812246,0.0143528403714299
1768626885325,-0.381378173828125,-0.9296722412109376,-0.019989013671875,0.0047508128918707,0.0295911822468042,0.017568340525031
1768626885335,-0.3811187744140625,-0.927001953125,-0.017822265625,0.0085668563842773,0.0216174107044935,0.0157715063542127
1768626885345,-0.3812255859375,-0.9213104248046876,-0.0156402587890625,0.0125868981704115,0.0143658900633454,0.0154543239623308
1768626885355,-0.381988525390625,-0.919189453125,-0.014007568359375,0.0196626503020524,0.0227311458438634,0.0116478679701685
1768626885365,-0.38128662109375,-0.920867919921875,-0.0127105712890625,0.0161422174423933,0.0292684063315391,0.0149946622550487
1768626885375,-0.3800506591796875,-0.922027587890625,-0.0051116943359375,0.0097679421305656,0.02337003685534,0.0150790838524699
1768626885385,-0.3829498291015625,-0.924896240234375,-0.0016937255859375,0.0035691685043275,0.0142234107479453,0.0131621407344937
1768626885395,-0.384613037109375,-0.9218597412109376,-0.0033416748046875,-0.0049076732248067,0.0078776301816105,0.0116944732144474
1768626885405,-0.3849029541015625,-0.9215240478515624,-0.0026397705078125,-0.0076778931543231,0.0053577474318444,0.0098728705197572
1768626885415,-0.3860626220703125,-0.9235076904296876,-0.0037841796875,-0.0121474768966436,0.0089868372306227,0.0068286112509667
1768626885425,-0.3831939697265625,-0.92559814453125,-0.0036468505859375,-0.0194530598819255,0.0125418910756707,0.0066376626491546
1768626885435,-0.3876495361328125,-0.92645263671875,-0.0042724609375,-0.0237098559737205,0.0061606904491782,0.0052560148760676
1768626885445,-0.3865814208984375,-0.9251556396484376,-0.0084075927734375,-0.0260310675948858,0.0109855392947793,0.0019835224375128
1768626885455,-0.3858642578125,-0.9241790771484376,-0.0133209228515625,-0.0257280003279447,0.0142969135195016,0.0028498487081378
1768626885465,-0.3885040283203125,-0.92608642578125,-0.01434326171875,-0.025651566684246,0.0090747214853763,0.0009448895580135
1768626885476,-0.3874664306640625,-0.926544189453125,-0.0139923095703125,-0.0271740965545177,0.0076190372928977,-0.0034240260720252
1768626885485,-0.383209228515625,-0.9227142333984376,-0.0155181884765625,-0.0215071570128202,0.0012032161466777,-0.0040874197147786
1768626885496,-0.381134033203125,-0.92144775390625,-0.0189361572265625,-0.0137024959549307,0.0010551444720476,-0.0014330470003187
1768626885505,-0.3835601806640625,-0.924591064453125,-0.020599365234375,-0.0101178819313645,-7.962851668708026e-05,-0.0033025860320776
1768626885517,-0.3866424560546875,-0.924072265625,-0.01983642578125,-0.0019611518364399,-0.0023723437916487,-0.0051577440463006
1768626885526,-0.379974365234375,-0.9216156005859376,-0.0167236328125,0.0019686087034642,-0.0023236081469804,-0.0021164140198379
1768626885536,-0.3780059814453125,-0.92034912109375,-0.0187530517578125,0.007136738859117,-0.0066765449009835,-0.002306031063199
1768626885546,-0.3809356689453125,-0.922119140625,-0.018096923828125,0.0109663642942905,-0.0016096145845949,-0.0012825783342123
1768626885556,-0.381439208984375,-0.9209442138671876,-0.01776123046875,0.0107370661571621,0.0053569483570754,0.0005552690709009
1768626885566,-0.380615234375,-0.9211883544921876,-0.0134735107421875,0.004996889270842,0.0087713869288563,0.0050309775397181
1768626885576,-0.379791259765625,-0.9240570068359376,-0.0086517333984375,-0.0006229133578017,0.0009278453071601,0.0013052152935415
1768626885586,-0.38238525390625,-0.9221343994140624,-0.00860595703125,-0.0024096281267702,-0.0100941797718405,-0.0005752427969127
1768626885596,-0.383392333984375,-0.9238433837890624,-0.009735107421875,-0.0044522727839648,-0.0236821603029966,-0.0098342550918459
1768626885606,-0.3820953369140625,-0.9246368408203124,-0.007080078125,-0.0102462461218237,-0.0151845458894968,-0.0082973446696996
1768626885616,-0.3763885498046875,-0.9261474609375,-0.002960205078125,-0.0217854566872119,-0.0094915060326457,5.166532355360687e-05
1768626885626,-0.371978759765625,-0.924102783203125,-0.002685546875,-0.0274883490055799,-0.0054810517467558,0.0103317331522703
1768626885636,-0.3733367919921875,-0.925384521484375,-0.0044403076171875,-0.0368360467255115,0.0046096653677523,0.0100273340940475
1768626885646,-0.37371826171875,-0.9266357421875,-0.003448486328125,-0.0402254499495029,0.0114385429769754,0.0122196478769183
1768626885656,-0.379150390625,-0.9259796142578124,-0.0095672607421875,-0.0445727929472923,0.008525843732059,0.0149603076279163
1768626885666,-0.377777099609375,-0.9235382080078124,-0.0130462646484375,-0.0427176356315612,0.0121546667069196,0.0166612677276134
1768626885676,-0.3798065185546875,-0.921875,-0.0196533203125,-0.0382419265806674,0.0200389549136161,0.0113442670553922
1768626885686,-0.385498046875,-0.9259033203125,-0.0188140869140625,-0.0442958250641822,0.0086177233606576,0.0152428690344095
1768626885696,-0.383056640625,-0.921234130859375,-0.0170135498046875,-0.0294492356479167,0.0138633511960506,0.005380384158343
1768626885706,-0.388275146484375,-0.92218017578125,-0.025115966796875,-0.0163683202117681,0.0047886297106742,0.0038687740452587
1768626885716,-0.3838958740234375,-0.921966552734375,-0.02703857421875,-0.0065662898123264,-0.0045177866704761,0.0001680454588495
1768626885726,-0.382049560546875,-0.9222412109375,-0.022430419921875,-0.0022596921771764,0.0051942295394837,0.0021949773654341
1768626885737,-0.380218505859375,-0.924560546875,-0.02032470703125,-0.0012178635224699,0.0141547014936804,0.0062704128213226
1768626885747,-0.3832244873046875,-0.923675537109375,-0.0187225341796875,-0.0014519554097205,0.0133022228255867,0.0069990535266697
1768626885757,-0.383941650390625,-0.921295166015625,-0.0180511474609375,0.0008173241512849,0.0080179786309599,0.0042482744902372
1768626885767,-0.3850250244140625,-0.9215850830078124,-0.0189361572265625,0.0028128307312726,-0.0028266792651265,0.0024706146214157
1768626885777,-0.3851470947265625,-0.9220123291015624,-0.0173492431640625,-0.000110521184979,0.0075724320486187,0.001137968734838
1768626885787,-0.384063720703125,-0.92242431640625,-0.0130767822265625,-0.0040967408567667,0.0120806312188506,0.0019672771450132
1768626885797,-0.386688232421875,-0.9223480224609376,-0.01373291015625,-0.0078925443813204,0.0157712399959564,0.0011845740955322
1768626885807,-0.3875732421875,-0.923553466796875,-0.0100250244140625,-0.0074589815922081,0.009490174241364,0.0011326423846185
1768626885817,-0.3854827880859375,-0.9243927001953124,-0.0133819580078125,-0.007749798707664,0.000271109805908,-8.894957863958552e-05
1768626885827,-0.384124755859375,-0.921875,-0.014984130859375,-0.0055076833814382,-0.0006277070497162,-0.0030221552588045
1768626885837,-0.387054443359375,-0.9237518310546876,-0.01763916015625,-0.0022519689518958,-0.0019819245208054,-0.0064839981496334
1768626885847,-0.3870697021484375,-0.9243011474609376,-0.0193023681640625,-0.0006356965750455,0.0028620990924537,-0.0071588433347642
1768626885857,-0.38336181640625,-0.9231414794921876,-0.0150909423828125,-0.0029715551063418,0.0073697655461728,-0.0031214910559356
1768626885867,-0.3816680908203125,-0.9215240478515624,-0.016571044921875,-0.0022836606949567,0.0051564122550189,-0.0010365023044869
1768626885877,-0.3828887939453125,-0.920928955078125,-0.0176849365234375,-0.0027318706270307,0.0065977154299616,-0.0047904942184686
1768626885887,-0.385345458984375,-0.92413330078125,-0.0148773193359375,-0.0027222833596169,0.0079237027093768,-0.0079295616596937
1768626885897,-0.3868255615234375,-0.9245147705078124,-0.0124664306640625,-0.003924966789782,-0.0093330480158329,-0.0126169919967651
1768626885907,-0.3837432861328125,-0.9242095947265624,-0.01336669921875,-0.0022335932590067,-0.0043204464018344,-0.013120861724019
1768626885917,-0.37939453125,-0.924163818359375,-0.016082763671875,0.0007326356135308,0.0021116205025464,-0.0114148408174514
1768626885928,-0.381622314453125,-0.9250030517578124,-0.0195159912109375,-0.0014397049089893,0.0129687953740358,-0.0041148499585688
1768626885937,-0.37835693359375,-0.92510986328125,-0.014678955078125,-0.0047625307925045,0.0260795373469591,0.001994707621634
1768626885948,-0.375457763671875,-0.9229278564453124,-0.0111083984375,-0.0093623427674174,0.0309512577950954,0.00739187002182
1768626885958,-0.376861572265625,-0.925201416015625,-0.0138397216796875,-0.0112470621243119,0.0243428908288478,0.0119687784463167
1768626885968,-0.380523681640625,-0.9238128662109376,-0.0158233642578125,-0.0119067272171378,0.0148753523826599,0.005257346201688
1768626885978,-0.3827362060546875,-0.9237213134765624,-0.01611328125,-0.0111194960772991,0.0089628687128424,0.000390685716411
1768626885988,-0.379180908203125,-0.9246063232421876,-0.01348876953125,-0.0132942339405417,0.0076850838959217,0.0014833806781098
1768626885998,-0.381622314453125,-0.92388916015625,-0.0133819580078125,-0.0177744701504707,0.0002330265997443,-0.0011358382180333
1768626886008,-0.3844757080078125,-0.9237060546875,-0.0149383544921875,-0.017371267080307,0.0025337315164506,0.0004122573300264
1768626886018,-0.3815765380859375,-0.9219207763671876,-0.01824951171875,-0.0161161199212074,0.0050512175075709,0.0005928196478635
1768626886028,-0.382843017578125,-0.9233245849609376,-0.015167236328125,-0.0186194907873868,0.0021007014438509,0.0019166769925504
1768626886038,-0.3807830810546875,-0.92584228515625,-0.016204833984375,-0.0186234861612319,-0.0014021543320268,1.5978966985130683e-05
1768626886048,-0.380889892578125,-0.9232635498046876,-0.01959228515625,-0.0130500216037034,-0.0044472124427556,0.0029995182994753
1768626886058,-0.3802032470703125,-0.9218597412109376,-0.02264404296875,-0.0107506485655903,-0.0045545380562543,0.0008391620358452
1768626886068,-0.38116455078125,-0.923431396484375,-0.0220489501953125,-0.0066360649652779,0.0049324408173561,0.0061553642153739
1768626886078,-0.377960205078125,-0.92352294921875,-0.0194244384765625,-0.004521248396486,0.0093247918412089,0.0118414796888828
1768626886088,-0.3778076171875,-0.9224853515625,-0.0194854736328125,-0.0062304651364684,0.013024722225964,0.0147746847942471
1768626886098,-0.381927490234375,-0.9228668212890624,-0.0177154541015625,-0.0021840583067387,0.0072262212634086,0.0125906262546777
1768626886108,-0.388946533203125,-0.923980712890625,-0.0203094482421875,0.0018873822409659,0.0005949501646682,0.0050773164257407
1768626886118,-0.3914642333984375,-0.9238739013671876,-0.0222320556640625,0.0077806916087865,-0.0078177088871598,-0.0027361316606402
1768626886128,-0.39044189453125,-0.921875,-0.024078369140625,0.0147041110321879,-0.0153592489659786,-0.0068160942755639
1768626886138,-0.388824462890625,-0.9215087890625,-0.0242767333984375,0.0221604295074939,-0.0176519639790058,-0.0134726651012897
1768626886148,-0.3883819580078125,-0.923614501953125,-0.0243377685546875,0.0264728870242834,-0.0204155258834362,-0.0131741249933838
1768626886159,-0.384918212890625,-0.9218597412109376,-0.0205078125,0.0285277813673019,-0.0237039979547262,-0.0143376598134636
1768626886169,-0.380645751953125,-0.921356201171875,-0.01715087890625,0.0262276083230972,-0.0148737542331218,-0.0136612169444561
1768626886179,-0.379150390625,-0.92303466796875,-0.011871337890625,0.0204991493374109,0.0036591833923012,-0.0090033486485481
1768626886189,-0.3785247802734375,-0.9241180419921876,-0.009124755859375,0.0111309476196765,0.0101285343989729,-0.0034445326309651
1768626886199,-0.379669189453125,-0.9240264892578124,-0.0041961669921875,0.0013480921043083,0.0157158467918634,0.0018450380302965
1768626886209,-0.380706787109375,-0.9237823486328124,-0.003997802734375,-0.0076701701618731,0.0151560492813587,0.001823200029321
1768626886219,-0.382904052734375,-0.922760009765625,-0.004302978515625,-0.0131227262318134,0.0146825397387146,-0.0005547364708036
1768626886229,-0.3816070556640625,-0.9224395751953124,-0.0058135986328125,-0.0224224850535392,0.0226374026387929,0.002403502818197
1768626886239,-0.381988525390625,-0.9236907958984376,-0.0077972412109375,-0.028405275195837,0.0242121294140815,0.0071101072244346
1768626886249,-0.38214111328125,-0.926849365234375,-0.008270263671875,-0.0374608226120471,0.0314940102398395,0.0098614189773797
1768626886259,-0.3821868896484375,-0.9267120361328124,-0.0084228515625,-0.0379742793738842,0.0258489083498716,0.0122936842963099
1768626886269,-0.380523681640625,-0.92156982421875,-0.0149383544921875,-0.0296756029129028,0.0067487163469195,0.0143661564216017
1768626886279,-0.376434326171875,-0.9139556884765624,-0.0202789306640625,-0.024304274469614,0.0024141555186361,0.012304869480431
1768626886289,-0.38372802734375,-0.9170379638671876,-0.0224456787109375,-0.0138375181704759,-0.0019318570848554,0.0074304859153926
1768626886299,-0.3908538818359375,-0.9237060546875,-0.0262298583984375,-0.0061196777969598,-0.0054594799876213,-0.0018455706303939
1768626886309,-0.386474609375,-0.92388916015625,-0.0212249755859375,-0.0092305159196257,0.0012463594321161,-0.006123139988631
1768626886319,-0.386810302734375,-0.9303741455078124,-0.0147247314453125,-0.0151427341625094,-0.0028644960839301,-0.0106023102998733
1768626886329,-0.3892822265625,-0.9326629638671876,-0.01361083984375,-0.0174884460866451,-0.0110675645992159,-0.0183262769132852
1768626886339,-0.3896026611328125,-0.928955078125,-0.0180511474609375,-0.0132084796205163,-0.0068320734426379,-0.0195007305592298
1768626886350,-0.379852294921875,-0.9139251708984376,-0.02655029296875,0.0061564296483993,-0.0036954022943973,-0.0048136636614799
1768626886359,-0.3667144775390625,-0.9051971435546876,-0.0330963134765625,0.0230837482959032,-0.0113895405083894,0.0034163030795753
1768626886369,-0.370880126953125,-0.9090728759765624,-0.0281219482421875,0.0313312895596027,-0.0041646515019237,0.0072155687958002
1768626886380,-0.3787994384765625,-0.9206695556640624,-0.020599365234375,0.0325443595647811,-0.0041012680158019,0.0018378474051132
1768626886390,-0.3853759765625,-0.93206787109375,-0.0128631591796875,0.0206618681550025,-0.0121016697958111,-0.006771087180823
1768626886400,-0.3881988525390625,-0.93328857421875,-0.004669189453125,0.0044410875998437,-0.0179089587181806,-0.0110603738576173
1768626886410,-0.3867645263671875,-0.9298248291015624,-0.0018310546875,-0.0067276773042976,-0.0291027575731277,-0.012475311756134
1768626886420,-0.3818511962890625,-0.9234771728515624,-0.0032196044921875,-0.0181222781538963,-0.0150612415745854,-0.0083793699741363
1768626886430,-0.37762451171875,-0.920501708984375,-0.006927490234375,-0.0254499670118093,-0.0042701126076281,-0.0002322276413906
1768626886440,-0.37957763671875,-0.921783447265625,-0.0133819580078125,-0.0313762985169887,0.0108158960938453,0.0066560385748744
1768626886450,-0.3753509521484375,-0.925628662109375,-0.0128631591796875,-0.0330026894807815,0.0175536926835775,0.0145986499264836
1768626886460,-0.3809356689453125,-0.923828125,-0.017608642578125,-0.0361878313124179,0.0215380489826202,0.0201766416430473
1768626886470,-0.3843231201171875,-0.923187255859375,-0.0194244384765625,-0.0283280443400144,0.0244550090283155,0.0171920359134674
1768626886480,-0.3892974853515625,-0.9255828857421876,-0.024322509765625,-0.023184947669506,0.0271511934697628,0.0153464656323194
1768626886490,-0.3907928466796875,-0.927490234375,-0.0242919921875,-0.0176602192223072,0.0271677058190107,0.0102638229727745
1768626886500,-0.38543701171875,-0.92315673828125,-0.024871826171875,-0.0104782069101929,0.0153576508164405,0.0087040094658732
1768626886510,-0.3828277587890625,-0.9231719970703124,-0.024261474609375,-0.0020418455824255,0.0135917086154222,0.0077556576579809
1768626886520,-0.3845672607421875,-0.923736572265625,-0.0232086181640625,0.002690591616556,0.0062576294876635,0.0055273906327784
1768626886530,-0.387176513671875,-0.92608642578125,-0.023193359375,0.0081641869619488,0.0068099689669907,-0.001521730213426
1768626886540,-0.3861541748046875,-0.9221649169921876,-0.0206756591796875,0.0126034095883369,0.0007235808880068,-0.005167331546545
1768626886550,-0.3828887939453125,-0.9218292236328124,-0.0186004638671875,0.0113658383488655,0.0129948947578668,1.944107498275116e-05
1768626886560,-0.374786376953125,-0.92401123046875,-0.012420654296875,0.0094507597386837,0.021222997456789,0.0070299464277923
1768626886571,-0.3766632080078125,-0.921630859375,-0.0103759765625,0.0065966499969363,0.0128145981580019,0.0100584933534264
1768626886581,-0.3777618408203125,-0.9221038818359376,-0.01190185546875,0.0062240739353001,0.006090915761888,0.0061918497085571
1768626886590,-0.38629150390625,-0.9192352294921876,-0.015411376953125,0.0078595206141471,-0.0009930927772074,-0.0010040117194876
1768626886601,-0.3906097412109375,-0.9209747314453124,-0.01611328125,0.0059383166953921,-0.006598247680813,-0.0087641971185803
1768626886611,-0.3877716064453125,-0.921722412109375,-0.0121307373046875,-0.0027827369049191,-0.0050767841748893,-0.0099026979878544
1768626886621,-0.3852386474609375,-0.9217529296875,-0.0096588134765625,-0.0097863180562853,-0.0123464148491621,-0.0076065207831561
1768626886631,-0.383453369140625,-0.9213104248046876,-0.012725830078125,-0.0167920291423797,-0.0125418910756707,-0.0100363884121179
1768626886641,-0.381378173828125,-0.9245452880859376,-0.012908935546875,-0.0270041860640048,-0.0063372580334544,-0.0061966432258486
1768626886651,-0.3844451904296875,-0.9305877685546876,-0.0123443603515625,-0.0410441048443317,-0.0046570696868002,-0.0055098137818276
1768626886661,-0.384796142578125,-0.9270172119140624,-0.0102081298828125,-0.0528120808303356,-0.0096068205311894,-0.0007904262165538
1768626886671,-0.3774566650390625,-0.9210205078125,-0.01507568359375,-0.0569120198488235,-0.0032993901986628,0.007407050114125
1768626886681,-0.377349853515625,-0.9182281494140624,-0.02142333984375,-0.0494655519723892,0.0087135965004563,0.0125868981704115
1768626886691,-0.3860626220703125,-0.9199066162109376,-0.027740478515625,-0.0338463820517063,0.0037553233560174,0.0135421743616461
1768626886701,-0.38421630859375,-0.91845703125,-0.0313262939453125,-0.0225905291736125,-0.0048538772389292,0.0059090219438076
1768626886711,-0.38507080078125,-0.9237060546875,-0.02813720703125,-0.0130628049373626,-0.0085271755233407,-0.0026525084394961
1768626886721,-0.3910980224609375,-0.9264984130859376,-0.027435302734375,-0.0062746736221015,-0.0086856335401535,-0.0065375277772545
1768626886731,-0.38665771484375,-0.92401123046875,-0.023162841796875,0.0031915323343127,-0.0181387905031442,-0.0097040263935923
1768626886741,-0.3869171142578125,-0.92108154296875,-0.025848388671875,0.0117091201245784,-0.0234416760504245,-0.0111988587304949
1768626886751,-0.3853759765625,-0.9213409423828124,-0.0257568359375,0.0176746007055044,-0.0192586500197649,-0.012583702802658
1768626886761,-0.3844757080078125,-0.92144775390625,-0.020172119140625,0.0167630016803741,-0.0153587162494659,-0.0106116319075226
1768626886771,-0.376708984375,-0.922454833984375,-0.01568603515625,0.0152346128597855,0.0057854512706398,0.0046906257048249
1768626886781,-0.369903564453125,-0.9225006103515624,-0.01416015625,0.0086906934157013,0.0107916612178087,0.0117322895675897
1768626886791,-0.3789520263671875,-0.9249420166015624,-0.0120849609375,0.0037438718136399,0.014362427406013,0.015410647727549
1768626886801,-0.3849334716796875,-0.92578125,-0.0115814208984375,0.0009145294898189,0.014019944705069,0.0131245907396078
1768626886812,-0.386322021484375,-0.9232940673828124,-0.014312744140625,-0.0019371833186596,0.0117503991350531,0.0099213402718305
1768626886822,-0.3859100341796875,-0.924835205078125,-0.0158233642578125,-0.003312706016004,0.0045910235494375,0.0072600431740283
1768626886832,-0.3865966796875,-0.9251708984375,-0.016571044921875,-0.0048954226076602,-0.0015347796725109,0.0026929883752018
1768626886842,-0.3871612548828125,-0.9255523681640624,-0.0166015625,-0.0080086579546332,0.0087833711877465,0.0048826392740011
1768626886852,-0.380950927734375,-0.924072265625,-0.0137939453125,-0.0130071453750133,0.027353061363101,0.0111842108890414
1768626886862,-0.383514404296875,-0.92327880859375,-0.0157623291015625,-0.0150013202801346,0.0275725051760673,0.0088262483477592
1768626886872,-0.3856964111328125,-0.9228973388671876,-0.0180816650390625,-0.0152356782928109,0.0175102837383747,0.0049651972949504
1768626886882,-0.3850555419921875,-0.9240264892578124,-0.0168609619140625,-0.0108760837465524,0.0096704708412289,0.0031388015486299
1768626886893,-0.3842010498046875,-0.924072265625,-0.019317626953125,-0.0072046495042741,-0.0013792511308565,0.0039265644736588
1768626886902,-0.383697509765625,-0.9231414794921876,-0.0206451416015625,-0.0074134413152933,-0.0106100337579846,-0.0006423544255085
1768626886912,-0.385345458984375,-0.9234619140625,-0.0198516845703125,-0.0053305830806493,-0.0125104654580354,-0.0020591560751199
1768626886922,-0.385833740234375,-0.9222564697265624,-0.0178375244140625,-0.0083862943574786,-0.0185582377016544,-0.0055127432569861
1768626886932,-0.3874359130859375,-0.92242431640625,-0.01702880859375,-0.0067553743720054,-0.0303493831306695,-0.0165733844041824
1768626886942,-0.390289306640625,-0.9212188720703124,-0.0205535888671875,-0.007088269572705,-0.0359880961477756,-0.0224648285657167
1768626886952,-0.3902587890625,-0.9206085205078124,-0.02313232421875,-0.0066403257660567,-0.0414427816867828,-0.0271384101361036
1768626886962,-0.3861083984375,-0.921142578125,-0.0196380615234375,-0.0141467116773128,-0.0190394707024097,-0.0160290338099002
1768626886972,-0.3676605224609375,-0.9205780029296876,-0.011993408203125,-0.0229620411992073,-0.0031763522420078,0.0028879318851977
1768626886982,-0.36859130859375,-0.9209136962890624,-0.010772705078125,-0.0309046525508165,0.0076909428462386,0.0148388668894767
1768626886992,-0.375640869140625,-0.9228057861328124,-0.010833740234375,-0.0358797051012516,0.0065814699046313,0.0162578001618385
1768626887003,-0.3834991455078125,-0.92279052734375,-0.01593017578125,-0.0326460935175418,0.0052067460492253,0.0146058406680822
1768626887012,-0.3898773193359375,-0.9232177734375,-0.0248870849609375,-0.0271525252610445,0.0038581213448196,0.0077391462400555
1768626887023,-0.3926849365234375,-0.923004150390625,-0.0277862548828125,-0.0217316597700119,0.0108862034976482,0.0048536108806729
1768626887033,-0.388885498046875,-0.924407958984375,-0.0258636474609375,-0.0156505983322858,0.013244698755443,0.0024953819811344
1768626887043,-0.38525390625,-0.9217376708984376,-0.0263671875,-0.0119304293766617,0.0177081562578678,0.0040637175552546
1768626887053,-0.3852081298828125,-0.9228668212890624,-0.027618408203125,-0.0016735304379835,0.0249719284474849,0.0024402544368058
1768626887063,-0.3866424560546875,-0.9218902587890624,-0.027984619140625,0.0034583809319883,0.017778730019927,0.00107964547351
1768626887073,-0.386016845703125,-0.92132568359375,-0.026275634765625,0.01003132853657,0.0093170693144202,-0.0008133294177241
1768626887083,-0.3862152099609375,-0.92279052734375,-0.0250701904296875,0.0146702891215682,0.0036389431916177,-0.0022397185675799
1768626887093,-0.383392333984375,-0.922088623046875,-0.021728515625,0.0155691057443618,-0.0069929282180964,-0.0040538636967539
1768626887103,-0.384979248046875,-0.9235992431640624,-0.01605224609375,0.017402159050107,-0.0171036198735237,-0.0094113452360033
1768626887113,-0.384063720703125,-0.9236602783203124,-0.0182037353515625,0.0171749927103519,-0.0094568850472569,-0.0090534156188368
1768626887123,-0.3816986083984375,-0.924041748046875,-0.0185546875,0.016139555722475,-0.0077950726263225,-0.010129333473742
1768626887133,-0.383819580078125,-0.924285888671875,-0.0185699462890625,0.0173845831304788,-0.0096419742330908,-0.0109104383736848
1768626887143,-0.38336181640625,-0.9229736328125,-0.018035888671875,0.0179971102625131,0.0041920817457139,-0.0112529210746288
1768626887153,-0.3809814453125,-0.922637939453125,-0.0185089111328125,0.0151893394067883,0.0103213470429182,-0.0029779467731714
1768626887163,-0.3792266845703125,-0.92193603515625,-0.0165557861328125,0.0108097707852721,0.0101588945835828,0.0013182647526264
1768626887173,-0.3805694580078125,-0.923126220703125,-0.010040283203125,0.0023702133912593,0.0017046893481165,-0.0035790221299976
1768626887183,-0.385711669921875,-0.9257659912109376,-0.00738525390625,-0.0053337789140641,-0.0116191050037741,-0.0083697829395532
1768626887193,-0.388397216796875,-0.9242706298828124,-0.0070037841796875,-0.0115296235308051,-0.0224653612822294,-0.0137885166332125
1768626887204,-0.3848724365234375,-0.923065185546875,-0.01129150390625,-0.0172887090593576,-0.0387793518602848,-0.0137882502749562
1768626887213,-0.3821563720703125,-0.921295166015625,-0.0126495361328125,-0.0233583189547061,-0.0465190336108207,-0.0196855533868074
1768626887223,-0.3879547119140625,-0.9234771728515624,-0.0105438232421875,-0.0257319957017898,-0.0538291446864604,-0.0339441187679767
1768626887234,-0.396881103515625,-0.9261474609375,-0.013214111328125,-0.0314282290637493,-0.082968384027481,-0.0491952411830425
1768626887244,-0.393585205078125,-0.92138671875,-0.0216827392578125,-0.0146212866529822,-0.0861641764640808,-0.0567602179944515
1768626887254,-0.3824615478515625,-0.919891357421875,-0.031494140625,0.0046112635172903,-0.0797430351376533,-0.0482548810541629
1768626887264,-0.3751373291015625,-0.9214324951171876,-0.0363616943359375,0.0221303366124629,-0.0500378683209419,-0.0333041623234748
1768626887274,-0.372833251953125,-0.92340087890625,-0.0402374267578125,0.041480865329504,-0.0201787706464529,-0.0318671204149723
1768626887284,-0.38519287109375,-0.927703857421875,-0.045562744140625,0.0588233694434165,-0.0175326541066169,-0.0228935983031988
1768626887294,-0.3760833740234375,-0.9205169677734376,-0.04254150390625,0.075291022658348,-0.014509167522192,-0.014503308571875
1768626887304,-0.3762664794921875,-0.920379638671875,-0.0345916748046875,0.0829340294003486,-0.0074619110673666,-0.010399111546576
1768626887314,-0.3865509033203125,-0.9232940673828124,-0.02490234375,0.0852619037032127,-0.0179339926689863,-0.0237037315964698
1768626887324,-0.391143798828125,-0.9286346435546876,-0.0152587890625,0.0812794119119644,-0.0290513597428798,-0.0258473102003335
1768626887334,-0.378326416015625,-0.9231414794921876,-0.00701904296875,0.0695210173726081,-0.0343449227511882,-0.0252659413963556
1768626887344,-0.3737335205078125,-0.9221343994140624,0.0034942626953125,0.0562760569155216,-0.0316820293664932,-0.0204805079847574
1768626887354,-0.3722381591796875,-0.9253692626953124,0.0081787109375,0.0355169810354709,-0.0184314716607332,-0.012026835232973
1768626887364,-0.3692169189453125,-0.9246368408203124,0.0101470947265625,0.0190487913787364,-0.0034471957478672,0.0030035129748284
1768626887375,-0.3642120361328125,-0.925140380859375,0.01055908203125,0.0032746228389441,0.0453224740922451,0.0184429232031106
1768626887384,-0.36895751953125,-0.9241485595703124,0.0106201171875,-0.0185055080801248,0.0281147249042987,0.0311227664351463
1768626887394,-0.368255615234375,-0.928741455078125,0.015289306640625,-0.0406033508479595,0.0164849665015935,0.0266702268272638
1768626887404,-0.3806915283203125,-0.928741455078125,0.0166473388671875,-0.0550952106714248,0.0155406100675463,0.0220610927790403
1768626887414,-0.3857269287109375,-0.9281158447265624,0.00445556640625,-0.0573786050081253,0.0046317698433995,0.0177467726171016
1768626887424,-0.38177490234375,-0.9177093505859376,-0.0092620849609375,-0.0476090647280216,-0.0078193070366978,0.0178796648979187
1768626887434,-0.3800506591796875,-0.916168212890625,-0.0167694091796875,-0.0401791110634803,-0.007488542702049,0.0180578306317329
1768626887444,-0.3852691650390625,-0.9208526611328124,-0.01904296875,-0.0305738877505064,-0.0034264230635017,0.008462993428111
1768626887455,-0.3874664306640625,-0.9261474609375,-0.0197601318359375,-0.0232557877898216,-0.0066792080178856,-0.0007813714328221
1768626887465,-0.39105224609375,-0.9288482666015624,-0.020050048828125,-0.0196618512272834,-0.0083388900384306,-0.008078166283667
1768626887475,-0.38934326171875,-0.930816650390625,-0.015655517578125,-0.015681492164731,-0.010456901974976,-0.0151443313807249
1768626887485,-0.3830413818359375,-0.930023193359375,-0.0142059326171875,-0.0233069211244583,0.0050344397313892,-0.0141038345173001
1768626887495,-0.3754119873046875,-0.9284820556640624,-0.0098419189453125,-0.0228541828691959,0.0092187980189919,-0.0051135355606675
1768626887505,-0.374114990234375,-0.9186553955078124,-0.01812744140625,-0.0108193578198552,0.0059729376807808,0.0114316185936331
1768626887515,-0.3650665283203125,-0.9085845947265624,-0.025634765625,0.0082512721419334,0.0062360577285289,0.0194410756230354
1768626887525,-0.3719329833984375,-0.9090576171875,-0.0272369384765625,0.0239447467029094,0.0084579335525631,0.0214994326233863
1768626887535,-0.3803863525390625,-0.91552734375,-0.0240478515625,0.0299483109265565,0.0104446513578295,0.0183124281466007
1768626887545,-0.3787994384765625,-0.92388916015625,-0.01416015625,0.0241058692336082,0.015009575523436,0.0159656498581171
1768626887555,-0.3802032470703125,-0.929443359375,-0.004241943359375,0.0057987668551504,0.0067481836304068,0.0179169494658708
1768626887565,-0.381378173828125,-0.9327392578125,0.005828857421875,-0.0146878659725189,0.0069316755980253,0.0181467793881893
1768626887575,-0.383209228515625,-0.9280242919921876,0.0110931396484375,-0.0323078706860542,0.0056805224157869,0.0151073141023516
1768626887585,-0.3865814208984375,-0.92401123046875,0.004638671875,-0.0481736548244953,0.0025454494170844,0.0163107961416244
1768626887595,-0.3834686279296875,-0.9212188720703124,0.0001678466796875,-0.057857971638441,0.004432032816112,0.0182903241366148
1768626887605,-0.3848419189453125,-0.9209747314453124,-0.00909423828125,-0.0640128031373024,0.0136468363925814,0.0223963856697082
1768626887615,-0.38653564453125,-0.9216766357421876,-0.01470947265625,-0.0648266673088073,0.019807793200016,0.0193428043276071
1768626887625,-0.3874053955078125,-0.9260711669921876,-0.0145416259765625,-0.0602859780192375,0.014782141894102,0.0186258815228939
1768626887635,-0.3873291015625,-0.9246063232421876,-0.02166748046875,-0.0505507923662662,0.0028967203106731,0.0167177282273769
1768626887645,-0.3868408203125,-0.9250030517578124,-0.029815673828125,-0.0339622274041175,0.007136738859117,0.0109855392947793
1768626887655,-0.387939453125,-0.9252471923828124,-0.033050537109375,-0.0129735888913273,0.0028503811918199,0.007987885735929
1768626887666,-0.386932373046875,-0.9212493896484376,-0.037353515625,0.0071753547526896,-0.000974184309598,0.0085130603983998
1768626887676,-0.38494873046875,-0.92352294921875,-0.038299560546875,0.0216243360191583,-0.0052845105528831,0.0035270904190838
1768626887686,-0.3882293701171875,-0.92437744140625,-0.0325927734375,0.0355276353657245,-0.0040599890053272,-0.0016706009628251
1768626887696,-0.386077880859375,-0.925506591796875,-0.0272674560546875,0.0414092242717742,-0.006303968373686,-0.0065772091038525
1768626887706,-0.38421630859375,-0.923004150390625,-0.0186309814453125,0.0443173982203006,-0.0129685290157794,-0.0091876396909356
1768626887716,-0.3806304931640625,-0.9228668212890624,-0.011932373046875,0.0415019020438194,-0.005110606085509,-0.0103210806846618
1768626887726,-0.37799072265625,-0.922210693359375,-0.007110595703125,0.0349089801311492,-0.0037430729717016,-0.0077652451582252
1768626887736,-0.37908935546875,-0.921539306640625,-0.0054473876953125,0.0257181469351053,-0.0097564905881881,-0.0031760858837515
1768626887746,-0.3789215087890625,-0.9219512939453124,-0.001922607421875,0.0154900103807449,-0.0055348477326333,-0.0028072381392121
1768626887756,-0.379486083984375,-0.924163818359375,0.003387451171875,0.0041492050513625,0.0024013724178075,-0.0023995081428438
1768626887766,-0.3787994384765625,-0.923980712890625,0.0015869140625,-0.0105378618463873,0.0016074840677902,0.0002098570985253
1768626887776,-0.38031005859375,-0.9222259521484376,-6.103515625e-05,-0.0187350716441869,0.0152979958802461,0.0066461847163736
1768626887786,-0.372711181640625,-0.9230194091796876,-0.00335693359375,-0.0248222593218088,0.0216158125549554,0.0161169189959764
1768626887796,-0.3792572021484375,-0.9242401123046876,-0.00701904296875,-0.0323773808777332,0.0120777022093534,0.0114183034747838
1768626887806,-0.39080810546875,-0.932281494140625,-0.01214599609375,-0.0362903624773025,0.0055819856934249,0.0010303769959136
1768626887816,-0.393951416015625,-0.92779541015625,-0.0163726806640625,-0.0263855345547199,-0.0040091224946081,0.001538241864182
1768626887826,-0.387939453125,-0.920257568359375,-0.0247650146484375,-0.0162330325692892,-0.0117788948118686,0.0029840720817446
1768626887836,-0.38494873046875,-0.9170684814453124,-0.0252227783203125,-0.0048517468385398,-0.0192288216203451,0.0032077773939818
1768626887846,-0.3826446533203125,-0.91748046875,-0.0254058837890625,-0.0053952978923916,-0.0263945888727903,0.0019861855544149
1768626887856,-0.3832855224609375,-0.9209747314453124,-0.0187225341796875,-0.0021643510553985,-0.0382730849087238,-0.0036991306114941
1768626887867,-0.3867645263671875,-0.9232940673828124,-0.011260986328125,-0.0032682311721146,-0.0351409427821636,-0.0080733727663755
1768626887877,-0.3829803466796875,-0.9257354736328124,-0.011688232421875,-0.0041268342174589,-0.0257397182285785,-0.0038687740452587
1768626887887,-0.3785858154296875,-0.920989990234375,-0.0108795166015625,-0.0031720912083983,-0.0143890595063567,0.0016724651213735
1768626887897,-0.3790435791015625,-0.92193603515625,-0.012664794921875,-0.0052035502158105,-0.006067213602364,0.0063889236189424
1768626887907,-0.377471923828125,-0.9235076904296876,-0.008148193359375,-0.0182341318577528,0.0010439591715112,0.0073127741925418
1768626887917,-0.383392333984375,-0.9224395751953124,-0.006103515625,-0.0246440935879945,0.0019864519126713,0.0041260356083512
1768626887927,-0.3879241943359375,-0.9211883544921876,-0.00958251953125,-0.0252542234957218,-0.0047137951478362,0.0017161410069093
1768626887937,-0.3832244873046875,-0.9196319580078124,-0.009857177734375,-0.0271320194005966,-0.0028176244813948,0.0049084722995758
1768626887947,-0.3805999755859375,-0.9208984375,-0.0113525390625,-0.0275735706090927,-0.0023489079903811,0.0077535272575914
1768626887957,-0.381134033203125,-0.9245147705078124,-0.0118408203125,-0.0295927803963422,-0.0011835087789222,0.0079508675262331
1768626887967,-0.384979248046875,-0.92578125,-0.013275146484375,-0.0287634711712598,-0.006745786871761,0.0032408006954938
1768626887977,-0.3865814208984375,-0.9246978759765624,-0.0153045654296875,-0.0262276083230972,-0.0005941512063145,0.0040991376154124
1768626887987,-0.38336181640625,-0.9248809814453124,-0.014678955078125,-0.0236030630767345,0.0055295214988291,0.0019925772212445
1768626887997,-0.385223388671875,-0.9257354736328124,-0.015106201171875,-0.0229348763823509,0.001390702673234,0.0001395496365148
1768626888007,-0.3873138427734375,-0.925140380859375,-0.0164947509765625,-0.0251319855451583,0.0059998356737196,-0.0037675739731639
1768626888017,-0.388580322265625,-0.925262451171875,-0.0149078369140625,-0.0317994765937328,-0.004595817066729,-0.0061676148325204
1768626888027,-0.383941650390625,-0.9219512939453124,-0.0111541748046875,-0.0282313711941242,-0.0063364589586853,-0.0028261465486139
1768626888037,-0.3780517578125,-0.9205474853515624,-0.0118560791015625,-0.0280172526836395,0.0030091057997196,0.0001209075126098
1768626888047,-0.380157470703125,-0.9236602783203124,-0.0118255615234375,-0.0383079722523689,0.0404275842010974,-0.0013709953054785
1768626888057,-0.3802032470703125,-0.920166015625,-0.0114898681640625,-0.028698755428195,-0.0022168152499943,0.0103466473519802
1768626888067,-0.377166748046875,-0.929962158203125,-0.0216217041015625,-0.0260553024709224,-0.005298891570419,0.0013670006301254
1768626888078,-0.38751220703125,-0.916107177734375,-0.0194854736328125,-0.018260495737195,-0.0114396084100008,-0.0054522897116839
1768626888087,-0.3896636962890625,-0.9226837158203124,-0.0243377685546875,-0.0137736024335026,-0.0195995345711708,-0.0128124682232737
1768626888098,-0.39202880859375,-0.9188079833984376,-0.0244140625,-0.0085761779919266,-0.0259897895157337,-0.0169595424085855
1768626888108,-0.3910369873046875,-0.9192047119140624,-0.0226593017578125,-0.0060898503288626,-0.0208746548742055,-0.0199571959674358
1768626888118,-0.3846282958984375,-0.92181396484375,-0.0179595947265625,-0.0098560927435755,-0.0148226218298077,-0.0186610352247953
1768626888128,-0.3825531005859375,-0.9219818115234376,-0.0109710693359375,-0.0220459140837192,-0.018047709017992,-0.0182652901858091
1768626888138,-0.380401611328125,-0.9222869873046876,-0.0074462890625,-0.0231713652610778,-0.0130681311711668,-0.012991165742278
1768626888148,-0.3809356689453125,-0.9214630126953124,-0.0117034912109375,-0.0235260985791683,-0.0176506321877241,-0.0130795827135443
1768626888158,-0.3832550048828125,-0.9227142333984376,-0.0178070068359375,-0.0222091656178236,-0.0245641991496086,-0.0139017011970281
1768626888168,-0.3830718994140625,-0.92376708984375,-0.0200653076171875,-0.0172599460929632,-0.0396821647882461,-0.0153608471155166
1768626888178,-0.3834991455078125,-0.9248046875,-0.0223236083984375,-0.0105240140110254,-0.0260659549385309,-0.0138620194047689
1768626888188,-0.378265380859375,-0.9240875244140624,-0.0239715576171875,-0.0026122946292161,-0.0096057560294866,-0.0081551317125558
1768626888198,-0.3805694580078125,-0.9253387451171876,-0.0226898193359375,-0.0050416300073266,0.0022042985074222,-0.0029385320376604
1768626888208,-0.380645751953125,-0.9225311279296876,-0.01910400390625,0.0005214469274505,0.0146793434396386,-6.657902849838138e-05
1768626888218,-0.3824920654296875,-0.923248291015625,-0.0219268798828125,0.00402243854478,0.0166897643357515,-0.0010623349808156
1768626888228,-0.384613037109375,-0.923614501953125,-0.0230712890625,0.0051209921948611,0.0149866724386811,-0.0014362427173182
1768626888238,-0.3845367431640625,-0.9228057861328124,-0.0207977294921875,0.0071441959589719,0.0122433500364422,-0.003801129758358
1768626888248,-0.3839874267578125,-0.9236602783203124,-0.0179290771484375,0.0066275424323976,0.0037966023664921,-0.0105477161705493
1768626888258,-0.3842010498046875,-0.9237213134765624,-0.0144195556640625,0.002379800658673,-0.0039774309843778,-0.0118025969713926
1768626888268,-0.3774566650390625,-0.923492431640625,-0.0094146728515625,-0.0024916534312069,-0.0019164107507094,-0.0066653597168624
1768626888278,-0.375885009765625,-0.923797607421875,-0.008636474609375,-0.0115091167390346,0.0032378712203353,-0.0031894017010927
1768626888288,-0.376251220703125,-0.9241180419921876,-0.0072174072265625,-0.0165837705135345,0.0105258775874972,0.0047617321833968
1768626888298,-0.3744659423828125,-0.923980712890625,-0.0064239501953125,-0.0246145334094762,0.009343434125185,0.0060634850524365
1768626888308,-0.3809356689453125,-0.922332763671875,-0.00848388671875,-0.0266798138618469,-0.0002751045394688,0.0010013486025854
1768626888319,-0.387420654296875,-0.9242401123046876,-0.0141448974609375,-0.0240909550338983,0.001391767989844,-0.0022751383949071
1768626888329,-0.3843841552734375,-0.9237518310546876,-0.0193328857421875,-0.0190623737871646,0.0002900182444136,-0.0035462651867419
1768626888339,-0.3839874267578125,-0.921356201171875,-0.0214691162109375,-0.0141304666176438,0.0011094729416072,-0.0020189424976706
1768626888349,-0.3822021484375,-0.920806884765625,-0.0255584716796875,-0.0070320768281817,-0.0048416266217827,-0.0036171053070575
1768626888359,-0.3837890625,-0.922210693359375,-0.0263519287109375,-0.0012389025650918,-0.0012466256739571,0.0001909486454678
1768626888369,-0.37982177734375,-0.9230804443359376,-0.0206298828125,0.003664243267849,-0.0051244543865323,-0.0032410670537501
1768626888379,-0.3823089599609375,-0.9245147705078124,-0.0186767578125,0.0025952504947781,-0.00322908279486,-0.004963066894561
1768626888389,-0.383087158203125,-0.9228515625,-0.0169219970703125,0.0018863170407712,-0.0003243730170652,-0.0074118436314165
1768626888399,-0.3856353759765625,-0.92254638671875,-0.016082763671875,-0.0035204326268285,0.0096749980002641,-0.0062083611264824
1768626888409,-0.38592529296875,-0.925384521484375,-0.012908935546875,-0.0087929591536521,0.0113663710653781,-0.0054858452640473
1768626888419,-0.3822021484375,-0.9228057861328124,-0.012664794921875,-0.0160141196101903,0.0119794309139251,-0.0002327602705918
1768626888429,-0.3822174072265625,-0.920196533203125,-0.0136260986328125,-0.0200173836201429,0.0067953215911984,-0.0019576896447688
1768626888439,-0.38262939453125,-0.9232635498046876,-0.013702392578125,-0.0224515125155448,-0.001390436431393,-0.0044520064257085
1768626888449,-0.38372802734375,-0.924896240234375,-0.0166168212890625,-0.0212996955960989,-0.0003872236120514,-0.0056448359973728
1768626888459,-0.3813323974609375,-0.9232940673828124,-0.0183563232421875,-0.0208834446966648,0.0106997825205326,-0.0032234902027994
1768626888469,-0.379791259765625,-0.92340087890625,-0.02032470703125,-0.0220317989587783,0.0012157330056652,-0.0036061864811927
1768626888479,-0.3840484619140625,-0.9226837158203124,-0.0222015380859375,-0.015907859429717,-0.0023984429426491,-0.0060227387584745
1768626888489,-0.3864288330078125,-0.9235382080078124,-0.02362060546875,-0.0074453991837799,0.0012506204657256,-0.0128239197656512
1768626888499,-0.387664794921875,-0.925933837890625,-0.02374267578125,-0.0007733819657005,0.0040368195623159,-0.0099197421222925
1768626888510,-0.380401611328125,-0.9215850830078124,-0.0271148681640625,0.0048397625796496,0.003810450900346,-0.0059931776486337
1768626888520,-0.3785858154296875,-0.922332763671875,-0.024627685546875,0.0090020168572664,0.0032810145057737,-0.0105320028960704
1768626888530,-0.3827362060546875,-0.9271240234375,-0.022552490234375,0.0087271789088845,0.0082462122663855,-0.0122020710259675
1768626888540,-0.3824005126953125,-0.927490234375,-0.022125244140625,0.0110342754051089,0.0088384989649057,-0.0084411557763814
1768626888550,-0.374755859375,-0.9205169677734376,-0.0200958251953125,0.0183670222759246,0.0020200076978653,0.0016969662392511
1768626888560,-0.37005615234375,-0.9132232666015624,-0.0196380615234375,0.0206192582845687,-0.0056645437143743,0.0069684274494647
1768626888570,-0.376861572265625,-0.918243408203125,-0.017181396484375,0.01988928578794,-0.0010143980616703,0.0023395870812237
1768626888580,-0.3843231201171875,-0.9255218505859376,-0.012451171875,0.0148668307811021,0.0070304786786437,-0.0004822984628845
1768626888590,-0.384735107421875,-0.9287109375,-0.0071258544921875,-0.0013853764394298,0.0133120771497488,0.0012841762509196
1768626888600,-0.3785858154296875,-0.928253173828125,-0.0045318603515625,-0.0109642343595623,0.0158985387533903,0.0026437200140208
1768626888610,-0.3800048828125,-0.928466796875,-0.003662109375,-0.0216546952724456,-0.0004071973380632,-0.0016916398890316
1768626888620,-0.38885498046875,-0.9319000244140624,-0.006103515625,-0.0326737910509109,0.0003464772598817,-0.0110023170709609
1768626888630,-0.38482666015625,-0.925323486328125,-0.00958251953125,-0.0324942916631698,0.0050195259973406,-0.0052509545348584
1768626888640,-0.3745269775390625,-0.9107666015625,-0.01507568359375,-0.026771692559123,-0.0004727110790554,0.0063886572606861
1768626888650,-0.36676025390625,-0.90875244140625,-0.017974853515625,-0.0171997603029012,0.0034392061643302,0.0133688021451234
1768626888661,-0.3703460693359375,-0.912750244140625,-0.0215911865234375,-0.011526427231729,0.0188581105321645,0.0170500893145799
1768626888670,-0.3736572265625,-0.922393798828125,-0.01806640625,-0.0112081794068217,0.0195121821016073,0.0162034705281257
1768626888680,-0.380035400390625,-0.9292755126953124,-0.015045166015625,-0.0176168102771043,0.0118768997490406,0.0141666857525706
1768626888690,-0.3846435546875,-0.9296722412109376,-0.0132904052734375,-0.0248038824647665,0.0049351039342582,0.0068922606296837
1768626888700,-0.3865203857421875,-0.9273681640625,-0.014434814453125,-0.028701951727271,0.0079849557951092,0.0080326264724135
1768626888710,-0.384185791015625,-0.924652099609375,-0.016510009765625,-0.03341681137681,0.0066299396567046,0.0079237027093768
1768626888720,-0.3846435546875,-0.9224090576171876,-0.0200958251953125,-0.0344370678067207,0.0017342504579573,0.0091237239539623
1768626888730,-0.3879241943359375,-0.9220428466796876,-0.0267486572265625,-0.0309680365025997,-0.0083066653460264,0.0023052322212606
1768626888740,-0.395172119140625,-0.923858642578125,-0.0300750732421875,-0.0200038012117147,-0.0172168035060167,-0.0073785539716482
1768626888750,-0.3956756591796875,-0.9254913330078124,-0.0331268310546875,-0.0162665881216526,-0.0112151037901639,-0.0114630442112684
1768626888761,-0.3887786865234375,-0.9237823486328124,-0.0325469970703125,-0.0061532338149845,-0.0070251524448394,-0.0091117396950721
1768626888771,-0.38458251953125,-0.9244384765625,-0.031494140625,-0.0025190841406583,0.0110912667587399,-0.0061945128254592
1768626888781,-0.3808441162109375,-0.9272003173828124,-0.025909423828125,-0.0004849616379942,0.0251338481903076,2.5566347176209092e-05
1768626888791,-0.3769073486328125,-0.925628662109375,-0.0229034423828125,0.0027859327383339,0.025139708071947,0.0092659359797835
1768626888801,-0.3748321533203125,-0.921722412109375,-0.023773193359375,0.0100744720548391,0.0205963551998138,0.0136795928701758
1768626888811,-0.3780364990234375,-0.92401123046875,-0.0236663818359375,0.0160804335027933,0.0110198939219117,0.00890161562711
1768626888821,-0.38323974609375,-0.9253692626953124,-0.01947021484375,0.0199508052319288,-5.512743518920615e-05,0.0026674221735447
1768626888831,-0.38568115234375,-0.9229736328125,-0.0213470458984375,0.0268598441034555,-0.0014554174849763,-0.0026450515724718
1768626888841,-0.387481689453125,-0.9239654541015624,-0.0203094482421875,0.0296455100178718,0.0021228056866675,-0.0055074170231819
1768626888851,-0.3830413818359375,-0.9229583740234376,-0.0181884765625,0.0306138359010219,-0.0016250609187409,-0.0059396480210125
1768626888861,-0.3785247802734375,-0.9201507568359376,-0.0175628662109375,0.0269394721835851,0.0046224487014114,-0.0009145294898189
1768626888871,-0.37579345703125,-0.920257568359375,-0.0120849609375,0.015311311930418,0.0079178437590599,-0.0008631304954178
1768626888881,-0.37945556640625,-0.9241485595703124,-0.0059356689453125,0.0027688886038959,0.0036977990530431,-0.0010399643797427
1768626888891,-0.378021240234375,-0.9251556396484376,-0.003387451171875,-0.0121317636221647,-0.0028080369811505,-0.0013819142477586
1768626888901,-0.3759307861328125,-0.9225006103515624,-0.004638671875,-0.0243958868086338,-0.0030647658277302,0.0005001416429877
1768626888911,-0.3738861083984375,-0.9226837158203124,-0.00531005859375,-0.0352477356791496,-0.0065255435183644,0.0021675468888133
1768626888921,-0.3813323974609375,-0.9245758056640624,-0.01007080078125,-0.0468189045786857,-0.0148239536210894,-0.002673547482118
1768626888932,-0.389678955078125,-0.9292755126953124,-0.0120391845703125,-0.0524288527667522,-0.0157770980149507,-0.0122140552848577
1768626888941,-0.3895111083984375,-0.93035888671875,-0.0153961181640625,-0.0564438328146934,-0.0081988079473376,-0.0105330683290958
1768626888952,-0.3798980712890625,-0.923553466796875,-0.0227813720703125,-0.0529660135507583,-0.0058147460222244,-0.0011345066595822
1768626888962,-0.376617431640625,-0.917694091796875,-0.0305938720703125,-0.0417461134493351,0.0050506847910583,0.0080914823338389
1768626888972,-0.376251220703125,-0.915771484375,-0.0364532470703125,-0.0317866913974285,0.0096648782491683,0.0132526885718107
1768626888982,-0.3763427734375,-0.917724609375,-0.0281829833984375,-0.0247154664248228,0.0330173373222351,0.0136487009003758
1768626888992,-0.381103515625,-0.9307403564453124,-0.029541015625,-0.0151469949632883,0.0319294370710849,0.0148298125714063
1768626889002,-0.3843536376953125,-0.92431640625,-0.0296783447265625,-0.0058690742589533,0.0228382032364606,0.0111120399087667
1768626889012,-0.3845977783203125,-0.9197845458984376,-0.0268707275390625,0.0014897723449394,0.0079748360440135,0.0067926584742963
1768626889022,-0.3843231201171875,-0.9239501953125,-0.0246124267578125,0.0066469837911427,0.0036229642573744,0.0063947825692594
1768626889032,-0.380615234375,-0.9204254150390624,-0.0221710205078125,0.0041382857598364,0.0088819088414311,0.0102952476590871
1768626889042,-0.3792572021484375,-0.923004150390625,-0.0154571533203125,-0.0024716798216104,0.0078041274100542,0.0142228780314326
1768626889052,-0.3755035400390625,-0.922149658203125,-0.012603759765625,-0.0092046838253736,0.002322542713955,0.0218554977327585
1768626889062,-0.3759002685546875,-0.9210205078125,-0.0122833251953125,-0.0201042033731937,0.0083663202822208,0.0257991068065166
1768626889072,-0.3787994384765625,-0.9234619140625,-0.0101470947265625,-0.0295056942850351,0.00739959301427,0.0231599137187004
1768626889082,-0.3846282958984375,-0.923858642578125,-0.0124053955078125,-0.0350000634789466,0.0065543055534362,0.0194120481610298
1768626889092,-0.386138916015625,-0.9246063232421876,-0.0136566162109375,-0.0430811569094657,0.0038344194181263,0.0130441626533865
1768626889102,-0.38824462890625,-0.9234466552734376,-0.0129547119140625,-0.0467113107442855,-0.0007217166712507,0.0079511338844895
1768626889112,-0.38555908203125,-0.9268341064453124,-0.0140228271484375,-0.0484373085200786,0.0068022459745407,0.0053180665709078
1768626889122,-0.38555908203125,-0.9227752685546876,-0.0196990966796875,-0.0476665869355201,0.0114958006888628,0.0044924863614141
1768626889132,-0.3898468017578125,-0.9237823486328124,-0.026458740234375,-0.0461256839334964,0.0142188835889101,0.0027017768006771
1768626889142,-0.3888397216796875,-0.923858642578125,-0.0305633544921875,-0.0419027097523212,0.0170136038213968,0.0022399846930056
1768626889152,-0.3876495361328125,-0.9215850830078124,-0.03118896484375,-0.0395902879536151,0.0134007604792714,0.0052458946593105
1768626889163,-0.38482666015625,-0.920135498046875,-0.03216552734375,-0.0299957152456045,0.024254472926259,0.0102382563054561
1768626889172,-0.3813323974609375,-0.921051025390625,-0.03106689453125,-0.0277402848005294,0.0318194478750228,0.0142369931563735
1768626889183,-0.3829498291015625,-0.9214324951171876,-0.031036376953125,-0.0231340806931257,0.0204903613775968,0.0117623833939433
1768626889193,-0.386016845703125,-0.9199981689453124,-0.031829833984375,-0.0167640671133995,0.01103001460433,0.0127229858189821
1768626889203,-0.3864288330078125,-0.9215087890625,-0.030731201171875,-0.0174724664539098,-0.0039060583803802,0.0086970850825309
1768626889213,-0.387054443359375,-0.9208984375,-0.026824951171875,-0.0198610555380582,-0.008370847441256,-0.0021792647894471
1768626889223,-0.388916015625,-0.925018310546875,-0.0240020751953125,-0.021336980164051,-0.0015624766238033,-0.0008921589469537
1768626889233,-0.3841094970703125,-0.92083740234375,-0.02667236328125,-0.0160993412137031,-0.0022980417124927,5.299690383253619e-05
1768626889243,-0.3848724365234375,-0.9171600341796876,-0.0329742431640625,-0.0094968322664499,-0.0037300232797861,-0.0012777847005054
1768626889253,-0.3866729736328125,-0.9203338623046876,-0.03363037109375,-0.0049992860294878,-0.0049659963697195,-0.0034168355632573
1768626889263,-0.3898162841796875,-0.92230224609375,-0.0341796875,0.0009257147903554,-0.0113586485385894,-0.0069252839311957
1768626889273,-0.3897247314453125,-0.9229278564453124,-0.0323944091796875,0.0052429651841521,-0.0123101957142353,-0.0125394938513636
1768626889283,-0.3912353515625,-0.922882080078125,-0.02752685546875,0.0033462618011981,-0.0140774697065353,-0.0115759624168276
1768626889295,-0.38702392578125,-0.9227294921875,-0.0247802734375,-0.0002402171230642,-0.0193547885864973,-0.0121016697958111
1768626889303,-0.3829803466796875,-0.9210968017578124,-0.020111083984375,-0.0053681335411965,-0.0289099458605051,-0.0110281500965356
1768626889313,-0.3845367431640625,-0.923858642578125,-0.019256591796875,-0.0096747316420078,-0.0229553822427988,-0.0087490165606141
1768626889323,-0.3816680908203125,-0.9232025146484376,-0.0194549560546875,-0.0217242036014795,0.0046354979276657,0.002117745578289
1768626889333,-0.371734619140625,-0.9212188720703124,-0.0150909423828125,-0.0363470874726772,0.0265570413321256,0.0237226393073797
1768626889343,-0.3686981201171875,-0.91741943359375,-0.0140380859375,-0.0445288531482219,0.0316876210272312,0.0315328910946846
1768626889353,-0.376861572265625,-0.9210052490234376,-0.0157928466796875,-0.0559700578451156,0.0443181954324245,0.0346346758306026
1768626889364,-0.379241943359375,-0.925384521484375,-0.0116729736328125,-0.0666248351335525,0.0326511524617672,0.0320828333497047
1768626889373,-0.3870697021484375,-0.9251861572265624,-0.01593017578125,-0.0660088434815406,0.0130697293207049,0.0216091554611921
1768626889383,-0.392547607421875,-0.9226531982421876,-0.0251007080078125,-0.0568979047238826,0.0020346550736576,0.0081415493041276
1768626889393,-0.3944549560546875,-0.9226837158203124,-0.037567138671875,-0.0465182326734066,-0.0014492922928184,0.0010756507981568
1768626889404,-0.3921966552734375,-0.91937255859375,-0.040802001953125,-0.0397516749799251,0.0082699144259095,0.0023459785152226
1768626889414,-0.3828582763671875,-0.9210662841796876,-0.03826904296875,-0.0338085629045963,0.0090339751914143,0.0047361655160784
1768626889424,-0.380828857421875,-0.9218597412109376,-0.0370941162109375,-0.0281900931149721,0.0062871905975043,0.0117695741355419
1768626889434,-0.380401611328125,-0.921295166015625,-0.0359649658203125,-0.0232752282172441,0.0122611932456493,0.0108265485614538
1768626889444,-0.385223388671875,-0.9263458251953124,-0.0362548828125,-0.0197393503040075,0.0147214215248823,0.0123663879930973
1768626889454,-0.385101318359375,-0.923370361328125,-0.03521728515625,-0.0157802943140268,0.0070930630899965,0.0038264298345893
1768626889464,-0.3914031982421875,-0.92120361328125,-0.03424072265625,-0.0104174874722957,0.0043774377554655,0.0002599245344754
1768626889474,-0.389556884765625,-0.9206695556640624,-0.0344085693359375,-0.0076376795768737,0.0081775020807981,-0.0040799626149237
1768626889484,-0.39111328125,-0.9205474853515624,-0.0356292724609375,-0.0047718519344925,0.0084984134882688,-0.0035553199704736
1768626889494,-0.3890380859375,-0.9205322265625,-0.031524658203125,-0.0053257895633578,0.0068768146447837,-0.0042477417737245
1768626889504,-0.387176513671875,-0.9194488525390624,-0.0326080322265625,0.0005600627628155,0.0063058328814804,-0.0051577440463006
1768626889514,-0.38623046875,-0.92022705078125,-0.0364227294921875,0.0083910878747701,-0.0035830168053507,-0.0049814428202807
1768626889524,-0.387908935546875,-0.9199371337890624,-0.0388946533203125,0.0113365435972809,-0.0085916239768266,-0.008141815662384
1768626889534,-0.3919677734375,-0.9213714599609376,-0.0360565185546875,0.0134364468976855,-0.0107205547392368,-0.0170447640120983
1768626889545,-0.392669677734375,-0.9206695556640624,-0.0348968505859375,0.0143073005601763,-0.0143602974712848,-0.0171957649290561
1768626889554,-0.387054443359375,-0.921112060546875,-0.03082275390625,0.0117551926523447,-0.0165680572390556,-0.0169555470347404
1768626889564,-0.3834991455078125,-0.9213409423828124,-0.0265350341796875,0.0039606532081961,-0.0167124010622501,-0.0164178553968668
1768626889574,-0.384033203125,-0.9217987060546876,-0.02618408203125,0.0012727247085422,-0.0204192548990249,-0.0195742342621088
1768626889584,-0.3889617919921875,-0.9218902587890624,-0.030426025390625,0.0002705771767068,-0.0245269145816564,-0.0208323113620281
1768626889595,-0.3861846923828125,-0.9211273193359376,-0.02911376953125,-0.0001832254783948,-0.0153001267462968,-0.0169321112334728
1768626889604,-0.3836822509765625,-0.9215545654296876,-0.0271453857421875,-0.0040674461051821,-0.0051795821636915,-0.0131387049332261
1768626889615,-0.3844451904296875,-0.923858642578125,-0.0243682861328125,-0.0091689974069595,0.0023672839161008,-0.0047532096505165
1768626889625,-0.3779754638671875,-0.9210968017578124,-0.024169921875,-0.0126217855140566,0.0091418325901031,0.0024828650057315
1768626889635,-0.3787384033203125,-0.921630859375,-0.0258636474609375,-0.0149368718266487,0.0067796092480421,0.0079130502417683
1768626889647,-0.3838348388671875,-0.9234619140625,-0.0269775390625,-0.0167310424149036,0.0112510565668344,0.0063646887429058
1768626889655,-0.3837890625,-0.924041748046875,-0.024322509765625,-0.0175433065742254,0.0128657314926385,0.0058962386101484
1768626889665,-0.382415771484375,-0.92095947265625,-0.0276031494140625,-0.0206307098269462,0.0041406829841434,0.0056791910901665
1768626889675,-0.3838653564453125,-0.9227752685546876,-0.0263214111328125,-0.0212035551667213,0.0003922836331184,-0.0006242449744604
1768626889685,-0.3883819580078125,-0.9229278564453124,-0.0289459228515625,-0.0177329238504171,0.0167499519884586,0.0006617955514229
1768626889695,-0.38226318359375,-0.919891357421875,-0.031890869140625,-0.0184583701193332,0.0213114134967327,0.0072549832984805
1768626889705,-0.3797607421875,-0.9199066162109376,-0.030670166015625,-0.0211425703018903,0.0130172651261091,0.0057409764267504
1768626889715,-0.384735107421875,-0.9246978759765624,-0.0276031494140625,-0.0226198248565197,0.0162807032465934,0.006360693834722
1768626889725,-0.3811492919921875,-0.923126220703125,-0.0276947021484375,-0.0275123175233602,0.0138239366933703,0.009679258801043
1768626889735,-0.381683349609375,-0.92340087890625,-0.028228759765625,-0.032533973455429,0.0191183015704154,0.0099631519988179
1768626889745,-0.38360595703125,-0.922393798828125,-0.0293426513671875,-0.0314255654811859,0.0271591823548078,0.008796420879662
1768626889755,-0.387237548828125,-0.922210693359375,-0.0334625244140625,-0.0306188948452472,0.0259796697646379,0.0082147866487503
1768626889765,-0.3871307373046875,-0.920684814453125,-0.0342864990234375,-0.0298428498208522,0.023214241489768,0.0108406636863946
1768626889775,-0.3853912353515625,-0.922088623046875,-0.03851318359375,-0.0225093029439449,0.0269131064414978,0.0092422338202595
1768626889785,-0.38580322265625,-0.9207916259765624,-0.0423736572265625,-0.0172700677067041,0.0204847678542137,0.0102260056883096
1768626889795,-0.3886260986328125,-0.9206390380859376,-0.04193115234375,-0.0080091906711459,0.0089492863044142,0.0038967372383922
1768626889805,-0.391754150390625,-0.92266845703125,-0.0408935546875,0.0009779128013178,-0.0055012917146086,-0.0053689326159656
1768626889816,-0.3916015625,-0.9218597412109376,-0.039154052734375,0.0064041032455861,-0.0154298227280378,-0.012746687978506
1768626889826,-0.3871002197265625,-0.9214630126953124,-0.0359954833984375,0.0077221016399562,-0.0153587162494659,-0.0131325796246528
1768626889836,-0.385223388671875,-0.9220428466796876,-0.033966064453125,0.0072150360792875,-0.0031300131231546,-0.0115048559382557
1768626889846,-0.3808746337890625,-0.923858642578125,-0.0306243896484375,0.0045486791059374,0.0133458990603685,-0.0027947211638092
1768626889856,-0.377410888671875,-0.9205474853515624,-0.0314483642578125,-0.0020956413354724,0.0258470438420772,0.0098587563261389
1768626889866,-0.3791961669921875,-0.9198455810546876,-0.02862548828125,-0.0078065241686999,0.0230342131108045,0.0139538990333676
1768626889876,-0.386077880859375,-0.9249420166015624,-0.027862548828125,-0.0140196792781353,0.0254156105220317,0.0127432253211736
1768626889886,-0.3923187255859375,-0.928802490234375,-0.028411865234375,-0.0218704119324684,0.0346258878707885,0.012008992023766
1768626889896,-0.3843994140625,-0.923614501953125,-0.0288848876953125,-0.0203369632363319,0.0306308791041374,0.0206152629107236
1768626889906,-0.3722991943359375,-0.91265869140625,-0.0335235595703125,-0.0190013870596885,0.0275045949965715,0.0262254793196916
1768626889916,-0.3797149658203125,-0.9141693115234376,-0.0364837646484375,-0.0141781372949481,0.0328578166663646,0.0266984552145004
1768626889926,-0.3895721435546875,-0.921234130859375,-0.0367279052734375,-0.0089301113039255,0.0347398705780506,0.0155171742662787
1768626889936,-0.3919677734375,-0.9235992431640624,-0.0355224609375,-0.0105285411700606,0.0334980376064777,0.0083306338638067
1768626889946,-0.3929595947265625,-0.9256591796875,-0.0323486328125,-0.0124806379899382,0.024412665516138,0.0023558323737233
1768626889956,-0.394927978515625,-0.9267120361328124,-0.0294952392578125,-0.0151533866301178,0.0103794038295745,-0.0108289457857608
1768626889966,-0.3973541259765625,-0.92987060546875,-0.027099609375,-0.0232235640287399,0.0087396958842873,-0.0122540034353733
1768626889976,-0.3898162841796875,-0.919830322265625,-0.03326416015625,-0.0155059890821576,0.0093298517167568,-0.005487177055329
1768626889986,-0.3740081787109375,-0.9047698974609376,-0.039794921875,0.0011933625210076,0.005331914871931,0.0054669370874762
1768626889996,-0.37298583984375,-0.9029541015625,-0.0441741943359375,0.0134622789919376,0.0066725499927997,0.0090275835245847
1768626890006,-0.38507080078125,-0.9122467041015624,-0.044677734375,0.0231519248336553,0.0039385487325489,0.0016897757304832
1768626890016,-0.3913726806640625,-0.925079345703125,-0.039276123046875,0.0229013208299875,-0.0028690234757959,-0.0088536785915493
1768626890026,-0.39532470703125,-0.9297027587890624,-0.03314208984375,0.0139693450182676,-0.0119967414066195,-0.01729217171669
1768626890037,-0.390411376953125,-0.930419921875,-0.02667236328125,0.0008226504432968,-0.0027044401504099,-0.0108427936211228
1768626890047,-0.3792266845703125,-0.922576904296875,-0.0244140625,-0.0088797779753804,0.0017057546647265,0.0032748891972005
1768626890057,-0.38018798828125,-0.9183197021484376,-0.03033447265625,-0.0162412878125906,-0.0053907707333564,0.0080877542495727
1768626890067,-0.3862152099609375,-0.920867919921875,-0.03167724609375,-0.0223223492503166,-0.0109908655285835,0.0041183121502399
1768626890077,-0.392822265625,-0.9212646484375,-0.03570556640625,-0.0204235166311264,-0.0013134710025042,0.0027859327383339
1768626890087,-0.3896942138671875,-0.921295166015625,-0.0375518798828125,-0.0230491273105144,0.00669651851058,0.0064192833378911
1768626890097,-0.3900909423828125,-0.9223175048828124,-0.0401153564453125,-0.0168309118598699,0.0078286286443471,0.0062048989348113
1768626890107,-0.3897247314453125,-0.9204864501953124,-0.04534912109375,-0.0079183764755725,0.010144779458642,0.0078307585790753
1768626890117,-0.38629150390625,-0.9199676513671876,-0.0463714599609375,0.0037300232797861,0.0147816091775894,0.0126678580418229
1768626890127,-0.382354736328125,-0.9230499267578124,-0.044525146484375,0.0107818078249692,0.0163829680532217,0.0153448674827814
1768626890137,-0.3834075927734375,-0.9229888916015624,-0.04315185546875,0.0162929538637399,0.015433550812304,0.012018846347928
1768626890147,-0.3905029296875,-0.9247589111328124,-0.042510986328125,0.0231101121753454,0.0128233870491385,0.0047058057971298
1768626890157,-0.3943328857421875,-0.9227752685546876,-0.0423736572265625,0.0311070531606674,-0.0002681803307496,-0.0021789984311908
1768626890167,-0.3923492431640625,-0.921905517578125,-0.039642333984375,0.0383138321340084,-0.0078696412965655,-0.0090014841407537
1768626890177,-0.3886871337890625,-0.9215545654296876,-0.0359039306640625,0.0360895618796348,-0.0121575966477394,-0.0099375853314995
1768626890187,-0.3885955810546875,-0.9214935302734376,-0.0271148681640625,0.028244687244296,-0.0183939207345247,-0.0118803614750504
1768626890197,-0.3851470947265625,-0.9210662841796876,-0.0228118896484375,0.0237117204815149,-0.0223039742559194,-0.0088595375418663
1768626890207,-0.383636474609375,-0.9194793701171876,-0.0208587646484375,0.0136497654020786,-0.0248651355504989,-0.0138729382306337
1768626890217,-0.3869171142578125,-0.9224395751953124,-0.0181427001953125,0.0027430558111518,-0.0179201439023017,-0.0112888738512992
1768626890227,-0.38214111328125,-0.91961669921875,-0.014892578125,-0.0103748766705393,-0.0144828027114272,-0.0071380706503987
1768626890238,-0.378997802734375,-0.918487548828125,-0.0162200927734375,-0.0262300055474042,-0.0053212619386613,-1.145159239968052e-05
1768626890247,-0.37774658203125,-0.9203948974609376,-0.0163421630859375,-0.0375353917479515,-0.0022295983508229,0.0048557417467236
1768626890258,-0.3826141357421875,-0.9198760986328124,-0.017333984375,-0.0497654266655445,-0.007570834364742,0.0058166100643575
1768626890268,-0.3868865966796875,-0.9226531982421876,-0.0220489501953125,-0.0626956075429916,-0.0008072041091509,-0.000328367750626
1768626890278,-0.393310546875,-0.92889404296875,-0.02587890625,-0.0710067972540855,-0.0003629888524301,-0.0079458076506853
1768626890288,-0.397003173828125,-0.9278411865234376,-0.03350830078125,-0.0694610998034477,-0.0030754182953387,-0.0091511541977524
1768626890298,-0.387237548828125,-0.9198760986328124,-0.0436553955078125,-0.0566622130572795,0.0033563817851245,-0.002821619156748
1768626890308,-0.3840789794921875,-0.915435791015625,-0.054840087890625,-0.0368557535111904,0.0076528596691787,0.0044504082761704
1768626890318,-0.3874969482421875,-0.915008544921875,-0.0593109130859375,-0.0173017587512731,0.0099234711378812,0.0051074102520942
1768626890328,-0.3902740478515625,-0.9173126220703124,-0.0611419677734375,0.0053340452723205,0.010211625136435,0.0014442323008552
1768626890338,-0.387481689453125,-0.9191436767578124,-0.06060791015625,0.021542577072978,0.0132851786911487,-0.0004812332044821
1768626890348,-0.3878326416015625,-0.9232177734375,-0.0547943115234375,0.031711857765913,0.0182746108621358,-0.0013646037550643
1768626890358,-0.3858184814453125,-0.9233856201171876,-0.0486602783203125,0.0421407967805862,0.0186304096132516,-0.0002468750171829
1768626890368,-0.38458251953125,-0.9218292236328124,-0.0436248779296875,0.0482077412307262,0.0254646129906177,0.0048623993061482
1768626890378,-0.38592529296875,-0.9180145263671876,-0.0417022705078125,0.0512424148619174,0.0316242389380931,0.0108670284971594
1768626890388,-0.3768310546875,-0.9246368408203124,-0.031341552734375,0.0469613820314407,0.0365385711193084,0.0140433805063366
1768626890398,-0.382476806640625,-0.9192657470703124,-0.0303802490234375,0.0420238822698593,0.0253058895468711,0.0135291246697306
1768626890408,-0.3912353515625,-0.9193115234375,-0.0275726318359375,0.0379732139408588,0.0134731978178024,0.0042426818981766
1768626890418,-0.39404296875,-0.9235076904296876,-0.0254364013671875,0.0354746356606483,0.0115250954404473,0.0020706076174974
1768626890428,-0.386871337890625,-0.9220123291015624,-0.025543212890625,0.0281645264476537,0.006582801695913,-0.000197872868739
1768626890438,-0.3860015869140625,-0.9218292236328124,-0.0194549560546875,0.0181907210499048,0.0042663840577006,-0.0021614215802401
1768626890448,-0.385223388671875,-0.9236602783203124,-0.0155487060546875,0.006190251559019,0.0030892668291926,-0.0011060107499361
1768626890458,-0.3817138671875,-0.923187255859375,-0.0146026611328125,-0.004555869847536,-0.0069564431905746,-0.0024887239560484
1768626890469,-0.385162353515625,-0.9223480224609376,-0.015350341796875,-0.0144718838855624,-0.0069497851654887,-0.0025979136116802
1768626890479,-0.383331298828125,-0.9227294921875,-0.02032470703125,-0.0208160653710365,-0.0030240193009376,-0.001669269404374
1768626890489,-0.3853759765625,-0.9237518310546876,-0.022430419921875,-0.0262369308620691,0.001128381351009,0.0001195759323309
1768626890499,-0.38836669921875,-0.9221649169921876,-0.0261383056640625,-0.0296585597097873,0.0020165455061942,0.0035558526869863
1768626890509,-0.3852996826171875,-0.9197845458984376,-0.02734375,-0.0310189016163349,-0.0012823120923712,0.0047806403599679
1768626890519,-0.385284423828125,-0.9207000732421876,-0.02947998046875,-0.0333952419459819,-0.0062080947682261,0.00370365800336
1768626890529,-0.3892364501953125,-0.921539306640625,-0.0308837890625,-0.0368956997990608,0.0017201356822624,-0.0016293219523504
1768626890539,-0.389251708984375,-0.921112060546875,-0.0323944091796875,-0.0358301699161529,-0.0003930825623683,-0.0001233043585671
1768626890549,-0.3874053955078125,-0.9180908203125,-0.0377044677734375,-0.0325108058750629,-0.0084379594773054,0.0009882990270853
1768626890559,-0.38763427734375,-0.9175262451171876,-0.04168701171875,-0.0246068090200424,-0.0101253380998969,-0.0020418455824255
1768626890569,-0.3886871337890625,-0.918365478515625,-0.0445709228515625,-0.0176383815705776,-0.0026242788881063,-0.0020932445768266
1768626890579,-0.3870697021484375,-0.91961669921875,-0.0450286865234375,-0.0103013729676604,0.0018487664638087,-0.0016189356101676
1768626890589,-0.3893890380859375,-0.9199981689453124,-0.0429534912109375,-0.0039175101555883,0.0054629421792924,0.0006021407316438
1768626890599,-0.387847900390625,-0.9193878173828124,-0.044158935546875,0.0029606360476464,0.006974818650633,0.0029281456954777
1768626890609,-0.38800048828125,-0.920013427734375,-0.0447998046875,0.0101498393341898,0.0063223442994058,0.0025837989524006
1768626890619,-0.3899383544921875,-0.9179534912109376,-0.0447845458984375,0.0180431827902793,0.0055862464942038,-0.0008388957357965
1768626890629,-0.3952789306640625,-0.92144775390625,-0.04180908203125,0.0210344456136226,0.0076089175418019,-0.0029542446136474
1768626890639,-0.38946533203125,-0.924896240234375,-0.0396270751953125,0.0248046815395355,0.0033827472943812,-0.0070741549134254
1768626890649,-0.38592529296875,-0.9205780029296876,-0.0385894775390625,0.0260553024709224,-0.0034210965968668,-0.0049971556290984
1768626890659,-0.3863983154296875,-0.9210052490234376,-0.034881591796875,0.0257442463189363,-0.0161536689847707,-0.0101658180356025
1768626890670,-0.389404296875,-0.922210693359375,-0.0311431884765625,0.028006600216031,-0.0039100530557334,-0.0054911719635128
1768626890680,-0.383392333984375,-0.9208526611328124,-0.0312652587890625,0.0256411805748939,0.0017965685110539,-0.0024644893128424
1768626890690,-0.3840789794921875,-0.920928955078125,-0.0279541015625,0.0243727173656225,-0.011071559973061,-0.0025550366844981
1768626890700,-0.3832550048828125,-0.92034912109375,-0.0282135009765625,0.0244888309389352,-0.0154383443295955,-0.0011219898005947
1768626890710,-0.384613037109375,-0.91845703125,-0.028564453125,0.0245689917355775,-0.0123014077544212,-0.0061971759423613
1768626890720,-0.38812255859375,-0.922210693359375,-0.030792236328125,0.0245990864932537,0.0016951019642874,-0.0052376389503479
1768626890730,-0.386383056640625,-0.923065185546875,-0.0303497314453125,0.0248712617903947,0.0145102329552173,-0.0024799355305731
1768626890740,-0.388763427734375,-0.921417236328125,-0.027984619140625,0.0213779937475919,0.0104563692584633,-0.0083601949736475
1768626890750,-0.391510009765625,-0.922119140625,-0.024139404296875,0.0157752353698015,0.0102475779131054,-0.0114744957536458
1768626890760,-0.385711669921875,-0.922882080078125,-0.023468017578125,0.0098891155794262,0.0058198058977723,-0.0107490504160523
1768626890770,-0.3810272216796875,-0.923492431640625,-0.0214996337890625,0.0025244103744626,-0.0096787260845303,-0.0083037363365292
1768626890780,-0.378143310546875,-0.924041748046875,-0.020111083984375,-0.0049795787781476,-0.0178945790976285,-0.0048280446790158
1768626890790,-0.382598876953125,-0.9215545654296876,-0.0220184326171875,-0.0085002770647406,-0.0141309993341565,-0.0026525084394961
1768626890800,-0.38519287109375,-0.9224395751953124,-0.0238494873046875,-0.0134753286838531,-0.0085314363241195,-0.0002189118386013
1768626890810,-0.384613037109375,-0.92218017578125,-0.025421142578125,-0.0183872636407613,-0.0053851781412959,0.0021768677979707
1768626890820,-0.3849639892578125,-0.921356201171875,-0.0260467529296875,-0.0202514752745628,0.00215929094702,0.0025798040442168
1768626890830,-0.3871002197265625,-0.920166015625,-0.0307769775390625,-0.017104685306549,0.0073551181703805,0.0041137849912047
1768626890840,-0.38519287109375,-0.920989990234375,-0.0327301025390625,-0.0178820621222257,0.0098960399627685,0.0048394962213933
1768626890850,-0.386383056640625,-0.9208831787109376,-0.0308685302734375,-0.0159150511026382,0.0059210062026977,0.0019177423091605
1768626890860,-0.3892669677734375,-0.92242431640625,-0.032012939453125,-0.0164162572473287,0.0035880769137293,0.0017385114915668
1768626890870,-0.38739013671875,-0.9217071533203124,-0.0299530029296875,-0.0246400982141494,-0.0119733056053519,-0.0011350392596796
1768626890881,-0.385650634765625,-0.9221954345703124,-0.0285491943359375,-0.0166748501360416,-0.0244238507002592,-0.0029076393693685
1768626890890,-0.3877105712890625,-0.92230224609375,-0.0351715087890625,-0.0141709465533494,-0.0148604391142725,-0.0063961138948798
1768626890901,-0.38482666015625,-0.922576904296875,-0.0333099365234375,-0.0116159096360206,-0.0100702112540602,-0.0045340317301452
1768626890911,-0.389801025390625,-0.9196319580078124,-0.0338134765625,-0.006352970842272,-0.008019576780498,-0.0086422236636281
1768626890921,-0.3878021240234375,-0.920928955078125,-0.0359039306640625,-0.0011472897604107,0.0033768883440643,-0.0063772057183086
1768626890931,-0.38677978515625,-0.9194183349609376,-0.0370635986328125,0.0013025520602241,0.0096233328804373,-0.0037270938046276
1768626890941,-0.3863525390625,-0.9222869873046876,-0.0318603515625,-0.0001414138532709,0.0088193239644169,-0.0031121699139475
1768626890951,-0.3875579833984375,-0.9216156005859376,-0.0312652587890625,0.0001091896047,-0.000311589858029,-0.0036461339332163
1768626890961,-0.386810302734375,-0.9208831787109376,-0.030426025390625,-0.0014146711910143,-0.002617621095851,-0.0058941082097589
1768626890971,-0.3858489990234375,-0.9246826171875,-0.0275115966796875,-0.0081535335630178,0.0037401434965431,-0.0066437879577279
1768626890981,-0.3878936767578125,-0.9267425537109376,-0.02532958984375,-0.0164852328598499,-0.0023568975739181,-0.0082888221368193
1768626890991,-0.3873443603515625,-0.9223480224609376,-0.0254669189453125,-0.0162476785480976,-0.0161462128162384,-0.0098158791661262
1768626891001,-0.383941650390625,-0.9153289794921876,-0.0295867919921875,-0.0161139890551567,-0.0353926122188568,-0.0119775673374533
1768626891011,-0.3851470947265625,-0.9171142578125,-0.0313873291015625,-0.009572465904057,-0.0312945395708084,-0.0145155591890215
1768626891021,-0.386383056640625,-0.9183349609375,-0.034637451171875,-0.0027353328187018,-0.0161211788654327,-0.0153198344632983
1768626891031,-0.385955810546875,-0.9236907958984376,-0.0340728759765625,-0.0037071201950311,-0.0105607649311423,-0.0162263736128807
1768626891041,-0.385162353515625,-0.9236602783203124,-0.0324554443359375,-0.0014231932582333,-0.0065724151208996,-0.0145411258563399
1768626891051,-0.3849945068359375,-0.924102783203125,-0.0337982177734375,-0.001300155185163,-0.0075173047371208,-0.0165741834789514
1768626891061,-0.388397216796875,-0.929473876953125,-0.0337677001953125,-0.0061359233222901,0.0081636542454361,-0.0141722783446311
1768626891071,-0.3878326416015625,-0.925048828125,-0.0312957763671875,-0.0024146882351487,0.0166660621762275,-0.0081559307873249
1768626891081,-0.37835693359375,-0.91375732421875,-0.03662109375,0.009533317759633,0.0100797982886433,0.0027273432351648
1768626891091,-0.3705291748046875,-0.907470703125,-0.036529541015625,0.0226318091154098,0.0012724583502858,0.0076991985552012
1768626891102,-0.373046875,-0.908966064453125,-0.0342254638671875,0.0350469350814819,0.0002641855680849,0.0108364019542932
1768626891112,-0.3777618408203125,-0.9177398681640624,-0.0334320068359375,0.0404960289597511,0.0021957762073725,0.0087892301380634
1768626891122,-0.38140869140625,-0.9261474609375,-0.0284881591796875,0.0348237603902816,0.0092840455472469,0.0060304617509245
1768626891132,-0.3851776123046875,-0.9287109375,-0.020751953125,0.0202229805290699,0.0011872372124344,0.0030778152868151
1768626891142,-0.389739990234375,-0.9275665283203124,-0.0168914794921875,0.0052578789182007,-0.0034591800067573,0.0020937772933393
1768626891152,-0.3869171142578125,-0.923553466796875,-0.0146942138671875,-0.0086624640971422,-0.0104664890095591,0.002004561247304
1768626891162,-0.387420654296875,-0.9211273193359376,-0.0156097412109375,-0.0242890939116477,-0.0023566312156617,0.0041966093704104
1768626891172,-0.38690185546875,-0.9205322265625,-0.01727294921875,-0.0349193662405014,0.000695351336617,0.0072174328379333
1768626891182,-0.3879547119140625,-0.9211273193359376,-0.021270751953125,-0.0433669164776802,0.0148175619542598,0.0126279108226299
1768626891192,-0.3846282958984375,-0.922576904296875,-0.025482177734375,-0.0479861684143543,0.0135589521378278,0.0117474701255559
1768626891202,-0.3904266357421875,-0.9236297607421876,-0.0311431884765625,-0.0441035442054271,0.0194978006184101,0.0133331157267093
1768626891213,-0.3879241943359375,-0.922943115234375,-0.0377044677734375,-0.0374722741544246,0.0468505956232547,0.0167957581579685
1768626891222,-0.3810882568359375,-0.9226531982421876,-0.0379486083984375,-0.0316913500428199,0.0627501979470253,0.0260904561728239
1768626891232,-0.379425048828125,-0.9235687255859376,-0.0381927490234375,-0.0258331950753927,0.0719402357935905,0.0325369052588939
1768626891242,-0.3871917724609375,-0.9232025146484376,-0.0406341552734375,-0.0155603177845478,0.0639057457447052,0.0314143821597099
1768626891252,-0.3917083740234375,-0.9238739013671876,-0.044708251953125,-0.0014868428697809,0.0498336032032966,0.0256281308829784
1768626891262,-0.395538330078125,-0.9211273193359376,-0.0460968017578125,0.0128071419894695,0.0271290894597768,0.0127307092770934
1768626891272,-0.397613525390625,-0.9220733642578124,-0.0432281494140625,0.0240459479391574,0.0098981708288192,-0.0012732573086395
1768626891282,-0.39715576171875,-0.9216766357421876,-0.03973388671875,0.0322207883000373,-0.008756473660469,-0.0128670623525977
1768626891292,-0.3949737548828125,-0.920745849609375,-0.035186767578125,0.0362770482897758,-0.0279794372618198,-0.0230011902749538
1768626891303,-0.3914947509765625,-0.920654296875,-0.029998779296875,0.0335174798965454,-0.0309384744614362,-0.023446736857295
1768626891313,-0.3841705322265625,-0.9201202392578124,-0.024993896484375,0.0303496494889259,-0.0307829454541206,-0.0203694533556699
1768626891323,-0.380523681640625,-0.9203643798828124,-0.020965576171875,0.0195039268583059,-0.0179358571767807,-0.0149022508412599
1768626891333,-0.37548828125,-0.9221649169921876,-0.01788330078125,0.0074736289680004,0.0009254484903067,-0.0061795990914106
1768626891343,-0.3740386962890625,-0.91888427734375,-0.0159759521484375,-0.0062682824209332,0.0152569832280278,0.006385994143784
1768626891353,-0.375396728515625,-0.9179534912109376,-0.020477294921875,-0.0162016060203313,0.0161115918308496,0.0093314498662948
1768626891364,-0.380584716796875,-0.9182891845703124,-0.023223876953125,-0.0243005454540252,0.0173571519553661,0.0089721893891692
1768626891373,-0.3875274658203125,-0.9250640869140624,-0.026031494140625,-0.0359436199069023,0.0284721218049526,0.0053766560740768
1768626891383,-0.398590087890625,-0.9315185546875,-0.0253448486328125,-0.0432633161544799,0.0285751856863498,-0.0002671150432433
1768626891393,-0.3951416015625,-0.9227294921875,-0.0308837890625,-0.0418909899890422,0.0217756032943725,0.000589890172705
1768626891403,-0.3878326416015625,-0.915496826171875,-0.038818359375,-0.0326599404215812,0.0148282144218683,0.0041156490333378
1768626891413,-0.3863372802734375,-0.9142608642578124,-0.04302978515625,-0.0160793680697679,0.0052775861695408,0.0042320294305682
1768626891423,-0.3865814208984375,-0.9152679443359376,-0.045440673828125,-0.0018407768802717,-0.0037095169536769,0.0017646105261519
1768626891433,-0.3889007568359375,-0.9194793701171876,-0.0455322265625,0.0071220914833247,-0.0078302258625626,-0.0057774614542722
1768626891443,-0.3905792236328125,-0.9221649169921876,-0.0411529541015625,0.0162450168281793,-0.0113578494638204,-0.0102989766746759
1768626891453,-0.3893585205078125,-0.9212646484375,-0.0381011962890625,0.0258374568074941,-0.0208594761788845,-0.0127235185354948
1768626891463,-0.38751220703125,-0.9204559326171876,-0.03546142578125,0.0300497785210609,-0.0105676893144845,-0.0146218193694949
1768626891473,-0.3823394775390625,-0.91973876953125,-0.0334930419921875,0.0324343740940094,0.0260936524718999,-0.0074922712519764
1768626891483,-0.3830413818359375,-0.9165496826171876,-0.025909423828125,0.0285725221037864,0.0314870849251747,0.0005052016349509
1768626891493,-0.380096435546875,-0.9290771484375,-0.029022216796875,0.0223897285759449,0.0234494004398584,0.0055628106929361
1768626891503,-0.386383056640625,-0.9223785400390624,-0.028411865234375,0.0163432862609624,0.0406507551670074,0.0085601983591914
1768626891513,-0.3837127685546875,-0.92034912109375,-0.022613525390625,0.0082123894244432,0.0391386151313781,0.0140447122976183
1768626891523,-0.3849945068359375,-0.9250335693359376,-0.0192718505859375,-0.0038682415615767,0.029534988105297,0.0068051754496991
1768626891534,-0.38690185546875,-0.921875,-0.01690673828125,-0.0160641875118017,0.0217404495924711,-6.498113361885771e-05
1768626891544,-0.3876800537109375,-0.924072265625,-0.01885986328125,-0.0225705560296773,0.0173984318971633,-0.0002657834847923
1768626891554,-0.3860931396484375,-0.9250335693359376,-0.0255126953125,-0.0237364880740642,0.0009781790431588,-0.0027310717850923
1768626891564,-0.390045166015625,-0.9232177734375,-0.0291900634765625,-0.0232251621782779,-0.0133568178862333,-0.0099706090986728
1768626891574,-0.391876220703125,-0.92236328125,-0.028350830078125,-0.0229481924325227,-0.0193337500095367,-0.0156058575958013
1768626891584,-0.3902587890625,-0.92218017578125,-0.03033447265625,-0.020616328343749,-0.0252486318349838,-0.0137118175625801
1768626891594,-0.3836669921875,-0.9204864501953124,-0.0323944091796875,-0.0180916525423526,-0.0112878084182739,-0.0075391428545117
1768626891604,-0.3800506591796875,-0.91912841796875,-0.030364990234375,-0.0192477311939001,0.0083402218297123,0.0018002968281507
1768626891614,-0.3812255859375,-0.920867919921875,-0.0311737060546875,-0.0173291899263858,0.0072336778976023,0.0046078013256192
1768626891624,-0.3818511962890625,-0.9206390380859376,-0.0315093994140625,-0.0179944466799497,7.403588097076863e-05,0.0019835224375128
1768626891634,-0.3891754150390625,-0.921051025390625,-0.033111572265625,-0.0175355840474367,-0.0025140240322798,-0.0027835359796881
1768626891644,-0.38970947265625,-0.9204864501953124,-0.0379791259765625,-0.0084355622529983,-0.0013036173768341,-0.0061178137548267
1768626891654,-0.38787841796875,-0.9190826416015624,-0.038177490234375,-0.0054994276724755,-0.0007946872501634,-0.0045771747827529
1768626891664,-0.384490966796875,-0.9203338623046876,-0.0342559814453125,-0.0045691854320466,-0.0003832288784906,-0.0008801747462712
1768626891674,-0.3795318603515625,-0.9185638427734376,-0.0313568115234375,-0.0024956483393907,-0.0082376897335052,-0.0025126924738287
1768626891684,-0.3858489990234375,-0.9194488525390624,-0.0339508056640625,-0.0012173309223726,-0.0019382486352697,-0.000353401468601
1768626891694,-0.385467529296875,-0.92144775390625,-0.0348052978515625,-0.0009515474666841,0.0052395029924809,-0.0002476739755365
1768626891704,-0.38555908203125,-0.92108154296875,-0.0323333740234375,-0.0058949068188667,0.0054443003609776,0.0016687366878613
1768626891714,-0.387298583984375,-0.920135498046875,-0.02801513671875,-0.0067764134146273,0.0014114753575995,0.0013592774048447
1768626891724,-0.3889007568359375,-0.9225006103515624,-0.029083251953125,-0.0112878084182739,0.0160820316523313,0.00341949891299
1768626891734,-0.38507080078125,-0.921600341796875,-0.02679443359375,-0.0130180642008781,0.0271381437778472,0.006753243971616
1768626891744,-0.3877410888671875,-0.92156982421875,-0.0274658203125,-0.015882559120655,0.0260819345712661,0.0059271310456097
1768626891755,-0.38824462890625,-0.9223785400390624,-0.03277587890625,-0.0097447726875543,0.0210091453045606,0.0025553030427545
1768626891765,-0.3887481689453125,-0.9215240478515624,-0.038818359375,-0.0066975839436054,0.0129128694534301,5.912217602599412e-05
1768626891775,-0.3905181884765625,-0.92059326171875,-0.0379486083984375,-0.0032253544777631,-0.0028011128306388,-0.0057087522000074
1768626891785,-0.393951416015625,-0.921142578125,-0.0372161865234375,0.0022128205746412,-0.0166314411908388,-0.0128636006265878
1768626891795,-0.3951263427734375,-0.92132568359375,-0.0382232666015625,0.0072571136988699,-0.0245554111897945,-0.0205183252692222
1768626891805,-0.3914642333984375,-0.9202423095703124,-0.0359344482421875,0.0083522060886025,-0.0121991420164704,-0.0199904851615428
1768626891815,-0.3833160400390625,-0.920928955078125,-0.0294952392578125,0.0043425504118204,-0.0061375210061669,-0.0167430266737937
1768626891825,-0.3838348388671875,-0.921234130859375,-0.0286407470703125,0.0032011196017265,0.0007379619055427,-0.0099719399586319
1768626891835,-0.3765411376953125,-0.9213409423828124,-0.0291748046875,-0.001440503867343,0.0161273051053285,-0.0008839031797833
1768626891845,-0.3742828369140625,-0.920745849609375,-0.0278167724609375,-0.0074254255741834,0.0157414115965366,0.0046908920630812
1768626891855,-0.3787384033203125,-0.923675537109375,-0.0255279541015625,-0.0128718568012118,0.0101551655679941,0.0040003340691328
1768626891865,-0.3849334716796875,-0.9236602783203124,-0.0257720947265625,-0.0138614866882562,0.0110704945400357,0.0023790018167346
1768626891875,-0.385284423828125,-0.92144775390625,-0.0302734375,-0.0107724862173199,0.0008647284121252,-0.0017664746847003
1768626891885,-0.38763427734375,-0.9207305908203124,-0.03277587890625,-0.0102023035287857,-0.0015507587231695,-0.0059915799647569
1768626891895,-0.387542724609375,-0.9229583740234376,-0.031463623046875,-0.0085767097771167,0.0025574336759746,-0.0050227218307554
1768626891905,-0.3818511962890625,-0.9235076904296876,-0.0310516357421875,-0.0094539551064372,0.0045452169142663,-0.0034218956716358
1768626891915,-0.3799285888671875,-0.9228973388671876,-0.0298919677734375,-0.0133509589359164,0.0074722971767187,-0.0004660531994886
1768626891925,-0.3815460205078125,-0.9236602783203124,-0.02880859375,-0.0154260946437716,0.0044552022591233,0.0001376854343106
1768626891935,-0.3824920654296875,-0.9222564697265624,-0.0330047607421875,-0.0144971832633018,0.0077005303464829,0.0017473000334575
1768626891946,-0.3798828125,-0.9231109619140624,-0.0325927734375,-0.0156423430889844,0.0051620053127408,0.0072491243481636
1768626891955,-0.38104248046875,-0.9221954345703124,-0.0310821533203125,-0.019471701234579,-0.0002652508555911,0.0070459251292049
1768626891966,-0.3844146728515625,-0.9225921630859376,-0.0283050537109375,-0.0272460021078586,-0.0030682277865707,0.0070906663313508
1768626891976,-0.3892364501953125,-0.9252471923828124,-0.0267791748046875,-0.0379340648651123,-0.0075545888394117,-0.0011225224006921
1768626891986,-0.395233154296875,-0.925506591796875,-0.025604248046875,-0.0429701022803783,-0.0106486491858959,-0.0014942996203899
1768626891996,-0.383392333984375,-0.915679931640625,-0.0271759033203125,-0.0318119898438453,-0.0180876571685075,0.0041686459444463
1768626892006,-0.37841796875,-0.9091033935546876,-0.03631591796875,-0.0246763173490762,-0.0132175348699092,0.0029273466207087
1768626892016,-0.3900146484375,-0.9165496826171876,-0.041717529296875,-0.0113330818712711,-0.0014647386269643,-0.0012668657582253
1768626892026,-0.3946990966796875,-0.919647216796875,-0.0446624755859375,-0.0009131979313679,0.0050301784649491,-0.0078920116648077
1768626892036,-0.393463134765625,-0.9224090576171876,-0.0446014404296875,0.0018319884547963,0.0052261874079704,-0.0061558969318866
1768626892046,-0.3863677978515625,-0.923675537109375,-0.043670654296875,0.0103319995105266,0.0032362733036279,-0.0038557245861738
1768626892056,-0.3898773193359375,-0.927398681640625,-0.0436553955078125,0.0088036116212606,0.0001363538467558,-0.0119485380128026
1768626892066,-0.397064208984375,-0.9311065673828124,-0.038787841796875,0.0068315407261252,0.0003864246828015,-0.0166599359363317
1768626892076,-0.3919525146484375,-0.921783447265625,-0.0350494384765625,0.0151166347786784,-0.0069556441158056,-0.0130713274702429
1768626892086,-0.3811187744140625,-0.911041259765625,-0.03521728515625,0.0221021063625812,-0.0164886955171823,-0.0073862774297595
1768626892096,-0.3751983642578125,-0.905731201171875,-0.0378570556640625,0.0342863351106643,-0.00981215108186,0.0006884271278977
1768626892106,-0.3753509521484375,-0.9092864990234376,-0.037872314453125,0.0394608564674854,0.0046480149030685,0.0042812977917492
1768626892116,-0.381866455078125,-0.9186248779296876,-0.030059814453125,0.0303174257278442,0.002650377806276,0.0012895026011392
1768626892126,-0.3869781494140625,-0.9261932373046876,-0.0208282470703125,0.0171427670866251,0.003678624285385,-0.0009235842735506
1768626892136,-0.3851470947265625,-0.9254913330078124,-0.017791748046875,0.0011334413429722,0.0051593417301774,-0.0010247844038531
1768626892146,-0.384979248046875,-0.9248504638671876,-0.013824462890625,-0.0162761751562356,0.0068706893362104,0.0040285638533532
1768626892156,-0.3844757080078125,-0.9240570068359376,-0.012115478515625,-0.0347265563905239,0.0159808304160833,0.0097024282440543
1768626892166,-0.38043212890625,-0.921539306640625,-0.0142974853515625,-0.0462503209710121,0.0079588564112782,0.0129663981497287
1768626892177,-0.38507080078125,-0.9223785400390624,-0.0206756591796875,-0.0508980676531791,0.000155528599862,0.0107008479535579
1768626892187,-0.38970947265625,-0.9200592041015624,-0.03204345703125,-0.044882521033287,0.0039739687927067,0.0071021178737282
1768626892197,-0.3946685791015625,-0.92315673828125,-0.0431365966796875,-0.0313651114702224,-0.000810399884358,0.0002588592469692
1768626892207,-0.3955535888671875,-0.923065185546875,-0.0471343994140625,-0.0185324046760797,-0.0049851713702082,-0.0044309673830866
1768626892217,-0.392974853515625,-0.9248199462890624,-0.0487823486328125,-0.0052719935774803,-0.0046826358884572,-0.0086147934198379
1768626892227,-0.39056396484375,-0.92529296875,-0.049102783203125,0.0070336745120584,-0.0013507553376257,-0.0077399448491632
1768626892237,-0.3872528076171875,-0.92340087890625,-0.0472259521484375,0.0172460991889238,-0.0036740971263498,-0.0090155992656946
1768626892247,-0.3867340087890625,-0.9228057861328124,-0.045867919921875,0.0272944718599319,-0.0082488749176263,-0.0122843626886606
1768626892257,-0.3857879638671875,-0.9213714599609376,-0.0458984375,0.034605648368597,-0.0062688146717846,-0.0104435859248042
1768626892267,-0.384674072265625,-0.9192657470703124,-0.042236328125,0.0389940030872821,-0.0108502507209777,-0.0100758038461208
1768626892277,-0.3845367431640625,-0.9191436767578124,-0.03839111328125,0.0392110534012317,-0.0068951901048421,-0.0067271450534462
1768626892287,-0.3808135986328125,-0.9194183349609376,-0.0312347412109375,0.0360024757683277,-0.0028847360517829,-0.0043910201638937
1768626892297,-0.3820343017578125,-0.9214630126953124,-0.02630615234375,0.0277964770793914,0.0081455446779727,-0.0008908273885026
1768626892307,-0.377227783203125,-0.9214019775390624,-0.0205230712890625,0.0199678484350442,0.0207036808133125,0.0049606701359152
1768626892317,-0.3792877197265625,-0.9188385009765624,-0.020233154296875,0.0080936131998896,0.0257969759404659,0.0114731639623641
1768626892327,-0.377655029296875,-0.9211273193359376,-0.0183258056640625,-0.0012383698485791,0.0196602530777454,0.0119796972721815
1768626892337,-0.38409423828125,-0.92352294921875,-0.0172119140625,-0.0113637084141373,0.0098864529281854,0.0104371942579746
1768626892347,-0.3817901611328125,-0.9201812744140624,-0.0190887451171875,-0.0217079576104879,0.0024192156270146,0.0083375582471489
1768626892357,-0.3815155029296875,-0.921630859375,-0.0209503173828125,-0.031400267034769,-0.0006191849242895,0.0041830269619822
1768626892367,-0.38739013671875,-0.9275665283203124,-0.0223541259765625,-0.0434057973325252,-0.0004197141970507,0.0001121190798585
1768626892377,-0.39068603515625,-0.9293670654296876,-0.0237579345703125,-0.0525313839316368,0.0169861745089292,-0.0001504685933468
1768626892388,-0.3822784423828125,-0.9239959716796876,-0.0285186767578125,-0.0539375320076942,0.0169006865471601,0.0086845681071281
1768626892398,-0.381744384765625,-0.9190521240234376,-0.0359344482421875,-0.0462884008884429,0.0094827180728316,0.0133874444290995
1768626892408,-0.3836822509765625,-0.9124298095703124,-0.043548583984375,-0.0319901555776596,0.0084664551541209,0.0106409266591072
1768626892418,-0.387847900390625,-0.9166412353515624,-0.0470428466796875,-0.0230802856385707,0.0236810948699712,0.0069503178820014
1768626892428,-0.3897247314453125,-0.9230499267578124,-0.0419769287109375,-0.0139309959486126,0.0270404051989316,0.0092779202386736
1768626892438,-0.3848114013671875,-0.922210693359375,-0.0404510498046875,-0.0081945462152361,0.0218325946480035,0.0125381620600819
1768626892448,-0.3840179443359375,-0.9196929931640624,-0.03912353515625,-0.001415470149368,0.0142226116731762,0.0103770075365901
1768626892458,-0.38916015625,-0.920501708984375,-0.0380859375,0.0035127094015479,0.009622267447412,0.0034935346338897
1768626892468,-0.3921051025390625,-0.9203948974609376,-0.036407470703125,0.006098638754338,0.0003432814555708,0.0011566109023988
1768626892478,-0.387725830078125,-0.9208221435546876,-0.034820556640625,0.009876599535346,-0.008551144041121,-0.0011827098205685
1768626892488,-0.3881378173828125,-0.9196929931640624,-0.0335693359375,0.0067974524572491,-0.0198333598673343,-0.0049324408173561
1768626892498,-0.390960693359375,-0.920562744140625,-0.0311737060546875,0.004169178660959,-0.02079982124269,-0.0112862102687358
1768626892508,-0.390350341796875,-0.9189910888671876,-0.0286407470703125,-0.0003126551164314,-0.0047484161332249,-0.0087119983509182
1768626892518,-0.3835906982421875,-0.9202728271484376,-0.0264892578125,-0.0089082736521959,0.0004977448261342,-0.0023254721891134
1768626892528,-0.38287353515625,-0.921722412109375,-0.0251007080078125,-0.0181289371103048,-0.0001589907187735,0.0026836674660444
1768626892538,-0.3837432861328125,-0.9228668212890624,-0.0257415771484375,-0.0257815290242433,0.0046237800270318,0.0056903762742877
1768626892548,-0.3847503662109375,-0.9249725341796876,-0.0254364013671875,-0.0343310758471488,0.0130127379670739,0.0100835263729095
1768626892558,-0.3824615478515625,-0.924224853515625,-0.0285491943359375,-0.0398621931672096,0.01836409419775,0.0126108666881918
1768626892568,-0.38946533203125,-0.9242095947265624,-0.0307769775390625,-0.041561558842659,0.0126169919967651,0.0059210062026977
1768626892578,-0.3936767578125,-0.9246978759765624,-0.0359344482421875,-0.0359236449003219,0.0011816446203738,-0.0015001586871221
1768626892588,-0.3919830322265625,-0.9219970703125,-0.04254150390625,-0.0292516276240348,-0.0013877731980755,-0.0026069683954119
1768626892599,-0.387664794921875,-0.9190521240234376,-0.0430755615234375,-0.0211638752371072,-0.0048898300155997,-0.0026631611399352
1768626892608,-0.389129638671875,-0.9195709228515624,-0.043853759765625,-0.0144974496215581,-0.0040746363811194,-0.0064371265470981
1768626892619,-0.391571044921875,-0.9218292236328124,-0.0413970947265625,-0.0064472467638552,-0.0093391733244061,-0.0103434510529041
1768626892629,-0.3883209228515625,-0.918121337890625,-0.041412353515625,-0.0012269183062016,-0.0096803242340683,-0.0088755171746015
1768626892639,-0.38409423828125,-0.9168548583984376,-0.043731689453125,0.0068405955098569,-0.0027861990965902,-0.0067740166559815
1768626892649,-0.3833465576171875,-0.9193115234375,-0.042022705078125,0.0104132257401943,0.0081130536273121,-0.0030660973861813
1768626892659,-0.3831329345703125,-0.919158935546875,-0.0388946533203125,0.0100358566269278,0.0102028362452983,0.0015960324089974
1768626892669,-0.38226318359375,-0.9195404052734376,-0.03546142578125,0.0108617022633552,0.0031031153630465,0.0036365464329719
1768626892679,-0.3838043212890625,-0.92291259765625,-0.0334320068359375,0.0087058739736676,0.008895756676793,0.0012218583142384
1768626892689,-0.386627197265625,-0.9228363037109376,-0.030426025390625,0.0072224927134811,0.0063247410580515,-0.0007233145297504
1768626892699,-0.3871002197265625,-0.918304443359375,-0.0328521728515625,0.0060184774920344,-0.0056275255046784,-0.0032908681314438
1768626892709,-0.386932373046875,-0.92022705078125,-0.0319366455078125,0.002616822021082,-0.008879511617124,-0.0040512005798518
1768626892719,-0.3887176513671875,-0.92193603515625,-0.0307464599609375,-6.950850365683436e-05,-0.0077143786475062,-0.0065063689835369
1768626892729,-0.3891448974609375,-0.92181396484375,-0.031463623046875,-0.0074746944010257,-0.0018168084789067,-0.00490607554093
1768626892739,-0.386810302734375,-0.923919677734375,-0.0324554443359375,-0.0071993232704699,0.0059106196276843,-0.0013670006301254
1768626892749,-0.383270263671875,-0.9214324951171876,-0.03387451171875,-0.008716526441276,0.0061476412229239,0.0012945625931024
1768626892759,-0.38336181640625,-0.920928955078125,-0.0329742431640625,-0.0098166782408952,0.002054096199572,0.00041385521763
1768626892769,-0.3875885009765625,-0.9244384765625,-0.03009033203125,-0.0084981471300125,-0.0033151030074805,-0.004324440844357
1768626892779,-0.388824462890625,-0.92327880859375,-0.033416748046875,-0.0072619076818227,-0.002454369328916,-0.0028146950062364
1768626892789,-0.38360595703125,-0.9210357666015624,-0.03564453125,-0.0038850193377584,0.0019435749854892,-0.0010764497565105
1768626892799,-0.3841400146484375,-0.9206390380859376,-0.0338592529296875,-0.0049375006929039,0.0031707596499472,0.0016982977977022
1768626892809,-0.3831329345703125,-0.9201812744140624,-0.0287322998046875,-0.012115784920752,0.0033316144254058,0.0049870354123413
1768626892820,-0.3852691650390625,-0.9216156005859376,-0.0245819091796875,-0.0247234553098678,0.001716939965263,0.0025638251099735
1768626892830,-0.387176513671875,-0.9234161376953124,-0.020263671875,-0.0332905799150466,-0.0017542241839691,0.0006388923502527
1768626892840,-0.3842926025390625,-0.9222412109375,-0.0224456787109375,-0.0377713479101657,-0.0041974079795181,0.0011800467036664
1768626892850,-0.3798980712890625,-0.9194488525390624,-0.02813720703125,-0.042903259396553,-0.001047421246767,0.0046866307966411
1768626892860,-0.37982177734375,-0.9202423095703124,-0.029632568359375,-0.048561941832304,-0.0070850737392902,0.0055548213422298
1768626892870,-0.3883056640625,-0.921722412109375,-0.0354461669921875,-0.047933705151081,-0.0177065581083297,0.0080352891236543
1768626892880,-0.3872833251953125,-0.9189453125,-0.0369720458984375,-0.0409636795520782,-0.0106739494949579,0.0030703584197908
1768626892890,-0.388092041015625,-0.920928955078125,-0.0417022705078125,-0.0387737601995468,-0.0059383166953921,0.0038083202671259
1768626892900,-0.3891448974609375,-0.919952392578125,-0.0415191650390625,-0.0351670421659946,-0.0093692671507596,0.0037191044539213
1768626892910,-0.3906402587890625,-0.9182586669921876,-0.047515869140625,-0.0230366103351116,-0.0172634087502956,-0.0029803435318171
1768626892920,-0.38916015625,-0.919403076171875,-0.049224853515625,-0.0135549567639827,-0.026930684223771,-0.0039177760481834
1768626892930,-0.3846588134765625,-0.9207611083984376,-0.046783447265625,-0.0055127432569861,-0.0244877655059099,-0.0035513252951204
1768626892940,-0.3865509033203125,-0.922576904296875,-0.04364013671875,-0.0031478563323616,-0.0187923293560743,-0.0044932854361832
1768626892950,-0.3880462646484375,-0.924468994140625,-0.0404052734375,-0.0036195022985339,-0.0098941763862967,-0.0051974253728985
1768626892960,-0.3884124755859375,-0.9200897216796876,-0.0380096435546875,-0.0024578312877565,0.007138337008655,-0.0024631577543914
1768626892970,-0.38751220703125,-0.92205810546875,-0.0376129150390625,-0.0051537491381168,0.0216938443481922,0.0041049965657293
1768626892980,-0.384857177734375,-0.919891357421875,-0.03955078125,-0.0042152511887252,0.0192115120589733,0.003680754918605
1768626892990,-0.38568115234375,-0.9194183349609376,-0.041015625,-0.0045271073468029,0.0248837787657976,0.0090454267337918
1768626893000,-0.38525390625,-0.9211883544921876,-0.03851318359375,-0.0043409527279436,0.024124776944518,0.0068919947370886
1768626893010,-0.3903656005859375,-0.9224853515625,-0.0372161865234375,-0.0050762514583766,0.012434565462172,0.0069511164911091
1768626893020,-0.390777587890625,-0.9217987060546876,-0.03656005859375,-0.0027923244051635,-0.0019664780702441,-0.0007214503129944
1768626893031,-0.393646240234375,-0.9224700927734376,-0.0373382568359375,-0.000539822736755,-0.0076304893009364,-0.0066797407343983
1768626893040,-0.3899993896484375,-0.92059326171875,-0.0365753173828125,0.0020221380982548,0.0040288302116096,-0.0016807209467515
1768626893051,-0.384246826171875,-0.9194488525390624,-0.0359954833984375,0.0015488944482058,0.0041041974909603,-0.0036029906477779
1768626893061,-0.385955810546875,-0.91937255859375,-0.03515625,-0.0031614385079592,0.0086001455783844,-0.0021680793724954
1768626893071,-0.3787841796875,-0.9209747314453124,-0.0318450927734375,-0.006286924239248,0.0258180145174264,0.0076733659952878
1768626893081,-0.37567138671875,-0.92120361328125,-0.0323333740234375,-0.0124390926212072,0.0447112768888473,0.0192860793322324
1768626893091,-0.376617431640625,-0.9200897216796876,-0.03094482421875,-0.0189015194773674,0.0559197254478931,0.025324797257781
1768626893101,-0.38336181640625,-0.9221954345703124,-0.0315093994140625,-0.0271357465535402,0.0582784861326217,0.0279898233711719
1768626893111,-0.3849639892578125,-0.919921875,-0.0314178466796875,-0.0318980105221271,0.0438012778759002,0.0263434574007987
1768626893121,-0.386871337890625,-0.9209136962890624,-0.0319671630859375,-0.0349153727293014,0.027115773409605,0.0222166217863559
1768626893131,-0.3889007568359375,-0.920867919921875,-0.033935546875,-0.0358024723827838,0.0072587118484079,0.0140489740297198
1768626893141,-0.39532470703125,-0.9208526611328124,-0.039031982421875,-0.0276710428297519,-0.0335867218673229,0.0058935754932463
1768626893151,-0.3937835693359375,-0.925048828125,-0.0477294921875,-0.0257173478603363,-0.0139453765004873,-0.0018658105982467
1768626893161,-0.393341064453125,-0.9121551513671876,-0.040374755859375,-0.023664316162467,-0.0074368771165609,-0.0042757051996886
1768626893171,-0.390594482421875,-0.9239349365234376,-0.04583740234375,-0.0215540286153554,0.003149454249069,-0.0071804150938987
1768626893181,-0.3873138427734375,-0.920074462890625,-0.0461273193359375,-0.0166740510612726,0.0218538995832204,-0.0001368864759569
1768626893191,-0.3839263916015625,-0.9175872802734376,-0.0486907958984375,-0.012639096006751,0.0255263987928628,0.0047478834167122
1768626893201,-0.3863677978515625,-0.9196624755859376,-0.0465545654296875,-0.0084691187366843,0.0217276662588119,0.0023214775137603
1768626893211,-0.390960693359375,-0.91986083984375,-0.045745849609375,-0.0036200347822159,0.0109309442341327,0.0005414206534624
1768626893221,-0.393341064453125,-0.921478271484375,-0.0483551025390625,0.0051622712053358,0.0008426241693086,-0.0036778254434466
1768626893232,-0.3941497802734375,-0.92242431640625,-0.0445556640625,0.0080651165917515,-0.0076568545773625,-0.0080059943720698
1768626893241,-0.3939361572265625,-0.9226531982421876,-0.040924072265625,0.0092571480199694,-0.0183992478996515,-0.0138582913205027
1768626893251,-0.3933868408203125,-0.9231719970703124,-0.0390777587890625,0.0087058739736676,-0.0265530478209257,-0.019998475909233
1768626893262,-0.3921051025390625,-0.924591064453125,-0.037811279296875,0.002060487633571,-0.0156370159238576,-0.0209753233939409
1768626893272,-0.38909912109375,-0.9238739013671876,-0.03460693359375,-0.0041739721782505,-0.0029422603547573,-0.0143776079639792
1768626893282,-0.37969970703125,-0.9176483154296876,-0.033233642578125,-0.0056504290550947,-0.0002452771295793,-0.0027100327424705
1768626893292,-0.3735809326171875,-0.910491943359375,-0.0355072021484375,-0.0082254391163587,-0.0066096996888518,0.0073886741884052
1768626893302,-0.3807373046875,-0.913665771484375,-0.038360595703125,-0.0071902684867382,-0.0029638318810611,0.0033023196738213
1768626893312,-0.3885345458984375,-0.9194793701171876,-0.0393829345703125,-0.0066581689752638,-0.0020104201976209,-0.0008988168556243
1768626893322,-0.3907012939453125,-0.9240570068359376,-0.0409393310546875,-0.0079292962327599,-0.0091788507997989,-0.0066666910424828
1768626893332,-0.3876190185546875,-0.9266815185546876,-0.0404052734375,-0.0041119204834103,0.0038586540613323,-0.0044365599751472
1768626893342,-0.389892578125,-0.927215576171875,-0.0410614013671875,-0.0042488072067499,0.0128276478499174,-0.0056035569868981
1768626893352,-0.3941497802734375,-0.9268798828125,-0.0391082763671875,-0.0093335807323455,0.0134084830060601,-0.0062001054175198
1768626893362,-0.38604736328125,-0.914794921875,-0.0375823974609375,0.0011249192757532,-0.0014567491598427,0.0026298714801669
1768626893372,-0.3746795654296875,-0.9044036865234376,-0.043487548828125,0.0131504228338599,-0.0048418929800391,0.0092347776517272
1768626893382,-0.376220703125,-0.9062957763671876,-0.042083740234375,0.0173409078270196,0.0048426920548081,0.0103690177202224
1768626893392,-0.382110595703125,-0.914947509765625,-0.03607177734375,0.0073484601452946,0.0127996848896145,0.0109162973240017
1768626893402,-0.3846282958984375,-0.92578125,-0.024932861328125,-0.0146319391205906,0.0189055148512125,0.0091183967888355
1768626893412,-0.3863525390625,-0.9303131103515624,-0.0160980224609375,-0.0386342108249664,0.0115221664309501,0.0087024113163352
1768626893422,-0.3882904052734375,-0.9287567138671876,-0.014678955078125,-0.0619038492441177,-0.001324922661297,0.0035244273021817
1768626893433,-0.3913116455078125,-0.923858642578125,-0.0218963623046875,-0.0725903138518333,-0.0095945708453655,0.0026522420812398
1768626893442,-0.3898162841796875,-0.9203948974609376,-0.032806396484375,-0.0744209736585617,-0.0026525084394961,0.0105362636968493
1768626893453,-0.3851470947265625,-0.9192047119140624,-0.043731689453125,-0.0699157044291496,-0.0016876452136784,0.0149240884929895
1768626893462,-0.3909912109375,-0.9200286865234376,-0.051361083984375,-0.0678645372390747,-0.0078113176859915,0.0113621102645993
1768626893473,-0.3951873779296875,-0.9230499267578124,-0.054229736328125,-0.050348125398159,-0.0019449065439403,0.0093927029520273
