timestamp_ms,acc_x,acc_y,acc_z,gyro_x,gyro_y,gyro_z
1769159157207,-0.05255126953125,-0.9805755615234376,0.14300537109375,0.0334900505840778,0.0001142496112152,-0.0144897270947694
1769159157215,-0.0634918212890625,-0.9715423583984376,0.1428985595703125,0.0438084676861763,0.0120161827653646,-0.0138433771207928
1769159157225,-0.0694580078125,-0.96728515625,0.14727783203125,0.0421732850372791,0.0120625216513872,-0.0097833881154656
1769159157235,-0.0649261474609375,-0.9728851318359376,0.15814208984375,0.0241988133639097,0.0014327806420624,-0.0070206252858042
1769159157245,-0.0613861083984375,-0.9817657470703124,0.16973876953125,0.0032242890447378,-0.0064544370397925,-0.0087689906358718
1769159157255,-0.05712890625,-0.9869232177734376,0.1699676513671875,-0.0107900630682706,-0.0014697986189275,-0.0106276106089353
1769159157265,-0.052947998046875,-0.9855194091796876,0.1635894775390625,-0.013373595662415,0.0033318807836622,-0.0060309944674372
1769159157275,-0.048248291015625,-0.9841461181640624,0.1561431884765625,-0.0086163915693759,0.0078259650617837,6.231796578504145e-05
1769159157285,-0.045684814453125,-0.983612060546875,0.1510772705078125,-0.0030447919853031,0.00636229198426,-0.0007856325246393
1769159157295,-0.0498199462890625,-0.986083984375,0.1534271240234375,-0.0007661914569325,-4.5273736759554595e-05,-0.0042746397666633
1769159157305,-0.0541229248046875,-0.9857635498046876,0.15399169921875,0.0017438378417864,-0.0034991272259503,-0.0082784360274672
1769159157315,-0.05426025390625,-0.9874725341796876,0.1548614501953125,0.0013456953456625,0.0003930825623683,-0.008167915046215
1769159157325,-0.053802490234375,-0.989654541015625,0.1551361083984375,0.0027577031869441,0.0014069479657337,-0.0095247952267527
1769159157335,-0.0515594482421875,-0.9893798828125,0.1569366455078125,0.0055199339985847,-0.0092329131439328,-0.0099873868748545
1769159157345,-0.0527191162109375,-0.991668701171875,0.156951904296875,0.0092598106712102,-0.0082725770771503,-0.007171360310167
1769159157355,-0.0460357666015625,-0.9938812255859376,0.1565399169921875,0.0107703562825918,0.0031510521657764,0.0018751317402347
1769159157365,-0.04156494140625,-0.9935150146484376,0.157867431640625,0.016948090866208,0.0089998869225382,0.0087769795209169
1769159157375,-0.043701171875,-0.9895782470703124,0.156280517578125,0.0205231178551912,0.0092004220932722,0.0151829477399587
1769159157385,-0.0468902587890625,-0.9883575439453124,0.1592254638671875,0.0171286538243293,0.0159715097397565,0.0176647473126649
1769159157396,-0.0477752685546875,-0.986175537109375,0.1634521484375,0.0148447258397936,0.012917130254209,0.0211705323308706
1769159157406,-0.0557403564453125,-0.97998046875,0.161529541015625,0.0120641198009252,0.0036266928073018,0.0151403369382023
1769159157416,-0.0627899169921875,-0.9784088134765624,0.1630096435546875,0.0057465690188109,0.0125988824293017,0.0099620865657925
1769159157426,-0.0636444091796875,-0.9782867431640624,0.1637115478515625,-0.0027118970174342,0.0173917729407548,0.007995075546205
1769159157436,-0.0645599365234375,-0.978607177734375,0.167144775390625,-0.011282748542726,0.0120944799855351,0.0011331749847158
1769159157446,-0.064453125,-0.9783477783203124,0.1680755615234375,-0.0240046679973602,0.0081460773944854,-0.0018157431622967
1769159157456,-0.057708740234375,-0.976776123046875,0.1664276123046875,-0.0359667874872684,0.0041417479515075,-0.0041156490333378
1769159157466,-0.0564422607421875,-0.9744110107421876,0.1656036376953125,-0.0432486720383167,0.0063063655979931,-0.0129893021658062
1769159157476,-0.06207275390625,-0.9723358154296876,0.1575927734375,-0.0520866364240646,0.0029912625905126,-0.0108449244871735
1769159157486,-0.0503692626953125,-0.981689453125,0.159332275390625,-0.060586117208004,-0.0008167914929799,-0.0104305362328886
1769159157496,-0.04620361328125,-0.9849090576171876,0.1563720703125,-0.0630825608968734,-0.0097732683643698,-0.0150708286091685
1769159157506,-0.05279541015625,-0.9807891845703124,0.1478729248046875,-0.0586361475288867,-0.0018615495646372,-0.0206464231014251
1769159157516,-0.0505218505859375,-0.97711181640625,0.1365203857421875,-0.0474332943558692,0.0018556906143203,-0.0177507679909467
1769159157526,-0.04534912109375,-0.9852294921875,0.1335601806640625,-0.0369737297296524,-0.00716896308586,-0.0112380068749189
1769159157536,-0.0437469482421875,-0.99322509765625,0.136383056640625,-0.0294604208320379,-0.0162977464497089,-0.0102201467379927
1769159157546,-0.040374755859375,-0.994537353515625,0.1321868896484375,-0.0182192176580429,-0.0114007266238331,-0.0035316178109496
1769159157556,-0.0434722900390625,-0.993896484375,0.1251220703125,0.0001203748834086,-0.003474626224488,0.0022748722694814
1769159157566,-0.050018310546875,-0.992156982421875,0.1250762939453125,0.0161968134343624,0.0022913836874067,0.0062576294876635
1769159157576,-0.0539703369140625,-0.9910888671875,0.1261749267578125,0.0277280341833829,-0.0012136024888604,0.0066182217560708
1769159157586,-0.0534515380859375,-0.9944915771484376,0.1334991455078125,0.0346708968281745,-0.0038290929514914,0.0039065908640623
1769159157597,-0.0511016845703125,-0.9947967529296876,0.137664794921875,0.038974829018116,0.0037342845462262,0.0100539652630686
1769159157606,-0.0470733642578125,-0.9909210205078124,0.139739990234375,0.047180563211441,0.0065625617280602,0.0169507544487714
1769159157617,-0.04437255859375,-0.9861602783203124,0.1421661376953125,0.0558467544615268,0.0072302161715924,0.0211311168968677
1769159157627,-0.0466156005859375,-0.981689453125,0.1430206298828125,0.0623294189572334,0.0022783342283219,0.0233881473541259
1769159157637,-0.052459716796875,-0.9788818359375,0.150299072265625,0.0654711499810218,-0.0002892192860599,0.0231386087834835
1769159157647,-0.0577239990234375,-0.9749298095703124,0.1559906005859375,0.0686680078506469,0.0030607709195464,0.0242512766271829
1769159157659,-0.0574798583984375,-0.974090576171875,0.1623687744140625,0.0653518438339233,0.0040578586049377,0.0263905953615903
1769159157667,-0.0635986328125,-0.973907470703125,0.172393798828125,0.0579285472631454,0.0031742216087877,0.0199223086237907
1769159157677,-0.0646820068359375,-0.9742889404296876,0.1802825927734375,0.04427345469594,0.00041385521763,0.0127919614315032
1769159157687,-0.0652313232421875,-0.97698974609375,0.18585205078125,0.0305986553430557,0.003720169654116,0.0068981195800006
1769159157697,-0.0646209716796875,-0.9781646728515624,0.18658447265625,0.0148423295468091,0.0017409083666279,0.003123888047412
1769159157707,-0.064056396484375,-0.9793243408203124,0.1910247802734375,-0.0025161546654999,-0.0037039243616163,-0.0009278453071601
1769159157717,-0.0624542236328125,-0.980712890625,0.191680908203125,-0.0240760408341884,-0.0063697486184537,-0.0061084926128387
1769159157727,-0.05975341796875,-0.983001708984375,0.189300537109375,-0.044537641108036,-0.0083940178155899,-0.007129814941436
1769159157737,-0.0622711181640625,-0.984466552734375,0.1888427734375,-0.0646532922983169,-0.0036767602432519,-0.0136401783674955
1769159157747,-0.0637664794921875,-0.98779296875,0.186492919921875,-0.0819438695907592,0.0047380300238728,-0.0149856070056557
1769159157760,-0.0619049072265625,-0.9870452880859376,0.1784820556640625,-0.0969422608613967,0.004047205671668,-0.016438627615571
1769159157767,-0.060211181640625,-0.9871978759765624,0.1694183349609375,-0.1025314331054687,-0.0017912421608343,-0.0204671919345855
1769159157777,-0.056915283203125,-0.9860687255859376,0.1555023193359375,-0.099924735724926,0.0045497445389628,-0.021411282941699
1769159157787,-0.0510101318359375,-0.988067626953125,0.1430206298828125,-0.0913826450705528,0.013424995355308,-0.0144460508599877
1769159157797,-0.0503997802734375,-0.9884490966796876,0.1341400146484375,-0.0760124772787094,0.0163496788591146,-0.0110414661467075
1769159157808,-0.046539306640625,-0.9846038818359376,0.122222900390625,-0.0539340712130069,0.0146401952952146,-0.0051273838616907
1769159157818,-0.04107666015625,-0.9840240478515624,0.115875244140625,-0.0316335596144199,0.0139949116855859,0.0037273601628839
1769159157827,-0.042022705078125,-0.9857330322265624,0.1123046875,-0.0096923084929585,0.0118864867836236,0.0087596690282225
1769159157837,-0.0387725830078125,-0.9855804443359376,0.1137237548828125,0.0106984507292509,0.0107213538140058,0.0178322605788707
1769159157848,-0.0359344482421875,-0.9861907958984376,0.1190643310546875,0.0286870375275611,-0.0011329087428748,0.0169068109244108
1769159157859,-0.0453338623046875,-0.9825592041015624,0.1219635009765625,0.040511205792427,-0.0108419954776763,0.0122257731854915
1769159157868,-0.053192138671875,-0.9800872802734376,0.1307220458984375,0.0499997846782207,-0.0103035038337111,0.0103120263665914
1769159157878,-0.0557098388671875,-0.98095703125,0.1397705078125,0.0508573204278945,-0.0101042995229363,0.0105599658563733
1769159157888,-0.0552215576171875,-0.9810791015625,0.1467437744140625,0.0520504191517829,-0.0056320531293749,0.0073953317478299
1769159157898,-0.0534210205078125,-0.980194091796875,0.150543212890625,0.0491696782410144,-0.0100036319345235,0.0041193775832653
1769159157908,-0.052001953125,-0.9836273193359376,0.158050537109375,0.0426744930446147,-0.0189151018857955,0.0019688750617206
1769159157918,-0.04852294921875,-0.98602294921875,0.1621246337890625,0.0354770347476005,-0.0291243288666009,0.001882588607259
1769159157928,-0.04974365234375,-0.987701416015625,0.167388916015625,0.0249274540692567,-0.035728171467781,-0.0018655443564057
1769159157938,-0.0542755126953125,-0.987762451171875,0.1675872802734375,0.0110007198527455,-0.0273495987057685,0.0004008057294413
1769159157948,-0.056884765625,-0.9849090576171876,0.164306640625,0.0083087962120771,-0.0048781121149659,0.0035678369458764
1769159157959,-0.0653533935546875,-0.980499267578125,0.1586761474609375,0.009083243086934,0.0101911183446645,0.0030834078788757
1769159157968,-0.0681610107421875,-0.980133056640625,0.157562255859375,0.0066842678934335,0.0122188497334718,0.0021038972772657
1769159157978,-0.062591552734375,-0.979949951171875,0.156890869140625,0.0064813350327312,0.0043729105964303,0.002699912758544
1769159157988,-0.056976318359375,-0.984466552734375,0.154266357421875,0.0110782170668244,-0.0049737198278307,0.0075372783467173
1769159157998,-0.052398681640625,-0.9843292236328124,0.152130126953125,0.0214877147227525,0.0003986752126365,0.0084470147266983
1769159158009,-0.0573272705078125,-0.9796905517578124,0.1468353271484375,0.0338381230831146,-0.0038309572264552,0.0139325931668281
1769159158018,-0.0553131103515625,-0.9793853759765624,0.151580810546875,0.038413967937231,-0.0101351924240589,0.0220017060637474
1769159158028,-0.0569305419921875,-0.990234375,0.1665496826171875,0.0259479768574237,-0.0159424804151058,0.0098262652754783
1769159158039,-0.066253662109375,-0.985076904296875,0.17303466796875,0.0265831407159566,-0.0137610854580998,-0.0066818711347877
1769159158049,-0.0629425048828125,-0.978179931640625,0.1643524169921875,0.0315422117710113,-0.0158785656094551,-0.0065029067918658
1769159158059,-0.0517730712890625,-0.9795379638671876,0.1675872802734375,0.0363217890262603,-0.0083226449787616,-0.0046307044103741
1769159158069,-0.0533905029296875,-0.9741058349609376,0.17132568359375,0.0390320867300033,0.0001693770464044,-0.0065444521605968
1769159158079,-0.064697265625,-0.96771240234375,0.17535400390625,0.0347475931048393,0.0039497343823313,-0.0140636209398508
1769159158089,-0.0709991455078125,-0.9615936279296876,0.1798553466796875,0.0181915201246738,0.0041832933202385,-0.0175662096589803
1769159158099,-0.0681304931640625,-0.9698028564453124,0.186614990234375,-0.0105112306773662,-0.006730340886861,-0.025512283667922
1769159158109,-0.061004638671875,-0.9811553955078124,0.1954498291015625,-0.0418057702481746,-0.0077327545732259,-0.0322106666862964
1769159158119,-0.05230712890625,-0.9877777099609376,0.1902618408203125,-0.0619360730051994,-0.0056829191744327,-0.0324900336563587
1769159158129,-0.0440521240234375,-0.9874114990234376,0.1762847900390625,-0.0668892860412597,-0.0047686561010777,-0.026766100898385
1769159158139,-0.0409088134765625,-0.985565185546875,0.16082763671875,-0.0643520951271057,-0.0013281183782964,-0.0231050532311201
1769159158149,-0.0413665771484375,-0.987152099609375,0.153045654296875,-0.0606753304600715,-0.0016785904299467,-0.0222083665430545
1769159158159,-0.0479583740234375,-0.987518310546875,0.1467437744140625,-0.0553479455411434,-0.0082677835598587,-0.0241444837301969
1769159158169,-0.05731201171875,-0.9893951416015624,0.1433563232421875,-0.05107356980443,-0.0072818812914192,-0.028028704226017
1769159158179,-0.058258056640625,-0.9918670654296876,0.13916015625,-0.0447581484913826,-0.0041859564371407,-0.0226475223898887
1769159158189,-0.0589447021484375,-0.993438720703125,0.136688232421875,-0.0311635117977857,-0.0175547581166028,-0.0234869495034217
1769159158199,-0.0579681396484375,-0.9923248291015624,0.1312103271484375,-0.0136332539841532,-0.0354533307254314,-0.0251753944903612
1769159158209,-0.0488128662109375,-0.9911956787109376,0.1214599609375,0.006663495209068,-0.0488807223737239,-0.0214115492999553
1769159158219,-0.0415191650390625,-0.9901275634765624,0.1201324462890625,0.0267466586083173,-0.0432755686342716,-0.0155118480324745
1769159158229,-0.03546142578125,-0.990264892578125,0.1252593994140625,0.0400582030415535,-0.0297107566148042,-0.0059542953968048
1769159158239,-0.03826904296875,-0.9915008544921876,0.1329345703125,0.0461880005896091,-0.0171462297439575,0.0044064661487936
1769159158250,-0.045623779296875,-0.9880828857421876,0.142486572265625,0.0494330637156963,0.0031856733839958,0.014976286329329
1769159158260,-0.048980712890625,-0.9821624755859376,0.1474609375,0.0514400228857994,0.0105200186371803,0.0211380422115325
1769159158270,-0.05126953125,-0.9809112548828124,0.15374755859375,0.0449155420064926,0.0064419205300509,0.0205010138452053
1769159158280,-0.0557403564453125,-0.97967529296875,0.1636505126953125,0.0333078876137733,0.0035862126387655,0.0160410180687904
1769159158291,-0.06036376953125,-0.9757080078125,0.1670379638671875,0.0215702727437019,-0.0075628450140357,0.0091109406203031
1769159158300,-0.0660858154296875,-0.977813720703125,0.1719512939453125,0.0081213098019361,-0.0227963924407959,-0.0022042985074222
1769159158310,-0.0684051513671875,-0.9804840087890624,0.17681884765625,-0.0089381011202931,-0.0267439968883991,-0.0106768794357776
1769159158320,-0.0653839111328125,-0.9830474853515624,0.1782379150390625,-0.0231362115591764,-0.0281394924968481,-0.015823969617486
1769159158330,-0.060211181640625,-0.979827880859375,0.17425537109375,-0.0287600085139274,-0.0149054462090134,-0.0184138938784599
1769159158340,-0.05352783203125,-0.97955322265625,0.1654815673828125,-0.0292015615850687,-0.0194530598819255,-0.0105493133887648
1769159158350,-0.0384063720703125,-0.988494873046875,0.1652679443359375,-0.0271051209419965,-0.0252257287502288,-0.0059375176206231
1769159158360,-0.037841796875,-0.9877166748046876,0.1604461669921875,-0.0200623907148838,-0.0201646573841571,-0.0054490938782691
1769159158370,-0.0478363037109375,-0.9818878173828124,0.156341552734375,-0.0077721690759062,0.003344397759065,-0.0080912159755826
1769159158380,-0.0561981201171875,-0.9733428955078124,0.149444580078125,0.0045955507084727,0.0126308407634496,-0.0032882050145417
1769159158392,-0.0560302734375,-0.98175048828125,0.157867431640625,0.0099128177389502,0.0035739622544497,-0.0063612265512347
1769159158400,-0.0525665283203125,-0.98834228515625,0.167694091796875,0.0056666741147637,-0.0227223560214042,-0.0159579273313283
1769159158410,-0.056793212890625,-0.9857940673828124,0.17279052734375,0.0008623315370641,-0.0538089014589786,-0.0262427888810634
1769159158420,-0.05657958984375,-0.984283447265625,0.173248291015625,-0.0018487664638087,-0.0526754632592201,-0.0360874310135841
1769159158430,-0.051116943359375,-0.9798431396484376,0.1670989990234375,-0.0094425035640597,-0.0672754421830177,-0.0424702279269695
1769159158440,-0.0495452880859375,-0.9834442138671876,0.1745758056640625,-0.0145134292542934,-0.0404731258749961,-0.0393724404275417
1769159158450,-0.0378265380859375,-0.9838409423828124,0.1681671142578125,-0.0274087209254503,-0.0393135845661163,-0.0336000397801399
1769159158460,-0.0428924560546875,-0.98760986328125,0.1732330322265625,-0.0389223657548427,-0.0235679093748331,-0.0331206694245338
1769159158470,-0.0462646484375,-0.9849853515625,0.1690826416015625,-0.051170777529478,-0.0172812528908252,-0.0312740318477153
1769159158480,-0.046112060546875,-0.985107421875,0.170501708984375,-0.0545250289142131,-0.015492140315473,-0.0306979920715093
1769159158494,-0.047607421875,-0.9806365966796876,0.1599273681640625,-0.0539103709161281,0.0073074474930763,-0.0228800158947706
1769159158500,-0.043853759765625,-0.980072021484375,0.1499176025390625,-0.0535529740154743,0.0288090109825134,-0.0168879032135009
1769159158510,-0.043365478515625,-0.9810943603515624,0.146331787109375,-0.0442359037697315,0.0325113385915756,-0.0104036387056112
1769159158521,-0.040191650390625,-0.9819488525390624,0.139373779296875,-0.036050945520401,0.0436798371374607,-0.0011054781498387
1769159158531,-0.0360107421875,-0.9810943603515624,0.1331634521484375,-0.0262292064726352,0.0498700886964798,0.0092768548056483
1769159158541,-0.0349884033203125,-0.98565673828125,0.132659912109375,-0.009410279802978,0.0431946069002151,0.0179284010082483
1769159158551,-0.0411376953125,-0.9858245849609376,0.132843017578125,0.0079721724614501,0.0231306198984384,0.0198298972100019
1769159158561,-0.050079345703125,-0.987548828125,0.135528564453125,0.0184948537498712,0.01783012971282,0.020320450887084
1769159158571,-0.0528717041015625,-0.9854888916015624,0.141265869140625,0.0239476766437292,0.0184873975813388,0.019114838913083
1769159158581,-0.0554656982421875,-0.9877166748046876,0.146270751953125,0.0240259747952222,0.0007326356135308,0.0136897135525941
1769159158591,-0.056793212890625,-0.985015869140625,0.150909423828125,0.0236179772764444,0.0002290318516315,0.0095173390582203
1769159158601,-0.0507049560546875,-0.98138427734375,0.148773193359375,0.0240190494805574,0.0060453754849731,0.0112886074930429
1769159158611,-0.0491790771484375,-0.98187255859375,0.1495361328125,0.024786040186882,0.0058584217913448,0.0154713680967688
1769159158621,-0.0513458251953125,-0.9837799072265624,0.1562347412109375,0.0220025032758712,0.0151888066902756,0.0170490238815546
1769159158631,-0.0465087890625,-0.982879638671875,0.157806396484375,0.0179768707603216,0.023472836241126,0.0176889821887016
1769159158641,-0.048004150390625,-0.9818115234375,0.1591644287109375,0.015499597415328,0.0210946332663297,0.0167755186557769
1769159158651,-0.0545654296875,-0.98175048828125,0.161285400390625,0.0100486390292644,0.0103008402511477,0.0120862238109111
1769159158661,-0.0558319091796875,-0.98382568359375,0.1660614013671875,0.0076464680023491,0.0092044174671173,0.0093998936936259
1769159158671,-0.0496826171875,-0.983306884765625,0.1616058349609375,0.0053209960460662,-0.0007709851488471,0.0043143210932612
1769159158682,-0.049224853515625,-0.98199462890625,0.16033935546875,0.0053854444995522,0.000316117220791,0.0055881110019981
1769159158692,-0.05059814453125,-0.9838409423828124,0.161102294921875,0.0066991816274821,0.0189925990998744,0.0104664890095591
1769159158702,-0.0501556396484375,-0.9857177734375,0.162353515625,0.0043566650710999,0.0259618256241083,0.0128188598901033
1769159158712,-0.0543975830078125,-0.984375,0.165740966796875,0.0022735407110303,0.0260158870369195,0.0088166613131761
1769159158722,-0.0553741455078125,-0.9835662841796876,0.165313720703125,-0.0009606021922081,0.0355846248567104,0.0116135124117136
1769159158732,-0.0490875244140625,-0.9835357666015624,0.164825439453125,-0.0043135220184922,0.0443317778408527,0.0153331495821475
1769159158742,-0.04583740234375,-0.9852447509765624,0.164764404296875,-0.0094480961561203,0.0459869317710399,0.0171891059726476
1769159158752,-0.0460357666015625,-0.98431396484375,0.1659698486328125,-0.013480388559401,0.0434137880802154,0.0154940048232674
1769159158762,-0.0478668212890625,-0.9827423095703124,0.1656494140625,-0.0179696790874004,0.0349337495863437,0.012615393847227
1769159158772,-0.0497283935546875,-0.98370361328125,0.1662445068359375,-0.0240659210830926,0.01871376670897,0.0053497580811381
1769159158782,-0.055572509765625,-0.9828033447265624,0.1673736572265625,-0.0279618594795465,0.0148055776953697,-0.0011472897604107
1769159158792,-0.0558624267578125,-0.98309326171875,0.1649169921875,-0.0335398502647876,0.012802081182599,-0.0026210830546915
1769159158802,-0.05706787109375,-0.983184814453125,0.1660308837890625,-0.0395002700388431,0.0137424441054463,-0.001382180606015
1769159158812,-0.0536346435546875,-0.9859771728515624,0.1627349853515625,-0.0457195527851581,0.0103453155606985,-0.0012234562309458
1769159158822,-0.0491485595703125,-0.9852752685546876,0.156768798828125,-0.0463933311402797,0.0156394131481647,-0.0003286340797785
1769159158832,-0.0498504638671875,-0.9827880859375,0.1496124267578125,-0.0421866029500961,0.0265418626368045,0.0010117349447682
1769159158842,-0.048095703125,-0.981109619140625,0.1424713134765625,-0.0311246290802955,0.0285900998860597,0.0039713056758046
1769159158852,-0.045806884765625,-0.9781036376953124,0.1396942138671875,-0.0228664334863424,0.0297586936503648,0.0062419171445071
1769159158862,-0.04681396484375,-0.9797515869140624,0.138092041015625,-0.0159206427633762,0.0304489862173795,0.0111280186101794
1769159158872,-0.0474090576171875,-0.9863739013671876,0.1416015625,-0.0042203115299344,0.0228272844105958,0.0113232284784317
1769159158883,-0.0540771484375,-0.9806976318359376,0.139801025390625,0.0057923751883208,0.0129999546334147,0.003533215727657
1769159158893,-0.0550384521484375,-0.9805755615234376,0.140533447265625,0.0159856248646974,-0.0034983283840119,0.0081300977617502
1769159158902,-0.049163818359375,-0.988861083984375,0.146881103515625,0.0081037329509854,-0.0047537423670291,0.0114755611866712
1769159158912,-0.050628662109375,-0.99176025390625,0.1580963134765625,0.00318886898458,0.0129160648211836,-0.0052434979006648
1769159158922,-0.064483642578125,-0.9806976318359376,0.151397705078125,0.0093061504885554,0.015450594946742,-0.0068850703537464
1769159158933,-0.0517578125,-0.987945556640625,0.151336669921875,0.0192032549530267,0.0209944974631071,0.0036040558479726
1769159158943,-0.0411529541015625,-0.987152099609375,0.150909423828125,0.0301802735775709,0.0282287076115608,0.0043814326636493
1769159158953,-0.05145263671875,-0.974853515625,0.147369384765625,0.0385865420103073,0.0340690203011035,-0.0011017497163265
1769159158963,-0.060394287109375,-0.966217041015625,0.1475982666015625,0.0434843599796295,0.0210424344986677,0.0006218480993993
1769159158973,-0.063995361328125,-0.9684600830078124,0.1555938720703125,0.0354591906070709,0.018175009638071,-0.0002375539625063
1769159158983,-0.0602569580078125,-0.9786834716796876,0.164459228515625,0.01820670068264,0.0187997873872518,-0.0042264368385076
1769159158993,-0.0541839599609375,-0.989349365234375,0.1722412109375,0.0050900997593998,0.0211489610373973,-0.0077663101255893
1769159159003,-0.047943115234375,-0.9897613525390624,0.167816162109375,0.0041337586008012,0.0106875319033861,-0.003901264630258
1769159159013,-0.04766845703125,-0.9886932373046876,0.161865234375,0.0106188217177987,0.0120699787512421,0.0012234562309458
1769159159023,-0.0494232177734375,-0.987457275390625,0.15447998046875,0.0162570010870695,0.0206647980958223,0.0015033544041216
1769159159033,-0.0501556396484375,-0.9841461181640624,0.1539459228515625,0.0177164133638143,0.0191151052713394,0.0068078385666012
1769159159043,-0.052886962890625,-0.9856109619140624,0.1579132080078125,0.0147611033171415,0.004129497334361,0.002642654813826
1769159159053,-0.06158447265625,-0.984710693359375,0.16436767578125,0.0098379831761121,-0.0054781222715973,-0.0072318138554692
1769159159063,-0.0616607666015625,-0.985198974609375,0.1634979248046875,0.0052799829281866,-0.0016306535108014,-0.0061183464713394
1769159159073,-0.054290771484375,-0.985870361328125,0.1638031005859375,0.0038962047547101,0.0035441347863525,-0.0040874197147786
1769159159083,-0.0518951416015625,-0.9845733642578124,0.16424560546875,0.0025244103744626,0.0054128747433424,-0.00023835292086
1769159159094,-0.05609130859375,-0.986083984375,0.1642608642578125,0.0002950782363768,0.0154010606929659,-0.0015978966839611
1769159159103,-0.050537109375,-0.9852142333984376,0.164031982421875,-0.0027968517970293,0.0112507902085781,-7.456851017195731e-05
1769159159113,-0.044158935546875,-0.985992431640625,0.1652069091796875,-0.0055340486578643,0.0016668725293129,0.0015803198330104
1769159159124,-0.04266357421875,-0.9850311279296876,0.1631927490234375,-0.0104049704968929,-0.0013693973887711,0.0020588897168636
1769159159133,-0.049468994140625,-0.982940673828125,0.1624908447265625,-0.0179315954446792,-0.0045489454641938,-0.0011323761427775
1769159159144,-0.052215576171875,-0.9834442138671876,0.166168212890625,-0.0220802687108516,-0.0080512687563896,-0.0004213120846543
1769159159154,-0.0535736083984375,-0.984283447265625,0.1633453369140625,-0.026077140122652,0.0030535804107785,-0.0009398295660503
1769159159164,-0.052215576171875,-0.982208251953125,0.1599884033203125,-0.0283267125487327,0.0044243093580007,-0.0004913532175123
1769159159174,-0.0509490966796875,-0.9819488525390624,0.1569061279296875,-0.0301613640040159,-0.0019646140281111,-0.0008788431296125
1769159159184,-0.0512237548828125,-0.9844970703125,0.15594482421875,-0.028611671179533,-0.0064347297884523,-0.0046093990094959
1769159159194,-0.0544281005859375,-0.9862518310546876,0.15277099609375,-0.028292091563344,-0.0067697553895413,-0.0071862740442156
1769159159204,-0.05078125,-0.9870452880859376,0.149505615234375,-0.0198117885738611,-0.006924485322088,-0.0080115878954529
1769159159214,-0.0513458251953125,-0.98046875,0.141357421875,-0.009394034743309,0.0026138925459235,-0.0025534387677907
1769159159225,-0.04486083984375,-0.982635498046875,0.13836669921875,0.0029782131314277,0.0039324234239757,0.0113264238461852
1769159159234,-0.04266357421875,-0.987152099609375,0.1414642333984375,0.0135179394856095,0.0044525391422212,0.0085780415683984
1769159159244,-0.0515899658203125,-0.9807281494140624,0.1402435302734375,0.0287152677774429,0.005069859791547,0.0017089504981413
1769159159254,-0.0600738525390625,-0.9742279052734376,0.139801025390625,0.0418569035828113,0.0110896686092019,0.0059082228690385
1769159159264,-0.0552825927734375,-0.977996826171875,0.1457366943359375,0.0442103371024131,0.0059020975604653,0.0080395508557558
1769159159274,-0.055450439453125,-0.983062744140625,0.1562957763671875,0.0424542501568794,0.0058738682419061,0.0060285977087914
1769159159284,-0.0576324462890625,-0.9842681884765624,0.1610870361328125,0.041506964713335,0.0115775605663657,0.0089996205642819
1769159159294,-0.055023193359375,-0.9835662841796876,0.1626129150390625,0.0413287989795208,0.0114878118038177,0.009052351117134
1769159159304,-0.053619384765625,-0.980743408203125,0.16302490234375,0.0405666008591651,0.0149749545380473,0.0074278223328292
1769159159314,-0.050384521484375,-0.9808197021484376,0.1641998291015625,0.0347593128681182,0.0147355366498231,0.0086169242858886
1769159159325,-0.0507354736328125,-0.98260498046875,0.166839599609375,0.0300955846905708,0.0131450966000556,0.0079426113516092
1769159159334,-0.0533447265625,-0.9859619140625,0.1720123291015625,0.0233913417905569,0.002707635750994,0.0058933091349899
1769159159345,-0.051513671875,-0.9871978759765624,0.1756591796875,0.010628942400217,0.0024660872295498,0.0047252466902136
1769159159355,-0.053497314453125,-0.9875640869140624,0.179534912109375,-0.0054032877087593,0.0023526365403085,0.003917243797332
1769159159365,-0.059539794921875,-0.985748291015625,0.179840087890625,-0.0186844710260629,0.0078621841967105,0.0006490123341791
1769159159375,-0.0606231689453125,-0.982391357421875,0.176849365234375,-0.0316719077527523,0.0087261134758591,-0.002609631512314
1769159159385,-0.0560302734375,-0.98321533203125,0.1772308349609375,-0.0417727455496788,0.0072999908588826,-0.0038868836127221
1769159159395,-0.0570068359375,-0.9827728271484376,0.1731414794921875,-0.0469075888395309,0.0009044095058925,-0.0099370526149868
1769159159405,-0.0575714111328125,-0.982147216796875,0.16717529296875,-0.0464756228029727,-0.000924649531953,-0.0088992193341255
1769159159415,-0.05035400390625,-0.9827117919921876,0.1591949462890625,-0.0431938096880912,-0.0008412926108576,-0.0049079395830631
1769159159426,-0.0459136962890625,-0.98309326171875,0.1562957763671875,-0.039265114814043,-0.0043140547350049,-0.0054850466549396
1769159159435,-0.0529937744140625,-0.983642578125,0.154083251953125,-0.0340570360422134,-0.0047774445265531,-0.0087106674909591
1769159159445,-0.05645751953125,-0.9832000732421876,0.1531219482421875,-0.0284513477236032,-0.00023835292086,-0.0035198999103158
1769159159455,-0.0521392822265625,-0.983154296875,0.1490936279296875,-0.0219995751976966,0.001807753695175,-0.000479368987726
1769159159465,-0.0475006103515625,-0.98193359375,0.1460418701171875,-0.0157174430787563,0.0071444623172283,0.0011435613268986
1769159159475,-0.05224609375,-0.982513427734375,0.1466522216796875,-0.0098102865740656,0.0136095518246293,-7.829693640815094e-05
1769159159485,-0.05059814453125,-0.9805755615234376,0.145965576171875,0.0008599347202107,0.0122369583696126,0.0050930292345583
1769159159495,-0.050567626953125,-0.9799957275390624,0.1464691162109375,0.0081511372700333,0.0059830574318766,0.0086621977388858
1769159159505,-0.0497894287109375,-0.98046875,0.1469879150390625,0.0127424271777272,0.0062219430692493,0.0058514974080026
1769159159515,-0.0529632568359375,-0.9801483154296876,0.1501922607421875,0.0168833751231431,0.0037348170299082,0.0066733490675687
1769159159526,-0.0543212890625,-0.982208251953125,0.152984619140625,0.0168301127851009,0.0019792614039033,0.0069769495166838
1769159159535,-0.0504913330078125,-0.9853515625,0.1573028564453125,0.0149989230558276,0.0038570561446249,0.0053580137901008
1769159159546,-0.0514068603515625,-0.9837646484375,0.159271240234375,0.0155885471031069,-0.0034551850985735,0.0046520098112523
1769159159560,-0.0569915771484375,-0.9861297607421876,0.1600799560546875,0.0125778438523411,-0.010160225443542,0.000580835447181
1769159159566,-0.0592193603515625,-0.985931396484375,0.1623382568359375,0.0115743642672896,-0.0083050681278109,-0.0024455809034407
1769159159576,-0.0569000244140625,-0.9846038818359376,0.1637115478515625,0.0089567434042692,-0.0059899818152189,-0.002379800658673
1769159159586,-0.0572052001953125,-0.9850311279296876,0.164398193359375,0.0049028797075152,-0.0031478563323616,-0.0049785133451223
1769159159596,-0.05670166015625,-0.98492431640625,0.1665496826171875,-0.0007480819476768,-6.631271389778703e-05,-0.0012620720081031
1769159159606,-0.0534210205078125,-0.9840545654296876,0.1634368896484375,-0.0039188414812088,0.0073199644684791,0.0021033645607531
1769159159616,-0.05047607421875,-0.9830322265625,0.159088134765625,-0.0024439829867333,0.0078102522529661,0.0022000374738126
1769159159626,-0.049774169921875,-0.9842529296875,0.1617889404296875,-0.005397162400186,0.0020287961233407,0.0054557519033551
1769159159636,-0.0474853515625,-0.9833831787109376,0.162933349609375,-0.0049643986858427,-0.0006924218614585,0.0051516187377274
1769159159646,-0.0567779541015625,-0.9802703857421876,0.1619720458984375,-0.0013081447687,0.0014295848086476,0.0041830269619822
1769159159656,-0.05987548828125,-0.9803314208984376,0.162017822265625,-0.0013611416798084,0.0070981234312057,7.80306218075566e-05
1769159159666,-0.0567169189453125,-0.98162841796875,0.1646575927734375,-0.0067393952049314,0.0122888907790184,-0.0022572954185307
1769159159676,-0.0527801513671875,-0.98260498046875,0.165008544921875,-0.0098654134199023,0.0121072633191943,0.0008319715270772
1769159159686,-0.052978515625,-0.9822235107421876,0.1672821044921875,-0.01066888961941,-0.0096062887459993,0.004522047471255
1769159159696,-0.0607757568359375,-0.9828643798828124,0.16534423828125,-0.0155579205602407,-0.0130593432113528,-0.0008351673022843
1769159159706,-0.0562896728515625,-0.9848785400390624,0.1622314453125,-0.0186447910964489,-0.0032661007717251,0.0012463594321161
1769159159716,-0.04949951171875,-0.983642578125,0.1609039306640625,-0.0160575304180383,-0.001913747517392,0.0030197582673281
1769159159726,-0.0519866943359375,-0.9795989990234376,0.156646728515625,-0.0125871645286679,0.0004141215467825,-0.0005752427969127
1769159159736,-0.058746337890625,-0.9773101806640624,0.156402587890625,-0.0201579984277486,0.0077814902178943,-0.0048272456042468
1769159159746,-0.055816650390625,-0.981231689453125,0.1621246337890625,-0.0233998652547597,0.0130143351852893,-0.0042408178560435
1769159159759,-0.04632568359375,-0.9823455810546876,0.15960693359375,-0.0125504126772284,0.0042378883808851,-0.0043433494865894
1769159159766,-0.0578765869140625,-0.9734039306640624,0.147857666015625,0.006082393694669,-0.0036173716653138,-0.0016586167039349
1769159159776,-0.0624542236328125,-0.975738525390625,0.1470794677734375,0.0124390926212072,0.006639793049544,0.0075873457826673
1769159159786,-0.0499114990234375,-0.993988037109375,0.1585693359375,-0.0048666605725884,0.0042557315900921,0.0084060011431574
1769159159797,-0.0521392822265625,-0.99365234375,0.1710205078125,-0.0092190643772482,0.0095245288684964,-0.0107991183176636
1769159159807,-0.0661773681640625,-0.9801025390625,0.1571197509765625,-0.0021736719645559,-0.0047199204564094,-0.0142324650660157
1769159159817,-0.050201416015625,-0.9877166748046876,0.156341552734375,0.0065138256177306,-0.0130976922810077,-0.0138148814439773
1769159159828,-0.04754638671875,-0.984405517578125,0.15472412109375,0.0145576372742652,-0.0068496502935886,-0.0177680775523185
1769159159837,-0.0614776611328125,-0.9709014892578124,0.1495819091796875,0.0244970861822366,0.0027776770293712,-0.0193175058811903
1769159159847,-0.0627593994140625,-0.965545654296875,0.1497802734375,0.0236280970275402,0.0048653287813067,-0.0144694866612553
1769159159857,-0.057861328125,-0.9734649658203124,0.158233642578125,0.0122753083705902,0.0060773333534598,-0.0096760634332895
1769159159867,-0.0531158447265625,-0.9832763671875,0.1691436767578125,-0.0063226106576621,-0.0015968313673511,-0.010848918929696
1769159159877,-0.047027587890625,-0.9910888671875,0.17303466796875,-0.0133658731356263,-0.0025995115283876,-0.0092462291941046
1769159159887,-0.0430145263671875,-0.9891357421875,0.16448974609375,-0.0122113926336169,0.0011030812747776,-0.0028362665325403
1769159159897,-0.0457763671875,-0.9863433837890624,0.1558074951171875,-0.0076813553459942,0.0038903458043932,-0.0008250473183579
1769159159907,-0.0462799072265625,-0.984100341796875,0.1535797119140625,-0.0013824469642713,0.0070094401016831,0.0030945930629968
1769159159917,-0.0476837158203125,-0.98455810546875,0.152740478515625,0.0066911922767758,-0.0072648371569812,0.0005933523061685
1769159159927,-0.056304931640625,-0.9838104248046876,0.1533203125,0.0121171167120337,-0.0077535272575914,-0.0046661244705319
1769159159937,-0.060394287109375,-0.984710693359375,0.1533355712890625,0.0177126843482255,-0.0007792409160174,-0.004635764285922
1769159159947,-0.0538330078125,-0.98468017578125,0.156158447265625,0.0215148795396089,0.004040281753987,-0.0007241134881041
1769159159959,-0.046417236328125,-0.9869842529296876,0.15838623046875,0.0211867783218622,0.0038131140172481,0.0010010822443291
1769159159967,-0.04986572265625,-0.983551025390625,0.1590118408203125,0.0249484926462173,-0.0030418625101447,-0.0010916297324001
1769159159978,-0.0583038330078125,-0.983795166015625,0.163726806640625,0.0218533668667078,0.0013877731980755,0.0004980111261829
1769159159987,-0.0526275634765625,-0.9864044189453124,0.1657257080078125,0.0146231511607766,0.0025393241085112,0.0016322514275088
1769159159998,-0.04632568359375,-0.9869384765625,0.1710357666015625,0.0107208210974931,-0.0063460464589297,0.0080581931397318
1769159160008,-0.0467071533203125,-0.984405517578125,0.1718292236328125,0.0063175507821142,-0.0030453247018158,0.0107075050473213
1769159160018,-0.0485687255859375,-0.9821319580078124,0.169952392578125,-0.0022253373172134,-0.0102068306878209,0.0065694856457412
1769159160028,-0.061248779296875,-0.9824371337890624,0.1764984130859375,-0.0104241454973816,-0.0049292449839413,-0.0012330436147749
1769159160038,-0.0626373291015625,-0.981903076171875,0.1739959716796875,-0.0217883866280317,0.0026032398454844,-0.0079215727746486
1769159160048,-0.0557403564453125,-0.981170654296875,0.169525146484375,-0.0294870510697364,0.0034637073986232,-0.0079817604273557
1769159160059,-0.050079345703125,-0.983184814453125,0.165313720703125,-0.0330335833132267,0.0049888994544744,-0.0054730623960494
1769159160068,-0.04742431640625,-0.98492431640625,0.1609954833984375,-0.0312308892607688,0.005543103441596,-0.0001430117554264
1769159160078,-0.0449981689453125,-0.9832611083984376,0.1588897705078125,-0.0269940663129091,-0.0004617921367753,0.0048384312540292
1769159160088,-0.048583984375,-0.9818878173828124,0.1561737060546875,-0.0204562731087207,-0.0011906992876902,0.0025393241085112
1769159160098,-0.0588531494140625,-0.98089599609375,0.1518707275390625,-0.0166748501360416,-0.0052661346271634,0.001144893001765
1769159160108,-0.0562744140625,-0.987213134765625,0.1567230224609375,-0.0163906905800104,-0.0069540459662675,0.0013243899447843
1769159160118,-0.05194091796875,-0.9866180419921876,0.1547393798828125,-0.0105093661695718,-0.0065780077129602,-0.0009912285022437
1769159160128,-0.05487060546875,-0.9789886474609376,0.1481475830078125,0.004194744862616,-0.0010668623726814,-0.0058538941666483
1769159160138,-0.056488037109375,-0.973419189453125,0.14202880859375,0.0177337229251861,-0.0044943504035472,-0.0042876894585788
1769159160148,-0.05389404296875,-0.9759063720703124,0.14599609375,0.0203039404004812,-0.01027687266469,-0.0023494407068938
1769159160159,-0.0495758056640625,-0.982879638671875,0.155181884765625,0.0204552076756954,-0.0047428235411643,0.0012306467397138
1769159160168,-0.0501708984375,-0.98089599609375,0.1572418212890625,0.0239085294306278,-0.0009155947482213,0.0037947380915284
1769159160178,-0.0525665283203125,-0.98162841796875,0.158294677734375,0.023790817707777,0.0017531589837744,0.004791825544089
1769159160188,-0.05657958984375,-0.9813232421875,0.16156005859375,0.0222318023443222,0.0022293322253972,0.0049982205964624
1769159160198,-0.054168701171875,-0.9815521240234376,0.165863037109375,0.0184682235121727,-0.0009297095239162,0.0022477079182863
1769159160209,-0.053375244140625,-0.9851837158203124,0.1703948974609375,0.0114340158179402,-0.0092747248709201,-0.0012815131340175
1769159160219,-0.0533447265625,-0.9874420166015624,0.1717987060546875,0.0032208270858973,-0.0066110310144722,-0.0026796725578606
1769159160229,-0.05242919921875,-0.9864654541015624,0.17156982421875,-0.0069849388673901,-0.0060064936988055,-0.0050389668904244
1769159160240,-0.0543975830078125,-0.98626708984375,0.1749114990234375,-0.0179217420518398,0.000278832972981,-0.0056552225723862
1769159160249,-0.0514984130859375,-0.9849395751953124,0.17254638671875,-0.0262427888810634,0.0038586540613323,-0.001890045357868
1769159160259,-0.0505523681640625,-0.98370361328125,0.169525146484375,-0.0279786381870508,0.0110004534944891,-0.0012149340473115
1769159160269,-0.048614501953125,-0.984466552734375,0.164794921875,-0.0276792980730533,0.009615609422326,-0.0008783105295151
1769159160279,-0.047271728515625,-0.984832763671875,0.160614013671875,-0.0230997260659933,0.0001012001230265,0.0001864212681539
1769159160289,-0.0493621826171875,-0.9820404052734376,0.1567840576171875,-0.0146447224542498,-0.0033827472943812,0.0029353362042456
1769159160299,-0.0523529052734375,-0.980224609375,0.1544952392578125,-0.0073055834509432,-0.0049114017747342,0.0013464941876009
1769159160309,-0.0529632568359375,-0.982421875,0.1545562744140625,-0.0018168084789067,0.0007350324303843,0.0050514838658273
1769159160319,-0.053985595703125,-0.9814300537109376,0.156463623046875,0.0035116442013531,0.0043896883726119,0.0083348955959081
1769159160329,-0.0538482666015625,-0.9820404052734376,0.1576995849609375,0.0053348443470895,-0.0019995013717561,0.0057785268872976
1769159160339,-0.0514984130859375,-0.9811553955078124,0.15838623046875,0.007978830486536,-0.0108017809689044,0.0047145942226052
1769159160349,-0.05462646484375,-0.981231689453125,0.1602630615234375,0.009868343360722,-0.0044293696992099,0.0028858012519776
1769159160359,-0.0577545166015625,-0.9796142578125,0.1612091064453125,0.0063170180656015,-0.0038671761285513,0.002003229688853
1769159160369,-0.058197021484375,-0.980743408203125,0.1653594970703125,0.0045417547225952,-0.0039835562929511,-0.0015472965314984
1769159160379,-0.0551605224609375,-0.9814605712890624,0.1649932861328125,-0.0022282667923718,-0.0041486723348498,-0.0020248014479875
1769159160393,-0.0503997802734375,-0.980682373046875,0.1659088134765625,-0.0070720240473747,0.0021220068447291,-0.0012378372484818
1769159160399,-0.0525970458984375,-0.9822998046875,0.1670989990234375,-0.0118212392553687,-0.0006559365428984,-0.0034325483720749
1769159160409,-0.0609130859375,-0.9832611083984376,0.166015625,-0.0121615910902619,-0.0034695663489401,-0.0041526672430336
1769159160419,-0.056915283203125,-0.982940673828125,0.16168212890625,-0.0124976821243762,0.0008703210623934,-0.0065388595685362
1769159160429,-0.0507049560546875,-0.983428955078125,0.1594085693359375,-0.0115820877254009,0.0058669438585639,-0.004073305055499
1769159160439,-0.050018310546875,-0.9845428466796876,0.1597442626953125,-0.011469435878098,0.0099722063168883,-0.0031092404387891
1769159160450,-0.0494384765625,-0.983245849609375,0.159088134765625,-0.0106302732601761,0.0127123333513736,0.0008072041091509
1769159160460,-0.0492401123046875,-0.982574462890625,0.1582183837890625,-0.0081229079514741,-0.0052765212021768,0.0046634613536298
1769159160470,-0.055816650390625,-0.98370361328125,0.160400390625,-0.0052094091661274,-0.0217130184173584,-0.0015739281661808
1769159160480,-0.0579071044921875,-0.984649658203125,0.1597137451171875,-0.0061923819594085,-0.0083237094804644,-0.0027294738683849
1769159160493,-0.050445556640625,-0.9841766357421876,0.1559600830078125,-0.0006098638987168,-0.0021534319967031,0.0015334481140598
1769159160500,-0.0495758056640625,-0.9841156005859376,0.1547088623046875,0.003353452309966,0.0020234698895365,0.0025012409314513
1769159160510,-0.049835205078125,-0.981170654296875,0.154388427734375,0.0087588708847761,-0.0049806437455117,0.0019001654582098
1769159160520,-0.0506134033203125,-0.979736328125,0.1568603515625,0.0141064980998635,-0.0122481444850564,-0.0017403757665306
1769159160530,-0.0496826171875,-0.981781005859375,0.1591949462890625,0.0130683975294232,-0.0052070124074816,0.00159443449229
1769159160540,-0.050384521484375,-0.982421875,0.1629180908203125,0.0087804421782493,5.912217602599412e-05,0.0035047200508415
1769159160550,-0.0547943115234375,-0.9836578369140624,0.1658782958984375,0.0013829795643687,-0.0018042916199192,0.0025699504185467
1769159160560,-0.055084228515625,-0.98529052734375,0.171051025390625,-0.0095413075760006,-0.0046480149030685,0.0005432848702184
1769159160570,-0.056793212890625,-0.984344482421875,0.17279052734375,-0.0177933778613805,0.0033374733757227,-0.001513474388048
1769159160580,-0.0548553466796875,-0.983001708984375,0.1700286865234375,-0.0226129014045,0.006058691535145,-0.0010468886466696
1769159160592,-0.0548553466796875,-0.98272705078125,0.1658782958984375,-0.0206504166126251,0.0040304278954863,-0.0025526399258524
1769159160600,-0.0540313720703125,-0.98040771484375,0.1604766845703125,-0.0121064642444252,0.0034671693574637,0.000202400246053
1769159160611,-0.0498199462890625,-0.9794769287109376,0.154266357421875,-0.0060464409179985,0.0059545617550611,0.0017398431664332
1769159160620,-0.0473785400390625,-0.9814605712890624,0.15496826171875,-0.0039260322228074,0.0058280616067349,0.0059681441634893
1769159160631,-0.046630859375,-0.9854888916015624,0.1582489013671875,0.0001880191703094,-0.005321794655174,0.0050400323234498
1769159160640,-0.055633544921875,-0.9770965576171876,0.1583709716796875,0.0110156331211328,-0.0047430898994207,-0.0082036014646291
1769159160651,-0.06463623046875,-0.972137451171875,0.152496337890625,0.0167523492127656,-0.0118830250576138,-0.004171042703092
1769159160661,-0.0521240234375,-0.9810333251953124,0.1616668701171875,0.0070448601618409,-0.0160306319594383,0.00323893642053
1769159160671,-0.04693603515625,-0.996734619140625,0.1749725341796875,-0.0082736425101757,-0.0122023373842239,-0.0068642976693809
1769159160681,-0.0587005615234375,-0.9833984375,0.1714324951171875,-0.0068701566196978,0.0061947791837155,-0.0154079850763082
1769159160692,-0.054534912109375,-0.983062744140625,0.157867431640625,0.0032099080272018,0.0129397669807076,-0.0030621027108281
1769159160701,-0.04071044921875,-0.9848480224609376,0.15899658203125,0.0118539966642856,0.0190083123743534,0.0008695221040397
1769159160711,-0.0517578125,-0.97625732421875,0.1570281982421875,0.019564114511013,0.0147355366498231,-0.0063732108101248
1769159160721,-0.0668792724609375,-0.9672698974609376,0.15802001953125,0.0168652664870023,-0.0004804342461284,-0.0145043740049004
1769159160731,-0.0726470947265625,-0.9686126708984376,0.167083740234375,0.0006948187365196,-0.0046448190696537,-0.0228440631181001
1769159160741,-0.0639801025390625,-0.97979736328125,0.17303466796875,-0.0167829748243093,-0.0066174226813018,-0.0213247295469045
1769159160751,-0.051300048828125,-0.9888153076171876,0.1742095947265625,-0.0249048173427581,-0.0078717712312936,-0.0205297768115997
1769159160761,-0.0444488525390625,-0.9893798828125,0.163543701171875,-0.0204474851489067,0.0024703482631593,-0.0105354655534029
1769159160771,-0.0410308837890625,-0.986663818359375,0.150604248046875,-0.0057710702531039,0.0114654414355754,-0.0015707324491813
1769159160781,-0.0433197021484375,-0.9866943359375,0.147369384765625,0.0041662491858005,0.0139179462566971,0.000161920193932
1769159160791,-0.045257568359375,-0.98492431640625,0.1491851806640625,0.0144724166020751,0.0057995659299194,0.0002703108475543
1769159160801,-0.0492095947265625,-0.983978271484375,0.15380859375,0.0191436000168323,-0.0030280142091214,-0.0014045510906726
1769159160811,-0.0517730712890625,-0.9833984375,0.1533203125,0.0222557708621025,-0.0018951054662466,-0.0020042951218783
1769159160821,-0.0511627197265625,-0.9834136962890624,0.1570281982421875,0.0223545748740434,-6.524744821945205e-05,-0.0012610068079084
1769159160831,-0.0539398193359375,-0.9850921630859376,0.1642913818359375,0.0224128980189561,-0.0015821839915588,-0.0018889801576733
1769159160841,-0.0570220947265625,-0.984588623046875,0.16790771484375,0.0206237863749265,0.0052821137942373,0.0004229099722579
1769159160851,-0.053741455078125,-0.9838409423828124,0.1676483154296875,0.01948182284832,0.0014048174489289,-0.0023694143164902
1769159160862,-0.052581787109375,-0.9860687255859376,0.1692352294921875,0.0170327797532081,-0.0032993901986628,-0.0002828277065418
1769159160872,-0.04852294921875,-0.986541748046875,0.17108154296875,0.0123046031221747,-0.0049239182844758,0.0006724481936544
1769159160882,-0.04901123046875,-0.986236572265625,0.17230224609375,0.0076754963956773,0.0038791603874415,0.0038701056037098
1769159160892,-0.0482025146484375,-0.98291015625,0.1717987060546875,-0.0021060276776552,0.0030519824940711,0.0011526161106303
1769159160902,-0.047332763671875,-0.9824676513671876,0.174835205078125,-0.0078248996287584,-0.0021387846209108,0.0025124261155724
1769159160912,-0.0475311279296875,-0.9830474853515624,0.1739044189453125,-0.0156934764236211,0.0009619337506592,0.0025001754984259
1769159160925,-0.05242919921875,-0.9837188720703124,0.1719207763671875,-0.0250885747373104,0.0080669810995459,0.0031254857312887
1769159160932,-0.05499267578125,-0.981597900390625,0.171630859375,-0.028533374890685,0.0077561903744935,-0.0012895026011392
1769159160942,-0.05572509765625,-0.9806671142578124,0.16680908203125,-0.0269272215664386,-0.0108984541147947,-0.0003107908996753
1769159160952,-0.055816650390625,-0.980987548828125,0.164886474609375,-0.0275823585689067,-0.0100355902686715,-0.0032578448299318
1769159160962,-0.04766845703125,-0.9838409423828124,0.1623992919921875,-0.0262577030807733,-0.0068480521440505,-0.0103727458044886
1769159160972,-0.0532073974609375,-0.9796905517578124,0.1597442626953125,-0.0241375602781772,0.0030690268613398,-0.0113682355731725
1769159160982,-0.0550537109375,-0.983612060546875,0.1542205810546875,-0.0209992919117212,0.0084424866363406,-0.0031033814884722
1769159160992,-0.042510986328125,-0.986175537109375,0.1557464599609375,-0.0150463273748755,0.012810337357223,0.003688744502142
1769159161002,-0.0419769287109375,-0.9828033447265624,0.1552581787109375,-0.0082523375749588,0.0082038678228855,0.003450924064964
1769159161012,-0.055267333984375,-0.9755706787109376,0.1550445556640625,-0.0005837649223394,0.0013651363551616,0.0012737899087369
1769159161025,-0.063751220703125,-0.973846435546875,0.1576385498046875,0.0061588264070451,-3.6751622246811166e-05,0.0015033544041216
1769159161032,-0.0531768798828125,-0.978271484375,0.15966796875,0.004765460267663,-0.0043888892978429,0.0035316178109496
1769159161042,-0.045166015625,-0.98199462890625,0.1632537841796875,0.003042128868401,-0.0050610713660717,0.0042173820547759
1769159161052,-0.05279541015625,-0.9816436767578124,0.16229248046875,0.0010652644559741,-0.0030037793330848,-0.0006495449924841
1769159161063,-0.0631103515625,-0.9828643798828124,0.1650238037109375,9.05474735191092e-06,0.0043124565854668,-0.0052485577762126
1769159161072,-0.059906005859375,-0.9831085205078124,0.1643829345703125,-0.0003635214816313,0.0002908172027673,-0.0121575966477394
1769159161083,-0.0536346435546875,-0.9816436767578124,0.1629180908203125,-0.0003997404710389,-0.0051050134934484,-0.0103823337703943
1769159161093,-0.0463409423828125,-0.98486328125,0.161895751953125,0.0015387744642794,-0.0106659596785902,-0.0102078961208462
1769159161103,-0.0407562255859375,-0.98822021484375,0.161651611328125,0.0037904770579189,-0.0058645470999181,-0.0043233758769929
1769159161113,-0.0421295166015625,-0.98797607421875,0.162384033203125,0.002575276652351,0.0044847633689641,0.0032117723021656
1769159161123,-0.04693603515625,-0.98553466796875,0.1659393310546875,-0.0043057990260422,0.0010956244077533,0.0040647825226187
1769159161133,-0.0504302978515625,-0.9867401123046876,0.1690216064453125,-0.0087202545255422,-0.0057082194834947,0.0020650150254368
1769159161143,-0.0533905029296875,-0.9844970703125,0.167755126953125,-0.0125887626782059,-0.003269829088822,8.362325752386823e-05
1769159161153,-0.0540924072265625,-0.9815216064453124,0.163604736328125,-0.0096949711441993,-0.0005755090969614,0.000373907823814
1769159161163,-0.0521240234375,-0.9814605712890624,0.1617889404296875,-0.0044613275676965,0.0025241440162062,0.0011009507579728
1769159161173,-0.0479736328125,-0.980438232421875,0.1580963134765625,0.003721501212567,0.0005739112384617,0.0044376254081726
1769159161183,-0.0489044189453125,-0.98095703125,0.1589813232421875,0.0028114991728216,-0.0030482541769742,0.0026581010315567
1769159161193,-0.052764892578125,-0.9836273193359376,0.1653289794921875,0.0004484763194341,-0.0038756981957703,0.0026847326662391
1769159161203,-0.0525054931640625,-0.98272705078125,0.1661224365234375,0.0016663399292156,-0.0002380866062594,0.0053990264423191
1769159161213,-0.0521087646484375,-0.9808807373046876,0.163970947265625,0.0009251821320503,-0.001905491692014,0.0072861425578594
1769159161225,-0.05108642578125,-0.9817962646484376,0.1636199951171875,0.0006892260862514,-0.0067343353293836,0.0041063278913497
1769159161233,-0.0532379150390625,-0.981201171875,0.1663665771484375,-0.0027055053506046,0.001498028053902,0.0019736685790121
1769159161243,-0.054962158203125,-0.9797515869140624,0.1688690185546875,-0.0095998970791697,0.0034349451307207,-0.0008434231276623
1769159161253,-0.057220458984375,-0.9793548583984376,0.1700286865234375,-0.0143922548741102,-0.0008444883860647,-0.0062781358137726
1769159161263,-0.056732177734375,-0.980712890625,0.16778564453125,-0.0190927349030971,0.0008364989189431,-0.007610781583935
1769159161274,-0.05230712890625,-0.9798126220703124,0.1673126220703125,-0.0206698589026927,0.0029603699222207,-0.0045390916056931
1769159161284,-0.050506591796875,-0.9827728271484376,0.1652069091796875,-0.0203806385397911,0.00215929094702,-0.0010290454374626
1769159161294,-0.0480499267578125,-0.9838714599609376,0.1602020263671875,-0.018050106242299,0.0044565335847437,0.0006306365248747
1769159161304,-0.04925537109375,-0.983367919921875,0.1583099365234375,-0.0157752353698015,0.0030450583435595,0.0014197311829775
1769159161314,-0.051910400390625,-0.9830322265625,0.1579132080078125,-0.0126678580418229,0.005642439238727,0.0009629990672692
1769159161325,-0.0498504638671875,-0.983673095703125,0.157379150390625,-0.0087013458833098,-0.0033015208318829,0.0009454221581108
1769159161334,-0.05242919921875,-0.9845428466796876,0.1603546142578125,-0.0068251490592956,-0.0038615835364907,2.50337143370416e-05
1769159161345,-0.0530853271484375,-0.9829559326171876,0.158843994140625,-0.0042637209407985,-0.0080131851136684,0.0001821602199925
1769159161354,-0.051422119140625,-0.9837493896484376,0.1595306396484375,-0.0027608990203589,-0.0094899078831076,-0.0003904194163624
1769159161364,-0.0489654541015625,-0.9839935302734376,0.1584014892578125,0.0017491641920059,-0.0113266902044415,0.0013851100811734
1769159161374,-0.0474090576171875,-0.98321533203125,0.1588287353515625,0.0036362800747156,-0.0027414578944444,0.0015560849569737
1769159161384,-0.0489044189453125,-0.9828033447265624,0.15997314453125,0.0064965151250362,0.0049026133492589,0.0035744947381317
1769159161394,-0.0497283935546875,-0.9818267822265624,0.1590728759765625,0.007129015866667,0.00772609654814,0.0057556238025426
1769159161404,-0.05120849609375,-0.9804229736328124,0.1594390869140625,0.0091916341334581,0.0071399346925318,0.0072826803661882
1769159161414,-0.04864501953125,-0.9808502197265624,0.1622161865234375,0.0065013086423277,0.0052211270667612,0.0089772492647171
1769159161424,-0.0520477294921875,-0.983306884765625,0.1680450439453125,-0.000574443838559,-0.0008612662786617,0.007767641916871
1769159161434,-0.0579986572265625,-0.984283447265625,0.1732635498046875,-0.0079386169090867,-0.0038639802951365,0.0049428269267082
1769159161444,-0.0549774169921875,-0.98406982421875,0.1725006103515625,-0.0131925009191036,-0.005583050660789,0.0012098740553483
1769159161454,-0.0546112060546875,-0.980865478515625,0.1698455810546875,-0.0159701779484748,-0.0034719631075859,-0.0042360238730907
1769159161464,-0.056365966796875,-0.9783172607421876,0.1649322509765625,-0.0163118615746498,-0.0007715177489444,-0.0028274781070649
1769159161474,-0.05291748046875,-0.9774322509765624,0.16217041015625,-0.0146010471507906,-0.0027667579706758,-0.001694303122349
1769159161484,-0.0490875244140625,-0.9800262451171876,0.1613311767578125,-0.0164458192884922,-0.005020591430366,0.0002628540096338
1769159161495,-0.05059814453125,-0.9826202392578124,0.161651611328125,-0.0171201303601264,-0.0054086139425635,-0.000974184309598
1769159161505,-0.047454833984375,-0.98455810546875,0.161712646484375,-0.0094238622114062,0.0065993131138384,-0.001602690317668
1769159161515,-0.051483154296875,-0.9796295166015624,0.1550750732421875,0.0010554107138887,0.0079069249331951,0.0004474110610317
1769159161526,-0.0460052490234375,-0.9797515869140624,0.1529693603515625,0.0058488342911005,0.005298891570419,0.0093945665284991
1769159161535,-0.044830322265625,-0.9908294677734376,0.1621551513671875,-0.00858283508569,-0.0141413854435086,0.0057838531211018
1769159161545,-0.0567626953125,-0.99029541015625,0.175048828125,-0.0118854213505983,-0.0008703210623934,-0.011077950708568
1769159161555,-0.0651092529296875,-0.9783172607421876,0.1608428955078125,-0.0016391756944358,0.0074768248014152,-0.011192999780178
1769159161565,-0.0590362548828125,-0.9813079833984376,0.1591644287109375,0.0012157330056652,0.0025550366844981,-0.0083066653460264
1769159161575,-0.053314208984375,-0.98199462890625,0.16436767578125,0.0044850297272205,0.0108446581289172,-0.0129565447568893
1769159161585,-0.05682373046875,-0.9728240966796876,0.1602020263671875,0.0108342720195651,0.0105399927124381,-0.0175478346645832
1769159161595,-0.059661865234375,-0.963623046875,0.1590423583984375,0.0107842041179537,0.0006197175825946,-0.0193787571042776
1769159161605,-0.0551300048828125,-0.9691009521484376,0.162139892578125,-0.0004095941840205,-0.0071886708028614,-0.0139464419335126
1769159161615,-0.0457611083984375,-0.98052978515625,0.167877197265625,-0.0122007401660084,-0.0126241827383637,-0.0137477703392505
1769159161625,-0.048187255859375,-0.989288330078125,0.1710052490234375,-0.017905231565237,-0.0037553233560174,-0.0112244253978133
1769159161635,-0.047332763671875,-0.98956298828125,0.1663360595703125,-0.0191886089742183,0.0073516559787094,-0.0068802768364548
1769159161645,-0.0494232177734375,-0.988067626953125,0.1626739501953125,-0.0146284773945808,0.0095658078789711,-0.0032453280873596
1769159161655,-0.052642822265625,-0.986572265625,0.1592559814453125,-0.0114055201411247,0.0134439030662179,-0.0040679783560335
1769159161665,-0.048370361328125,-0.98260498046875,0.155609130859375,-0.0031505194492638,0.0069521819241344,-0.0029158950783312
1769159161675,-0.0502777099609375,-0.9818572998046876,0.1540374755859375,0.0027750139124691,0.0015398397808894,-0.0065950518473982
1769159161685,-0.0536651611328125,-0.982574462890625,0.1523284912109375,0.0058088870719075,-0.0012327772565186,-0.0087828384712338
1769159161695,-0.0496826171875,-0.983856201171875,0.1558990478515625,0.0096936402842402,-0.0048176585696637,-0.0050887679681181
1769159161706,-0.0463104248046875,-0.9854278564453124,0.157989501953125,0.01239381916821,-0.0074400729499757,-0.0054283211939036
1769159161716,-0.051116943359375,-0.98675537109375,0.1632080078125,0.0097335875034332,-0.0088645983487367,-0.0045745116658508
1769159161726,-0.0520172119140625,-0.9876556396484376,0.167816162109375,0.0097929760813713,-0.0006175870657898,-0.0035633095540106
1769159161736,-0.045379638671875,-0.987091064453125,0.1671905517578125,0.0049433596432209,0.0001853560097515,0.0014705975772812
1769159161746,-0.047210693359375,-0.9860992431640624,0.169403076171875,0.0002945456071756,0.0020359866321086,-0.0015219965716823
1769159161760,-0.048980712890625,-0.9852142333984376,0.1702728271484375,-0.008069378323853,0.0009542105835862,-0.0021835258230566
1769159161766,-0.0477752685546875,-0.98345947265625,0.17071533203125,-0.0104326670989394,0.0018266622209921,0.0008953547803685
1769159161776,-0.045318603515625,-0.9819183349609376,0.16845703125,-0.0167185254395008,0.005756955128163,0.0018511632224544
1769159161786,-0.0494537353515625,-0.9811553955078124,0.1690216064453125,-0.0183792728930711,0.0022498385515064,0.0006269080913625
1769159161796,-0.0543212890625,-0.9798126220703124,0.166748046875,-0.0219295341521501,0.0024908545892685,-0.0022181468084454
1769159161806,-0.0528411865234375,-0.9802093505859376,0.1640472412109375,-0.0214853174984455,0.0025505092926323,-0.0037207023706287
1769159161816,-0.0455322265625,-0.9824066162109376,0.158538818359375,-0.0191321484744548,-0.0025877936277538,0.0008620652370154
1769159161829,-0.042877197265625,-0.987060546875,0.1602325439453125,-0.0205521471798419,-0.0091684646904468,0.0017853832105174
1769159161836,-0.048858642578125,-0.98577880859375,0.160797119140625,-0.014632205478847,-0.004235225263983,-0.0056725330650806
1769159161846,-0.056671142578125,-0.9766845703125,0.1534423828125,-0.0090893683955073,0.0027023095171898,-0.0007648598402738
1769159161856,-0.04876708984375,-0.985504150390625,0.15802001953125,-0.0102792689576745,0.0037816886324435,0.0104670217260718
1769159161866,-0.0451507568359375,-0.99163818359375,0.1648406982421875,-0.0145405931398272,0.0065042381174862,0.0066682891920208
1769159161876,-0.0490570068359375,-0.98388671875,0.1629486083984375,-0.0127932932227849,0.012745089828968,0.0025337315164506
1769159161886,-0.055328369140625,-0.9736480712890624,0.1552734375,-0.0043739755637943,0.0082419505342841,0.0005667206714861
1769159161896,-0.0599517822265625,-0.972259521484375,0.1565399169921875,-0.002681270474568,0.0011446266435086,0.0007483482477255
1769159161906,-0.05517578125,-0.9818572998046876,0.1638031005859375,-0.0098142810165882,-0.0068938587792217,-0.0038213697262108
1769159161916,-0.0518341064453125,-0.986724853515625,0.1692352294921875,-0.0161081291735172,-0.006630471907556,-0.0043012714013457
1769159161927,-0.0507965087890625,-0.9831085205078124,0.1639251708984375,-0.0153696350753307,-0.0036189695820212,-0.0056901099160313
1769159161936,-0.05084228515625,-0.979217529296875,0.158599853515625,-0.0079825585708022,0.0060786651447415,-0.0027819380629807
1769159161947,-0.0475006103515625,-0.9818572998046876,0.154266357421875,-0.0049822418950498,0.0049343048594892,0.0006966829532757
1769159161958,-0.0447540283203125,-0.985107421875,0.157989501953125,-0.0042501385323703,0.0017757958266884,0.0023936491925269
1769159161967,-0.04449462890625,-0.9894561767578124,0.1602020263671875,-0.0046826358884572,-0.0039558592252433,0.0051484229043126
1769159161977,-0.044769287109375,-0.99224853515625,0.1625213623046875,-0.0073412698693573,-0.0009547432418912,0.0061106230132281
1769159161987,-0.04547119140625,-0.9881744384765624,0.163238525390625,-0.0124601321294903,-0.0030911311041563,0.0061444453895092
1769159161997,-0.0493011474609375,-0.9868011474609376,0.163360595703125,-0.0118915466591715,-0.0041561289690434,0.007686149328947
1769159162007,-0.049957275390625,-0.9844970703125,0.1595611572265625,-0.0112164355814456,0.0036682379432022,0.0103714140132069
1769159162017,-0.0488433837890625,-0.9815673828125,0.1591339111328125,-0.0099583584815263,0.0037108487449586,0.010185525752604
1769159162027,-0.0519256591796875,-0.9817962646484376,0.1605987548828125,-0.0076906764879822,-0.0042791673913598,0.0096414424479007
1769159162037,-0.054595947265625,-0.982086181640625,0.1618499755859375,-0.0058038267306983,0.0012812467757612,0.0090579437091946
1769159162047,-0.05279541015625,-0.9805450439453124,0.159515380859375,-0.003549727378413,0.0070054451934993,0.0084954835474491
1769159162060,-0.0521392822265625,-0.980926513671875,0.162200927734375,-0.0029052423778921,0.0069769495166838,0.008763930760324
1769159162067,-0.0501251220703125,-0.9803466796875,0.1635589599609375,-0.0027683558873832,0.004619519226253,0.0079391496255993
1769159162077,-0.0482635498046875,-0.979583740234375,0.161346435546875,-0.0002663161139935,0.0009547432418912,0.0098523646593093
1769159162087,-0.051666259765625,-0.9779205322265624,0.159454345703125,0.0005792375304736,-0.0014772554859519,0.0077495323494076
1769159162097,-0.05450439453125,-0.980194091796875,0.16473388671875,-0.0014950985787436,-0.0063982442952692,0.0038788940291851
1769159162107,-0.053985595703125,-0.9804229736328124,0.1671142578125,-0.0083237094804644,-0.0063841296359896,0.0030426615849137
1769159162117,-0.056854248046875,-0.9809112548828124,0.1673431396484375,-0.0138873197138309,-0.0045183189213275,-0.0003030677326023
1769159162128,-0.0579833984375,-0.9808502197265624,0.1670074462890625,-0.0202256422489881,-0.0008910936885513,-0.0026402578223496
1769159162137,-0.0541229248046875,-0.9808349609375,0.1663055419921875,-0.0200536027550697,-0.0011587414192035,-0.0028285433072596
1769159162147,-0.0519256591796875,-0.9808807373046876,0.1624603271484375,-0.0194940734654665,-0.0052781188860535,-0.0025411883834749
1769159162159,-0.05279541015625,-0.9826507568359376,0.1592864990234375,-0.0220467131584882,0.0053819823078811,-0.0026205505710095
1769159162168,-0.05108642578125,-0.984893798828125,0.1591796875,-0.0195201709866523,0.0105096325278282,0.0001632517669349
1769159162178,-0.0530548095703125,-0.9847869873046876,0.1581573486328125,-0.0171249248087406,0.0095668733119964,-0.002919623395428
1769159162188,-0.0529937744140625,-0.982879638671875,0.15521240234375,-0.0137978373095393,0.0029832730069756,0.0008053398923948
1769159162198,-0.049285888671875,-0.9838409423828124,0.1522674560546875,-0.005878129042685,-0.0044914209283888,0.0004191815387457
1769159162208,-0.048004150390625,-0.9853363037109376,0.1496124267578125,0.0036743632517755,-0.005167331546545,0.0026205505710095
1769159162218,-0.047607421875,-0.9857330322265624,0.151214599609375,0.0093743270263075,0.0011406318517401,0.0067846691235899
1769159162228,-0.0475006103515625,-0.9855499267578124,0.154296875,0.010996458120644,0.0012223909143358,0.0109671633690595
1769159162238,-0.04803466796875,-0.98663330078125,0.1579132080078125,0.0100302631035447,0.0018104169284924,0.0108385328203439
1769159162248,-0.0479888916015625,-0.9840545654296876,0.1619415283203125,0.0076983994804322,-0.0003350256592966,0.0069282134063541
1769159162258,-0.0513763427734375,-0.981964111328125,0.1638031005859375,0.0041832933202385,-0.00454495055601,0.0032831449061632
1769159162268,-0.05682373046875,-0.9805755615234376,0.169525146484375,-0.0025574336759746,-0.0007611314067617,-0.0021675468888133
1769159162278,-0.05816650390625,-0.9814910888671876,0.171356201171875,-0.0101674161851406,0.0025957829784601,-0.0020738034509122
1769159162288,-0.0559539794921875,-0.981597900390625,0.17144775390625,-0.018975555896759,6.072007090551779e-05,0.002258893335238
1769159162298,-0.0522918701171875,-0.983306884765625,0.169769287109375,-0.0247136019170284,0.0012245214311406,0.0028983182273805
1769159162308,-0.0512542724609375,-0.9850006103515624,0.1690826416015625,-0.0296377874910831,0.0038613171782344,0.0021566278301179
1769159162318,-0.0515289306640625,-0.9834747314453124,0.1646881103515625,-0.0259660873562097,0.0080299628898501,-0.0003121224872302
1769159162329,-0.0521087646484375,-0.9794158935546876,0.1559600830078125,-0.0214762631803751,0.011372230015695,0.0001656486128922
1769159162338,-0.05474853515625,-0.97784423828125,0.1517333984375,-0.0148593736812472,0.0050810449756681,-0.0004418184107635
1769159162348,-0.0580596923828125,-0.9747772216796876,0.1517791748046875,-0.010081929154694,-0.0027166905347257,-0.0028391960076987
1769159162358,-0.05419921875,-0.9817047119140624,0.1520843505859375,-0.0032269521616399,-0.007521566003561,0.0002279665932292
1769159162369,-0.0466156005859375,-0.98260498046875,0.1505584716796875,0.0051614725962281,0.0044586644507944,-0.0010689928894862
1769159162378,-0.050689697265625,-0.9806060791015624,0.148040771484375,0.0157853551208972,0.0060661481693387,0.0049148639664053
1769159162389,-0.049285888671875,-0.986358642578125,0.1550140380859375,0.0122185833752155,-0.001277518342249,0.0113474633544683
1769159162399,-0.0462799072265625,-0.99505615234375,0.166900634765625,0.0012732573086395,-0.0048405616544187,0.003654389642179
1769159162409,-0.0555267333984375,-0.9832763671875,0.1674957275390625,0.0079615199938416,-0.0029007149860262,-0.0102566322311759
1769159162419,-0.062744140625,-0.977874755859375,0.1573333740234375,0.0149331428110599,0.0067423246800899,-0.0068563083186745
1769159162429,-0.053192138671875,-0.9835662841796876,0.161346435546875,0.0146961221471428,0.0075167720206081,-0.005739910993725
1769159162439,-0.052459716796875,-0.9812774658203124,0.1658935546875,0.0179281346499919,0.013243899680674,-0.0105306711047887
1769159162449,-0.0587310791015625,-0.9701080322265624,0.161712646484375,0.0202296376228332,0.0078153125941753,-0.0110499877482652
1769159162459,-0.063873291015625,-0.9658203125,0.1605072021484375,0.0168791152536869,0.0072581791318953,-0.0140564301982522
1769159162469,-0.0594940185546875,-0.9717864990234376,0.1649169921875,0.0028024443890899,-0.0008245146600529,-0.0177699420601129
1769159162479,-0.054901123046875,-0.9824371337890624,0.171722412109375,-0.0090542146936059,-0.0043124565854668,-0.0200871583074331
1769159162489,-0.0475616455078125,-0.9901123046875,0.1678314208984375,-0.0097120162099599,-0.0004631237243302,-0.0155280930921435
1769159162499,-0.0427093505859375,-0.9896697998046876,0.1583709716796875,-0.0033164345659315,0.0064349961467087,-0.0094190677627921
1769159162509,-0.0392913818359375,-0.987213134765625,0.1513824462890625,0.004757737275213,0.0081956116482615,-0.0035041873343288
1769159162519,-0.0411224365234375,-0.9853057861328124,0.1508331298828125,0.013538178987801,0.0066493805497884,-0.002584597794339
1769159162529,-0.0477752685546875,-0.9815673828125,0.1506195068359375,0.0208315122872591,0.0050877030007541,0.0005155879771336
1769159162540,-0.0540008544921875,-0.9830169677734376,0.1537628173828125,0.0254494342952966,0.0015520902816206,0.0005741775385104
1769159162550,-0.05316162109375,-0.9848785400390624,0.15875244140625,0.0261304043233394,0.0022445120848715,0.0010705908061936
1769159162560,-0.0551605224609375,-0.9861602783203124,0.1612091064453125,0.0268926005810499,0.00598572101444,0.0034176346380263
1769159162569,-0.0525665283203125,-0.98907470703125,0.1661529541015625,0.0217297971248626,0.0016056197928264,0.0034312168136239
1769159162580,-0.0556793212890625,-0.9872589111328124,0.1685638427734375,0.0207516178488731,0.0006351639167405,0.0002109223569277
1769159162591,-0.05426025390625,-0.9852142333984376,0.1673736572265625,0.0161297004669904,0.0086246468126773,0.0032802154310047
1769159162600,-0.047271728515625,-0.985748291015625,0.1692047119140625,0.0111802164465188,0.0081543326377868,0.0032650355715304
1769159162610,-0.045196533203125,-0.9851531982421876,0.170684814453125,0.00682701356709,0.0062328623607754,0.0039880839176476
1769159162620,-0.047607421875,-0.9825286865234376,0.1714324951171875,-0.0023827301338315,0.0051686628721654,0.0041457428596913
1769159162630,-0.04779052734375,-0.9828033447265624,0.1727447509765625,-0.010024138726294,0.0049327067099511,0.0055391085334122
1769159162640,-0.0503387451171875,-0.9816131591796876,0.171722412109375,-0.0150979924947023,0.0002213086845586,0.0071002538315951
1769159162650,-0.05523681640625,-0.9808349609375,0.169921875,-0.0210767891258001,0.0011166634503751,0.0016626114957034
1769159162660,-0.0554351806640625,-0.981689453125,0.1690826416015625,-0.0230491273105144,0.0018554243724793,0.0002322276413906
1769159162670,-0.0526275634765625,-0.98333740234375,0.1643829345703125,-0.0217481721192598,-0.0011147991754114,-0.0004948153509758
1769159162680,-0.0522613525390625,-0.9831695556640624,0.1605224609375,-0.0193025916814804,-0.0026810043491423,-0.0020418455824255
1769159162692,-0.051513671875,-0.9845428466796876,0.1597442626953125,-0.020643226802349,-0.0028298748657107,-0.0039699743501842
1769159162700,-0.0510101318359375,-0.981689453125,0.16058349609375,-0.0156524628400802,-0.0012170645641162,-0.0070773507468402
1769159162710,-0.0587921142578125,-0.9783782958984376,0.1541900634765625,-0.0135693382471799,-0.0011094729416072,-0.0027899276465177
1769159162720,-0.0499725341796875,-0.985931396484375,0.156494140625,-0.0125469509512186,-0.0013622068800032,0.0019877834711223
1769159162730,-0.0433502197265625,-0.9863128662109376,0.15643310546875,-0.0056048887781798,0.0009531453251838,0.003337207250297
1769159162740,-0.0468597412109375,-0.97845458984375,0.1534576416015625,0.0083998767659068,0.0087109338492155,0.0038099181838333
1769159162750,-0.0568084716796875,-0.969818115234375,0.1486358642578125,0.0226627010852098,0.0172972306609153,0.0049830405041575
1769159162761,-0.0564422607421875,-0.9748077392578124,0.1537322998046875,0.0234685745090246,0.0123661225661635,0.0060448427684605
1769159162770,-0.04925537109375,-0.9836578369140624,0.1644134521484375,0.0162687189877033,0.0069718891754746,0.0046839676797389
1769159162780,-0.047149658203125,-0.9832916259765624,0.167694091796875,0.0117951408028602,0.002649046247825,-0.0011337077012285
1769159162790,-0.0553741455078125,-0.982208251953125,0.1696624755859375,0.0093889739364385,-0.0122121917083859,-0.0044155209325253
1769159162801,-0.061981201171875,-0.9835052490234376,0.1747589111328125,0.0013542174128815,-0.0063015716150403,-0.0087266461923718
1769159162811,-0.058807373046875,-0.9823760986328124,0.1725311279296875,-0.0075572519563138,-0.0042080609127879,-0.0116840861737728
1769159162821,-0.0532073974609375,-0.98480224609375,0.1737518310546875,-0.0164175890386104,-0.0056922403164207,-0.0147741520777344
1769159162831,-0.049560546875,-0.9866485595703124,0.1713714599609375,-0.0206885002553462,-0.0082344943657517,-0.0108057763427495
1769159162841,-0.0511627197265625,-0.9870452880859376,0.1695556640625,-0.0233921408653259,-0.0025129588320851,-0.0092656696215271
1769159162851,-0.0493316650390625,-0.9871978759765624,0.1682586669921875,-0.0245404969900846,-0.0059907808899879,-0.0082291681319475
1769159162861,-0.04791259765625,-0.986053466796875,0.165679931640625,-0.0268862079828977,-0.0105562377721071,-0.0048216530121862
1769159162871,-0.0464019775390625,-0.983551025390625,0.163177490234375,-0.0259828642010688,-0.0048019457608461,-0.0037241643294692
1769159162881,-0.048187255859375,-0.984344482421875,0.159820556640625,-0.021016601473093,0.0016698020044714,0.0007467503892257
1769159162892,-0.0510101318359375,-0.9839019775390624,0.1575469970703125,-0.0143451169133186,0.0093082804232835,0.0009733853512443
1769159162901,-0.052978515625,-0.97998046875,0.1532745361328125,-0.0038362834602594,0.0044815675355494,0.0023899206425994
1769159162911,-0.0549163818359375,-0.9806365966796876,0.1541595458984375,0.0007629956235177,0.0010841728653758,0.0012183962389826
1769159162921,-0.0528717041015625,-0.9827880859375,0.1555938720703125,0.0054176687262952,0.0039105857722461,0.0053899716585874
1769159162931,-0.0473785400390625,-0.98162841796875,0.157562255859375,0.0072200959548354,0.0063364589586853,0.0097700729966163
1769159162941,-0.0478515625,-0.9813690185546876,0.15966796875,0.0077026607468724,0.0047665257006883,0.009882990270853
1769159162951,-0.0496673583984375,-0.982421875,0.1639251708984375,0.0039404132403433,-0.0048884986899793,0.0059673450887203
1769159162961,-0.05255126953125,-0.98138427734375,0.1669769287109375,-0.0007187871960923,-0.0042940811254084,0.004449876025319
1769159162971,-0.058990478515625,-0.9805145263671876,0.169281005859375,-0.0053542852401733,-0.000418915238697,-0.0026264095213264
1769159162981,-0.060699462890625,-0.9814453125,0.1690673828125,-0.0135927740484476,0.0038506644777953,-0.0031491878908127
1769159162992,-0.051483154296875,-0.9821319580078124,0.1719512939453125,-0.0192711669951677,-0.0020423782989382,-0.0032040490768849
1769159163002,-0.0500335693359375,-0.98046875,0.168701171875,-0.0193694364279508,-0.0040645166300237,-0.0057345847599208
1769159163012,-0.057373046875,-0.97998046875,0.1640625,-0.018795259296894,0.009329586289823,-0.0058610849082469
1769159163021,-0.0524749755859375,-0.98297119140625,0.1607208251953125,-0.018630675971508,0.0164519436657428,-0.002158758463338
1769159163031,-0.048919677734375,-0.984283447265625,0.1576385498046875,-0.0136159434914588,0.0131219271570444,0.0001467401743866
1769159163042,-0.0437469482421875,-0.9827880859375,0.1546478271484375,-0.0078427428379654,-0.005077582783997,0.0004727110790554
1769159163052,-0.0435791015625,-0.98626708984375,0.15631103515625,-0.0061271348968148,-0.0061191450804471,-0.0011036139912903
1769159163062,-0.052337646484375,-0.9854888916015624,0.158782958984375,-0.0034977956674993,0.0031220237724483,0.0043782368302345
1769159163073,-0.0560150146484375,-0.983978271484375,0.160919189453125,-0.0006274407496675,0.0062254052609205,0.0052291168831288
1769159163082,-0.053314208984375,-0.983673095703125,0.1589202880859375,0.0030123014003038,0.0005291700945235,0.0008676578872837
1769159163093,-0.0478973388671875,-0.98309326171875,0.1571197509765625,0.0070986556820571,-0.0018604843644425,-0.0008080030675046
1769159163102,-0.0510101318359375,-0.9843292236328124,0.1603240966796875,0.0066216834820806,-0.0031870049424469,-0.0002410160814179
1769159163112,-0.0499420166015625,-0.9832305908203124,0.159698486328125,0.0076001291163265,-0.001716939965263,0.000745418772567
1769159163122,-0.0453033447265625,-0.9815673828125,0.1601409912109375,0.0106252133846282,-0.008313057012856,0.0036450685001909
1769159163132,-0.0482330322265625,-0.9816741943359376,0.16424560546875,0.008100270293653,-0.0023329290561378,0.0024362597614526
1769159163142,-0.053558349609375,-0.9810943603515624,0.1676177978515625,0.0021137509029358,0.0013811152894049,0.002870887517929
1769159163152,-0.0566558837890625,-0.98236083984375,0.1710357666015625,-0.0026085663121193,0.0087218526750803,0.0021859225817024
1769159163162,-0.0540924072265625,-0.9824981689453124,0.169525146484375,-0.0102845951914787,0.0139259351417422,0.0053944992832839
1769159163172,-0.05133056640625,-0.9824981689453124,0.168121337890625,-0.0152596468105912,0.0085886940360069,0.0055082160979509
1769159163182,-0.0492095947265625,-0.9857025146484376,0.168609619140625,-0.0185095015913248,0.0030682277865707,0.0016594156622886
1769159163192,-0.0509033203125,-0.9825286865234376,0.1653594970703125,-0.0152396727353334,0.0002854908525478,0.0011270497925579
1769159163202,-0.055084228515625,-0.9785003662109376,0.1601715087890625,-0.0098550273105502,0.0114681040868163,0.0038258971180766
1769159163212,-0.053680419921875,-0.976593017578125,0.157379150390625,-0.006182528566569,0.0127954240888357,0.005086104851216
1769159163223,-0.0562744140625,-0.9772186279296876,0.1581268310546875,-0.0063721453770995,0.002454369328916,0.0010285128373652
1769159163233,-0.05731201171875,-0.983154296875,0.1626129150390625,-0.0059484364464879,-0.0002514024090487,-0.0018527611391618
1769159163243,-0.0568084716796875,-0.9803314208984376,0.158203125,0.0012178635224699,0.00291243288666,-0.0098454402759671
1769159163253,-0.0579986572265625,-0.979400634765625,0.15533447265625,0.0108364019542932,0.0003435477847233,-0.00332921766676
1769159163263,-0.0472259521484375,-0.9871978759765624,0.1595001220703125,0.0007070692372508,-0.0092624742537736,0.0071335430257022
1769159163273,-0.04107666015625,-0.99493408203125,0.1717376708984375,-0.0071194283664226,-0.004283694550395,-0.0027997812721878
1769159163283,-0.0555572509765625,-0.9775390625,0.1621551513671875,0.0025331987999379,0.0121650537475943,-0.0043055326677858
1769159163293,-0.052001953125,-0.9800567626953124,0.1551361083984375,0.0100361220538616,0.0115232318639755,0.0056581520475447
1769159163303,-0.044281005859375,-0.9874725341796876,0.165740966796875,0.0097173424437642,0.0175076201558113,-0.0029406624380499
1769159163313,-0.0539703369140625,-0.9781494140625,0.1658935546875,0.0127980867400765,0.0255152136087417,-0.0121488077566027
1769159163323,-0.0654754638671875,-0.968017578125,0.1616363525390625,0.0136873163282871,0.0216331239789724,-0.0157472714781761
1769159163333,-0.0691375732421875,-0.9678192138671876,0.166656494140625,0.0052781188860535,0.0095189362764358,-0.0205438900738954
1769159163345,-0.0583953857421875,-0.9775390625,0.1698760986328125,-0.0118523985147476,0.0001398159511154,-0.0200544018298387
1769159163353,-0.0454559326171875,-0.98529052734375,0.173126220703125,-0.0210213959217071,-0.0087263798341155,-0.0188583768904209
1769159163363,-0.0420684814453125,-0.9882965087890624,0.16632080078125,-0.0226906649768352,-0.0071111726574599,-0.0128388330340385
1769159163373,-0.0416107177734375,-0.98699951171875,0.158599853515625,-0.0153925381600856,0.0040344228036701,-0.0070608388632535
1769159163383,-0.0416259765625,-0.98504638671875,0.153533935546875,-0.0078640487045049,0.0045313686132431,-0.0036498622503131
1769159163393,-0.0468902587890625,-0.984619140625,0.15618896484375,-0.000557133287657,0.007603857666254,-0.001929193851538
1769159163403,-0.0519866943359375,-0.983734130859375,0.15472412109375,0.0064877266995608,0.0081466101109981,-0.004570250865072
1769159163413,-0.052642822265625,-0.9845733642578124,0.1554412841796875,0.0092009548097848,0.0068717543035745,-0.0037111148703843
1769159163424,-0.0527191162109375,-0.9872894287109376,0.1598968505859375,0.0099008334800601,0.0080661820247769,-0.001546763931401
1769159163433,-0.0506439208984375,-0.9847259521484376,0.158966064453125,0.0139973079785704,0.0107935257256031,0.0020192086230963
1769159163444,-0.05023193359375,-0.98516845703125,0.1591339111328125,0.0169941633939743,0.0125863654538989,0.0021193434949964
1769159163454,-0.048797607421875,-0.9850006103515624,0.1588134765625,0.0193542558699846,0.0151595119386911,0.0045044706203043
1769159163464,-0.0509185791015625,-0.987548828125,0.1645660400390625,0.0163086652755737,0.0072192968800663,0.0043247072026133
1769159163474,-0.0504913330078125,-0.9873199462890624,0.167755126953125,0.01362712867558,0.0115858158096671,0.0061708106659352
1769159163484,-0.0461883544921875,-0.9819183349609376,0.165740966796875,0.0115008614957332,0.0099879195913672,0.0031915323343127
1769159163494,-0.04620361328125,-0.9830474853515624,0.1702117919921875,0.008650479838252,0.0007542071980424,0.0070672305300831
1769159163504,-0.0513916015625,-0.9819488525390624,0.1742401123046875,0.0005816344055347,0.0011768508702516,0.007381749805063
1769159163514,-0.0534820556640625,-0.982177734375,0.1734619140625,-0.0097421091049909,0.0028077706228941,0.0029790119733661
1769159163525,-0.0555267333984375,-0.981842041015625,0.172607421875,-0.0174889788031578,0.0042128544300794,-0.0011419634101912
1769159163534,-0.054534912109375,-0.9831695556640624,0.1719970703125,-0.0254390463232994,-0.0014833806781098,-0.0031792817171663
1769159163544,-0.0509490966796875,-0.9827423095703124,0.1705169677734375,-0.028211398050189,-0.0061431135982275,-0.0059609534218907
1769159163554,-0.048431396484375,-0.9821624755859376,0.164642333984375,-0.0265647657215595,-0.0004868258547503,-0.00054035539506
1769159163564,-0.0444793701171875,-0.98419189453125,0.1613922119140625,-0.0288588125258684,0.0024905882310122,0.0030362699180841
1769159163574,-0.051055908203125,-0.98492431640625,0.1666107177734375,-0.0289493594318628,0.0080786990001797,-0.000549410120584
1769159163584,-0.059906005859375,-0.98114013671875,0.1624755859375,-0.0276808962225914,0.0036900760605931,0.0025803367607295
1769159163594,-0.053131103515625,-0.9834136962890624,0.158660888671875,-0.0203513447195291,0.0040192427113652,0.0026522420812398
1769159163604,-0.050201416015625,-0.9823760986328124,0.15618896484375,-0.0146050415933132,0.0077820229344069,-0.000940095866099
1769159163614,-0.052764892578125,-0.9770355224609376,0.1517791748046875,-0.0033949976786971,0.0164620634168386,-8.788431296125054e-05
1769159163625,-0.0556182861328125,-0.97430419921875,0.147064208984375,0.0055164718069136,0.0098449075594544,0.0052727926522493
1769159163634,-0.0542144775390625,-0.9806060791015624,0.1543121337890625,0.0076102488674223,-7.270430069183931e-05,0.0027901937719434
1769159163645,-0.053375244140625,-0.9813690185546876,0.1585845947265625,0.01089951954782,-0.0062491074204444,-0.0029632993973791
1769159163654,-0.0520782470703125,-0.9803314208984376,0.154998779296875,0.0183619633316993,-0.0005028048180975,-0.0013984258985146
1769159163665,-0.046600341796875,-0.98284912109375,0.156585693359375,0.0235846880823373,0.0033196301665157,-0.0008111988427117
1769159163675,-0.0464019775390625,-0.981842041015625,0.1586151123046875,0.026721891015768,0.001447694376111,0.0026969832833856
1769159163685,-0.049285888671875,-0.982208251953125,0.16290283203125,0.0258124228566885,-0.0081292996183037,0.0012330436147749
1769159163695,-0.05291748046875,-0.9847869873046876,0.1703338623046875,0.0158950760960578,-0.0059886504895985,0.0001374191051581
1769159163705,-0.054412841796875,-0.986175537109375,0.1761322021484375,0.004194744862616,0.004553472623229,-0.0003621898940764
1769159163715,-0.0573883056640625,-0.986175537109375,0.1787109375,-0.0087338369339704,0.0082994755357503,-0.003867708845064
1769159163725,-0.0531005859375,-0.9842987060546876,0.17523193359375,-0.0138758681714534,0.0099863214418292,-0.0012125372886657
1769159163735,-0.0432281494140625,-0.9833984375,0.169097900390625,-0.0157736372202634,0.0095106810331344,0.0031044469214975
1769159163745,-0.040985107421875,-0.981781005859375,0.167327880859375,-0.0164050720632076,-0.0015877765836194,0.001580053474754
1769159163755,-0.0475311279296875,-0.9835968017578124,0.16717529296875,-0.0184908602386713,-0.0078656459227204,-0.0001265001483261
1769159163765,-0.056884765625,-0.9821319580078124,0.1679534912109375,-0.0162865612655878,-0.0007169229793362,-0.0009637979674153
1769159163775,-0.0561676025390625,-0.981292724609375,0.16448974609375,-0.0148841412737965,0.0093162702396512,0.0010285128373652
1769159163785,-0.0506439208984375,-0.983978271484375,0.162872314453125,-0.0093460977077484,0.0019699402619153,0.0018857843242585
1769159163795,-0.0504150390625,-0.980926513671875,0.160003662109375,-0.0079101212322711,0.0016162724932655,0.0023459785152226
1769159163805,-0.0513763427734375,-0.9803466796875,0.15789794921875,-0.0056666741147637,0.0061052967794239,0.0055913068354129
1769159163815,-0.050384521484375,-0.9814605712890624,0.1607818603515625,-0.0010615360224619,0.0063002402894198,0.0066214175894856
1769159163826,-0.049957275390625,-0.9832305908203124,0.16204833984375,-0.00210922351107,-0.0016338493442162,0.0048522795550525
1769159163835,-0.056976318359375,-0.9805908203125,0.1631927490234375,-0.0039049931801855,0.0023228090722113,0.002290318487212
1769159163845,-0.0562591552734375,-0.9805145263671876,0.1654205322265625,-0.007653126027435,0.0052504218183457,0.0017550231423228
1769159163858,-0.051910400390625,-0.9815826416015624,0.1655731201171875,-0.0077742999419569,-0.0057950383052229,-0.0012546151410788
1769159163865,-0.05718994140625,-0.9802703857421876,0.1624755859375,-0.0057961037382483,-0.0009595369338057,-0.0004053331213071
1769159163876,-0.0589599609375,-0.980194091796875,0.160919189453125,-0.0059726713225245,0.006329268682748,-0.0033710293937474
1769159163886,-0.0522613525390625,-0.9814910888671876,0.160919189453125,-0.0074208984151482,0.0104204164817929,-0.0007736482657492
1769159163896,-0.0482177734375,-0.983978271484375,0.1599578857421875,-0.0053843790665268,0.0106648951768875,-2.7164242055732757e-05
1769159163906,-0.047332763671875,-0.9825439453125,0.1612701416015625,-0.0035305526107549,0.0061550978571176,0.0032157669775187
1769159163916,-0.055755615234375,-0.98028564453125,0.162811279296875,-0.0029148298781365,-0.0012945625931024,-0.001008006511256
1769159163926,-0.0538330078125,-0.9820098876953124,0.1617279052734375,-0.001987517112866,0.0002652508555911,-0.0018037590198218
1769159163936,-0.046722412109375,-0.9847869873046876,0.1629791259765625,-0.00402243854478,0.0027129622176289,0.0039814258925616
1769159163946,-0.048553466796875,-0.98486328125,0.1645050048828125,-0.003149454249069,0.0003102582704741,0.0027670243289321
1769159163959,-0.0537261962890625,-0.9855499267578124,0.16455078125,-0.0025012409314513,0.0002516687090974,0.0031886028591543
1769159163966,-0.048492431640625,-0.9829559326171876,0.16363525390625,-0.0015680692158639,-1.5978966985130683e-05,0.0028213527984917
1769159163976,-0.0488128662109375,-0.9829559326171876,0.1642913818359375,-0.0036045885644853,-0.0086038745939731,-0.0009693906176835
1769159163986,-0.057952880859375,-0.9829864501953124,0.1694488525390625,-0.0068629658780992,-0.0105290738865733,-0.0070331422612071
1769159163996,-0.0561676025390625,-0.9827423095703124,0.1701507568359375,-0.0085093323141336,-0.0042999400757253,-0.0070531158708035
1769159164006,-0.049072265625,-0.9817047119140624,0.1676025390625,-0.0081519363448023,-8.52211524033919e-05,-0.005690642632544
1769159164016,-0.0464324951171875,-0.980072021484375,0.1644134521484375,-0.0098414458334445,-0.0020559602417051,-0.0037920749746263
1769159164026,-0.047821044921875,-0.9793701171875,0.1641082763671875,-0.0130460271611809,0.0004503405361901,-0.0015821839915588
1769159164036,-0.0464324951171875,-0.9811248779296876,0.1642303466796875,-0.0101106911897659,-0.0016564861871302,0.0001318264694418
1769159164046,-0.0484161376953125,-0.9817047119140624,0.163787841796875,-0.0088997520506381,0.0075860144570469,0.0029862024821341
1769159164060,-0.0499267578125,-0.9826202392578124,0.1631622314453125,-0.0114625114947557,0.0102342618629336,0.0061953114345669
1769159164066,-0.052032470703125,-0.9860992431640624,0.166015625,-0.0117932762950658,0.0085964174941182,0.0051406999118626
1769159164076,-0.0540618896484375,-0.9866943359375,0.1651763916015625,-0.0136393792927265,0.0082012042403221,0.0024192156270146
1769159164086,-0.057037353515625,-0.983306884765625,0.1616973876953125,-0.0096702044829726,0.0085114631801843,0.0034764904994517
1769159164096,-0.0503692626953125,-0.9802398681640624,0.1554107666015625,-0.0108494516462087,0.0037388119380921,0.0016732640797272
1769159164107,-0.0519866943359375,-0.9777374267578124,0.1566162109375,-0.0061913169920444,-0.0024549018125981,0.0002905508736148
1769159164117,-0.0557098388671875,-0.9805908203125,0.158447265625,-0.0012620720081031,-0.0056259278208017,0.0008721852791495
1769159164127,-0.055908203125,-0.9776153564453124,0.1544647216796875,0.009950635023415,0.0046845003962516,-0.0076667079702019
1769159164137,-0.0564422607421875,-0.9741058349609376,0.1518402099609375,0.0179268028587102,0.0063108927570283,0.0024248082190752
1769159164147,-0.0448455810546875,-0.983795166015625,0.1591796875,0.014985074289143,0.0014839133946225,0.0144559042528271
1769159164158,-0.04150390625,-0.99310302734375,0.17083740234375,0.0073849456384778,-0.0007110640290193,0.0035779569298028
1769159164167,-0.05694580078125,-0.977783203125,0.1653594970703125,0.0136721367016434,0.0118494685739278,-0.0049313753843307
1769159164177,-0.05548095703125,-0.982574462890625,0.1599884033203125,0.0202584005892276,0.0069796126335859,0.0009917612187564
1769159164187,-0.0486602783203125,-0.988372802734375,0.1701202392578125,0.0203633289784193,0.008093879558146,-0.0010535465553402
1769159164197,-0.055999755859375,-0.9785919189453124,0.169281005859375,0.0204935576766729,0.0075628450140357,-0.0137499002739787
1769159164207,-0.0665130615234375,-0.9686279296875,0.1696014404296875,0.0158258341252803,0.0093642072752118,-0.0174346510320901
1769159164217,-0.068756103515625,-0.9688262939453124,0.173828125,0.000406132050557,0.0095900427550077,-0.0148572428151965
1769159164227,-0.0587310791015625,-0.979156494140625,0.18243408203125,-0.023535419255495,0.0034221620298922,-0.0178423803299665
1769159164237,-0.0506134033203125,-0.986053466796875,0.184326171875,-0.040929589420557,0.0006479470757767,-0.0153714995831251
1769159164247,-0.0455169677734375,-0.9883575439453124,0.1749114990234375,-0.043472908437252,0.0018258632626384,-0.0125285750254988
1769159164257,-0.04168701171875,-0.9888458251953124,0.16387939453125,-0.0380560383200645,0.0066967848688364,-0.0045729139819741
1769159164267,-0.044158935546875,-0.987548828125,0.1577911376953125,-0.0293514970690011,0.0077588534913957,-0.0042876894585788
1769159164277,-0.0485076904296875,-0.9841156005859376,0.1534576416015625,-0.0185595694929361,0.0084403567016124,-0.004235225263983
1769159164287,-0.0522613525390625,-0.9804534912109376,0.15069580078125,-0.0104537066072225,-7.643271965207532e-05,-0.0066552395001053
1769159164297,-0.0530853271484375,-0.98284912109375,0.1531219482421875,-0.0060001020319759,-0.0024831313639879,-0.0103628924116492
1769159164307,-0.0531005859375,-0.984100341796875,0.15191650390625,0.0011962919961661,-0.0051052798517048,-0.0080075925216078
1769159164318,-0.05364990234375,-0.983917236328125,0.1527252197265625,0.0109996544197201,-0.0022280006669461,-0.0059364521875977
1769159164328,-0.0515594482421875,-0.9843902587890624,0.1522369384765625,0.0190671682357788,0.0015939018921926,-0.001701759872958
1769159164338,-0.0481109619140625,-0.9823150634765624,0.1517181396484375,0.02817970700562,0.004669586662203,0.0010871023405343
1769159164348,-0.0442962646484375,-0.984771728515625,0.155914306640625,0.0321499481797218,0.0106233498081564,0.0082504730671644
1769159164358,-0.04559326171875,-0.9866943359375,0.1624603271484375,0.0298601612448692,0.0153717659413814,0.0070658987388014
1769159164368,-0.0476531982421875,-0.9866943359375,0.1707305908203125,0.0226254183799028,0.0117794275283813,0.0075812204740941
1769159164378,-0.04730224609375,-0.985870361328125,0.177734375,0.009052351117134,0.00094142742455,0.0061377873644232
1769159164388,-0.0508880615234375,-0.98590087890625,0.1794586181640625,-0.0020378509070724,0.0029622339643538,0.0043731769546866
1769159164398,-0.053375244140625,-0.9830780029296876,0.1808319091796875,-0.0141549678519368,0.0059106196276843,0.0012655340833589
1769159164408,-0.051422119140625,-0.981048583984375,0.1781463623046875,-0.0228126384317874,0.0042828954756259,-5.060006060375599e-06
1769159164418,-0.051544189453125,-0.9794158935546876,0.1742095947265625,-0.0251831170171499,0.0006751113105565,-0.0029430591966956
1769159164428,-0.05316162109375,-0.9801788330078124,0.1680908203125,-0.0260188169777393,0.0015683355741202,-0.0029020465444773
1769159164438,-0.051116943359375,-0.9824676513671876,0.1653289794921875,-0.0233806893229484,0.0063058328814804,-0.0029949909076094
1769159164448,-0.0489044189453125,-0.9849853515625,0.16351318359375,-0.0225425940006971,0.0092976279556751,-0.0009744506096467
1769159164458,-0.0522003173828125,-0.9821319580078124,0.1624908447265625,-0.0219298005104064,0.0067907944321632,-0.0060038301162421
1769159164468,-0.0534515380859375,-0.9807586669921876,0.1575927734375,-0.0186282787472009,-0.0070712254382669,-0.0016724651213735
1769159164478,-0.0462188720703125,-0.9845428466796876,0.1571807861328125,-0.0158399492502212,-0.0057612163946032,0.0012735236668959
1769159164488,-0.047027587890625,-0.9850311279296876,0.1560516357421875,-0.0065116952173411,0.00037657096982,0.0003307645965833
1769159164498,-0.0586700439453125,-0.9757232666015624,0.15130615234375,0.0043840957805514,0.0076025258749723,-0.0045745116658508
1769159164508,-0.0595855712890625,-0.9738006591796876,0.150604248046875,0.0089516835287213,0.0037832865491509,-0.0003779025573749
1769159164519,-0.0494384765625,-0.9815521240234376,0.1590118408203125,0.0078664449974894,0.0024751420132815,0.001947037060745
1769159164529,-0.0458831787109375,-0.982666015625,0.1619873046875,0.0103442501276731,0.0027917916886508,0.0013201289111748
1769159164539,-0.0486297607421875,-0.9817352294921876,0.15887451171875,0.0176106858998537,0.0035736958961933,0.0048616006970405
1769159164549,-0.0520477294921875,-0.981292724609375,0.15960693359375,0.0188035145401954,-0.002460760762915,0.0051015513017773
1769159164559,-0.0558319091796875,-0.98248291015625,0.1690826416015625,0.0117402793839573,0.0008250473183579,-0.0001270327775273
1769159164569,-0.0542755126953125,-0.984771728515625,0.1726531982421875,0.0029718214645981,-0.0013779195724055,-0.0039233691059052
1769159164579,-0.056976318359375,-0.984832763671875,0.17437744140625,-0.0048208539374172,0.0041902177035808,-0.0066070361062884
1769159164589,-0.056549072265625,-0.9852447509765624,0.1724090576171875,-0.0129757197573781,0.0094233294948935,-0.0077631142921745
1769159164599,-0.05029296875,-0.9863739013671876,0.1734161376953125,-0.0196418780833482,0.0057726679369807,-0.0035028557758778
1769159164609,-0.0421600341796875,-0.9851837158203124,0.16943359375,-0.0192384086549282,-0.0028714202344417,-0.0031345405150204
1769159164619,-0.044464111328125,-0.9833526611328124,0.1634521484375,-0.0186495836824178,-0.0005139900604262,0.0001784317864803
1769159164629,-0.0494384765625,-0.98419189453125,0.1618194580078125,-0.0172120109200477,0.003933488857001,0.0014351775171235
1769159164639,-0.04864501953125,-0.9877166748046876,0.1622467041015625,-0.0154902767390012,-0.0012080098967999,0.0021222729701548
1769159164649,-0.0501556396484375,-0.9841156005859376,0.1624908447265625,-0.0104478476569056,0.0010799118317663,0.0034405377227813
1769159164659,-0.052490234375,-0.9806365966796876,0.1583099365234375,-0.0065601645037531,-0.0026189526543021,0.0037513286806643
1769159164669,-0.0554656982421875,-0.98089599609375,0.1604766845703125,-0.0013920343481004,-0.0039670448750257,-0.0003795004449784
1769159164679,-0.0540771484375,-0.981964111328125,0.1586456298828125,2.157160452043172e-05,-0.000712661887519,-0.0028671592008322
1769159164689,-0.0519561767578125,-0.9799957275390624,0.1603851318359375,0.0056712012737989,0.0001949433935806,-0.0022242721170186
1769159164699,-0.049591064453125,-0.9810638427734376,0.160125732421875,0.0081037329509854,0.0020181434229016,-0.0004370247188489
1769159164709,-0.047760009765625,-0.9799346923828124,0.1620941162109375,0.0068230186589062,0.010725081898272,0.003344397759065
1769159164719,-0.049285888671875,-0.9796295166015624,0.1660614013671875,0.005387841258198,0.0145027758553624,0.0030330740846693
1769159164730,-0.049713134765625,-0.9797515869140624,0.1678619384765625,0.0021515677217394,0.0071969265118241,0.0053846454247832
1769159164740,-0.048095703125,-0.980133056640625,0.1688232421875,0.0009736517095007,-0.0002934803487733,0.0042416164651513
1769159164750,-0.0522003173828125,-0.98199462890625,0.1700439453125,-0.0067436564713716,-0.0045353635214269,-4.793690095539205e-06
1769159164760,-0.0572509765625,-0.981903076171875,0.171539306640625,-0.0139701440930366,0.0001326254277955,-0.00687708100304
1769159164770,-0.05865478515625,-0.981475830078125,0.16937255859375,-0.0155296912416815,-0.003311374457553,-0.0071814800612628
1769159164780,-0.0576324462890625,-0.985748291015625,0.1695556640625,-0.0174381118267774,0.0008910936885513,-0.0076169068925082
1769159164790,-0.05029296875,-0.98577880859375,0.1669769287109375,-0.0191135071218013,0.001759816892445,-0.0064405887387692
1769159164800,-0.046905517578125,-0.9839630126953124,0.164642333984375,-0.0194304231554269,0.003205380635336,-0.0013683321885764
1769159164810,-0.048309326171875,-0.983123779296875,0.1605224609375,-0.0151589792221784,0.001873267465271,-0.0006519418093375
1769159164820,-0.0505523681640625,-0.9851531982421876,0.1588134765625,-0.0102888569235801,0.0028892634436488,0.0030655646696686
1769159164830,-0.048095703125,-0.9837493896484376,0.157623291015625,-0.0042935484088957,0.002568086143583,0.0023417174816131
1769159164840,-0.0487060546875,-0.984466552734375,0.1563873291015625,0.003213902702555,0.005274390336126,0.003672232851386
1769159164850,-0.050384521484375,-0.9824981689453124,0.1556854248046875,0.0072989254258573,0.0067031765356659,0.0081673823297023
1769159164860,-0.050445556640625,-0.983123779296875,0.15740966796875,0.0066568371839821,0.0048352354206144,0.0071356738917529
1769159164870,-0.04888916015625,-0.982635498046875,0.1613311767578125,0.0088339718058705,0.0029723541811108,0.002821619156748
1769159164880,-0.0543212890625,-0.981658935546875,0.164306640625,0.0075181038118898,-0.0030346720013767,0.0018208032706752
1769159164892,-0.059295654296875,-0.9798736572265624,0.16693115234375,0.0077218357473611,-0.0019872507546097,-0.003524693660438
1769159164900,-0.057891845703125,-0.979278564453125,0.1678466796875,0.0033103092573583,-0.0027361316606402,-0.0041015343740582
1769159164910,-0.05108642578125,-0.980926513671875,0.168426513671875,-0.0019920445047318,0.000974716967903,-0.0014026869321241
1769159164920,-0.045318603515625,-0.984222412109375,0.16876220703125,-0.0045132590457797,0.0025521072093397,0.0010748518398031
1769159164930,-0.0500335693359375,-0.9856414794921876,0.1714324951171875,-0.0102987103164196,0.0032509206794202,-0.0015981629258021
1769159164940,-0.0510101318359375,-0.9842681884765624,0.17010498046875,-0.0157275646924972,0.0042884880676865,-0.0049769151955842
1769159164950,-0.0502777099609375,-0.98126220703125,0.1668701171875,-0.0158886853605508,0.00655057746917,0.0002564624010119
1769159164961,-0.049591064453125,-0.9791412353515624,0.161834716796875,-0.0094395745545625,0.010922422632575,0.0047952877357602
1769159164970,-0.0465087890625,-0.9798126220703124,0.15966796875,-0.0089908316731452,-0.0008988168556243,0.0050996872596442
1769159164981,-0.053192138671875,-0.982330322265625,0.1649017333984375,-0.0120683806017041,-0.0035185683518648,-0.0003001382574439
1769159164991,-0.0582427978515625,-0.983062744140625,0.165130615234375,-0.01414964068681,-0.0018093516118824,-0.0018836538074538
1769159165001,-0.0549468994140625,-0.9842681884765624,0.1635284423828125,-0.0035292210523039,0.0089226551353931,-0.0033726270776242
1769159165011,-0.0556640625,-0.973602294921875,0.154571533203125,0.0089428946375846,0.0114137753844261,-0.0066176890395581
1769159165021,-0.055938720703125,-0.9746551513671876,0.154693603515625,0.0171563494950532,-0.0002016012876993,-0.0010197244118899
1769159165031,-0.0449676513671875,-0.986083984375,0.165008544921875,0.0014338459586724,-0.009557818993926,0.0036732980515807
1769159165041,-0.0442047119140625,-0.9938201904296876,0.17938232421875,-0.0084062675014138,-0.0051473579369485,-0.0103628924116492
1769159165051,-0.0595245361328125,-0.977081298828125,0.16961669921875,-0.0025864620693027,0.0091831116005778,-0.0166578069329261
1769159165061,-0.0531768798828125,-0.9830322265625,0.162933349609375,0.0008202536264434,0.0079711070284247,-0.0053476272150874
1769159165071,-0.04180908203125,-0.985382080078125,0.1699981689453125,-0.0002692455891519,0.0089117363095283,-0.0088006816804409
1769159165081,-0.055816650390625,-0.9733123779296876,0.165435791015625,0.0025459819007664,0.0154945375397801,-0.0195814240723848
1769159165092,-0.06744384765625,-0.9626922607421876,0.159637451171875,0.0062581622041761,0.0082238409668207,-0.0226927958428859
1769159165101,-0.0633087158203125,-0.969329833984375,0.163360595703125,-0.0005491438205353,-0.0011680624447762,-0.020716730505228
1769159165111,-0.05096435546875,-0.979827880859375,0.1669464111328125,-0.0101919174194335,-0.0114811537787318,-0.0192179027944803
1769159165121,-0.0464630126953125,-0.98724365234375,0.1687774658203125,-0.017615744844079,-0.0053473613224923,-0.0164836347103118
1769159165131,-0.042877197265625,-0.990631103515625,0.1612701416015625,-0.0154074523597955,0.0009797769598662,-0.0127789117395877
1769159165141,-0.0422210693359375,-0.989654541015625,0.1567230224609375,-0.0048378985375165,0.0053987600840628,-0.0055172708816826
1769159165151,-0.0409698486328125,-0.9880523681640624,0.1536865234375,0.0008737831376492,0.003901264630258,-0.0016791230300441
1769159165162,-0.0433349609375,-0.9861297607421876,0.1544647216796875,0.004561994690448,0.0039127161726355,-0.0010359697043895
1769159165172,-0.0486907958984375,-0.9823455810546876,0.1558685302734375,0.0094472980126738,0.0095588844269514,0.0002394181792624
1769159165182,-0.0529327392578125,-0.9810028076171876,0.154296875,0.0181198809295892,0.0107546430081129,6.79106087773107e-05
1769159165192,-0.0539398193359375,-0.983306884765625,0.1581878662109375,0.0225894656032323,0.0034906051587313,-0.0017696705181151
1769159165202,-0.0543365478515625,-0.9857177734375,0.1632537841796875,0.0228954628109931,0.0048847701400518,-0.0017638115677982
1769159165212,-0.0525054931640625,-0.985870361328125,0.1640777587890625,0.0210834480822086,0.0017398431664332,-0.0028836708515882
1769159165222,-0.0513458251953125,-0.98443603515625,0.16650390625,0.0202573351562023,0.0036067189648747,-0.0027760791126638
1769159165232,-0.0482330322265625,-0.9838714599609376,0.1668243408203125,0.019942283630371,0.0060006347484886,0.0016482303617522
1769159165242,-0.0435791015625,-0.98419189453125,0.170166015625,0.0190786197781562,0.0011494202772155,0.0040416130796074
1769159165252,-0.044677734375,-0.984649658203125,0.174530029296875,0.0113762253895401,0.0085269091650843,0.0070451265200972
1769159165262,-0.0462493896484375,-0.9839324951171876,0.1770782470703125,0.0022607573773711,0.0114241624251008,0.007398793939501
1769159165272,-0.048095703125,-0.983184814453125,0.1790313720703125,-0.0084025394171476,0.0011030812747776,0.0063926517032086
1769159165282,-0.0537567138671875,-0.981475830078125,0.1823883056640625,-0.0216903816908597,0.0008543420699425,-0.0010354369878768
1769159165292,-0.0558013916015625,-0.9799041748046876,0.179840087890625,-0.0313472710549831,0.0057598846033215,-0.0048219193704426
1769159165302,-0.05584716796875,-0.9801483154296876,0.17626953125,-0.0354096554219722,0.0008612662786617,-0.0071220914833247
1769159165312,-0.0527496337890625,-0.9822998046875,0.171051025390625,-0.0382962562143802,-0.0072256885468959,-0.0119900833815336
1769159165326,-0.04876708984375,-0.9830169677734376,0.16510009765625,-0.0389117114245891,-0.0063540358096361,-0.0127376327291131
1769159165332,-0.0445098876953125,-0.985565185546875,0.162200927734375,-0.0354259014129638,-0.0034740935079753,-0.0141299339011311
1769159165342,-0.0480194091796875,-0.9809417724609376,0.1584625244140625,-0.0301344655454158,0.0002412823960185,-0.0083482107147574
1769159165352,-0.04742431640625,-0.9826202392578124,0.154541015625,-0.0237319618463516,0.0011190603254362,0.002797916997224
1769159165362,-0.0408172607421875,-0.987091064453125,0.154388427734375,-0.0144191533327102,0.0061428472399711,0.0063638896681368
1769159165372,-0.0456085205078125,-0.9838714599609376,0.1550140380859375,-0.0050610713660717,0.0149488560855388,0.0046346993185579
1769159165383,-0.0528106689453125,-0.9742889404296876,0.15008544921875,0.0081125209107995,0.0186234861612319,0.0028647624421864
1769159165393,-0.05377197265625,-0.975189208984375,0.1494293212890625,0.0132375080138444,0.010954113677144,0.0054589477367699
1769159165403,-0.0493316650390625,-0.97991943359375,0.1595306396484375,0.0098049603402614,0.0007065366371534,0.0041896849870681
1769159165413,-0.051544189453125,-0.9843902587890624,0.1669769287109375,0.0030234868172556,0.0006087986403144,0.0011765845119953
1769159165425,-0.053985595703125,-0.98358154296875,0.1665802001953125,0.0034067155793309,-0.0036980654112994,-0.0034932682756334
1769159165433,-0.0522003173828125,-0.98175048828125,0.1632537841796875,0.007391070947051,-0.0017638115677982,-0.0042133871465921
1769159165443,-0.05023193359375,-0.979522705078125,0.160919189453125,0.0135099496692419,0.0049279131926596,-0.002093510935083
1769159165453,-0.0488128662109375,-0.9806060791015624,0.161468505859375,0.0149395344778895,0.0056307213380932,-0.0007078681956045
1769159165463,-0.0451202392578125,-0.983734130859375,0.16632080078125,0.0083551350980997,-0.0052043492905795,-0.002314020646736
1769159165473,-0.0483856201171875,-0.9859466552734376,0.1718902587890625,-0.0008833705214783,-0.0024639565963298,-0.001178448786959
1769159165483,-0.0504302978515625,-0.98504638671875,0.1710662841796875,-0.006687996443361,0.002037584548816,-4.5273736759554595e-06
1769159165493,-0.049835205078125,-0.985931396484375,0.1709442138671875,-0.012262525036931,-0.002519350266084,-0.0001155811914941
1769159165503,-0.0504608154296875,-0.9854278564453124,0.170318603515625,-0.0150314141064882,-0.0080206422135233,-0.001227450906299
1769159165513,-0.0501251220703125,-0.9852447509765624,0.165924072265625,-0.0177523661404848,-0.0091543495655059,1.0386328540334944e-05
1769159165523,-0.0466766357421875,-0.9849700927734376,0.164398193359375,-0.0126436231657862,-0.0022634204942733,0.0011515507940202
1769159165533,-0.0451202392578125,-0.983306884765625,0.161285400390625,-0.0092278532683849,-0.0034432008396834,0.0021877868566662
1769159165543,-0.0485382080078125,-0.9822235107421876,0.161376953125,-0.0029667613562196,0.000818655709736,0.0017893778858706
1769159165553,-0.0525054931640625,-0.981842041015625,0.16241455078125,-0.0037398771382868,0.0021443772129714,0.001136903418228
1769159165563,-0.053466796875,-0.981719970703125,0.1642913818359375,-0.0007145261042751,0.0056682717986404,0.0037143107037991
1769159165573,-0.0526275634765625,-0.982269287109375,0.166473388671875,-0.0024479776620864,0.0124582676216959,0.0031606396660208
1769159165583,-0.0498046875,-0.979339599609375,0.165802001953125,-0.0022149509750306,0.0086893616244196,0.0075407405383884
1769159165593,-0.0483245849609375,-0.98052978515625,0.164642333984375,-0.0006490123341791,0.006351372692734,0.0095767276361584
1769159165603,-0.049957275390625,-0.9779815673828124,0.1658172607421875,-0.0007177218794822,0.0033875408116728,0.006271744146943
1769159165614,-0.0516815185546875,-0.9774169921875,0.164459228515625,-0.0003917510039173,-0.0010855044238269,0.0037601171061396
1769159165625,-0.0522613525390625,-0.98040771484375,0.164886474609375,-0.0058094197884202,-0.0097591541707515,-0.0002609897928778
1769159165634,-0.055999755859375,-0.981719970703125,0.1699066162109375,-0.0105714183300733,-0.0094361118972301,-0.0056126117706298
1769159165644,-0.0543060302734375,-0.9802703857421876,0.169769287109375,-0.0164167899638414,-0.0037622477393597,-0.0051095406524837
1769159165654,-0.052825927734375,-0.9816436767578124,0.1684417724609375,-0.018050106242299,-0.0061803977005183,-0.0079607209190726
1769159165664,-0.050537109375,-0.9822845458984376,0.166107177734375,-0.0203952863812446,-0.0040549291297793,-0.0079524656757712
1769159165674,-0.050262451171875,-0.9821014404296876,0.1642913818359375,-0.019196331501007,0.0076493974775075,-0.0050919638015329
1769159165684,-0.0484466552734375,-0.981842041015625,0.1629638671875,-0.0179848596453666,0.0057649449445307,0.0003821636200882
1769159165694,-0.0501861572265625,-0.983428955078125,0.163726806640625,-0.0196855533868074,0.0032253544777631,-0.0025244103744626
1769159165704,-0.0500946044921875,-0.982635498046875,0.1623992919921875,-0.0183044392615556,0.0035057852510362,-0.0004583300324156
1769159165714,-0.0457763671875,-0.98553466796875,0.1597747802734375,-0.0152588477358222,-0.0001962749665835,0.0023276028223335
1769159165725,-0.046539306640625,-0.9851837158203124,0.1600494384765625,-0.0133672039955854,-0.002364088082686,0.0025971147697418
1769159165734,-0.0502777099609375,-0.98382568359375,0.160552978515625,-0.0081639206036925,-0.0037254961207509,-0.0003107908996753
1769159165744,-0.0510101318359375,-0.98516845703125,0.162322998046875,-0.0075234300456941,-0.0011691277613863,0.0007866977830417
1769159165754,-0.0493316650390625,-0.98291015625,0.1609344482421875,-0.0031425300985574,0.0057343184016644,0.0039380164816975
1769159165764,-0.048919677734375,-0.9813385009765624,0.160369873046875,-0.002771551720798,0.0108771491795778,0.0064373929053545
1769159165774,-0.0482025146484375,-0.983673095703125,0.165252685546875,-0.005886651109904,0.0045731803402304,0.0071370052173733
1769159165784,-0.0490264892578125,-0.9827117919921876,0.1698760986328125,-0.0110510531812906,-0.0063345949165523,0.0020913803018629
1769159165794,-0.05120849609375,-0.9825897216796876,0.1681060791015625,-0.0156607180833816,-0.0011049455497413,0.0034131072461605
1769159165804,-0.04986572265625,-0.984161376953125,0.1677093505859375,-0.0216770656406879,0.0073255570605397,0.0043691820465028
1769159165815,-0.0490570068359375,-0.9835205078125,0.166534423828125,-0.0228579118847847,-0.0003600593772716,0.000113716974738
1769159165826,-0.054962158203125,-0.9832611083984376,0.1647796630859375,-0.0201817005872726,4.5540054998127744e-05,-0.0026666230987757
1769159165835,-0.0523223876953125,-0.978668212890625,0.157928466796875,-0.0127371000126004,0.0071239559911191,0.0003336940717417
1769159165845,-0.0482635498046875,-0.9779205322265624,0.15374755859375,-0.0044847633689641,0.0049532135017216,0.0020381172653287
1769159165855,-0.0482330322265625,-0.9789276123046876,0.15386962890625,-0.0014527543680742,-0.0011584750609472,0.0036008600145578
1769159165865,-0.050567626953125,-0.98406982421875,0.1579132080078125,-0.0023587618488818,-0.0131134055554866,0.0038208372425287
1769159165875,-0.0478057861328125,-0.9858245849609376,0.1599273681640625,0.0058301920071244,-0.0090025495737791,9.161273919744416e-05
1769159165885,-0.0510406494140625,-0.977783203125,0.152191162109375,0.0160724427551031,-0.0025808694772422,-0.0002980077115353
1769159165895,-0.0530853271484375,-0.9772796630859376,0.1539459228515625,0.0234573893249034,0.0009968212107196,0.008970059454441
1769159165905,-0.046661376953125,-0.9907989501953124,0.1633453369140625,0.0096371807157993,0.000169643361005,0.0129893021658062
1769159165915,-0.046051025390625,-0.9925537109375,0.1764068603515625,0.0044328314252197,0.002820287598297,0.0004527373821474
1769159165925,-0.0536956787109375,-0.97918701171875,0.166229248046875,0.014748053625226,0.0189427975565195,-0.0002218413137597
1769159165935,-0.053314208984375,-0.9777984619140624,0.16058349609375,0.0179928485304117,0.0152583150193095,0.0019931097049266
1769159165945,-0.0501556396484375,-0.9817657470703124,0.1697235107421875,0.0173947028815746,0.0090060122311115,-0.0029164277948439
1769159165955,-0.0562896728515625,-0.9750213623046876,0.169830322265625,0.0191934015601873,0.0055905077606439,-0.0152577823027968
1769159165965,-0.06561279296875,-0.9656829833984376,0.1676177978515625,0.0128481546416878,0.009525061585009,-0.0185672920197248
1769159165975,-0.0646514892578125,-0.9694671630859376,0.17120361328125,-0.0026221484877169,0.0082669844850897,-0.0173968337476253
1769159165985,-0.0568084716796875,-0.9803924560546876,0.177032470703125,-0.022086925804615,0.0067921262234449,-0.0150716276839375
1769159165995,-0.0493927001953125,-0.986236572265625,0.17596435546875,-0.0304812099784612,0.0041023334488272,-0.0139552298933267
1769159166005,-0.0432281494140625,-0.9893951416015624,0.16656494140625,-0.02880235388875,0.0058139469474554,-0.0067236828617751
1769159166016,-0.04010009765625,-0.9859619140625,0.156402587890625,-0.0173827186226844,0.0062818643637001,0.0017715347930788
1769159166026,-0.041168212890625,-0.986053466796875,0.1525421142578125,-0.0056072855368256,0.0059220711700618,0.0016719325212761
1769159166035,-0.0469512939453125,-0.9819488525390624,0.1535186767578125,0.003964914008975,0.0072158346883952,2.2636868379777297e-05
1769159166046,-0.050140380859375,-0.980804443359375,0.1515655517578125,0.0087330378592014,0.0097716702148318,-0.0010823087068274
1769159166056,-0.0531463623046875,-0.98358154296875,0.1565093994140625,0.0138937113806605,0.0079047949984669,-0.0046054045669734
1769159166066,-0.0571136474609375,-0.9866943359375,0.16070556640625,0.0135003626346588,0.0031891353428363,-0.0077924095094203
1769159166076,-0.054290771484375,-0.9861297607421876,0.1631317138671875,0.0139259351417422,-0.0072094434872269,-0.0094241276383399
1769159166086,-0.0495147705078125,-0.985321044921875,0.164703369140625,0.0140271354466676,-0.0026740799658,-0.0065092984586954
1769159166096,-0.0450286865234375,-0.9860687255859376,0.16375732421875,0.0171885732561349,0.0001592570333741,-0.0018378474051132
1769159166106,-0.0433197021484375,-0.9855804443359376,0.1664581298828125,0.0175390467047691,0.0054019559174776,0.0050663975998759
1769159166116,-0.044403076171875,-0.985931396484375,0.1678619384765625,0.0160050652921199,0.0131421675905585,0.0115370796993374
1769159166126,-0.0444793701171875,-0.98553466796875,0.1732940673828125,0.0056139435619115,0.0113171031698584,0.010964767076075
1769159166136,-0.0470123291015625,-0.98529052734375,0.177734375,-0.0040213731117546,-0.0077812238596379,0.0031619712244719
1769159166146,-0.054107666015625,-0.9821929931640624,0.1782379150390625,-0.0152532551437616,-0.0089825764298439,0.0003832288784906
1769159166156,-0.0547332763671875,-0.9814605712890624,0.1751251220703125,-0.0223708190023899,-0.0011443602852523,-0.0034858114086091
1769159166166,-0.05145263671875,-0.9813995361328124,0.1720428466796875,-0.0272073857486248,0.0096038915216922,-0.0021840583067387
1769159166176,-0.0503997802734375,-0.98095703125,0.168487548828125,-0.0291735976934433,0.0007251787465065,-0.0032879386562854
1769159166186,-0.052093505859375,-0.981597900390625,0.16595458984375,-0.0269778221845626,-0.0073953317478299,-0.0032740901224315
1769159166196,-0.048065185546875,-0.98309326171875,0.1627655029296875,-0.0304825417697429,-0.0074102454818785,0.0004197141970507
1769159166206,-0.04278564453125,-0.9868621826171876,0.164886474609375,-0.0300950519740581,-0.0064818677492439,-0.0046733152121305
1769159166216,-0.0518646240234375,-0.9790496826171876,0.158782958984375,-0.0230627078562974,0.0005704491049982,-0.005151352379471
1769159166226,-0.0538482666015625,-0.982696533203125,0.1548614501953125,-0.0175528954714536,0.0004926847759634,0.0057529606856405
1769159166236,-0.0393218994140625,-0.989227294921875,0.157958984375,-0.0138329910114407,-6.178533658385277e-05,0.008714928291738
1769159166246,-0.040374755859375,-0.986175537109375,0.156951904296875,-0.00777616398409,0.0028293423820286,0.0047444212250411
1769159166256,-0.0547027587890625,-0.9748077392578124,0.1516265869140625,0.0037997981999069,0.0094044208526611,0.001898301183246
1769159166267,-0.060943603515625,-0.9696502685546876,0.1505889892578125,0.0148551128804683,0.0020988371688872,-0.0021467742044478
1769159166277,-0.0548095703125,-0.9759063720703124,0.1573638916015625,0.0166655294597148,-0.0045622610487043,0.0028740833513438
1769159166287,-0.0465545654296875,-0.984588623046875,0.16217041015625,0.0138417799025774,-0.0026453179307281,0.0057777278125286
1769159166297,-0.0444793701171875,-0.9861297607421876,0.1677703857421875,0.0084273070096969,0.0018016285030171,0.0054821171797811
1769159166307,-0.04876708984375,-0.9832916259765624,0.167694091796875,0.0070517840795218,0.0067292754538357,0.0040948763489723
1769159166317,-0.0518035888671875,-0.979339599609375,0.168701171875,0.0033124396577477,0.005927397403866,0.0005185174522921
1769159166327,-0.0532989501953125,-0.9813690185546876,0.1710205078125,0.0008679241873323,0.0073412698693573,0.0043348274193704
1769159166337,-0.0494232177734375,-0.9865570068359376,0.170654296875,-0.0047129960730671,0.0108694257214665,0.0069359368644654
1769159166347,-0.0459442138671875,-0.99249267578125,0.1723480224609375,-0.0139211416244506,0.0139128863811492,0.00617400649935
1769159166358,-0.0445709228515625,-0.9920196533203124,0.1734619140625,-0.0224379301071167,0.0089058773592114,0.0049803773872554
1769159166367,-0.0484466552734375,-0.9862213134765624,0.17071533203125,-0.027387149631977,0.0021528995130211,0.0031915323343127
1769159166377,-0.0521392822265625,-0.9836883544921876,0.1674957275390625,-0.0304364692419767,-0.0041665155440568,0.0046826358884572
1769159166387,-0.0535888671875,-0.9822540283203124,0.166412353515625,-0.027648938819766,-0.0035707664210349,0.0054264571517705
1769159166397,-0.055511474609375,-0.981201171875,0.1600189208984375,-0.0205614678561687,0.0095735313370823,0.0077527281828224
1769159166407,-0.0487060546875,-0.9774169921875,0.152679443359375,-0.007937285117805,0.0071154339239001,0.0113535886630415
1769159166417,-0.0445098876953125,-0.9777069091796876,0.15106201171875,0.0003805657033808,0.0068954564630985,0.0119866216555237
1769159166427,-0.0438690185546875,-0.9815673828125,0.1555023193359375,0.0056770602241158,0.0111578460782766,0.0167448911815881
1769159166437,-0.048858642578125,-0.9840545654296876,0.160797119140625,0.0085564702749252,-0.000875913654454,0.0181896556168794
1769159166447,-0.062225341796875,-0.981903076171875,0.1671600341796875,0.0075673721730709,-0.0070579093880951,0.0070685623213648
1769159166458,-0.0657958984375,-0.981170654296875,0.168701171875,0.0026626284234225,-0.0012583435745909,0.0034277546219527
1769159166467,-0.053741455078125,-0.9795989990234376,0.165771484375,0.0002727076935116,-0.0016511598369106,0.0028237497899681
1769159166478,-0.0509033203125,-0.978271484375,0.1682891845703125,-0.0035132421180605,-0.0047976844944059,0.0009108011145144
1769159166488,-0.0528411865234375,-0.9786529541015624,0.16693115234375,-0.0037654433399438,-0.0062136873602867,0.0022461100015789
1769159166498,-0.050537109375,-0.97808837890625,0.166778564453125,-0.0044272388331592,-0.0074973311275243,0.0029063075780868
1769159166508,-0.0500030517578125,-0.9822845458984376,0.1663970947265625,-0.0069918632507324,-0.0058174091391265,0.0030370689928531
1769159166518,-0.0509490966796875,-0.98321533203125,0.167877197265625,-0.0087434239685535,-0.0010135991033166,0.0035912727471441
1769159166528,-0.050811767578125,-0.9837646484375,0.1672515869140625,-0.0120654515922069,0.0079700425267219,0.0029997846577316
1769159166538,-0.0530853271484375,-0.984405517578125,0.1654205322265625,-0.0159571282565593,0.0111021855846047,0.0025009745731949
1769159166548,-0.056640625,-0.9809417724609376,0.164642333984375,-0.0139144835993647,0.0185822062194347,0.0016247945604845
1769159166559,-0.0517730712890625,-0.98138427734375,0.1598968505859375,-0.0095796566456556,0.0169241223484277,0.003287139814347
1769159166568,-0.047088623046875,-0.9827728271484376,0.156982421875,-0.0033891387283802,0.0046794405207037,0.0051433630287647
1769159166578,-0.0446929931640625,-0.98370361328125,0.1568756103515625,0.0013222594279795,-0.0113674364984035,0.0068248827010393
1769159166588,-0.0499725341796875,-0.98297119140625,0.15484619140625,0.0082534020766615,-0.0068392637185752,0.010800183750689
