timestamp_ms,acc_x,acc_y,acc_z,gyro_x,gyro_y,gyro_z
1769251877132,0.025787353515625,-0.239349365234375,-0.9755096435546876,0.1090122386813163,-0.1632611006498336,0.0005065332516096
1769251877142,0.03570556640625,-0.247222900390625,-0.9639434814453124,0.1164166256785392,-0.2294691503047943,0.0229953303933143
1769251877152,0.0364990234375,-0.2448577880859375,-0.94537353515625,0.0989516153931617,-0.3639273643493652,0.0263495817780494
1769251877162,-0.0132904052734375,-0.2412261962890625,-0.8916473388671875,0.0361726507544517,-0.63054358959198,-0.0250110775232315
1769251877172,-0.039031982421875,-0.2424468994140625,-0.8697662353515625,-0.0156884156167507,-0.8855870962142944,-0.0690320655703544
1769251877182,-0.0368804931640625,-0.24237060546875,-0.8917999267578125,-0.0489997677505016,-0.9920344352722168,-0.0877551510930061
1769251877192,0.02423095703125,-0.175384521484375,-1.01123046875,-0.0047476170584559,-0.3535378277301788,0.0040589235723018
1769251877203,0.0285491943359375,-0.2329559326171875,-1.0534515380859375,-0.0113061843439936,0.1720234304666519,0.055648349225521
1769251877213,0.0094757080078125,-0.2295989990234375,-0.9837799072265624,-0.0023896545171737,0.1226353719830513,0.0893871337175369
1769251877223,0.010162353515625,-0.2268524169921875,-0.998260498046875,0.0455152876675128,0.1147939562797546,0.1046036407351493
1769251877233,-0.0300445556640625,-0.25244140625,-0.993804931640625,0.0509838201105594,0.1899654120206833,0.0814261510968208
1769251877243,-0.070159912109375,-0.262542724609375,-0.953857421875,0.020259466022253,0.1591036319732666,0.0362751819193363
1769251877253,-0.0912017822265625,-0.246856689453125,-0.944061279296875,0.0056488309055566,0.1116309240460395,-0.0010844392236322
1769251877263,-0.0673675537109375,-0.2360382080078125,-0.9520416259765624,-0.0062895873561501,0.0522235222160816,-0.0172008238732814
1769251877273,-0.042388916015625,-0.2384185791015625,-0.962310791015625,-0.0088419606909155,0.0174482315778732,-0.029814887791872
1769251877283,-0.021240234375,-0.238616943359375,-0.9736480712890624,-0.0090563455596566,0.061001569032669,-0.0416933856904506
1769251877293,-0.0152587890625,-0.240142822265625,-0.9774932861328124,-0.006319148465991,0.084502100944519,-0.0568132139742374
1769251877303,-0.0078277587890625,-0.23602294921875,-0.97222900390625,-0.0031928638927638,0.0722379758954048,-0.0564302541315555
1769251877313,0.008270263671875,-0.2377471923828125,-0.9776153564453124,0.0058064898476004,0.0566582195460796,-0.0468593835830688
1769251877323,0.0140533447265625,-0.235870361328125,-0.97918701171875,0.0159147847443819,0.0496413223445415,-0.0341228172183036
1769251877333,0.0071868896484375,-0.2339019775390625,-0.981414794921875,0.026283536106348,0.0661920681595802,-0.0207819771021604
1769251877343,0.0084381103515625,-0.2367401123046875,-0.97479248046875,0.0400528758764267,0.0248187966644763,-0.0019518306944519
1769251877353,-0.0093994140625,-0.24041748046875,-0.9608612060546876,0.0453557632863521,-0.0126151274889707,-0.0064693507738411
1769251877363,-0.036285400390625,-0.240234375,-0.9520416259765624,0.0451677441596984,-0.0494333282113075,-0.0265487860888242
1769251877373,-0.028778076171875,-0.231964111328125,-0.951507568359375,0.0430904775857925,-0.0797941610217094,-0.028351480141282
1769251877385,-0.015167236328125,-0.2349090576171875,-0.958221435546875,0.0342834033071994,-0.0547002628445625,-0.0210618749260902
1769251877393,-0.00665283203125,-0.2473297119140625,-0.962188720703125,0.0242704525589942,-0.0315195769071579,-0.0089612705633044
1769251877404,0.0081329345703125,-0.247222900390625,-0.96307373046875,0.0227037146687507,-0.0276654493063688,0.0062645538710057
1769251877413,0.0197601318359375,-0.2439422607421875,-0.976837158203125,0.0241926871240139,-0.0224552415311336,0.0315033309161663
1769251877424,0.0117645263671875,-0.2478179931640625,-0.9753265380859376,0.020780911669135,-0.0022607573773711,0.0369423069059848
1769251877434,0.0013427734375,-0.2403411865234375,-0.972503662109375,0.0199755728244781,-0.0043713124468922,0.0445046164095401
1769251877444,-0.0101318359375,-0.233306884765625,-0.96514892578125,0.0106827383860945,-0.0013978932984173,0.0478878952562809
1769251877454,-0.0256805419921875,-0.2369232177734375,-0.95428466796875,-0.0021731394808739,-0.0231378097087144,0.0441528148949146
1769251877464,-0.0261688232421875,-0.246734619140625,-0.9408416748046876,-0.0173992309719324,-0.0477659255266189,0.041589256376028
1769251877474,-0.0189666748046875,-0.257598876953125,-0.93890380859375,-0.032303612679243,-0.04503059014678,0.0429780930280685
1769251877484,-0.00164794921875,-0.2410888671875,-0.9498291015625,-0.0489917770028114,0.0002045307774096,0.0524197965860366
1769251877494,-0.0027313232421875,-0.2280426025390625,-0.9549560546875,-0.0563508905470371,0.0145946554839611,0.0680522844195365
1769251877504,0.0008544921875,-0.219085693359375,-0.96832275390625,-0.0446244589984416,0.0337118916213512,0.0845175459980964
1769251877514,-0.0069427490234375,-0.2274017333984375,-0.97686767578125,-0.0371215343475341,0.0808903202414512,0.0894558429718017
1769251877524,0.000396728515625,-0.2259368896484375,-0.9788970947265624,-0.0231945347040891,0.078590415418148,0.1008437871932983
1769251877534,-0.006988525390625,-0.2360687255859375,-0.9833221435546876,-0.0137797277420759,0.0751805007457733,0.1052971258759498
1769251877544,-0.0139617919921875,-0.2573089599609375,-0.97674560546875,-0.0072291507385671,0.0649443790316581,0.0994046181440353
1769251877554,-0.0233001708984375,-0.279815673828125,-0.9670257568359376,-0.0071079768240451,0.0355619899928569,0.0739530548453331
1769251877564,-0.0184783935546875,-0.2701873779296875,-0.9617919921875,-0.0096430396661162,-0.0081575289368629,0.0639574080705642
1769251877574,-0.01702880859375,-0.249176025390625,-0.9651641845703124,-0.0065700183622539,-0.0397183857858181,0.060430321842432
1769251877584,-0.013397216796875,-0.22802734375,-0.979339599609375,0.0086353002116084,-0.0509691759943962,0.0738643705844879
1769251877594,0.001007080078125,-0.2212066650390625,-0.9958038330078124,0.0196839552372694,0.0100552970543503,0.1054055169224739
1769251877605,0.0010833740234375,-0.2322235107421875,-0.990875244140625,0.0225750841200351,0.0784292966127395,0.1236724033951759
1769251877615,-9.1552734375e-05,-0.235565185546875,-0.9744873046875,0.0219545681029558,0.1063038036227226,0.1346012204885482
1769251877624,-0.001129150390625,-0.2409210205078125,-0.9613800048828124,0.0178053621202707,0.0913272500038147,0.1418125331401825
1769251877635,-0.0108184814453125,-0.242706298828125,-0.9511566162109376,0.0073324814438819,0.069687470793724,0.1392755955457687
1769251877644,-0.0179290771484375,-0.2505035400390625,-0.9414215087890624,-0.0047598676756024,0.0430779606103897,0.1323726922273636
1769251877655,-0.0159759521484375,-0.256500244140625,-0.94061279296875,-0.0119733056053519,0.0400331690907478,0.1316365897655487
1769251877665,-0.0284576416015625,-0.2574615478515625,-0.934326171875,-0.0266561117023229,0.0669068619608879,0.1171319484710693
1769251877675,-0.0359954833984375,-0.251739501953125,-0.95257568359375,-0.0192293543368577,0.0516599975526332,0.1126655638217926
1769251877685,-0.025787353515625,-0.246368408203125,-0.970184326171875,-0.0179776679724454,0.0379053056240081,0.1073560193181037
1769251877695,-0.0331878662109375,-0.245758056640625,-0.9765472412109376,-0.0219646878540515,-0.0023702133912593,0.0986754447221756
1769251877705,-0.012847900390625,-0.2347869873046875,-0.9814453125,-0.0210613422095775,-0.0470838882029056,0.0990466922521591
1769251877715,-0.0103759765625,-0.2443389892578125,-0.986572265625,-0.0191497262567281,-0.006263222079724,0.0929421931505203
1769251877725,-0.0167236328125,-0.24755859375,-0.9795684814453124,-0.0185489170253276,0.0636625960469245,0.0863298252224922
1769251877735,-0.0214996337890625,-0.252288818359375,-0.970184326171875,-0.0166972205042839,0.0834347084164619,0.080142505466938
1769251877745,-0.0260467529296875,-0.251617431640625,-0.9575042724609376,-0.0178980398923158,0.0443304479122161,0.0691556334495544
1769251877755,-0.0293731689453125,-0.2440032958984375,-0.9539031982421876,-0.0195372160524129,0.0195998009294271,0.0569011010229587
1769251877765,-0.02294921875,-0.2406463623046875,-0.9617767333984376,-0.0181811340153217,0.019645607098937,0.0516711845993995
1769251877775,-0.022064208984375,-0.246795654296875,-0.9615478515625,-0.031717449426651,0.0299800038337707,0.0408832505345344
1769251877785,-0.0384674072265625,-0.2538909912109375,-0.9618988037109376,-0.0293435081839561,0.0470324903726577,0.0186304096132516
1769251877795,-0.0366058349609375,-0.235870361328125,-0.9797821044921876,-0.013907560147345,0.0601903684437274,0.0094068171456456
1769251877805,-0.014190673828125,-0.235198974609375,-0.996124267578125,0.0064877266995608,0.0462519153952598,0.0257722083479166
1769251877815,0.0041961669921875,-0.2418365478515625,-1.002288818359375,0.0286108721047639,0.0501627698540687,0.0376184806227684
1769251877825,0.006011962890625,-0.240631103515625,-0.9975433349609376,0.0441570729017257,0.1125473156571388,0.0458692200481891
1769251877836,0.0035552978515625,-0.2454681396484375,-0.9909515380859376,0.0510812923312187,0.2020910531282425,0.049470879137516
1769251877846,-0.01129150390625,-0.2592926025390625,-0.9657135009765624,0.0513169839978218,0.1791210174560547,0.0450670756399631
1769251877856,-0.0476226806640625,-0.2543487548828125,-0.951995849609375,0.0584595799446105,0.0784721747040748,0.0079969400539994
1769251877866,-0.0522003173828125,-0.243927001953125,-0.95758056640625,0.0611227415502071,0.0137030286714434,-0.0108236195519566
1769251877876,-0.040863037109375,-0.2478790283203125,-0.9685516357421876,0.0629627183079719,-0.0254068225622177,-0.0195276290178298
1769251877886,-0.018798828125,-0.2557220458984375,-0.9775543212890624,0.0701761618256568,-0.0266941953450441,-0.0192479975521564
1769251877896,0.0091400146484375,-0.252044677734375,-0.98248291015625,0.084026463329792,-0.0183342657983303,0.0001850896951509
1769251877906,0.02606201171875,-0.2530975341796875,-0.983978271484375,0.0983372256159782,-0.0292252637445926,0.0190336126834154
1769251877916,0.0186767578125,-0.25823974609375,-0.9775543212890624,0.1074934378266334,-0.0379583016037941,0.0237492714077234
1769251877926,0.006378173828125,-0.250579833984375,-0.9662628173828124,0.1042041629552841,-0.0676903650164604,0.0190674345940351
1769251877936,-0.0029449462890625,-0.2452850341796875,-0.95855712890625,0.0971704944968223,-0.072649173438549,0.0223343335092067
1769251877946,-0.00830078125,-0.248931884765625,-0.96881103515625,0.0972407981753349,-0.0051582767628133,0.0181241426616907
1769251877956,-0.0113983154296875,-0.2494049072265625,-0.9786834716796876,0.1068955585360527,0.0188570450991392,0.0220637563616037
1769251877966,0.0025482177734375,-0.2489471435546875,-0.985137939453125,0.1149462908506393,0.0111762220039963,0.0289163365960121
1769251877976,-0.0077056884765625,-0.2557373046875,-0.9694976806640624,0.1112988293170929,-0.012518455274403,0.0184285417199134
1769251877986,-0.015472412109375,-0.2619476318359375,-0.9523773193359376,0.1018813550472259,-0.0404126718640327,0.0050200587138533
1769251877996,-0.0259857177734375,-0.2667999267578125,-0.936370849609375,0.0841723978519439,-0.0537875965237617,-0.0145030422136187
1769251878006,-0.0228118896484375,-0.26776123046875,-0.9436187744140624,0.0794556736946106,-0.064278058707714,-0.0200613252818584
1769251878016,0.00408935546875,-0.259002685546875,-0.9668731689453124,0.0932596400380134,-0.0700451284646987,-0.0036724992096424
1769251878026,0.034393310546875,-0.257843017578125,-0.98974609375,0.1142845004796981,-0.0453312620520591,0.0256385188549757
1769251878036,0.0327606201171875,-0.2640380859375,-0.99407958984375,0.1285270899534225,-0.0107053751125931,0.0394472740590572
1769251878047,0.0176849365234375,-0.2681884765625,-0.98040771484375,0.1326315402984619,-0.0055521582253277,0.0455792024731636
1769251878057,-0.006591796875,-0.2630767822265625,-0.9518890380859376,0.1210702285170555,-0.03168735653162,0.0345992557704448
1769251878067,-0.0118255615234375,-0.27545166015625,-0.9292449951171876,0.1010208874940872,-0.0537039749324321,0.0345140360295772
1769251878077,0.003692626953125,-0.2873382568359375,-0.92022705078125,0.0681359097361564,-0.058748535811901,0.050193928182125
1769251878087,0.011444091796875,-0.28143310546875,-0.9309844970703124,0.0421746186912059,-0.0378112941980361,0.0707391500473022
1769251878097,0.0115509033203125,-0.261688232421875,-0.9374847412109376,0.0212240628898143,-0.0224166251718997,0.0901184380054473
1769251878107,0.005615234375,-0.2487640380859375,-0.9542236328125,0.0071652350015938,-0.0108854044228792,0.1022755056619644
1769251878117,-0.0088043212890625,-0.2544708251953125,-0.9534759521484376,-0.0114292223006486,-0.0857764258980751,0.1062942147254943
1769251878127,-0.026123046875,-0.2398834228515625,-0.9520416259765624,-0.0296942461282014,-0.1791290044784546,0.0954889729619026
1769251878137,-0.0580291748046875,-0.2657470703125,-0.937255859375,-0.0613166205585002,-0.2938238978385925,0.0663252249360084
1769251878147,-0.058013916015625,-0.274566650390625,-0.915924072265625,-0.0751315057277679,-0.347248762845993,0.0518892966210842
1769251878157,-0.012664794921875,-0.262847900390625,-0.9770355224609376,-0.054651528596878,0.020829115062952,0.0855769515037536
1769251878167,-0.0068511962890625,-0.29315185546875,-0.9825439453125,-0.0463850758969783,0.2154324203729629,0.0967960506677627
1769251878177,-0.0040130615234375,-0.2585601806640625,-0.9622039794921876,-0.0234818905591964,0.1721802800893783,0.1036824509501457
1769251878187,-0.0174102783203125,-0.2530670166015625,-0.97076416015625,-0.002640524180606,0.1878228932619094,0.1020174473524093
1769251878197,-0.0298614501953125,-0.2445068359375,-0.9636993408203124,-0.0015707324491813,0.1066353693604469,0.0997321829199791
1769251878207,-0.0240936279296875,-0.238861083984375,-0.9593353271484376,-0.011265704408288,0.0161491427570581,0.1054462641477584
1769251878217,-0.01995849609375,-0.2585296630859375,-0.9529266357421876,-0.0362938269972801,0.0173406414687633,0.1002901196479797
1769251878227,-0.030242919921875,-0.2668304443359375,-0.951568603515625,-0.049097504466772,0.0463126376271247,0.083156406879425
1769251878238,-0.031494140625,-0.26715087890625,-0.9530792236328124,-0.0526935718953609,0.053556703031063,0.0731735453009605
1769251878248,-0.038848876953125,-0.2667236328125,-0.9553070068359376,-0.0524006225168705,0.0572057664394378,0.0595472157001495
1769251878257,-0.040374755859375,-0.2608489990234375,-0.9636383056640624,-0.0398669876158237,0.0458878614008426,0.0475773736834526
1769251878268,-0.044219970703125,-0.2617645263671875,-0.972076416015625,-0.0290881097316741,0.0533383227884769,0.0327054820954799
1769251878278,-0.0457611083984375,-0.2656402587890625,-0.971221923828125,-0.0141826644539833,0.0336860567331314,0.0189659669995307
1769251878288,-0.03125,-0.2659454345703125,-0.9733428955078124,-0.0034264230635017,0.0041263019666075,0.0091058807447552
1769251878298,-0.0256195068359375,-0.2764434814453125,-0.972625732421875,0.0060262009501457,-0.0085705853998661,0.0004519384237937
1769251878308,-0.0144500732421875,-0.2767333984375,-0.9691619873046876,0.0121168503537774,0.0036511938087642,0.00104049697984
1769251878318,-0.0102996826171875,-0.2776031494140625,-0.969573974609375,0.0060698767192661,0.0458383299410343,0.0049372343346476
1769251878328,-0.009490966796875,-0.2659149169921875,-0.9644927978515624,-0.0009456885163672,0.0712006762623786,0.0186285451054573
1769251878338,-0.01214599609375,-0.262481689453125,-0.967010498046875,-0.0069809439592063,0.0794894993305206,0.0230909381061792
1769251878348,-0.014556884765625,-0.2624664306640625,-0.9689788818359376,-0.0115551892668008,0.0407016240060329,0.0257237385958433
1769251878358,-0.01947021484375,-0.2441864013671875,-0.9713287353515624,-0.0108063090592622,0.028995431959629,0.0192823521792888
1769251878368,-0.0303955078125,-0.2512969970703125,-0.9657440185546876,-0.0173259936273098,0.0422795452177524,0.0087420921772718
1769251878378,-0.05084228515625,-0.2606964111328125,-0.94647216796875,-0.0279040690511465,0.0034274882636964,-0.0132244592532515
1769251878388,-0.060028076171875,-0.257720947265625,-0.9371795654296876,-0.0323930941522121,-0.0240499414503574,-0.0365657359361648
1769251878398,-0.04669189453125,-0.253204345703125,-0.9473724365234376,-0.0234256982803344,-0.0295869205147027,-0.0427985973656177
1769251878408,-0.0249481201171875,-0.2472991943359375,-0.9601593017578124,-0.0155922751873731,-0.0021478394046425,-0.0396893545985221
1769251878418,-0.00933837890625,-0.2570343017578125,-0.959808349609375,-0.016834907233715,0.0159736406058073,-0.0373266004025936
1769251878428,0.0001678466796875,-0.2601776123046875,-0.9645843505859376,-0.009221994318068,0.0389372780919075,-0.0309129077941179
1769251878438,0.0072174072265625,-0.2662506103515625,-0.9670257568359376,-0.0117898136377334,0.0494772717356681,-0.0230824165046215
1769251878448,0.00592041015625,-0.259124755859375,-0.963714599609375,-0.0123376259580254,0.0096715353429317,-0.0208208598196506
1769251878458,-0.0048828125,-0.2561798095703125,-0.959564208984375,-0.0118334898725152,-0.0303589701652526,-0.0143517749384045
1769251878469,-0.004547119140625,-0.2561798095703125,-0.970428466796875,-0.004448277875781,-0.0215955730527639,0.0028924592770636
1769251878479,0.004302978515625,-0.2579345703125,-0.9723663330078124,0.0039273635484278,-0.018411498516798,0.0211577489972114
1769251878489,0.001007080078125,-0.253265380859375,-0.9688568115234376,0.0028328043408691,0.0165355671197175,0.0302873309701681
1769251878499,0.007476806640625,-0.255767822265625,-0.96417236328125,0.0050379019230604,0.0229543186724185,0.0473043993115425
1769251878509,0.0059967041015625,-0.258026123046875,-0.964385986328125,0.0057420413941144,0.0323851034045219,0.0571112222969532
1769251878519,0.0001678466796875,-0.2636260986328125,-0.9652862548828124,0.0058786617591977,0.06081248447299,0.0665332227945327
1769251878529,0.0004425048828125,-0.2675628662109375,-0.9579315185546876,0.002258094260469,0.0591757036745548,0.0716166645288467
1769251878539,-0.003631591796875,-0.2639617919921875,-0.9547576904296876,0.0022900521289557,0.0668400153517723,0.0738103091716766
1769251878549,-0.0009307861328125,-0.261932373046875,-0.9567413330078124,0.0006106628570705,0.0641084089875221,0.0807992443442344
1769251878559,-0.0079498291015625,-0.2567901611328125,-0.949066162109375,-0.0104603637009859,0.0169118717312812,0.0768551006913185
1769251878569,-0.01959228515625,-0.2571258544921875,-0.94891357421875,-0.0176849868148565,-0.0153888100758194,0.0710467472672462
1769251878579,-0.021697998046875,-0.2567901611328125,-0.958160400390625,-0.0212024897336959,0.0011206581257283,0.068228855729103
1769251878589,-0.01910400390625,-0.2498626708984375,-0.9679412841796876,-0.0171251911669969,0.0259197484701871,0.0718869715929031
1769251878599,-0.012420654296875,-0.2497711181640625,-0.9767303466796876,-0.012196478433907,0.0631576627492904,0.0747541338205337
1769251878609,-0.0149688720703125,-0.25634765625,-0.9694976806640624,-0.0085620628669857,0.0441970229148864,0.0683223307132721
1769251878619,-0.01483154296875,-0.2599029541015625,-0.9652099609375,-0.0013108078856021,0.0338333323597908,0.059185292571783
1769251878629,-0.019378662109375,-0.2616729736328125,-0.964508056640625,0.0044322991743683,0.0338493101298809,0.0539993196725845
1769251878639,-0.0167694091796875,-0.2682037353515625,-0.9637298583984376,0.0106904609128832,0.0236850883811712,0.0520581416785717
1769251878649,-0.0155487060546875,-0.2689666748046875,-0.96343994140625,0.0172974970191717,0.0210813172161579,0.0552358254790306
1769251878659,-0.0178070068359375,-0.2680816650390625,-0.96624755859375,0.0185694228857755,0.0266646333038806,0.052609946578741
1769251878669,-0.01885986328125,-0.2691802978515625,-0.97039794921875,0.0225423276424407,0.0316865555942058,0.0485329143702983
1769251878680,-0.02850341796875,-0.2683868408203125,-0.96954345703125,0.0245245173573493,0.0216701421886682,0.0400707200169563
1769251878690,-0.0344085693359375,-0.271575927734375,-0.9708404541015624,0.0285839736461639,0.0174226667732,0.0239154528826475
1769251878700,-0.0262298583984375,-0.277984619140625,-0.969207763671875,0.0295813269913196,0.013777065090835,0.0198336262255907
1769251878710,-0.0192413330078125,-0.2699432373046875,-0.9735107421875,0.0416840650141239,0.0186519809067249,0.0137480366975069
1769251878720,-0.02099609375,-0.2486572265625,-0.9702606201171876,0.0512839592993259,-0.004660265520215,0.0133933033794164
1769251878730,-0.017669677734375,-0.24652099609375,-0.9638519287109376,0.057414025068283,-0.0307224933058023,0.01590146869421
1769251878740,-0.0157470703125,-0.2577056884765625,-0.958221435546875,0.0551021322607994,-0.0259415861219167,0.0180093608796596
1769251878750,-0.0097808837890625,-0.2528076171875,-0.9601593017578124,0.0511729046702384,0.0074267573654651,0.0190237592905759
1769251878760,-0.0112762451171875,-0.2601318359375,-0.9525604248046876,0.0345201604068279,0.0258931163698434,0.0109154982492327
1769251878770,-0.01226806640625,-0.2842254638671875,-0.9378509521484376,0.0081639206036925,0.0349742285907268,0.0040938113816082
1769251878780,-0.005950927734375,-0.304901123046875,-0.9344635009765624,-0.0242419559508562,0.0528014302253723,0.0036855486687272
1769251878790,-0.003875732421875,-0.30450439453125,-0.9394683837890624,-0.0464985258877277,0.0763389766216278,0.0035872780717909
1769251878800,-0.0079803466796875,-0.2734375,-0.953521728515625,-0.0544416718184948,0.1064058020710945,0.0039864857681095
1769251878811,-0.018524169921875,-0.255706787109375,-0.956756591796875,-0.0651909857988357,0.1029500812292099,0.0016242619603872
1769251878820,-0.02337646484375,-0.2562713623046875,-0.955810546875,-0.0733828693628311,0.0750393569469451,0.0030008498579263
1769251878830,-0.02655029296875,-0.2584381103515625,-0.964324951171875,-0.0812913924455642,0.0734947249293327,-0.0043654534965753
1769251878840,-0.022918701171875,-0.26336669921875,-0.967376708984375,-0.0862502008676529,0.0738350749015808,-0.0029731530230492
1769251878850,-0.0087738037109375,-0.26995849609375,-0.9772491455078124,-0.0810322687029838,0.084037646651268,-0.0012788499007001
1769251878860,-0.001708984375,-0.263580322265625,-0.9856109619140624,-0.0702816173434257,0.0952777862548828,0.0005294363945722
1769251878871,0.005523681640625,-0.2642822265625,-0.9905242919921876,-0.0575362630188465,0.063719056546688,0.0001211738272104
1769251878880,0.0024566650390625,-0.263946533203125,-0.9915771484375,-0.0564504936337471,0.0593908876180648,-0.0048871668986976
1769251878890,-0.00164794921875,-0.2674102783203125,-0.9898681640625,-0.0558494180440902,0.0610266029834747,-0.0099208075553178
1769251878901,0.0036468505859375,-0.2822113037109375,-0.984222412109375,-0.0607770644128322,0.0466111786663532,-0.0111232250928878
1769251878911,3.0517578125e-05,-0.278900146484375,-0.97967529296875,-0.0605725347995758,0.0644354447722435,-0.0298068970441818
1769251878921,-0.00830078125,-0.2659149169921875,-0.9752960205078124,-0.0464593768119812,0.0539223551750183,-0.0552976094186306
1769251878931,-0.022247314453125,-0.2470855712890625,-0.972869873046875,-0.0208895690739154,0.0297863911837339,-0.0872989520430564
1769251878941,-0.0163421630859375,-0.2495880126953125,-0.9720458984375,-0.0002625876804813,0.0163605976849794,-0.0914838463068008
1769251878951,0.004547119140625,-0.2558441162109375,-0.970306396484375,0.0147584397345781,0.0012058793799951,-0.0739056468009948
1769251878961,0.0216064453125,-0.2660675048828125,-0.968353271484375,0.0187236201018095,0.0087780449539422,-0.0520759858191013
1769251878971,0.0290679931640625,-0.2834625244140625,-0.95977783203125,0.0150404684245586,0.037209153175354,-0.032645296305418
1769251878981,0.01971435546875,-0.2932586669921875,-0.9431610107421876,0.0066994479857385,0.0578268133103847,-0.0222597662359476
1769251878991,0.0101776123046875,-0.2954559326171875,-0.93133544921875,-0.0010162622202187,0.0897831469774246,-0.0131419012323021
1769251879001,-0.0076446533203125,-0.28936767578125,-0.9225311279296876,-0.013921407982707,0.112883411347866,-0.0081942798569798
1769251879011,-0.017181396484375,-0.2814483642578125,-0.9080810546875,-0.0296881198883056,0.072022795677185,-0.0090456930920481
1769251879021,-0.0180816650390625,-0.2700042724609375,-0.9065093994140624,-0.0444660000503063,0.028752552345395,-0.0109796803444623
1769251879031,-0.0255584716796875,-0.2596588134765625,-0.91180419921875,-0.0590231046080589,0.0296974424272775,-0.0223332680761814
1769251879041,-0.02093505859375,-0.262176513671875,-0.9185028076171876,-0.0817832797765731,0.0327675342559814,-0.0285003501921892
1769251879051,-0.0108489990234375,-0.2589111328125,-0.9239501953125,-0.1000576242804527,0.020477045327425,-0.0339244119822979
1769251879061,-0.0011444091796875,-0.252716064453125,-0.942962646484375,-0.1149305775761604,0.0203540083020925,-0.0337955132126808
1769251879071,0.00115966796875,-0.23883056640625,-0.966278076171875,-0.1160477772355079,0.0294090211391448,-0.0338570326566696
1769251879081,-0.0076446533203125,-0.2337646484375,-0.976837158203125,-0.1164139583706855,0.0258893873542547,-0.0360187217593193
1769251879091,0.000213623046875,-0.23956298828125,-0.9844207763671876,-0.1113853827118873,0.0094185350462794,-0.0299302022904157
1769251879101,-0.0057830810546875,-0.24365234375,-0.9854736328125,-0.1065645292401313,0.0048592034727334,-0.0397479459643363
1769251879112,-0.0072021484375,-0.2484283447265625,-0.976776123046875,-0.1037413105368614,0.0076720342040061,-0.0553727112710475
1769251879122,0.0003662109375,-0.25201416015625,-0.96435546875,-0.1031205281615257,-0.0006692523602396,-0.0607405789196491
1769251879132,0.0214691162109375,-0.2518463134765625,-0.961944580078125,-0.1005982458591461,-0.0291237961500883,-0.0514147207140922
1769251879142,0.025604248046875,-0.2423858642578125,-0.9655609130859376,-0.0946130603551864,-0.0029071066528558,-0.0435549356043338
1769251879152,0.0132598876953125,-0.2348785400390625,-0.9670867919921876,-0.0969672948122024,0.0296055618673563,-0.0497084334492683
1769251879162,-0.00164794921875,-0.2372589111328125,-0.957366943359375,-0.0964216142892837,0.0174804572016,-0.0551191791892051
1769251879172,-0.0051422119140625,-0.2404327392578125,-0.9568634033203124,-0.0871881619095802,-0.0109874038025736,-0.058475561439991
1769251879182,-0.00738525390625,-0.2339630126953125,-0.9680938720703124,-0.0713676586747169,-0.0144894607365131,-0.0653108283877372
1769251879192,0.0062408447265625,-0.228759765625,-0.98858642578125,-0.0434958115220069,-0.0221092961728572,-0.0513984747231006
1769251879202,0.0164031982421875,-0.237823486328125,-0.9939117431640624,-0.0147784138098359,-0.033696711063385,-0.0401444882154464
1769251879212,0.0251617431640625,-0.243560791015625,-0.9978790283203124,0.018787270411849,-0.0280755758285522,-0.0262305382639169
1769251879222,0.0230255126953125,-0.248199462890625,-0.985809326171875,0.0408976301550865,-0.0302971862256526,-0.024519458413124
1769251879232,0.0178680419921875,-0.24688720703125,-0.9676666259765624,0.0517401583492755,-0.0107602356001734,-0.0213473662734031
1769251879242,0.006805419921875,-0.2458648681640625,-0.947723388671875,0.0471059940755367,0.0037795582320541,-0.0271629113703966
1769251879252,-0.007568359375,-0.2430572509765625,-0.9318389892578124,0.0289757251739501,0.0223476495593786,-0.0356661193072795
1769251879262,-0.00408935546875,-0.243865966796875,-0.926910400390625,0.012532303109765,0.0105285411700606,-0.0338580980896949
1769251879272,0.004974365234375,-0.2419586181640625,-0.9306793212890624,-0.0046096653677523,0.007120493799448,-0.030229540541768
1769251879282,0.00067138671875,-0.24261474609375,-0.941436767578125,-0.0246411636471748,0.0221827998757362,-0.0327630080282688
1769251879292,0.009552001953125,-0.2472686767578125,-0.9458465576171876,-0.0430566556751728,0.0052240565419197,-0.0262766107916831
1769251879303,0.016754150390625,-0.2503814697265625,-0.9559478759765624,-0.0567538253962993,-0.0017078851815313,-0.0179568957537412
1769251879313,0.0216064453125,-0.2523040771484375,-0.9639892578125,-0.0659768879413604,-0.0224539097398519,-0.0104321343824267
1769251879323,0.0183563232421875,-0.249481201171875,-0.9687042236328124,-0.0730568990111351,-0.0231346134096384,-0.0036458675749599
1769251879333,0.0135650634765625,-0.251312255859375,-0.9711761474609376,-0.0764716044068336,-0.0015283881220966,-0.0042165829800069
1769251879343,0.0071258544921875,-0.2564697265625,-0.9662322998046876,-0.0862802937626838,0.0354341566562652,-0.0072145033627748
1769251879353,0.006866455078125,-0.2541351318359375,-0.9580841064453124,-0.0969811379909515,0.0317717790603637,-0.0023537017405033
1769251879363,0.00732421875,-0.2449188232421875,-0.9573516845703124,-0.1017977371811866,0.0244491510093212,0.0110443951562047
1769251879373,0.0098114013671875,-0.2407684326171875,-0.958038330078125,-0.1102055981755256,0.0440801084041595,0.0192538555711507
1769251879383,0.0100250244140625,-0.242218017578125,-0.962310791015625,-0.1151963621377945,0.0687196776270866,0.0291059538722038
1769251879393,0.019012451171875,-0.23284912109375,-0.9664154052734376,-0.1141257733106613,0.0547324866056442,0.0402062758803367
1769251879403,0.001220703125,-0.2221527099609375,-0.97332763671875,-0.1113518252968788,0.0516243129968643,0.0314577929675579
1769251879413,-0.0040740966796875,-0.2312469482421875,-0.97412109375,-0.1037194728851318,0.0427461303770542,0.0238856244832277
1769251879423,-0.0128631591796875,-0.2611846923828125,-0.9703369140625,-0.0969161614775657,0.0148729560896754,0.012703544460237
1769251879433,-0.0086517333984375,-0.2763824462890625,-0.9743804931640624,-0.080731064081192,-0.0054552191868424,0.0003403519804123
1769251879443,-3.0517578125e-05,-0.2532958984375,-0.9910888671875,-0.0511611886322498,0.0006732470938004,-0.003852528752759
1769251879453,0.004364013671875,-0.2344970703125,-1.0089111328125,-0.0143120940774679,-0.0131903700530529,0.0032264196779578
1769251879463,0.0107421875,-0.2416839599609375,-1.0170745849609375,0.0081660505384206,0.0042085936293005,0.0221388582140207
1769251879473,0.016876220703125,-0.2558441162109375,-1.0019989013671875,0.0160721763968467,0.0227604396641254,0.0383993200957775
1769251879483,0.011138916015625,-0.257476806640625,-0.98126220703125,0.0213937051594257,0.0163305029273033,0.037800908088684
1769251879493,-0.00244140625,-0.2379913330078125,-0.9787750244140624,0.0361135303974151,0.0433149822056293,0.0324415639042854
1769251879504,-0.00750732421875,-0.2244415283203125,-0.9833526611328124,0.0594369620084762,0.0607821233570575,0.0346431992948055
1769251879514,0.0008697509765625,-0.2209014892578125,-0.98583984375,0.0883727371692657,0.0508501306176185,0.0444944985210895
1769251879524,0.001678466796875,-0.2208099365234375,-0.977081298828125,0.1099195778369903,0.0299594961106777,0.0363899655640125
1769251879534,-0.013458251953125,-0.2091827392578125,-0.96368408203125,0.1109305098652839,0.0141922514885663,0.0083876261487603
1769251879544,-0.0063629150390625,-0.2083282470703125,-0.96319580078125,0.1111654043197631,0.0311584509909153,0.0113575831055641
1769251879554,0.0231781005859375,-0.221160888671875,-0.9673004150390624,0.1176864206790924,0.0406414344906806,0.0250970982015132
1769251879564,0.029693603515625,-0.2325286865234375,-0.9580230712890624,0.1104655265808105,0.045772548764944,0.0241157226264476
1769251879574,0.0230712890625,-0.2350006103515625,-0.9383697509765624,0.0828085988759994,0.029688386246562,0.0082355588674545
1769251879584,0.0087127685546875,-0.2330780029296875,-0.9192962646484376,0.044923797249794,0.0173049550503492,-0.0083335638046264
1769251879594,0.002960205078125,-0.2230377197265625,-0.9191131591796876,0.0195622500032186,0.0169925652444362,-0.0213612150400877
1769251879604,0.0138702392578125,-0.2105255126953125,-0.932525634765625,0.0095799230039119,0.0115485312417149,-0.0178101565688848
1769251879615,0.032257080078125,-0.20245361328125,-0.9460906982421876,0.0093239927664399,0.002542519941926,-0.0115147093310952
1769251879624,0.027923583984375,-0.2089080810546875,-0.9459381103515624,-0.0015739281661808,0.0292369816452264,-0.0256310608237981
1769251879634,0.024322509765625,-0.234893798828125,-0.93841552734375,-0.0306231565773487,0.0499686263501644,-0.0322258472442626
1769251879644,0.028717041015625,-0.243316650390625,-0.93585205078125,-0.0526237972080707,0.0411282628774642,-0.0176753997802734
1769251879654,0.0315399169921875,-0.25958251953125,-0.9359893798828124,-0.0826309621334075,0.0462335422635078,0.0187451913952827
1769251879664,0.0137481689453125,-0.269805908203125,-0.9307098388671876,-0.1228747889399528,0.0542696304619312,0.0358733125030994
1769251879674,-0.00518798828125,-0.2185821533203125,-0.9401092529296876,-0.1387325823307037,0.0729812681674957,0.034927625209093
1769251879684,-0.02911376953125,-0.16778564453125,-0.9569549560546876,-0.1447595804929733,0.0704193040728569,0.0209548156708478
1769251879694,-0.015869140625,-0.170013427734375,-0.9668731689453124,-0.1477745473384857,0.0207002181559801,0.0265823416411876
1769251879704,0.0044708251953125,-0.18914794921875,-0.977569580078125,-0.1397901177406311,-0.0087370323017239,0.0251572839915752
1769251879715,0.0299835205078125,-0.2405853271484375,-0.9785308837890624,-0.1394393891096115,0.0029752836562693,0.032320387661457
1769251879724,0.0508880615234375,-0.279083251953125,-0.975067138671875,-0.1407629698514938,0.0129592083394527,0.0389079861342906
1769251879735,0.04901123046875,-0.28997802734375,-0.97283935546875,-0.1435470432043075,0.0252393092960119,0.0409655421972274
1769251879745,0.032257080078125,-0.26824951171875,-0.9764251708984376,-0.1463542878627777,0.0220448486506938,0.0370861142873764
1769251879755,0.010040283203125,-0.2393035888671875,-0.984954833984375,-0.1480978578329086,0.0017361147329211,0.0245037451386451
1769251879765,-0.004547119140625,-0.21673583984375,-0.992095947265625,-0.148383617401123,-0.0061566955409944,0.0079141156747937
1769251879775,-0.0182647705078125,-0.2085418701171875,-0.99249267578125,-0.1449052542448043,0.0018402442801743,4.101268132217229e-05
1769251879785,-0.00213623046875,-0.2184906005859375,-0.9941253662109376,-0.1253363490104675,0.004709533881396,0.011528025381267
1769251879795,0.0059661865234375,-0.229644775390625,-0.996734619140625,-0.0866858959197998,0.0313312895596027,0.0176530294120311
1769251879805,0.002593994140625,-0.23834228515625,-0.993865966796875,-0.0785656496882438,0.0174530260264873,0.0113322827965021
1769251879815,0.002471923828125,-0.237518310546875,-0.9930877685546876,-0.0705487355589866,0.0001848233805503,0.0059636165387928
1769251879825,0.0052642822265625,-0.230255126953125,-0.9920654296875,-0.0603629425168037,-0.0095469001680612,0.0076419408433139
1769251879835,0.0131683349609375,-0.2198333740234375,-0.9957733154296876,-0.0448907762765884,-0.0318769738078117,0.0118428105488419
1769251879845,0.0128021240234375,-0.2105712890625,-0.9935760498046876,-0.0285149980336427,-0.0461192913353443,0.0079844230785965
1769251879855,-0.0031585693359375,-0.20758056640625,-0.987548828125,-0.0179180148988962,-0.053498912602663,-0.0064078317955136
1769251879865,-0.0139007568359375,-0.2102813720703125,-0.9757843017578124,-0.0145184891298413,-0.0626335516571998,-0.0156647134572267
1769251879875,-0.0094146728515625,-0.2184600830078125,-0.9690704345703124,-0.0119067272171378,-0.0628444775938987,-0.0194296240806579
1769251879885,-0.0030670166015625,-0.2241058349609375,-0.9693145751953124,-0.0066190203651785,-0.046786680817604,-0.0239599272608757
1769251879895,0.0052642822265625,-0.2303466796875,-0.9689178466796876,-0.0014575480017811,-0.0431538634002208,-0.0254654120653867
1769251879905,0.0013275146484375,-0.2288665771484375,-0.9720916748046876,0.0068528461270034,-0.0433290973305702,-0.0379926562309265
1769251879915,-0.0018768310546875,-0.21905517578125,-0.97650146484375,0.017461547628045,-0.0432702414691448,-0.0439709201455116
1769251879926,0.00177001953125,-0.2108154296875,-0.9781036376953124,0.0255650151520967,-0.0527281910181045,-0.0420379973948001
1769251879936,0.00946044921875,-0.2103424072265625,-0.9773101806640624,0.0262558385729789,-0.0536208823323249,-0.0354155153036117
1769251879946,0.0066986083984375,-0.2146759033203125,-0.9759368896484376,0.0232555214315652,-0.0421759486198425,-0.0285221878439188
1769251879956,0.0090484619140625,-0.2178192138671875,-0.968780517578125,0.0124737136065959,-0.0404981561005115,-0.0240307673811912
1769251879966,0.0139312744140625,-0.217437744140625,-0.968292236328125,0.0112614426761865,-0.0460726879537105,-0.0107762152329087
1769251879976,0.0192108154296875,-0.2209625244140625,-0.969329833984375,0.0080755036324262,-0.0298622921109199,-0.0029891319572925
1769251879986,0.011962890625,-0.2332916259765625,-0.963134765625,-0.0002942793071269,-0.0118694426491856,-0.0057183392345905
1769251879996,0.00946044921875,-0.230010986328125,-0.9633026123046876,-0.0054482948035001,-0.0262177549302577,0.0004511394945438
1769251880006,1.52587890625e-05,-0.21380615234375,-0.969085693359375,0.000850879936479,-0.0235838890075683,0.0002047970920102
1769251880016,-0.0019683837890625,-0.2136077880859375,-0.968902587890625,-0.003155313199386,-0.0121685154736042,0.0064746770076453
1769251880026,0.0086669921875,-0.218505859375,-0.96380615234375,-0.0035926043055951,-0.0535548366606235,0.0190301500260829
1769251880036,0.019500732421875,-0.2197113037109375,-0.9727935791015624,-0.0066408584825694,-0.0677731856703758,0.0261157564818859
1769251880046,0.011505126953125,-0.2158660888671875,-0.9794464111328124,-0.0164615307003259,0.0008796420879662,0.0211574826389551
1769251880056,0.006500244140625,-0.2292022705078125,-0.97137451171875,-0.032533973455429,0.0224669594317674,0.0169930979609489
1769251880066,0.0100555419921875,-0.2512664794921875,-0.9608154296875,-0.0451941080391407,-0.0016988303977996,0.0156479347497224
1769251880076,0.0205535888671875,-0.2523040771484375,-0.968505859375,-0.0423317439854145,-0.0102611593902111,0.0138226049020886
1769251880086,0.009185791015625,-0.225311279296875,-0.9776458740234376,-0.0319379605352878,-0.0381591022014617,-0.0033401367254555
1769251880096,-0.0234375,-0.2010650634765625,-0.9891204833984376,-0.0189167000353336,0.006426740437746,-0.0313853546977043
1769251880106,-0.02740478515625,-0.199859619140625,-0.9915313720703124,-0.0150175653398036,0.0629360899329185,-0.0298074297606945
1769251880116,-0.001983642578125,-0.2063140869140625,-0.97906494140625,-0.010283263400197,0.0302934572100639,-0.0165355671197175
1769251880126,0.0214996337890625,-0.218719482421875,-0.9799957275390624,-0.0078861527144908,0.0321699194610118,-0.0060262009501457
1769251880137,0.0229644775390625,-0.2351226806640625,-0.985809326171875,-0.007220628671348,0.0837577506899833,-0.006686398293823
1769251880147,0.0218963623046875,-0.230133056640625,-0.9800262451171876,-0.001938514993526,0.0970362648367881,-0.0056088836863636
1769251880157,0.0301361083984375,-0.227020263671875,-0.9761199951171876,0.0041651837527751,0.0622468627989292,0.0050711911171674
1769251880167,0.0201568603515625,-0.22674560546875,-0.97027587890625,0.0103437174111604,0.0293738674372434,0.0040219058282673
1769251880177,-0.010986328125,-0.220947265625,-0.9565582275390624,-0.0054909056052565,0.04138845205307,-0.019221631810069
1769251880187,-0.0313262939453125,-0.220794677734375,-0.941070556640625,-0.0243178568780422,0.0380781441926956,-0.038100779056549
1769251880197,-0.0252532958984375,-0.216705322265625,-0.945281982421875,-0.0303488504141569,0.0805981755256652,-0.0395061299204826
1769251880207,-0.0040740966796875,-0.220062255859375,-0.957305908203125,-0.0308596454560756,0.0801188051700592,-0.034479945898056
1769251880217,0.0295562744140625,-0.222747802734375,-0.9671478271484376,-0.0242379624396562,0.0082861594855785,-0.0154553893953561
1769251880227,0.0542144775390625,-0.2274627685546875,-0.98486328125,-0.0154825532808899,-0.0345052480697631,-0.0076043899171054
1769251880237,0.04534912109375,-0.23370361328125,-0.9892578125,-0.0231154393404722,-0.0396832302212715,-0.0123046031221747
1769251880247,0.0211944580078125,-0.2307891845703125,-0.96759033203125,-0.0541657656431198,-0.034429345279932,-0.0217532329261302
1769251880257,0.01165771484375,-0.2215423583984375,-0.9484710693359376,-0.0825803652405738,-0.0652825981378555,-0.0102526377886533
1769251880267,0.0186004638671875,-0.2152252197265625,-0.950927734375,-0.0997263267636299,-0.0966916531324386,0.0149927977472543
1769251880277,0.0143890380859375,-0.198760986328125,-0.970001220703125,-0.1007724180817604,-0.0330623462796211,0.0296313948929309
1769251880287,-0.0062713623046875,-0.2122802734375,-0.9838409423828124,-0.1120274662971496,0.0623805522918701,0.0273258965462446
1769251880297,-0.0165863037109375,-0.218475341796875,-0.96453857421875,-0.116827018558979,0.0147046437487006,0.0134303215891122
1769251880307,-0.0124664306640625,-0.2129058837890625,-0.9645538330078124,-0.0977955386042594,-0.0474822968244552,-0.0042839609086513
1769251880317,-0.003631591796875,-0.213531494140625,-0.98480224609375,-0.0716646015644073,-0.0669958144426345,-0.0183853991329669
1769251880327,0.0095672607421875,-0.213531494140625,-0.9910888671875,-0.0514259077608585,-0.0779872089624404,-0.0251423716545104
1769251880338,0.0257415771484375,-0.2156524658203125,-0.990966796875,-0.0382597707211971,-0.0918015614151954,-0.016539828851819
1769251880348,0.0302276611328125,-0.2223052978515625,-0.9830780029296876,-0.0358312353491783,-0.1087792143225669,-0.0089556779712438
1769251880358,0.012359619140625,-0.2220306396484375,-0.9710540771484376,-0.0475914888083934,-0.0691641569137573,-0.0127735855057835
1769251880368,-0.004913330078125,-0.2158203125,-0.9628143310546876,-0.0624324865639209,0.0134060867130756,-0.0147808101028203
1769251880378,-0.0047149658203125,-0.1982269287109375,-0.9735107421875,-0.0575349330902099,0.0229702964425086,-4.447478931979276e-05
1769251880388,0.0157928466796875,-0.1837310791015625,-1.0027008056640625,-0.0354200415313243,0.036905288696289,0.0252872463315725
1769251880398,0.0190277099609375,-0.1970672607421875,-1.0116424560546875,-0.0185531787574291,0.0510259009897708,0.0302255470305681
1769251880408,0.0094146728515625,-0.2133941650390625,-1.0060882568359375,0.0008138620178215,0.066122829914093,0.0208477582782506
1769251880418,-0.001983642578125,-0.226226806640625,-0.9925537109375,0.0137344542890787,0.0570694096386432,0.0073668360710144
1769251880428,-0.0065155029296875,-0.2331390380859375,-0.9859161376953124,0.0206714570522308,0.0922324582934379,-0.0009110674145631
1769251880438,0.01239013671875,-0.2307281494140625,-0.9864501953125,0.0262406580150127,0.1064050048589706,0.0144234141334891
1769251880448,0.025543212890625,-0.2241973876953125,-0.9838714599609376,0.0234683081507682,0.1109358370304107,0.0274436082690954
1769251880458,0.01751708984375,-0.2123870849609375,-0.976806640625,0.0102411862462759,0.1251909434795379,0.0278113912791013
1769251880468,0.0001068115234375,-0.2015838623046875,-0.970428466796875,-0.0014735270524397,0.1070982217788696,0.0176144130527973
1769251880478,-0.018585205078125,-0.1939849853515625,-0.9619903564453124,-0.0140905184671282,0.0609323270618915,-0.0026450515724718
1769251880488,-0.036346435546875,-0.1933441162109375,-0.959136962890625,-0.0155595187097787,0.0094169378280639,-0.023429425433278
1769251880498,-0.0058135986328125,-0.2043304443359375,-0.984283447265625,0.0058046258054673,0.0147818755358457,-0.0102699482813477
1769251880508,-0.0036163330078125,-0.2129669189453125,-0.99658203125,0.026895796880126,0.0246086735278368,-0.0248685982078313
1769251880518,0.0098724365234375,-0.2129669189453125,-1.0020904541015625,0.0474652536213398,0.0262451861053705,-0.0310676377266645
1769251880528,0.0150146484375,-0.2104034423828125,-0.9953460693359376,0.0591314956545829,0.0173824522644281,-0.0325555466115474
1769251880538,0.0198211669921875,-0.20550537109375,-0.98602294921875,0.0643805861473083,0.0053060823120176,-0.0292755961418151
1769251880548,0.016632080078125,-0.2057037353515625,-0.9784698486328124,0.0609645508229732,0.0269075147807598,-0.0278318971395492
1769251880559,0.019500732421875,-0.2015228271484375,-0.969390869140625,0.0601344443857669,0.0132100777700543,-0.0214240662753582
1769251880569,0.01483154296875,-0.1981964111328125,-0.968292236328125,0.0555186532437801,-0.0004213120846543,-0.0214483011513948
1769251880579,0.00946044921875,-0.206512451171875,-0.9666595458984376,0.0443237870931625,0.0014080132823437,-0.0232792235910892
1769251880589,0.0137786865234375,-0.2099151611328125,-0.958709716796875,0.0339390598237514,-0.0146263465285301,-0.0198336262255907
1769251880599,0.0211181640625,-0.210479736328125,-0.95294189453125,0.0199055317789316,-0.0532195456326007,-0.0112878084182739
1769251880609,0.0289459228515625,-0.2143402099609375,-0.9596099853515624,0.0145986499264836,-0.0537417903542518,0.000140082265716
1769251880619,0.037933349609375,-0.2152557373046875,-0.97003173828125,0.0122787700966,-0.0482405014336109,0.0204741153866052
1769251880629,0.042388916015625,-0.2127532958984375,-0.9655609130859376,0.0062901200726628,-0.0423088409006595,0.0400558076798915
1769251880639,0.027313232421875,-0.2111053466796875,-0.96978759765625,0.0026264095213264,0.037210751324892,0.0486226640641689
1769251880649,0.002593994140625,-0.21380615234375,-0.9593963623046876,-0.0157038625329732,0.0591083280742168,0.0469954721629619
1769251880659,-0.0056610107421875,-0.217193603515625,-0.948516845703125,-0.0277482736855745,0.0417639575898647,0.0396491438150405
1769251880669,-0.0040435791015625,-0.2164154052734375,-0.9547882080078124,-0.0363137982785701,0.0353302918374538,0.0313997343182563
1769251880679,0.00347900390625,-0.2078094482421875,-0.96466064453125,-0.0410326533019542,-0.0131749240681529,0.0225559081882238
1769251880689,0.007171630859375,-0.2105712890625,-0.970062255859375,-0.0454345941543579,-0.0322562083601951,0.0133696012198925
1769251880699,0.00787353515625,-0.2229766845703125,-0.9734344482421876,-0.0549423433840274,-0.0204307064414024,0.0016125440597534
1769251880710,0.0081329345703125,-0.215179443359375,-0.96875,-0.0610276684165,-0.0278683826327323,-0.0034730283077806
1769251880719,0.00811767578125,-0.199066162109375,-0.975006103515625,-0.0530962422490119,-0.0387993268668651,-0.0010801780736073
1769251880729,0.009796142578125,-0.193817138671875,-0.9853515625,-0.0470335558056831,-0.0313475355505943,0.0136747993528842
1769251880740,0.0043487548828125,-0.204986572265625,-0.9862213134765624,-0.0444572120904922,-0.016810405999422,0.0129131358116865
1769251880749,0.0113525390625,-0.1978912353515625,-0.9861297607421876,-0.0349156409502029,-0.0237697772681713,0.0117474701255559
1769251880759,0.0087432861328125,-0.2079620361328125,-0.9901275634765624,-0.0273858178406953,-0.0204464197158813,0.0006008091149851
1769251880769,0.008056640625,-0.2349090576171875,-0.9902496337890624,-0.021362280473113,-0.0051942295394837,-0.0068520470522344
1769251880780,0.0196533203125,-0.243743896484375,-0.9954681396484376,-0.0111400028690695,0.0027297399938106,-0.0100960433483123
1769251880790,0.0184173583984375,-0.2390899658203125,-0.99481201171875,0.0013137373607605,0.0122374910861253,-0.0146034434437751
1769251880800,0.0154266357421875,-0.2158966064453125,-1.0001220703125,0.0310655068606138,0.0167736541479825,-0.0134281907230615
1769251880810,0.0082244873046875,-0.1963653564453125,-1.011993408203125,0.0659057796001434,0.0152007909491658,-0.0095202680677175
1769251880820,0.0064849853515625,-0.1866455078125,-1.0113067626953125,0.0968479812145233,-0.0067758806981146,0.004349741153419
1769251880830,-0.00018310546875,-0.1926116943359375,-1.0125885009765625,0.1239539012312889,0.0355734415352344,0.0078256987035274
1769251880840,0.0011749267578125,-0.202972412109375,-0.993316650390625,0.1329718977212906,0.0729959160089492,0.0144838681444525
1769251880850,0.0080413818359375,-0.2191162109375,-0.9657440185546876,0.1341692507266998,0.0476809702813625,0.0161315649747848
1769251880860,0.0090179443359375,-0.2263336181640625,-0.951202392578125,0.1307942271232605,0.0599610731005668,0.0124212494120001
1769251880870,0.0162200927734375,-0.2267608642578125,-0.9463653564453124,0.1190664693713188,0.0600731894373893,0.0121858259662985
1769251880880,0.020599365234375,-0.2240142822265625,-0.946136474609375,0.1068609356880188,0.0368408374488353,0.0159257035702466
1769251880890,0.010467529296875,-0.2267608642578125,-0.947174072265625,0.0842783972620964,0.0348961986601352,0.0120928818359971
1769251880900,0.000396728515625,-0.2209320068359375,-0.9385986328125,0.055051002651453,0.0170484911650419,0.0014897723449394
1769251880910,-0.0098419189453125,-0.2162933349609375,-0.9316558837890624,0.0253397114574909,0.0034362766891717,-0.0124710509553551
1769251880920,-0.00653076171875,-0.2148284912109375,-0.9342193603515624,-0.0048687909729778,0.0168847069144248,-0.0219899881631135
1769251880930,0.0030364990234375,-0.2100677490234375,-0.9421844482421876,-0.0273575875908136,0.0229777544736862,-0.0233178399503231
1769251880940,0.0091400146484375,-0.2080078125,-0.955841064453125,-0.0462857410311698,0.0432936772704124,-0.0236725732684135
1769251880950,0.020355224609375,-0.21038818359375,-0.9676513671875,-0.0605099499225616,0.0533883906900882,-0.0125056719407439
1769251880960,0.0303497314453125,-0.2198638916015625,-0.9802093505859376,-0.0579490549862384,0.0748707801103591,-0.0042128544300794
1769251880971,0.0228729248046875,-0.230224609375,-0.9935455322265624,-0.0566464997828006,0.1503162682056427,-0.0090281162410974
1769251880981,0.01544189453125,-0.2272186279296875,-0.9894561767578124,-0.0529950410127639,0.2119540721178054,-0.0056099486537277
1769251880991,0.0160675048828125,-0.23101806640625,-0.9813079833984376,-0.0540049113333225,0.241128459572792,0.0019126823171973
1769251881001,0.008392333984375,-0.2317962646484375,-0.9736480712890624,-0.056252621114254,0.2377012372016906,0.0025449167005717
1769251881011,0.0044403076171875,-0.2240753173828125,-0.97186279296875,-0.055935438722372,0.1911750137805938,-0.0049755838699638
1769251881021,0.0152740478515625,-0.2111053466796875,-0.9726104736328124,-0.0450606867671012,0.1212851479649543,-0.0071937306784093
1769251881031,0.0275726318359375,-0.2099761962890625,-0.980682373046875,-0.0288108754903078,0.0697902664542198,-0.0038671761285513
1769251881041,0.0389404296875,-0.219573974609375,-0.9828948974609376,-0.0156207708641886,0.018629876896739,-0.0022642195690423
1769251881051,0.033782958984375,-0.2265777587890625,-0.9753570556640624,-0.0105815380811691,-0.0418659560382366,-0.0165038760751485
1769251881061,0.0276336669921875,-0.219879150390625,-0.970703125,-0.0110534504055976,-0.0354775674641132,-0.0252989642322063
1769251881071,0.03094482421875,-0.2137908935546875,-0.970001220703125,-0.0136036928743124,-0.0324809774756431,-0.0190312154591083
1769251881081,0.0322265625,-0.21368408203125,-0.97161865234375,-0.0155789600685238,-0.0312503315508365,-0.0092105427756905
1769251881091,0.02960205078125,-0.2168121337890625,-0.9737548828125,-0.0205215197056531,-0.0305347386747598,-0.0042839609086513
1769251881101,0.0193328857421875,-0.2216033935546875,-0.973236083984375,-0.0260228123515844,-0.0318364910781383,-0.0104124275967478
1769251881111,0.0162811279296875,-0.22021484375,-0.97430419921875,-0.0297046322375535,0.0041340249590575,-0.013547234237194
1769251881121,0.01239013671875,-0.2240447998046875,-0.9763031005859376,-0.035057321190834,0.023234749212861,-0.017565144225955
1769251881132,0.0057830810546875,-0.2202301025390625,-0.9656829833984376,-0.0410635471343994,-0.011488078162074,-0.0269301515072584
1769251881141,0.006103515625,-0.2193145751953125,-0.964630126953125,-0.0445365756750106,-0.0485395714640617,-0.0353033952414989
1769251881151,0.0029296875,-0.217376708984375,-0.9669342041015624,-0.0473520681262016,-0.0747304335236549,-0.0423671640455722
1769251881161,0.006439208984375,-0.216827392578125,-0.9716033935546876,-0.0514794364571571,-0.1008408591151237,-0.0519215203821659
1769251881172,0.011505126953125,-0.2211151123046875,-0.9800567626953124,-0.0569820590317249,-0.0743003264069557,-0.0626298263669014
1769251881181,0.013824462890625,-0.2171783447265625,-0.977752685546875,-0.0538294091820716,-0.0813736841082573,-0.0738276168704032
1769251881192,0.0214385986328125,-0.2052001953125,-0.9859161376953124,-0.0410406440496444,-0.0928279384970665,-0.0811339989304542
1769251881202,0.0299072265625,-0.209808349609375,-0.9906768798828124,-0.0227812118828296,-0.0873615369200706,-0.0798160061240196
1769251881212,0.0377349853515625,-0.210052490234375,-0.9935150146484376,-0.0081162499263882,-0.0898185670375824,-0.0806770026683807
1769251881222,0.0404052734375,-0.20989990234375,-0.997406005859375,0.0065551046282052,-0.0597858354449272,-0.0765869170427322
1769251881232,0.03997802734375,-0.213775634765625,-0.996063232421875,0.0146646965295076,-0.0301067698746919,-0.0666496008634567
1769251881242,0.0356903076171875,-0.21038818359375,-0.9888916015625,0.0238592606037855,-0.0427083149552345,-0.0558374337852001
1769251881252,0.0249481201171875,-0.20526123046875,-0.9844207763671876,0.0336644873023033,-0.0259152203798294,-0.0494751408696174
1769251881262,0.018096923828125,-0.204193115234375,-0.9855804443359376,0.049034122377634,0.0112550510093569,-0.047225035727024
1769251881272,0.0200653076171875,-0.2055511474609375,-0.973602294921875,0.0622865445911884,0.004317516926676,-0.0407679341733455
1769251881282,0.0203857421875,-0.208526611328125,-0.972686767578125,0.0701231583952903,0.002273274352774,-0.0412044264376163
1769251881292,0.0170135498046875,-0.2118377685546875,-0.972625732421875,0.0714504793286323,0.0199516043066978,-0.049862366169691
1769251881302,0.0184173583984375,-0.2121124267578125,-0.974029541015625,0.079085499048233,0.0301326029002666,-0.0475376918911933
1769251881312,0.0271148681640625,-0.2071380615234375,-0.979736328125,0.0864523351192474,0.0551506020128726,-0.0348977968096733
1769251881322,0.0252838134765625,-0.2070770263671875,-0.9874114990234376,0.0983550623059272,0.0688110217452049,-0.0316655188798904
1769251881332,0.0197601318359375,-0.2029266357421875,-0.9926605224609376,0.1054918020963668,0.0769885256886482,-0.0328831151127815
1769251881342,0.012481689453125,-0.2045745849609375,-0.99603271484375,0.1158416494727134,0.0945810973644256,-0.0350738316774368
1769251881352,0.0105743408203125,-0.2118682861328125,-0.991546630859375,0.1256940066814422,0.1007132977247238,-0.0375345908105373
1769251881362,0.0099945068359375,-0.2173614501953125,-0.975860595703125,0.1300203204154968,0.062171496450901,-0.0486218631267547
1769251881372,0.011199951171875,-0.2256927490234375,-0.9622955322265624,0.1283230781555175,0.0318159870803356,-0.0633512735366821
1769251881382,0.016815185546875,-0.2323760986328125,-0.9499664306640624,0.1205237507820129,0.0024562333710491,-0.0701641738414764
1769251881392,0.0215301513671875,-0.224609375,-0.9381103515625,0.1112777888774871,-0.0693591013550758,-0.0710211768746376
1769251881403,0.0301361083984375,-0.2093353271484375,-0.938690185546875,0.1054105758666992,-0.1090388670563697,-0.0640831142663955
1769251881413,0.031707763671875,-0.1945037841796875,-0.954071044921875,0.0987153947353363,-0.0759794563055038,-0.0535186193883419
1769251881423,0.0364227294921875,-0.1957855224609375,-0.9542083740234376,0.0855567157268524,-0.0497097671031951,-0.0391806922852993
1769251881433,0.035552978515625,-0.2083740234375,-0.9436187744140624,0.0640080124139785,-0.0513279028236866,-0.0358141884207725
1769251881443,0.0293426513671875,-0.215576171875,-0.9380645751953124,0.039552204310894,-0.0475235767662525,-0.0387226268649101
1769251881453,0.0292510986328125,-0.235626220703125,-0.9422454833984376,0.0138191431760787,-0.0315150506794452,-0.0347904711961746
1769251881463,0.0228729248046875,-0.251434326171875,-0.94873046875,-0.0106403939425945,0.0024549018125981,-0.0317209102213382
1769251881473,0.0224456787109375,-0.238037109375,-0.9579620361328124,-0.0218251384794712,0.0180916525423526,-0.0268182978034019
1769251881483,0.01483154296875,-0.2151336669921875,-0.9622802734375,-0.0280702505260705,0.0038205708842724,-0.0255242679268121
1769251881493,-0.0017242431640625,-0.202789306640625,-0.957550048828125,-0.0364693291485309,-0.033059149980545,-0.0281546730548143
1769251881503,0.0036163330078125,-0.20074462890625,-0.95556640625,-0.0436779707670211,-0.0695705562829971,-0.023207850754261
1769251881513,0.0182952880859375,-0.2136383056640625,-0.9537811279296876,-0.0551487393677234,-0.0923576280474662,-0.0160588603466749
1769251881523,0.031097412109375,-0.2242431640625,-0.95025634765625,-0.0723607465624809,-0.0611464455723762,-0.0150908017531037
1769251881533,0.0413055419921875,-0.2290191650390625,-0.9441986083984376,-0.09268519282341,-0.0480988211929798,-0.0048291101120412
1769251881543,0.0509490966796875,-0.2270355224609375,-0.9466552734375,-0.1052382737398147,-0.0646418407559394,0.0090723242610692
1769251881553,0.0421905517578125,-0.224884033203125,-0.957489013671875,-0.1126029789447784,-0.0535428524017334,0.0139882536605
1769251881563,0.0157012939453125,-0.2223052978515625,-0.9647064208984376,-0.123679332435131,-0.0171446315944194,0.0117405457422137
1769251881573,0.01043701171875,-0.212738037109375,-0.9644622802734376,-0.1308355033397674,-0.012313125655055,0.0225367341190576
1769251881583,0.017669677734375,-0.2153167724609375,-0.968597412109375,-0.1308757215738296,-0.037581730633974,0.0333979055285453
1769251881593,0.0220947265625,-0.219329833984375,-0.9742889404296876,-0.1219669207930564,-0.0608361847698688,0.0393857546150684
1769251881604,0.033355712890625,-0.21875,-0.9837188720703124,-0.0999159440398216,-0.1316858530044555,0.0444393716752529
1769251881614,0.0364837646484375,-0.21441650390625,-0.9971771240234376,-0.0739663690328598,-0.2768220007419586,0.0449115484952926
1769251881624,-0.01324462890625,-0.214569091796875,-1.0055694580078125,-0.0662115141749382,-0.1264444887638092,0.0038133803755044
1769251881634,-0.045135498046875,-0.2082977294921875,-1.0214385986328125,-0.0678184628486633,0.1513538360595703,-0.004407531581819
1769251881644,-0.009307861328125,-0.206085205078125,-0.9894561767578124,-0.0487752631306648,0.0346791520714759,0.0146266128867864
1769251881654,0.018157958984375,-0.2133026123046875,-0.992034912109375,-0.0109447930008172,-0.0088669946417212,0.021313278004527
1769251881664,0.0365753173828125,-0.2250213623046875,-1.01129150390625,0.0223311390727758,0.020053869113326,0.0167707242071628
1769251881674,0.051422119140625,-0.2214508056640625,-1.0093841552734375,0.0532504394650459,0.0170413013547658,0.0250166691839694
1769251881684,0.046783447265625,-0.2174224853515625,-1.003448486328125,0.0776591077446937,0.0270864777266979,0.0321353003382682
1769251881694,0.0338134765625,-0.214813232421875,-0.996917724609375,0.0972314774990081,0.016245549544692,0.0383559092879295
1769251881704,0.0122222900390625,-0.206451416015625,-0.992828369140625,0.1098069250583648,0.0454274043440818,0.0416875258088111
1769251881714,-0.003753662109375,-0.2006683349609375,-0.9893798828125,0.1091270223259925,0.1020624488592147,0.0423021838068962
1769251881724,-0.0165863037109375,-0.2021636962890625,-0.9753570556640624,0.1048736870288848,0.065623752772808,0.0329787209630012
1769251881734,-0.0161895751953125,-0.21099853515625,-0.96875,0.1001740023493766,0.0328948311507701,0.0171179994940757
1769251881744,-0.021270751953125,-0.2230987548828125,-0.9631500244140624,0.0936545878648758,0.0516288392245769,-0.0140175484120845
1769251881754,-0.0289154052734375,-0.2322845458984375,-0.95037841796875,0.0753719881176948,0.0419370643794536,-0.0518703870475292
1769251881764,-0.034637451171875,-0.231048583984375,-0.92498779296875,0.0472242385149002,-0.0347862094640731,-0.0878819152712822
1769251881774,-0.0190277099609375,-0.233184814453125,-0.9275665283203124,0.0236757677048444,-0.0545031875371933,-0.1023524701595306
1769251881784,0.00726318359375,-0.23553466796875,-0.938934326171875,0.0023441144730895,-0.0580502524971962,-0.0988392308354377
1769251881794,0.0331878662109375,-0.2284698486328125,-0.95257568359375,-0.0139821283519268,-0.0507513284683227,-0.0798434317111969
1769251881805,0.0461273193359375,-0.21600341796875,-0.9618682861328124,-0.0241082664579153,-0.0501057766377925,-0.0575663559138774
1769251881815,0.0356903076171875,-0.2077484130859375,-0.9707183837890624,-0.0355398841202259,-0.0346815474331378,-0.0464125052094459
1769251881825,0.0209503173828125,-0.207794189453125,-0.97607421875,-0.0373990386724472,-0.0230675023049116,-0.0325302444398403
1769251881835,0.01190185546875,-0.213348388671875,-0.9741668701171876,-0.035688754171133,-0.0640458315610885,-0.0231402069330215
1769251881845,0.0127410888671875,-0.2169952392578125,-0.9791717529296876,-0.0256302617490291,-0.0787821635603904,-0.0166990850120782
1769251881855,0.0155029296875,-0.2276763916015625,-0.9847564697265624,-0.0177020318806171,-0.0790154561400413,-0.010024138726294
1769251881865,0.0161285400390625,-0.2350616455078125,-0.9770050048828124,-0.0133512252941727,-0.085367627441883,-0.0112878084182739
1769251881875,0.0174713134765625,-0.2317047119140625,-0.9713592529296876,-0.0088139977306127,-0.0536642931401729,-0.007743140682578
1769251881885,0.0124969482421875,-0.225830078125,-0.966949462890625,-0.0109181618317961,-0.0002870887692552,-0.0076944050379097
1769251881895,0.013946533203125,-0.21929931640625,-0.9656524658203124,-0.0157850887626409,0.0298513732850551,0.0045638591982424
1769251881905,0.0261993408203125,-0.2141876220703125,-0.970123291015625,-0.0121493404731154,0.0520365685224533,0.0255226697772741
1769251881915,0.037261962890625,-0.2156219482421875,-0.9811553955078124,-0.0046370960772037,0.0860592499375343,0.0506738312542438
1769251881925,0.03704833984375,-0.2151641845703125,-0.98651123046875,0.001153415068984,0.1107829734683036,0.0648335888981819
1769251881935,0.0261993408203125,-0.213470458984375,-0.980224609375,0.0030905983876436,0.1292306929826736,0.07200787961483
1769251881945,0.012451171875,-0.2180023193359375,-0.9811553955078124,0.0057705375365912,0.1575075984001159,0.0734401270747184
1769251881955,0.0023345947265625,-0.216705322265625,-0.976043701171875,0.0089013492688536,0.1054654419422149,0.0717913657426834
1769251881965,-0.0042266845703125,-0.2229156494140625,-0.9734039306640624,0.0073394053615629,0.0283083375543355,0.0571138858795166
1769251881975,-0.004425048828125,-0.2271728515625,-0.97418212890625,0.0077125146053731,-0.0222674887627363,0.0415503717958927
1769251881985,0.00201416015625,-0.2299346923828125,-0.9775543212890624,0.0108380001038312,-0.0362275131046772,0.0361835695803165
1769251881995,0.0107421875,-0.2252960205078125,-0.9749755859375,0.0135983666405081,-0.0354938134551048,0.0369415059685707
1769251882006,0.017242431640625,-0.22210693359375,-0.97210693359375,0.0119996713474392,-0.0157627183943986,0.0407013557851314
1769251882015,0.0108489990234375,-0.224029541015625,-0.962066650390625,-0.004334561061114,-0.004071706905961,0.0392043925821781
1769251882026,0.001220703125,-0.2211456298828125,-0.9557952880859376,-0.02861406840384,0.0081378212198615,0.0323928259313106
1769251882036,0.001953125,-0.237518310546875,-0.9535675048828124,-0.0545687042176723,0.0096984338015317,0.0298822652548551
1769251882046,0.0091705322265625,-0.2357635498046875,-0.9549407958984376,-0.0647675469517707,0.0103961816057562,0.0348900742828846
1769251882056,0.015960693359375,-0.2237701416015625,-0.9600067138671876,-0.0586366802453994,0.0046879625879228,0.040475521236658
1769251882066,0.011993408203125,-0.2165374755859375,-0.958709716796875,-0.0427525229752063,-0.0017773937433958,0.0390749648213386
1769251882076,0.001556396484375,-0.2222442626953125,-0.9665374755859376,-0.032907348126173,0.0140481749549508,0.0331598185002803
1769251882086,-0.0010833740234375,-0.217254638671875,-0.9664154052734376,-0.0292162094265222,-0.0053034187294542,0.0190850105136632
1769251882096,-0.0069732666015625,-0.2183837890625,-0.964599609375,-0.0296351239085197,-0.0462220907211303,-0.0046155243180692
1769251882106,-0.00030517578125,-0.233917236328125,-0.9700927734375,-0.0321110635995864,-0.0784892141819,-0.0207926295697689
1769251882116,0.0165863037109375,-0.2480316162109375,-0.977081298828125,-0.029663885012269,-0.083129771053791,-0.0216528307646513
1769251882126,0.02520751953125,-0.2401275634765625,-0.9872283935546876,-0.0143770752474665,-0.0664807558059692,-0.0181174855679273
1769251882136,0.022247314453125,-0.2148590087890625,-1.0028533935546875,0.0035191010683774,-0.0280113946646451,-0.0113277556374669
1769251882146,0.006622314453125,-0.2006072998046875,-0.998931884765625,0.0129229892045259,-0.0135253965854644,-0.0060347230173647
1769251882156,-0.0010528564453125,-0.1954345703125,-0.98394775390625,0.0109117701649665,-0.022626481950283,0.0052032843232154
1769251882166,0.0039520263671875,-0.2052459716796875,-0.9703521728515624,-0.0001272990921279,-0.0397591292858123,0.0143272737041115
1769251882176,0.00311279296875,-0.2103424072265625,-0.9622344970703124,-0.0137624172493815,0.0089543461799621,0.0170647371560335
1769251882186,0.009246826171875,-0.227508544921875,-0.9603118896484376,-0.0321294404566288,0.0545340813696384,0.0221356619149446
1769251882196,0.018890380859375,-0.2401580810546875,-0.9478607177734376,-0.0433461405336856,0.0333576910197734,0.0274132490158081
1769251882206,0.0253143310546875,-0.238067626953125,-0.9507904052734376,-0.05460811778903,0.0206293780356645,0.0275610536336898
1769251882216,0.0214691162109375,-0.2292633056640625,-0.9550018310546876,-0.0683553516864776,0.0064800037071108,0.0279067326337099
1769251882226,0.0162200927734375,-0.219818115234375,-0.9619903564453124,-0.0830325707793235,0.0028692898340523,0.0393431447446346
1769251882237,0.0182647705078125,-0.2155914306640625,-0.9698944091796876,-0.0945834964513778,0.0435621254146099,0.0614535063505172
1769251882247,0.0161590576171875,-0.21343994140625,-0.9760589599609376,-0.0973981916904449,0.0744113847613334,0.0717929601669311
1769251882257,-0.005950927734375,-0.209625244140625,-0.96551513671875,-0.1011884063482284,0.0658514499664306,0.0580784827470779
1769251882267,-0.0172576904296875,-0.20867919921875,-0.959686279296875,-0.1047304049134254,0.0656852722167968,0.0422915294766426
1769251882277,-0.01983642578125,-0.21649169921875,-0.96484375,-0.099654421210289,0.0711069330573082,0.0126654617488384
1769251882287,-0.05572509765625,-0.2119598388671875,-0.9614715576171876,-0.1075328513979911,0.0533266030251979,-0.0356283001601696
1769251882297,0.0051116943359375,-0.2189178466796875,-0.977264404296875,-0.092486523091793,0.0461541786789894,-0.0224443227052688
1769251882307,0.0254669189453125,-0.2212371826171875,-0.9878692626953124,-0.0824839547276496,0.0316540673375129,-0.0208237897604703
1769251882317,0.0364837646484375,-0.212127685546875,-0.9847564697265624,-0.0745253637433052,-0.0063252737745642,-0.0194511953741312
1769251882327,0.0345306396484375,-0.210662841796875,-0.98394775390625,-0.0745037943124771,-0.0257434472441673,-0.0143951848149299
1769251882337,0.0255889892578125,-0.213470458984375,-0.9809722900390624,-0.0800655409693718,-0.0153629770502448,-0.0048980857245624
1769251882347,0.0194091796875,-0.20819091796875,-0.981719970703125,-0.0811715498566627,-0.0153187690302729,0.005814479663968
1769251882357,0.0121002197265625,-0.207611083984375,-0.985687255859375,-0.0686626806855201,-0.0125272432342171,0.0106467856094241
1769251882367,0.0080718994140625,-0.2035980224609375,-0.9981536865234376,-0.0453869216144084,0.00322908279486,0.0080752372741699
1769251882377,0.0023193359375,-0.2041778564453125,-1.0018463134765625,-0.019227223470807,-0.0088502168655395,0.005853627808392
1769251882387,-0.00030517578125,-0.2078094482421875,-1.006591796875,0.0037374801468104,0.0093948328867554,0.0007752461824566
1769251882397,0.00616455078125,-0.2147369384765625,-0.9988861083984376,0.0192213654518127,0.0229183658957481,-3.6751622246811166e-05
1769251882407,0.003204345703125,-0.211456298828125,-0.98638916015625,0.0323350355029106,0.0137288616970181,-0.0056618805974721
1769251882417,0.005615234375,-0.2105255126953125,-0.979736328125,0.0399948209524154,0.0049098036251962,-0.00613166205585
1769251882427,0.004425048828125,-0.2130279541015625,-0.9712677001953124,0.040869403630495,-0.0095152081921696,-0.0077932081185281
1769251882438,0.003204345703125,-0.2134246826171875,-0.9680633544921876,0.0328045524656772,-0.0264249499887228,-0.0112942000851035
1769251882448,0.0025482177734375,-0.2115631103515625,-0.9639129638671876,0.0231652408838272,-0.0330184027552604,-0.0195782277733087
1769251882458,-0.002777099609375,-0.2156524658203125,-0.9575347900390624,0.0019401127938181,-0.0537713542580604,-0.028701951727271
1769251882468,-0.003509521484375,-0.2151336669921875,-0.9516448974609376,-0.0140721434727311,-0.0784186422824859,-0.037484522908926
1769251882478,0.0045166015625,-0.2168731689453125,-0.9560089111328124,-0.0290646739304065,-0.0968471840023994,-0.0356975421309471
1769251882488,0.0182342529296875,-0.2150115966796875,-0.9650421142578124,-0.0360815711319446,-0.0717988237738609,-0.0292252637445926
1769251882498,0.034820556640625,-0.2106170654296875,-0.9775543212890624,-0.032832782715559,-0.0159904174506664,-0.014592258259654
1769251882508,0.0381317138671875,-0.2137451171875,-0.97906494140625,-0.0345166996121406,0.0350770279765129,-0.0079069249331951
1769251882518,0.0351409912109375,-0.21502685546875,-0.9697723388671876,-0.0404401011765003,0.0609515011310577,-0.0042056641541421
1769251882528,0.019073486328125,-0.2089996337890625,-0.956878662109375,-0.0513691827654838,0.0292031597346067,-0.0092387720942497
1769251882538,0.000579833984375,-0.2072296142578125,-0.9497528076171876,-0.0647686123847961,-0.0006942860782146,-0.0215388480573892
1769251882548,-0.0040130615234375,-0.2069549560546875,-0.9697418212890624,-0.0648756697773933,0.0259189493954181,-0.0187915302813053
1769251882558,0.0083465576171875,-0.2100677490234375,-0.980621337890625,-0.0551503375172615,0.0113977966830134,-0.0127791780978441
1769251882568,0.02392578125,-0.2120513916015625,-0.9915924072265624,-0.0438625290989875,-0.010129333473742,-0.0030890004709362
1769251882578,0.0273284912109375,-0.2145843505859375,-0.990142822265625,-0.0328903049230575,-0.0106758140027523,0.0044141896069049
1769251882588,0.0299072265625,-0.210235595703125,-0.9882354736328124,-0.0241833664476871,0.0174295902252197,0.0144244795665144
1769251882598,0.023284912109375,-0.2069091796875,-0.9807586669921876,-0.0214839875698089,0.049704972654581,0.0240502078086137
1769251882608,0.0114898681640625,-0.20367431640625,-0.973968505859375,-0.0237386189401149,0.0763528272509574,0.0299294032156467
1769251882618,0.0207672119140625,-0.1968841552734375,-0.977325439453125,-0.0130020845681428,0.081183798611164,0.0525236614048481
1769251882629,0.0287628173828125,-0.1919708251953125,-0.987396240234375,3.2490566809428856e-05,0.0903173759579658,0.0709029361605644
1769251882638,0.02203369140625,-0.192779541015625,-0.9864501953125,0.0077095851302146,0.0751320347189903,0.0738036483526229
1769251882648,0.0225067138671875,-0.206787109375,-0.97760009765625,0.0129821114242076,0.0405721925199031,0.0925501734018325
1769251882659,-0.0162811279296875,-0.1974639892578125,-0.969573974609375,0.0053609432652592,0.0012250541476532,0.0502599738538265
1769251882669,-0.02923583984375,-0.20965576171875,-0.9545745849609376,-0.0074014570564031,-0.0481155961751937,0.0298351272940635
1769251882679,0.01043701171875,-0.21148681640625,-0.9810638427734376,0.0023670175578445,-0.0176325235515832,0.0465517900884151
1769251882689,0.0124053955078125,-0.19134521484375,-0.9832763671875,0.005339637864381,-0.0030791468452662,0.0439224503934383
1769251882699,-0.0003814697265625,-0.1915740966796875,-0.9662628173828124,0.0063742762431502,-0.0371716022491455,0.038376685231924
1769251882709,0.0041961669921875,-0.19805908203125,-0.969146728515625,0.0052155344747006,-0.0424470603466033,0.0401058755815029
1769251882719,0.0051116943359375,-0.1959075927734375,-0.9731597900390624,0.005551625508815,-0.0213926397264003,0.0358805023133754
1769251882729,-0.00390625,-0.200531005859375,-0.9696807861328124,-0.0040698428638279,0.0247468911111354,0.0233197044581174
1769251882739,0.0071258544921875,-0.22265625,-0.96319580078125,-0.0117171099409461,0.0132297854870557,0.0231681689620018
1769251882749,0.019378662109375,-0.240936279296875,-0.9741668701171876,-0.0138708082959055,0.0409365147352218,0.0208040811121463
1769251882759,0.0178070068359375,-0.2314300537109375,-0.9789581298828124,-0.0171377081423997,0.0521260499954223,0.0129402996972203
1769251882769,0.012939453125,-0.2034912109375,-0.98291015625,-0.0092528872191905,0.0757517516613006,0.0134806549176573
1769251882779,-0.0019989013671875,-0.19073486328125,-0.98388671875,-0.0031047132797539,0.0653435885906219,0.0111317466944456
1769251882789,-0.0062103271484375,-0.1833343505859375,-0.979461669921875,-0.0030812772456556,0.0362802445888519,0.0127549432218074
1769251882799,0.009002685546875,-0.1946258544921875,-0.986572265625,0.0033973946701735,0.04401645809412,0.0221465807408094
1769251882809,0.0218963623046875,-0.200958251953125,-0.997802734375,0.013709420338273,0.0950500816106796,0.0266638342291116
1769251882819,0.0411376953125,-0.2141265869140625,-1.0048065185546875,0.0330080166459083,0.1511900573968887,0.0505760908126831
1769251882829,0.0814056396484375,-0.2283172607421875,-1.02069091796875,0.0770329982042312,0.2536948621273041,0.0942849591374397
1769251882839,0.032989501953125,-0.2080078125,-0.987640380859375,0.0630580633878707,0.2743484675884247,0.0834355056285858
1769251882850,0.0307464599609375,-0.2288055419921875,-0.9578704833984376,0.0543500557541847,0.2359486073255539,0.0921738669276237
1769251882860,0.0010986328125,-0.2197418212890625,-0.934783935546875,0.0270057842135429,0.1679293513298034,0.0570789985358715
1769251882870,-0.053863525390625,-0.2095794677734375,-0.903350830078125,-0.0251940358430147,0.0376917198300361,-0.0043308325111866
1769251882880,-0.025543212890625,-0.2214813232421875,-0.913848876953125,-0.0535958483815193,-0.041124265640974,-0.0101698134094476
1769251882890,0.008453369140625,-0.21148681640625,-0.949462890625,-0.0630311667919159,-0.0674293711781501,-0.0097351856529712
1769251882900,0.0224456787109375,-0.210906982421875,-0.9665069580078124,-0.0744958072900772,-0.0859524607658386,-0.020723121240735
1769251882910,0.0319061279296875,-0.2058258056640625,-0.9810333251953124,-0.0714283734560012,-0.0724512934684753,-0.0244949571788311
1769251882920,0.0318145751953125,-0.2098846435546875,-0.992156982421875,-0.0668826252222061,-0.0334463752806186,-0.0268084444105625
1769251882930,0.0353546142578125,-0.208984375,-0.99542236328125,-0.0553996078670024,-0.0140902530401945,-0.0174346510320901
1769251882940,0.034271240234375,-0.2088775634765625,-0.998291015625,-0.0378786735236644,0.0097455717623233,-0.0127666611224412
1769251882950,0.0210113525390625,-0.199676513671875,-1.0031890869140625,-0.0206903647631406,0.0423045791685581,-0.0162482112646102
1769251882960,0.0194854736328125,-0.201995849609375,-0.99505615234375,-0.004806206561625,0.0432231053709983,-0.0108699584379792
1769251882970,0.0204620361328125,-0.2095794677734375,-0.9884033203125,0.0061186123639345,0.0220283363014459,-0.009492571465671
1769251882980,0.015167236328125,-0.207794189453125,-0.9828033447265624,0.0200264379382133,-0.0072414013557136,-0.0184362642467021
1769251882990,0.0166168212890625,-0.2071380615234375,-0.9852752685546876,0.0356320291757583,-0.040905088186264,-0.0243064053356647
1769251883000,0.014404296875,-0.209747314453125,-0.9953155517578124,0.0645648762583732,-0.0533596277236938,-0.033109750598669
1769251883010,0.0272369384765625,-0.2098846435546875,-1.0024871826171875,0.0954586118459701,-0.0585011281073093,-0.0326245203614234
1769251883020,0.0321502685546875,-0.216278076171875,-1.0041351318359375,0.1221940889954567,-0.0715237185359001,-0.0368786565959453
1769251883030,0.0345916748046875,-0.21795654296875,-1.000640869140625,0.145774245262146,-0.0849740132689476,-0.0329970978200435
1769251883040,0.03192138671875,-0.2097930908203125,-1.006927490234375,0.1743832528591156,-0.061155766248703,-0.02652801387012
1769251883050,0.0254364013671875,-0.2034149169921875,-0.9972991943359376,0.183728814125061,-0.0139413820579648,-0.023131949827075
1769251883060,0.005126953125,-0.2129058837890625,-0.9647674560546876,0.1681783497333526,-0.0227817445993423,-0.0306961275637149
1769251883071,0.0031585693359375,-0.2186737060546875,-0.94232177734375,0.1446924656629562,-0.0458614975214004,-0.0292497649788856
1769251883081,0.0143890380859375,-0.218719482421875,-0.9297027587890624,0.1086207553744316,-0.0559729859232902,-0.0209838449954986
1769251883091,0.0132293701171875,-0.220123291015625,-0.9225311279296876,0.0656290799379348,-0.0477403588593006,-0.0166037436574697
1769251883101,0.0179443359375,-0.2190399169921875,-0.9220428466796876,0.0250361114740371,-0.0382869355380535,-0.0026514432393014
1769251883111,0.02252197265625,-0.2202301025390625,-0.931365966796875,-0.0097407782450318,-0.0045569348149001,-0.0014112089993432
1769251883121,0.01068115234375,-0.2206268310546875,-0.934478759765625,-0.0475765727460384,-0.0086201196536421,-0.0116886142641305
1769251883131,0.01312255859375,-0.2138824462890625,-0.943634033203125,-0.0710313022136688,0.010758638381958,-0.0178338587284088
1769251883141,0.0203857421875,-0.214813232421875,-0.9563140869140624,-0.0858003944158554,0.0133701339364051,-0.0209385715425014
1769251883151,0.0210113525390625,-0.21014404296875,-0.9604644775390624,-0.0925043672323226,0.001816009520553,-0.0235713720321655
1769251883161,0.017578125,-0.2088775634765625,-0.9725494384765624,-0.0924750715494155,0.0214751977473497,-0.029978672042489
1769251883171,0.02056884765625,-0.21087646484375,-0.9725799560546876,-0.0852251499891281,-0.0092792520299553,-0.0303198229521513
1769251883181,0.0216217041015625,-0.2099609375,-0.9760894775390624,-0.0761333853006362,-0.0471089221537113,-0.0321387611329555
1769251883191,0.0208892822265625,-0.2138214111328125,-0.9813232421875,-0.0693095624446868,-0.0485153384506702,-0.0263213515281677
1769251883201,0.026763916015625,-0.21844482421875,-0.9809722900390624,-0.0663459971547126,-0.0495451837778091,-0.0142985116690397
1769251883211,0.020782470703125,-0.217132568359375,-0.973388671875,-0.0676685273647308,-0.0307525862008333,-0.0095706023275852
1769251883221,0.0170440673828125,-0.210601806640625,-0.9712371826171876,-0.0767115578055381,0.000393881520722,0.0002423476544208
1769251883231,0.0266265869140625,-0.2051239013671875,-0.9726715087890624,-0.0794271826744079,-0.01192909758538,0.0204759798943996
1769251883241,0.02520751953125,-0.203582763671875,-0.97796630859375,-0.0814783498644828,-0.001294029993005,0.0285445600748062
1769251883251,0.0178070068359375,-0.206634521484375,-0.98468017578125,-0.0814362689852714,0.0487504936754703,0.0233852174133062
1769251883261,0.0228424072265625,-0.2083587646484375,-0.98162841796875,-0.067782774567604,0.0362581387162208,0.0246997531503438
1769251883272,0.0263824462890625,-0.2151947021484375,-0.983673095703125,-0.0523867756128311,0.0235516652464866,0.0205116663128137
1769251883282,0.0271759033203125,-0.225555419921875,-0.992950439453125,-0.0327470265328884,0.0386717617511749,0.017186976969242
1769251883292,0.0400848388671875,-0.20391845703125,-1.0153350830078125,0.0034764904994517,0.0556962862610816,0.0335174798965454
1769251883302,0.0410308837890625,-0.1971588134765625,-1.01812744140625,0.0330021567642688,0.0633118599653244,0.0521428287029266
1769251883312,0.017852783203125,-0.2024383544921875,-1.0011444091796875,0.0434297658503055,0.0848075672984123,0.0514980778098106
1769251883322,0.0067138671875,-0.20751953125,-0.980621337890625,0.0408558212220668,0.0956045538187027,0.0493558309972286
1769251883332,0.012664794921875,-0.199981689453125,-0.9709014892578124,0.0402496829628944,0.0872310400009155,0.0462503209710121
1769251883342,0.0133514404296875,-0.2106475830078125,-0.96307373046875,0.0332724675536155,0.0458175539970397,0.0396440811455249
1769251883352,0.014801025390625,-0.2352752685546875,-0.956878662109375,0.0277836937457323,-0.0016144082183018,0.0236073248088359
1769251883362,0.014862060546875,-0.238311767578125,-0.9652099609375,0.018420286476612,0.0336639545857906,0.0120500046759843
1769251883372,0.032073974609375,-0.2411041259765625,-0.9723968505859376,0.0300100967288017,0.016032762825489,0.0375833287835121
1769251883382,0.025909423828125,-0.192718505859375,-0.96826171875,0.0301818698644638,0.0026045716367661,0.0121682491153478
1769251883392,-0.00262451171875,-0.1861724853515625,-0.953399658203125,0.0145706869661808,-0.0482221245765686,-0.0043236417695879
1769251883402,0.00347900390625,-0.17547607421875,-0.9787750244140624,0.0099279982969164,0.0247250534594059,0.0046408246271312
1769251883412,0.006744384765625,-0.1957855224609375,-0.9786376953125,-0.0068744178861379,0.0466354116797447,0.0109091065824031
1769251883422,0.0122833251953125,-0.2043304443359375,-0.9631195068359376,-0.0134582845494151,0.0013049489352852,0.0042746397666633
1769251883432,0.0175933837890625,-0.2144775390625,-0.9648590087890624,-0.0072437981143593,-0.0177630186080932,-0.0060475063510239
1769251883442,0.00982666015625,-0.21588134765625,-0.9640960693359376,-0.011429488658905,-0.0292321871966123,-0.0245535466820001
1769251883452,0.003570556640625,-0.212249755859375,-0.955169677734375,-0.021361481398344,-0.0807888582348823,-0.0444002225995063
1769251883462,-0.0003662109375,-0.210540771484375,-0.9460296630859376,-0.0406214632093906,-0.1438967138528823,-0.0615384615957737
1769251883472,-0.0006866455078125,-0.2106781005859375,-0.9528045654296876,-0.0584662407636642,-0.143937200307846,-0.0761459022760391
1769251883483,-0.00048828125,-0.21575927734375,-0.9555206298828124,-0.0749975442886352,-0.1518518477678299,-0.0760055482387542
1769251883493,0.011322021484375,-0.2110748291015625,-0.96319580078125,-0.0782985314726829,-0.1660206615924835,-0.0638751164078712
1769251883503,0.0111846923828125,-0.2073822021484375,-0.9875640869140624,-0.066324695944786,-0.1069488227367401,-0.065233863890171
1769251883513,0.01611328125,-0.20220947265625,-1.0094757080078125,-0.0512847602367401,-0.0318940170109272,-0.0598976872861385
1769251883523,0.0250701904296875,-0.20355224609375,-1.0102691650390625,-0.0331928394734859,0.0209654700011014,-0.0459837354719638
1769251883533,0.0434112548828125,-0.2021636962890625,-1.0122528076171875,-0.0043486757203936,0.0780362114310264,-0.0251639429479837
1769251883543,0.047515869140625,-0.2079315185546875,-0.9961700439453124,0.0072667011991143,0.0755466893315315,-0.0120018012821674
1769251883553,0.036590576171875,-0.209381103515625,-0.971893310546875,0.0099013661965727,0.048739843070507,-0.0087282443419098
1769251883563,0.021331787109375,-0.2087860107421875,-0.96240234375,0.007022222969681,0.0426973961293697,-0.0067785438150167
1769251883573,0.0155487060546875,-0.213592529296875,-0.9598846435546876,0.0004735100374091,0.0369154065847396,-0.000253799255006
1769251883583,0.0165557861328125,-0.207427978515625,-0.9683837890625,0.0037606498226523,0.0468452684581279,0.0079575255513191
1769251883593,0.012847900390625,-0.1997528076171875,-0.97686767578125,0.003001915058121,0.0507811568677425,0.0071351411752402
1769251883603,0.0031585693359375,-0.19537353515625,-0.974945068359375,0.0047995490022003,0.0442761182785034,0.0033579797018319
1769251883613,0.01702880859375,-0.1986083984375,-0.984649658203125,0.0111855426803231,0.0617113001644611,0.0192866120487451
1769251883623,0.0312957763671875,-0.2139739990234375,-0.986785888671875,0.0116792926564812,0.0944500714540481,0.0308316815644502
1769251883633,0.03900146484375,-0.22174072265625,-0.9766082763671876,0.0014956312952563,0.1186102703213691,0.0444897040724754
1769251883643,0.0452880859375,-0.2246551513671875,-0.9625396728515624,-0.0135661428794264,0.1194891110062599,0.0553466118872165
1769251883653,0.0385894775390625,-0.2198638916015625,-0.966644287109375,-0.0175704713910818,0.1515887230634689,0.0635323673486709
1769251883663,0.033294677734375,-0.2216949462890625,-0.98046875,-0.0092379730194807,0.2103146165609359,0.0746486708521843
1769251883673,0.0618133544921875,-0.199371337890625,-0.9954986572265624,0.0078901471570134,0.2942912876605987,0.1120655536651611
1769251883684,0.0340118408203125,-0.194854736328125,-0.9830780029296876,-0.0029867351986467,0.2628419995307922,0.1007766798138618
1769251883694,-0.0139617919921875,-0.197113037109375,-0.952606201171875,-0.0337137542665004,0.1425600796937942,0.0544688329100608
1769251883704,-0.0449371337890625,-0.1961212158203125,-0.939666748046875,-0.0645012259483337,0.0775230228900909,0.0121152522042393
1769251883714,-0.0491180419921875,-0.20953369140625,-0.939697265625,-0.0852262154221534,0.0019731360953301,-0.0150338103994727
1769251883724,-0.0253448486328125,-0.21600341796875,-0.9525146484375,-0.0855481922626495,-0.0576150938868522,-0.0283890310674905
1769251883734,0.0113525390625,-0.218902587890625,-0.978302001953125,-0.0721277222037315,-0.065455175936222,-0.037235252559185
1769251883744,0.0358734130859375,-0.2209014892578125,-0.992401123046875,-0.060606088489294,-0.0561309121549129,-0.0461280792951583
1769251883754,0.0390625,-0.217041015625,-0.9915008544921876,-0.0490240007638931,-0.0526514947414398,-0.0638791173696518
1769251883764,0.0375823974609375,-0.2035675048828125,-0.98370361328125,-0.0435850284993648,-0.0634213164448738,-0.0707508698105812
1769251883774,0.0296783447265625,-0.19818115234375,-0.9855804443359376,-0.0388565845787525,-0.0373151488602161,-0.0746633186936378
1769251883784,0.0283355712890625,-0.1964874267578125,-0.980072021484375,-0.0385354086756706,-0.03886404260993,-0.0740276202559471
1769251883794,0.0306854248046875,-0.18878173828125,-0.9761505126953124,-0.0310679040849208,-0.0388427376747131,-0.0613080970942974
1769251883804,0.0346527099609375,-0.196533203125,-0.9826507568359376,-0.0228493884205818,-0.0179891195148229,-0.0519854351878166
1769251883814,0.0294189453125,-0.2059478759765625,-0.979248046875,-0.0223180893808603,-0.006271744146943,-0.0473691150546073
1769251883825,0.03594970703125,-0.2084808349609375,-0.97943115234375,-0.0173654071986675,0.0006753776688128,-0.0418856628239154
1769251883834,0.0348968505859375,-0.207763671875,-0.9850921630859376,-0.0132140722125768,0.0083370255306363,-0.0383018478751182
1769251883844,0.0286407470703125,-0.2090606689453125,-0.98736572265625,-0.0107325389981269,0.0133315175771713,-0.0422694273293018
1769251883854,0.0214080810546875,-0.2064056396484375,-0.9883880615234376,-0.0045231129042804,0.0170330461114645,-0.044129379093647
1769251883864,0.0233917236328125,-0.208953857421875,-0.9861602783203124,0.0012903015594929,0.0034160367213189,-0.0464708283543586
1769251883874,0.0294036865234375,-0.2166748046875,-0.9785003662109376,0.0075061195529997,-0.0226224884390831,-0.0447086170315742
1769251883884,0.0259552001953125,-0.212158203125,-0.9746551513671876,0.0128090055659413,-0.02845667488873,-0.0512429475784301
1769251883894,0.0217132568359375,-0.1952362060546875,-0.971405029296875,0.0179891195148229,-0.0208818465471267,-0.0482194609940052
1769251883904,0.0214691162109375,-0.1867523193359375,-0.9667816162109376,0.017910823225975,-0.0336977764964103,-0.0427354797720909
1769251883915,0.0167388916015625,-0.189849853515625,-0.9618072509765624,0.007389472797513,-0.0527942404150962,-0.0457885265350341
1769251883925,0.0367431640625,-0.1896514892578125,-0.973846435546875,0.008470450527966,-0.0410281270742416,-0.0426185652613639
1769251883935,0.049346923828125,-0.195709228515625,-0.989044189453125,0.0169875063002109,0.0057830540463328,-0.0335832610726356
1769251883945,0.0499114990234375,-0.212249755859375,-0.9836883544921876,0.0123583991080522,0.026641197502613,-0.0287413671612739
1769251883955,0.04473876953125,-0.2381134033203125,-0.973388671875,0.0098707405850291,0.0241463482379913,-0.0344144329428672
1769251883965,0.0354766845703125,-0.2249755859375,-0.968780517578125,0.0070294137112796,0.0276318937540054,-0.0348418690264225
1769251883975,0.019500732421875,-0.20318603515625,-0.969085693359375,0.0069628343917429,0.0479166582226753,-0.0370562896132469
1769251883985,0.0170135498046875,-0.1762237548828125,-0.9773101806640624,0.0237772352993488,0.0467770919203758,-0.0302220843732357
1769251883995,0.008819580078125,-0.177734375,-0.9881591796875,0.0322543419897556,0.0138902496546506,-0.0274095200002193
1769251884005,0.0231170654296875,-0.1874237060546875,-0.984588623046875,0.0399207845330238,-0.0256329253315925,-0.0281722489744424
1769251884015,0.036468505859375,-0.1945953369140625,-0.98931884765625,0.048061802983284,-0.013228453695774,-0.0331630147993564
1769251884025,0.036468505859375,-0.2029266357421875,-0.9832916259765624,0.0500330738723278,-0.0043779704719781,-0.0425714291632175
1769251884035,0.03424072265625,-0.2072601318359375,-0.9690704345703124,0.0450732037425041,-0.0099359871819615,-0.0483709946274757
1769251884045,0.0316925048828125,-0.217010498046875,-0.961944580078125,0.0380605682730674,-0.0163922887295484,-0.0489153452217578
1769251884055,0.032012939453125,-0.217529296875,-0.956390380859375,0.0259210783988237,-0.0252662077546119,-0.0440066047012805
1769251884065,0.03466796875,-0.213897705078125,-0.95111083984375,0.008379902690649,-0.0350892767310142,-0.0402403622865676
1769251884075,0.03857421875,-0.2138214111328125,-0.9547119140625,-0.010602043941617,-0.0391777642071247,-0.0303041096776723
1769251884085,0.042755126953125,-0.21142578125,-0.9602203369140624,-0.0228390023112297,-0.015261510387063,-0.0211657397449016
1769251884095,0.03143310546875,-0.2080535888671875,-0.96820068359375,-0.0310868136584758,0.0200967453420162,-0.0243655275553464
1769251884107,0.026031494140625,-0.20684814453125,-0.9683837890625,-0.0358267053961753,0.0037979339249432,-0.0242960192263126
1769251884116,0.0308074951171875,-0.2082366943359375,-0.9709320068359376,-0.0341009795665741,-0.0111229587346315,-0.0232565868645906
1769251884126,0.0275726318359375,-0.2110595703125,-0.9727630615234376,-0.0372147448360919,-0.0135475005954504,-0.028696360066533
1769251884136,0.032440185546875,-0.2084503173828125,-0.9706268310546876,-0.0415951125323772,-0.0238938815891742,-0.0264180246740579
1769251884146,0.0373992919921875,-0.2069091796875,-0.967926025390625,-0.0461549796164035,-0.0354370847344398,-0.0266643669456243
1769251884156,0.039031982421875,-0.2063751220703125,-0.969818115234375,-0.0531705431640148,-0.0028197548817843,-0.0235854871571064
1769251884166,0.046142578125,-0.20751953125,-0.976776123046875,-0.0592763721942901,0.0249370411038398,-0.0103210806846618
1769251884176,0.048065185546875,-0.196502685546875,-0.979156494140625,-0.0584846138954162,0.0220874585211277,0.0001515338663011
1769251884186,0.0385589599609375,-0.194427490234375,-0.9816436767578124,-0.0531827956438064,0.0275338888168334,0.0046970173716545
1769251884196,0.03228759765625,-0.197174072265625,-0.983856201171875,-0.0478394292294979,0.0054357778280973,-0.0039638490416109
1769251884206,0.0093231201171875,-0.19964599609375,-0.979705810546875,-0.0462551116943359,-0.0074057183228433,-0.0205153953284025
1769251884216,0.017730712890625,-0.2023162841796875,-0.9800262451171876,-0.0433285646140575,-0.0236043948680162,-0.0173422377556562
1769251884226,0.023406982421875,-0.21124267578125,-0.9790496826171876,-0.0417498424649238,-0.0344674289226532,-0.0179632883518934
1769251884236,0.0208282470703125,-0.2053375244140625,-0.973876953125,-0.0425615757703781,-0.0500645004212856,-0.0281986147165298
1769251884246,0.0157928466796875,-0.20245361328125,-0.9737701416015624,-0.0409564860165119,-0.0163376946002244,-0.0373947769403457
1769251884256,0.0198211669921875,-0.204864501953125,-0.9771575927734376,-0.0425123050808906,0.0250728633254766,-0.0359180532395839
1769251884266,0.0201263427734375,-0.2051239013671875,-0.9740142822265624,-0.0402185246348381,0.0187068413943052,-0.0438598655164241
1769251884276,0.0272064208984375,-0.203369140625,-0.9742584228515624,-0.0432081893086433,0.0070395334623754,-0.0431938096880912
1769251884286,0.03631591796875,-0.2007293701171875,-0.9774169921875,-0.0490594208240509,0.0164932236075401,-0.0423455908894538
1769251884296,0.0315704345703125,-0.1967620849609375,-0.980377197265625,-0.0454923845827579,0.0078155789524316,-0.0410986989736557
1769251884307,0.039703369140625,-0.1868438720703125,-0.991424560546875,-0.0337704792618751,-0.0186479855328798,-0.0266571771353483
1769251884316,0.0408477783203125,-0.185302734375,-1.0021514892578125,-0.019972376525402,0.0161685831844806,-0.0144263431429862
1769251884327,0.03662109375,-0.193634033203125,-1.000091552734375,-0.0021283982787281,0.0268726274371147,-0.0075852153822779
1769251884337,0.029937744140625,-0.2019195556640625,-0.9854736328125,0.0129616046324372,0.0010982876410707,-0.0185627657920122
1769251884347,0.01568603515625,-0.2079315185546875,-0.97259521484375,0.0232999958097934,0.0086605995893478,-0.0299094300717115
1769251884357,0.029632568359375,-0.2046356201171875,-0.97772216796875,0.033486321568489,0.0061617558822035,-0.024442758411169
1769251884367,0.0438385009765625,-0.19915771484375,-0.98614501953125,0.0419117622077465,0.0124276410788297,-0.0098552936688065
1769251884377,0.0486907958984375,-0.198394775390625,-0.9935302734375,0.0483411662280559,0.0116310892626643,-0.0004532700113486
1769251884387,0.040252685546875,-0.197296142578125,-0.994171142578125,0.0591322965919971,0.015952069312334,0.008088020607829
1769251884397,0.0316619873046875,-0.1919403076171875,-0.998382568359375,0.0752337649464607,0.0353971384465694,0.0129554793238639
1769251884407,0.01654052734375,-0.1918487548828125,-1.0002899169921875,0.091189831495285,0.0424883365631103,0.0140971764922142
1769251884417,0.02593994140625,-0.1857452392578125,-0.99676513671875,0.1078694760799408,0.0237428806722164,0.0210243258625268
1769251884427,0.0293731689453125,-0.1935882568359375,-0.9927215576171876,0.1235096901655197,0.0157573912292718,0.0225689578801393
1769251884437,0.040985107421875,-0.2064361572265625,-0.9824371337890624,0.1311420351266861,0.0033462618011981,0.0253791268914937
1769251884447,0.05096435546875,-0.2159576416015625,-0.9669952392578124,0.1278644949197769,-0.0123836994171142,0.0186104364693164
1769251884457,0.06201171875,-0.22589111328125,-0.9590606689453124,0.1132189631462097,-0.0184842012822628,0.0249881744384765
1769251884467,0.0742645263671875,-0.2176666259765625,-0.954010009765625,0.0911275148391723,-0.0116329537704586,0.0436446815729141
1769251884477,0.0683441162109375,-0.20574951171875,-0.9559326171875,0.0664575845003128,0.0447115451097488,0.0635712519288063
1769251884487,0.044769287109375,-0.194793701171875,-0.9478759765625,0.0321368984878063,0.062726229429245,0.0721948370337486
1769251884497,0.0117950439453125,-0.187408447265625,-0.938079833984375,-0.0014141384745016,0.0500216223299503,0.0657795444130897
1769251884508,0.0113067626953125,-0.175933837890625,-0.944061279296875,-0.0270585156977176,0.0295533649623394,0.0711799040436744
1769251884517,0.01220703125,-0.1966552734375,-0.9459075927734376,-0.0500248186290264,0.0284902304410934,0.0672839656472206
1769251884527,0.0282135009765625,-0.2252960205078125,-0.9508056640625,-0.0705370157957077,0.0409626141190528,0.0697284787893295
1769251884538,0.031097412109375,-0.2307586669921875,-0.956512451171875,-0.0834440290927887,0.0839782580733299,0.0571042969822883
1769251884548,0.0113067626953125,-0.2157745361328125,-0.9498443603515624,-0.0939371511340141,0.071816399693489,0.0393130518496036
1769251884558,0.0166778564453125,-0.2017974853515625,-0.947906494140625,-0.0911738499999046,0.0596454851329326,0.0361004807054996
1769251884568,0.025482177734375,-0.1929931640625,-0.9647979736328124,-0.086680568754673,0.0576792769134044,0.0418340004980564
1769251884578,0.0347442626953125,-0.20037841796875,-0.9638824462890624,-0.0979398787021637,0.0483377054333686,0.0373255349695682
1769251884588,0.0367889404296875,-0.2008819580078125,-0.9656524658203124,-0.1138972714543342,0.0128055438399314,0.0352200381457805
1769251884598,0.0383453369140625,-0.20849609375,-0.966156005859375,-0.128545731306076,-0.0081604579463601,0.0252723339945077
1769251884608,0.0355987548828125,-0.21026611328125,-0.9725189208984376,-0.1347101479768753,-0.0376999750733375,0.025912556797266
1769251884618,0.040496826171875,-0.2105865478515625,-0.988037109375,-0.1252633780241012,-0.0535870604217052,0.0274894144386053
1769251884628,0.0406951904296875,-0.214935302734375,-1.00408935546875,-0.1085810735821724,-0.0637555420398712,0.0355414822697639
1769251884638,0.0448455810546875,-0.21246337890625,-1.0177764892578125,-0.0809907242655754,-0.01327745616436,0.0420638285577297
1769251884648,0.0362091064453125,-0.20648193359375,-1.0185089111328125,-0.0567868500947952,0.0494578294456005,0.0491845905780792
1769251884658,0.0248260498046875,-0.203643798828125,-1.002044677734375,-0.0342314727604389,0.0412531644105911,0.048014398664236
1769251884668,0.0072479248046875,-0.201629638671875,-0.990203857421875,-0.0137634826824069,0.0281821023672819,0.035475168377161
1769251884678,0.0050811767578125,-0.2024688720703125,-0.9908294677734376,0.0073255570605397,0.0099993711337447,0.0252787247300148
1769251884688,0.0059356689453125,-0.204681396484375,-0.98785400390625,0.0212730634957551,-0.0102236093953251,0.010750382207334
1769251884698,0.016876220703125,-0.204559326171875,-0.9923553466796876,0.0361550748348236,-0.0196570586413145,0.0032272185198962
1769251884708,0.032806396484375,-0.2036285400390625,-0.9946441650390624,0.0473094582557678,-0.00819081813097,0.0004122573300264
1769251884718,0.0380096435546875,-0.204010009765625,-0.99072265625,0.0504943318665027,0.0077082533389329,-0.0055175372399389
1769251884728,0.0377960205078125,-0.1981353759765625,-0.9831695556640624,0.0506365448236465,-0.0076928068883717,-0.0136487009003758
1769251884739,0.0362701416015625,-0.20477294921875,-0.9756317138671876,0.0434904843568801,-0.0047742486931383,-0.0143310027197003
1769251884749,0.02569580078125,-0.200775146484375,-0.968902587890625,0.0304870698601007,-0.01962829567492,-0.0245064087212085
1769251884759,0.0149688720703125,-0.1912384033203125,-0.9634552001953124,0.0270270910114049,-0.0345875397324562,-0.0267072450369596
1769251884769,0.02606201171875,-0.1912994384765625,-0.9790496826171876,0.0352400131523609,-0.012245480902493,-0.0175132136791944
1769251884779,0.0309600830078125,-0.196136474609375,-0.97955322265625,0.0423706248402595,-0.0180082954466342,-0.0164996143430471
1769251884789,0.030517578125,-0.2010345458984375,-0.9716644287109376,0.0409812554717063,-0.0383798778057098,-0.0217060949653387
1769251884799,0.0189056396484375,-0.213623046875,-0.9633331298828124,0.0242523420602083,-0.0304764155298471,-0.034187264740467
1769251884809,0.022796630859375,-0.211181640625,-0.9589080810546876,0.010096576064825,-0.0260624922811985,-0.0312239658087492
1769251884819,0.0309600830078125,-0.2104949951171875,-0.9634246826171876,0.001171258278191,-0.0333702079951763,-0.0271666403859853
1769251884829,0.0264434814453125,-0.209869384765625,-0.971099853515625,-0.0045638591982424,0.0092217279598116,-0.0328897722065448
1769251884839,0.0387115478515625,-0.208343505859375,-0.98370361328125,-0.0011006845161318,0.0253602173179388,-0.0257122870534658
1769251884849,0.0496826171875,-0.208221435546875,-0.9897308349609376,0.0072224927134811,0.0125035410746932,-0.014095046557486
1769251884859,0.05084228515625,-0.207366943359375,-0.994049072265625,0.0200181826949119,0.0026237461715936,-0.0105847334489226
1769251884869,0.0280914306640625,-0.2054595947265625,-0.980438232421875,0.0235199742019176,-0.0360834375023841,-0.0253176074475049
1769251884880,0.020843505859375,-0.2034912109375,-0.98248291015625,0.0265085734426975,-0.01413419470191,-0.0107623664662241
1769251884889,0.0331878662109375,-0.2115936279296875,-0.9857940673828124,0.0323611348867416,0.01817980222404,0.017430655658245
1769251884899,0.0424652099609375,-0.2124176025390625,-0.9835662841796876,0.040925595909357,0.0139219406992197,0.0328998938202858
1769251884909,0.037567138671875,-0.21807861328125,-0.97698974609375,0.045082788914442,-0.0279299020767211,0.0313169099390506
1769251884919,0.0087432861328125,-0.2158050537109375,-0.9722137451171876,0.0364197939634323,-0.0029710223898291,-0.0010109359864145
1769251884929,0.00762939453125,-0.208770751953125,-0.964263916015625,0.0281591992825269,-0.0250270552933216,-0.0045348308049142
1769251884939,0.0319976806640625,-0.2075347900390625,-0.9678802490234376,0.0281930211931467,-0.0783547237515449,0.0050267167389392
1769251884949,0.0435791015625,-0.2080841064453125,-0.976654052734375,0.0352956727147102,-0.078414112329483,0.0195824895054101
1769251884960,0.0454864501953125,-0.2001190185546875,-0.9898834228515624,0.0474793687462806,0.0061188787221908,0.0343632996082305
1769251884970,0.0272674560546875,-0.2012481689453125,-0.9810638427734376,0.0471826903522014,0.0333648808300495,0.0428326837718486
1769251884980,0.0238494873046875,-0.2034759521484375,-0.970977783203125,0.0560630038380622,0.0147959906607866,0.0599144659936428
1769251884990,0.03411865234375,-0.205841064453125,-0.9893951416015624,0.0715029463171958,0.0307981260120868,0.075366124510765
1769251885000,0.0456390380859375,-0.1988372802734375,-0.990142822265625,0.0816423967480659,0.08079843968153,0.0998275279998779
1769251885010,0.0276641845703125,-0.204559326171875,-0.9889984130859376,0.090750940144062,0.1019580587744712,0.0777419358491897
1769251885020,0.0124664306640625,-0.2095184326171875,-0.963043212890625,0.0847127586603164,0.0630090609192848,0.0588569231331348
1769251885030,0.0204010009765625,-0.2173919677734375,-0.95831298828125,0.0853194221854209,0.0067516458220779,0.0616867989301681
1769251885040,0.03656005859375,-0.2097930908203125,-0.95806884765625,0.0857793539762497,-0.0351960696280002,0.0602995604276657
1769251885050,-0.0079498291015625,-0.2082366943359375,-0.9501190185546876,0.073256105184555,-0.0458652265369892,0.0188272166997194
1769251885060,0.0114593505859375,-0.2034149169921875,-0.9436798095703124,0.0631752386689186,-0.0625619143247604,0.0149709600955247
1769251885070,0.0276031494140625,-0.1987457275390625,-0.95440673828125,0.0578598380088806,-0.0725011005997657,0.0075711007229983
1769251885080,0.035003662109375,-0.2123565673828125,-0.9599609375,0.0463107712566852,-0.0585637092590332,0.0022825952619314
1769251885090,0.0441436767578125,-0.231292724609375,-0.963134765625,0.0364962257444858,-0.0489294603466987,-0.0051718587055802
1769251885100,0.0472869873046875,-0.2553253173828125,-0.9617767333984376,0.0203129947185516,-0.0250728633254766,-0.0090675307437777
1769251885112,0.0452880859375,-0.252349853515625,-0.9632568359375,0.0114984642714262,0.0147046437487006,-0.0104041714221239
1769251885120,0.040191650390625,-0.2264251708984375,-0.9674530029296876,0.0090787159278988,0.0424664989113807,-0.0066706859506666
1769251885130,0.02655029296875,-0.2041778564453125,-0.972076416015625,0.0113256247714161,0.0766036957502365,0.0052120727486908
1769251885141,0.0340423583984375,-0.1949462890625,-0.975799560546875,0.0106278769671916,0.078433558344841,0.023365244269371
1769251885151,0.0372161865234375,-0.2041168212890625,-0.9741058349609376,0.0056738648563623,0.0558177269995212,0.0349760949611663
1769251885161,0.026092529296875,-0.2104644775390625,-0.9688262939453124,-0.0038077877834439,0.0191473290324211,0.0175355840474367
1769251885171,0.0235443115234375,-0.215179443359375,-0.9683685302734376,-0.0046293730847537,-0.0095905754715204,0.0149150332435965
1769251885181,0.0203704833984375,-0.2200164794921875,-0.96630859375,-0.0102819325402379,-0.0162093304097652,0.0076467343606054
1769251885191,0.0168914794921875,-0.216796875,-0.9664459228515624,-0.0143110286444425,-0.0126161929219961,0.0066760121844708
1769251885201,0.028411865234375,-0.225555419921875,-0.96942138671875,-0.0122710475698113,-0.0068738851696252,0.0191398728638887
1769251885211,0.0356292724609375,-0.2234039306640625,-0.9708709716796876,-0.0082701807841658,-0.0188402663916349,0.0304700247943401
1769251885221,0.030487060546875,-0.2208404541015625,-0.9748382568359376,-0.0023257385473698,0.0106838028877973,0.028004202991724
1769251885231,0.018951416015625,-0.223175048828125,-0.969940185546875,-0.0033555829431861,0.032106801867485,0.0292186047881841
1769251885241,0.02105712890625,-0.21929931640625,-0.9637298583984376,-0.007138337008655,-0.0003818972909357,0.0270340144634246
1769251885251,0.0190582275390625,-0.2146759033203125,-0.9631805419921876,-0.0163336992263793,0.0148194264620542,0.0236046612262725
1769251885261,0.028839111328125,-0.216461181640625,-0.9676055908203124,-0.0254033599048852,0.0305445939302444,0.0318785719573497
1769251885272,0.040069580078125,-0.215911865234375,-0.9669189453125,-0.0333414450287818,0.0187188256531953,0.036909282207489
1769251885281,0.034759521484375,-0.2163543701171875,-0.9709014892578124,-0.0378304682672023,0.0225018467754125,0.0341209508478641
1769251885291,0.0283660888671875,-0.21685791015625,-0.972869873046875,-0.040680319070816,0.0220725461840629,0.0317550003528595
1769251885301,0.0201416015625,-0.2169036865234375,-0.972900390625,-0.0423876717686653,0.0287371054291725,0.0210991594940423
1769251885311,0.0218963623046875,-0.22320556640625,-0.9700775146484376,-0.040974598377943,0.0169616732746362,0.0189143028110265
1769251885321,0.0244598388671875,-0.21795654296875,-0.9718170166015624,-0.0414411835372448,0.004358263220638,0.0135395107790827
1769251885331,0.01361083984375,-0.2117156982421875,-0.9715576171875,-0.0444348417222499,-0.0114135090261697,0.0066443206742405
1769251885341,0.01904296875,-0.205902099609375,-0.97894287109375,-0.0388129092752933,-0.0062847938388586,0.0107165602967143
1769251885351,0.0250244140625,-0.2083282470703125,-0.9853363037109376,-0.0287397690117359,0.0122766401618719,0.0200197808444499
1769251885361,0.0275115966796875,-0.2191009521484375,-0.9815521240234376,-0.0268824808299541,0.007520766928792,0.0157605875283479
1769251885372,0.01849365234375,-0.2248687744140625,-0.971954345703125,-0.0336178801953792,0.0119040636345744,0.0026948526501655
1769251885382,0.0135955810546875,-0.2194976806640625,-0.966033935546875,-0.0329355783760547,-0.0142740104347467,-0.0108491852879524
1769251885392,0.02252197265625,-0.217041015625,-0.972259521484375,-0.0214083530008792,-0.0301429890096187,-0.0054392400197684
1769251885402,0.035614013671875,-0.2207183837890625,-0.988067626953125,-0.0021015002857893,-0.0202085990458726,0.0017888452857732
1769251885412,0.045501708984375,-0.21881103515625,-1.00360107421875,0.0217734724283218,0.0228877384215593,0.0145310061052441
1769251885422,0.0398712158203125,-0.2163543701171875,-0.9952545166015624,0.0334825925529003,0.0250579491257667,0.0142393894493579
1769251885432,0.034820556640625,-0.214202880859375,-0.982421875,0.0403167977929115,0.0107626328244805,0.0210791863501071
1769251885442,0.0125274658203125,-0.2108612060546875,-0.9651947021484376,0.0313470028340816,-0.0006114617572166,0.0027369307354092
1769251885452,-0.0050201416015625,-0.2049560546875,-0.9532318115234376,0.0215958394110202,-0.0261559709906578,-0.0059500345960259
1769251885462,-0.001007080078125,-0.2085418701171875,-0.9545440673828124,0.015107580460608,-0.0499254800379276,-0.0149408662691712
1769251885472,-0.0020599365234375,-0.214111328125,-0.953826904296875,0.0092387720942497,-0.0532411187887191,-0.0357755757868289
1769251885482,-0.0007171630859375,-0.2155914306640625,-0.960784912109375,0.0055947685614228,-0.020401943475008,-0.057438526302576
1769251885492,0.003570556640625,-0.2231292724609375,-0.954193115234375,-0.0014170679496601,-0.0256973747164011,-0.0800202637910842
1769251885502,0.0056915283203125,-0.218048095703125,-0.9493865966796876,-0.013759221881628,-0.0171933677047491,-0.1013681665062904
1769251885512,0.0128631591796875,-0.2153167724609375,-0.951751708984375,-0.0235545951873064,0.0075407405383884,-0.1104431524872779
1769251885522,0.0305938720703125,-0.21514892578125,-0.962432861328125,-0.0317989438772201,-0.0076110479421913,-0.1012339442968368
1769251885532,0.0592193603515625,-0.2088470458984375,-0.975128173828125,-0.032828252762556,-0.0428987294435501,-0.072003349661827
1769251885542,0.056610107421875,-0.2098541259765625,-0.98236083984375,-0.0371116809546947,-0.0179550312459468,-0.0557223856449127
1769251885552,0.045196533203125,-0.2006988525390625,-0.9821014404296876,-0.0397087968885898,0.0028924592770636,-0.0458646938204765
1769251885562,0.0282135009765625,-0.19403076171875,-0.971038818359375,-0.0423991233110427,-0.0101807322353124,-0.0432241708040237
1769251885573,0.0117645263671875,-0.202301025390625,-0.9611968994140624,-0.0473731085658073,-0.0027348001021891,-0.0513081960380077
1769251885583,0.00030517578125,-0.2087554931640625,-0.9503326416015624,-0.0586017929017543,-0.0234504640102386,-0.0673952847719192
1769251885593,-0.0040130615234375,-0.218017578125,-0.94317626953125,-0.0713173225522041,-0.0714749842882156,-0.0814075097441673
1769251885603,0.0204010009765625,-0.21185302734375,-0.964080810546875,-0.0627829581499099,-0.0617951899766922,-0.068634457886219
1769251885613,0.0375213623046875,-0.2075958251953125,-0.980682373046875,-0.0514607951045036,-0.0264824740588665,-0.0530230030417442
1769251885623,0.0371551513671875,-0.2072601318359375,-0.97589111328125,-0.0497438535094261,-0.0180604923516511,-0.0469659119844436
1769251885633,0.0410003662109375,-0.2039947509765625,-0.9688262939453124,-0.0510314926505088,-0.029871080070734,-0.03961718454957
1769251885643,0.0446319580078125,-0.18927001953125,-0.97320556640625,-0.0525534898042678,-0.024836640805006,-0.0280891582369804
1769251885653,0.049285888671875,-0.2030181884765625,-0.975982666015625,-0.0582899376749992,-0.0097562242299318,-0.0059977052733302
1769251885663,0.059539794921875,-0.2288665771484375,-0.9791259765625,-0.0645592883229255,0.0052802492864429,0.0085223820060491
1769251885673,0.066162109375,-0.2486114501953125,-0.9826202392578124,-0.0613232776522636,0.001849565305747,0.0264060404151678
1769251885683,0.0630340576171875,-0.229156494140625,-0.9950103759765624,-0.0452375188469886,0.0008218514849431,0.0355281680822372
1769251885693,0.0359039306640625,-0.199188232421875,-0.9930572509765624,-0.0302196871489286,-0.0120108565315604,0.0371297933161258
1769251885703,0.014984130859375,-0.1857757568359375,-0.98724365234375,-0.01559813413769,-0.0855212956666946,0.0487590171396732
1769251885713,0.000213623046875,-0.1847076416015625,-0.9899749755859376,-0.0030807447619736,-0.1066843718290329,0.0507867485284805
1769251885723,-0.0151519775390625,-0.2024078369140625,-0.9782562255859376,-0.0134609472006559,-0.1381032764911651,0.0364371016621589
1769251885733,-0.018310546875,-0.2055511474609375,-0.9625701904296876,-0.0112603772431612,-0.1852244436740875,0.0230414029210805
1769251885743,0.014984130859375,-0.2137298583984375,-0.9905548095703124,0.0093314498662948,-0.177715927362442,0.0391860194504261
1769251885753,0.0411834716796875,-0.212066650390625,-1.003692626953125,0.0348988622426986,-0.0908665210008621,0.060467604547739
1769251885763,0.038848876953125,-0.216033935546875,-1.003692626953125,0.0479238480329513,-0.0297776032239198,0.0684440359473228
1769251885773,0.0268096923828125,-0.216766357421875,-0.98193359375,0.0542938634753227,-0.038890141993761,0.0633715167641639
1769251885784,0.023162841796875,-0.214447021484375,-0.974456787109375,0.0602098107337951,-0.0365023501217365,0.0768665522336959
1769251885794,0.01690673828125,-0.2107391357421875,-0.977325439453125,0.0603024885058403,-0.0085306372493505,0.0857873409986496
1769251885804,0.015472412109375,-0.207794189453125,-0.9693450927734376,0.0541801489889621,-0.0073295519687235,0.0890236124396324
1769251885814,0.0048065185546875,-0.2158050537109375,-0.962860107421875,0.0440087355673313,-0.0090030822902917,0.0798106789588928
1769251885824,-0.0111541748046875,-0.2114715576171875,-0.9531402587890624,0.0328817851841449,-0.0482173301279544,0.058463841676712
1769251885834,-0.00811767578125,-0.2098846435546875,-0.9613800048828124,0.0255548954010009,-0.0529811941087245,0.0563474297523498
1769251885844,0.0009307861328125,-0.2087249755859375,-0.971527099609375,0.0237261019647121,-0.035320971161127,0.0565074831247329
1769251885854,0.0095367431640625,-0.2167510986328125,-0.9780731201171876,0.0237756371498107,-0.0094097470864653,0.0593389570713043
1769251885864,0.0112457275390625,-0.2165069580078125,-0.975616455078125,0.0220416523516178,-0.0175193380564451,0.0501984544098377
1769251885874,0.0039520263671875,-0.21356201171875,-0.9723663330078124,0.0154948038980364,-0.0333441086113452,0.0321475490927696
1769251885884,-0.006134033203125,-0.222259521484375,-0.969573974609375,0.0073196981102228,-0.0384176969528198,0.0154481986537575
1769251885894,-0.0073089599609375,-0.2167205810546875,-0.967041015625,0.0005643238546326,-0.0454950481653213,0.0180338621139526
1769251885904,-0.0018157958984375,-0.2142181396484375,-0.9697113037109376,0.0050810449756681,-0.0480154640972614,0.0138268657028675
1769251885914,0.0089874267578125,-0.205474853515625,-0.974029541015625,0.0079862875863909,-0.0117967380210757,0.0195912774652242
1769251885924,0.0112152099609375,-0.2080535888671875,-0.974853515625,0.0113253584131598,-0.0042101913131773,0.0166165269911289
1769251885934,0.0125732421875,-0.2113037109375,-0.971710205078125,0.012001534923911,-0.0085466168820858,0.0168876368552446
1769251885944,0.0091705322265625,-0.2184295654296875,-0.969268798828125,0.0033124396577477,0.0041561289690434,0.011135209351778
1769251885954,0.005218505859375,-0.217987060546875,-0.96575927734375,-0.0047526773996651,0.0059614861384034,0.0006056028068996
1769251885964,-0.0059661865234375,-0.2144927978515625,-0.9563446044921876,-0.0180767383426427,-0.0191926024854183,-0.0098779303953051
1769251885974,-0.012481689453125,-0.216461181640625,-0.9491729736328124,-0.0343643650412559,-0.0526347160339355,-0.0257050972431898
1769251885984,-0.0116729736328125,-0.217926025390625,-0.94940185546875,-0.0522139370441436,-0.0810493156313896,-0.0306444615125656
1769251885994,-0.006317138671875,-0.2166595458984375,-0.951385498046875,-0.0668466761708259,-0.1052822172641754,-0.0396233089268207
1769251886005,0.00323486328125,-0.217498779296875,-0.9570770263671876,-0.0738190934062004,-0.1326672285795211,-0.0374222062528133
1769251886015,0.016754150390625,-0.220428466796875,-0.9646148681640624,-0.0803086906671524,-0.1479907929897308,-0.0405705943703651
1769251886025,0.018341064453125,-0.21942138671875,-0.965576171875,-0.0826061964035034,-0.1982084214687347,-0.0375327281653881
1769251886035,0.028045654296875,-0.2075958251953125,-0.9806671142578124,-0.0740212276577949,-0.1988688856363296,-0.023959394544363
1769251886045,0.026031494140625,-0.1910400390625,-1.003631591796875,-0.0660602450370788,-0.0282710529863834,-0.0037936728913336
1769251886055,0.01678466796875,-0.20916748046875,-0.999481201171875,-0.0707303658127784,0.0785659179091453,0.0122926188632845
1769251886067,-0.0049285888671875,-0.2128143310546875,-0.967010498046875,-0.0795629993081092,0.0286553464829921,-0.0026423884555697
1769251886075,-0.0177001953125,-0.20819091796875,-0.9589385986328124,-0.0795629993081092,0.0286553464829921,-0.0026423884555697
1769251886085,-0.023101806640625,-0.20843505859375,-0.9740142822265624,-0.0740332156419754,0.0669643878936767,-0.0106193544343113
1769251886095,-0.005645751953125,-0.193084716796875,-0.9919891357421876,-0.0604849159717559,0.0986549407243728,0.0048104678280651
1769251886105,0.0100860595703125,-0.2007293701171875,-0.9951934814453124,-0.0500535778701305,0.0721306502819061,0.0182357300072908
1769251886115,0.008026123046875,-0.2043609619140625,-0.98541259765625,-0.0453072935342788,0.0334836579859256,0.0134612135589122
1769251886125,-0.015472412109375,-0.2124176025390625,-0.9679718017578124,-0.0539364702999591,0.0205263141542673,-0.009574064053595
1769251886135,-0.0204925537109375,-0.2045745849609375,-0.96173095703125,-0.0596231147646904,0.0167363695800304,-0.0183971170336008
1769251886145,-0.0077362060546875,-0.2003936767578125,-0.97564697265625,-0.0603333823382854,0.0373902469873428,-0.0075782909989356
1769251886155,0.00189208984375,-0.206787109375,-0.97528076171875,-0.059724848717451,0.0204200539737939,-0.0066483151167631
1769251886166,0.013153076171875,-0.2158966064453125,-0.9803009033203124,-0.0576094985008239,0.0265767499804496,-0.0064831990748643
1769251886175,0.012603759765625,-0.21484375,-0.987548828125,-0.0538557730615139,0.0357678495347499,-0.0090110721066594
1769251886185,-0.0034942626953125,-0.1897735595703125,-0.985260009765625,-0.0424140356481075,0.0170572809875011,-0.0167259834706783
1769251886195,-0.0036468505859375,-0.18096923828125,-0.9853973388671876,-0.0275221709161996,-0.0181579645723104,-0.0101612908765673
1769251886206,0.0045166015625,-0.180877685546875,-0.9949951171875,-0.0099157476797699,-0.036601684987545,-0.0013795174891129
1769251886216,0.012359619140625,-0.1701812744140625,-1.000030517578125,0.0100824618712067,-0.0266558453440666,0.0116923423483967
1769251886226,0.0013580322265625,-0.18463134765625,-0.9898834228515624,0.0131325796246528,-0.0155440717935562,0.0075769596733152
1769251886236,-0.001434326171875,-0.21868896484375,-0.9699249267578124,0.0065401908941566,-0.0268004555255174,-0.0022642195690423
1769251886246,0.005401611328125,-0.243621826171875,-0.9704437255859376,0.001390702673234,-0.0347971282899379,-0.0125959524884819
1769251886256,0.0132598876953125,-0.2379150390625,-0.9793548583984376,0.0044309673830866,-0.0285845063626766,-0.0163984149694442
1769251886266,0.0087738037109375,-0.204071044921875,-0.99169921875,0.0260971151292324,-0.0095093492418527,-0.0111445300281047
1769251886276,-0.0020751953125,-0.1841888427734375,-0.998138427734375,0.0464503243565559,-0.0225798767060041,-0.0107690244913101
1769251886286,-0.0104522705078125,-0.1778106689453125,-0.9868011474609376,0.049185387790203,-0.0294473711401224,-0.0072651035152375
1769251886296,-0.004302978515625,-0.18048095703125,-0.9826812744140624,0.0551998727023601,-0.032118521630764,0.0083940178155899
1769251886306,0.0133056640625,-0.1904296875,-0.982757568359375,0.0606228671967983,-0.0327278524637222,0.0290606804192066
1769251886316,0.0211944580078125,-0.2060546875,-0.9775848388671876,0.0679734572768211,-0.0256574265658855,0.0406909696757793
1769251886326,0.0057525634765625,-0.2126007080078125,-0.9727630615234376,0.0703292936086654,-0.0218309964984655,0.0302452538162469
1769251886336,0.0016326904296875,-0.211669921875,-0.96514892578125,0.0687420442700386,-0.0333299934864044,0.0236318260431289
1769251886346,0.0016326904296875,-0.214935302734375,-0.9665679931640624,0.0651883259415626,-0.0622702986001968,0.0230592470616102
1769251886356,-0.000152587890625,-0.2064361572265625,-0.962066650390625,0.0465371422469615,-0.0572009719908237,0.024196682497859
1769251886366,-0.0027618408203125,-0.2024078369140625,-0.96234130859375,0.0259197484701871,-0.0074251592159271,0.0266992542892694
1769251886376,-0.012359619140625,-0.2091064453125,-0.9553680419921876,0.0008048072922974,-0.0034221620298922,0.0258438475430011
1769251886387,-0.01617431640625,-0.2117462158203125,-0.9499359130859376,-0.0211779903620481,0.01384231261909,0.0231418050825595
1769251886396,-0.0030364990234375,-0.21343994140625,-0.9604339599609376,-0.0301776099950075,0.0213428400456905,0.0291427057236433
1769251886407,0.0015869140625,-0.213592529296875,-0.96270751953125,-0.0407335795462131,-0.0036365464329719,0.0281157903373241
1769251886417,-0.0027618408203125,-0.2083282470703125,-0.9663238525390624,-0.0437842309474945,-0.0104718152433633,0.0154732316732406
1769251886427,-0.0028228759765625,-0.206512451171875,-0.96978759765625,-0.0467704348266124,-0.0027342673856765,0.0136758647859096
1769251886437,-0.004180908203125,-0.2124786376953125,-0.973480224609375,-0.0468149110674858,-0.0220698826014995,0.0068693575449287
1769251886447,-0.010986328125,-0.2002410888671875,-0.969451904296875,-0.0436127260327339,-0.0539125017821788,-0.011020959354937
1769251886457,-0.0095977783203125,-0.199554443359375,-0.9775390625,-0.0450361855328083,-0.0215375162661075,-0.0122928852215409
1769251886467,0.0031280517578125,-0.2091827392578125,-0.98455810546875,-0.0419083014130592,-0.0120907509699463,-0.0027859327383339
1769251886477,0.0108642578125,-0.2028656005859375,-0.982025146484375,-0.0352075211703777,-0.0061982409097254,0.0036322853993624
1769251886487,0.0049285888671875,-0.2052154541015625,-0.9799346923828124,-0.0316860228776931,0.0005323658697307,0.0020349214319139
