timestamp_ms,acc_x,acc_y,acc_z,gyro_x,gyro_y,gyro_z
1769244886395,-0.3129730224609375,0.1229248046875,-0.9350128173828124,0.0534136891365051,-0.0139056956395506,0.0189553145319223
1769244886407,-0.304656982421875,0.1200408935546875,-0.9211273193359376,0.0244105346500873,-0.0228427313268184,0.0201793033629655
1769244886413,-0.295562744140625,0.1120147705078125,-0.9180145263671876,-0.0036820864770561,-0.0329864472150802,0.0226081069558858
1769244886423,-0.2870025634765625,0.1058807373046875,-0.9212799072265624,-0.0255991034209728,-0.040556214749813,0.0299898572266101
1769244886433,-0.2856903076171875,0.103851318359375,-0.9268798828125,-0.0304308757185935,-0.0272140447050333,0.047637827694416
1769244886443,-0.285400390625,0.1058807373046875,-0.9369964599609376,-0.0218477752059698,0.0003262372338213,0.0706414133310318
1769244886455,-0.289306640625,0.1093902587890625,-0.945068359375,-0.0055548213422298,0.0298910532146692,0.0821960717439651
1769244886463,-0.3047637939453125,0.111419677734375,-0.94873046875,0.0080544641241431,0.0462769493460655,0.0830528065562248
1769244886474,-0.3158416748046875,0.1139068603515625,-0.945892333984375,0.0179084260016679,0.0562648698687553,0.080045036971569
1769244886485,-0.320281982421875,0.1149749755859375,-0.937286376953125,0.0222014430910348,0.062774434685707,0.0786119848489761
1769244886494,-0.3250885009765625,0.1139678955078125,-0.93426513671875,0.018801650032401,0.0601107403635978,0.0753805041313171
1769244886504,-0.32745361328125,0.114166259765625,-0.92974853515625,0.0115754297003149,0.0542280860245227,0.0668690428137779
1769244886514,-0.3291168212890625,0.1156463623046875,-0.925445556640625,0.0050810449756681,0.061239656060934,0.0588020645081996
1769244886524,-0.3340606689453125,0.113250732421875,-0.93206787109375,0.0003978762542828,0.042357575148344,0.0428630448877811
1769244886535,-0.3310699462890625,0.1112823486328125,-0.9329071044921876,-0.009852897375822,0.0234832223504781,0.031812522560358
1769244886544,-0.325164794921875,0.1118316650390625,-0.9311370849609376,-0.0216791965067386,-0.002495115622878,0.0195699725300073
1769244886554,-0.32281494140625,0.1101837158203125,-0.9315185546875,-0.0329486280679702,-0.0211564172059297,0.0085668563842773
1769244886564,-0.3189544677734375,0.113555908203125,-0.9327239990234376,-0.0408707335591316,-0.0320697873830795,0.0005318332696333
1769244886574,-0.314300537109375,0.1171417236328125,-0.93597412109375,-0.0381857343018054,-0.0365188643336296,-0.0038546593859791
1769244886584,-0.3172760009765625,0.11846923828125,-0.9440460205078124,-0.0285525489598512,-0.0340818054974079,-0.0062666842713952
1769244886594,-0.3157958984375,0.1228179931640625,-0.949676513671875,-0.0143355298787355,-0.0395245067775249,-0.0046914243139326
1769244886605,-0.311492919921875,0.1228790283203125,-0.9541473388671876,-0.0063396547921001,-0.0378432534635067,-0.0067942566238343
1769244886614,-0.313629150390625,0.123046875,-0.9509735107421876,-0.0048256479203701,-0.0377535037696361,-0.0128481546416878
1769244886624,-0.3130645751953125,0.1220703125,-0.9463043212890624,-0.0021840583067387,-0.0379338003695011,-0.0148599063977599
1769244886634,-0.30755615234375,0.12066650390625,-0.94598388671875,-0.0042927493341267,-0.0419077686965465,-0.0136846527457237
1769244886644,-0.30279541015625,0.1180572509765625,-0.9436492919921876,-0.0029574404470622,-0.0589954107999801,-0.0141035681590437
1769244886654,-0.3000946044921875,0.1157989501953125,-0.942718505859375,-0.0132460305467247,-0.070144735276699,-0.0157512668520212
1769244886664,-0.302825927734375,0.1132965087890625,-0.933868408203125,-0.0291128773242235,-0.0706792324781417,-0.0174338519573211
1769244886674,-0.2996368408203125,0.11248779296875,-0.9341278076171876,-0.0362413600087165,-0.0664634481072425,-0.0082307653501629
1769244886684,-0.295379638671875,0.11639404296875,-0.9416961669921876,-0.0333294607698917,-0.05957917496562,-0.0009464874165132
1769244886695,-0.2979888916015625,0.1174468994140625,-0.949066162109375,-0.0267573110759258,-0.0532088913023471,0.0086877644062042
1769244886705,-0.29827880859375,0.120330810546875,-0.9532623291015624,-0.0160181149840354,-0.0474764369428157,0.0112510565668344
1769244886715,-0.303009033203125,0.12115478515625,-0.955352783203125,-0.0113413380458951,-0.0431077890098094,0.0181470457464456
1769244886725,-0.3065643310546875,0.123260498046875,-0.950958251953125,-0.0093423686921596,-0.0372528284788131,0.0191771574318408
1769244886735,-0.31024169921875,0.12298583984375,-0.946533203125,-0.010962369851768,-0.0313283614814281,0.0208296477794647
1769244886745,-0.313873291015625,0.12554931640625,-0.9431915283203124,-0.0110758207738399,-0.0251700673252344,0.0191294867545366
1769244886755,-0.316192626953125,0.1250152587890625,-0.9419403076171876,-0.0108369346708059,-0.0237498041242361,0.0168871041387319
1769244886765,-0.31640625,0.122711181640625,-0.9407501220703124,-0.013620470650494,-0.0202852971851825,0.0104965828359127
1769244886775,-0.316497802734375,0.118743896484375,-0.9384613037109376,-0.0181555673480033,-0.0180093608796596,0.0135363154113292
1769244886785,-0.312591552734375,0.117401123046875,-0.9346923828125,-0.0247532837092876,-0.0224224850535392,0.0151347443461418
1769244886795,-0.3146209716796875,0.11578369140625,-0.9326171875,-0.0281735807657241,-0.0246603395789861,0.0125197861343622
1769244886805,-0.31756591796875,0.1174468994140625,-0.933441162109375,-0.0332740657031536,-0.0268441308289766,0.0155089180916547
1769244886815,-0.3199462890625,0.1197967529296875,-0.934112548828125,-0.0303879994899034,-0.0290138088166713,0.0090872384607791
1769244886825,-0.325347900390625,0.11944580078125,-0.9373321533203124,-0.0310362130403518,-0.0317834950983524,0.0031348068732768
1769244886835,-0.3242645263671875,0.119903564453125,-0.93902587890625,-0.0328239910304546,-0.032794963568449,-0.0010910971323028
1769244886845,-0.324951171875,0.1192626953125,-0.9382171630859376,-0.0308327469974756,-0.0309480614960193,-0.0064160875044763
1769244886855,-0.327178955078125,0.1206817626953125,-0.940948486328125,-0.0247945617884397,-0.0279317665845155,-0.0104872621595859
1769244886865,-0.32659912109375,0.1215057373046875,-0.947235107421875,-0.0142652224749326,-0.0247040148824453,-0.0118193747475743
1769244886875,-0.32635498046875,0.12249755859375,-0.95172119140625,-0.0041073933243751,-0.0231204982846975,-0.0168740544468164
1769244886885,-0.3270263671875,0.121002197265625,-0.95074462890625,0.0058826566673815,-0.0197055283933877,-0.0205758493393659
1769244886895,-0.3222503662109375,0.1192169189453125,-0.945281982421875,0.0084651233628392,-0.0175584871321916,-0.0156916119158267
1769244886906,-0.3160552978515625,0.1130828857421875,-0.937286376953125,-0.0005640574963763,-0.0249668695032596,-0.0094499606639146
1769244886916,-0.305633544921875,0.111328125,-0.9288787841796876,-0.0098286624997854,-0.0341156274080276,-0.0001842907513491
1769244886926,-0.3081512451171875,0.1182861328125,-0.93511962890625,-0.0040181772783398,-0.0423442609608173,-0.0013118730857968
1769244886936,-0.3248443603515625,0.1223297119140625,-0.943695068359375,0.0056959688663482,-0.041105892509222,-0.0120220417156815
1769244886946,-0.3356475830078125,0.1240386962890625,-0.9444427490234376,0.0190985929220914,-0.0246603395789861,-0.0170639380812644
1769244886956,-0.3338165283203125,0.125335693359375,-0.94134521484375,0.0221444498747587,-0.015933958813548,-0.0235452726483345
1769244886966,-0.3247833251953125,0.1192779541015625,-0.9331817626953124,0.0111157679930329,-0.0192048531025648,-0.0202879607677459
1769244886976,-0.3077392578125,0.11566162109375,-0.92510986328125,-0.0004500742070376,-0.0262515768408775,-0.0082520712167024
1769244886986,-0.303741455078125,0.12371826171875,-0.929046630859375,0.0074214311316609,-0.0229497905820608,-0.0040083238855004
1769244886996,-0.3209686279296875,0.12451171875,-0.942901611328125,0.0211710650473833,-0.0112768895924091,-0.005387841258198
1769244887006,-0.32733154296875,0.1277008056640625,-0.9408721923828124,0.0286100730299949,-0.0001699096756055,0.000893224205356
1769244887017,-0.323822021484375,0.1288909912109375,-0.93353271484375,0.0218293983489274,0.0050794472917914,0.004808603785932
1769244887026,-0.3201751708984375,0.1278076171875,-0.9254150390625,0.0062959790229797,0.0001217064636875,0.0052011534571647
1769244887036,-0.31512451171875,0.1229400634765625,-0.9228973388671876,-0.0131251234561204,-0.0145081030204892,0.0022551647853106
1769244887046,-0.310791015625,0.1166534423828125,-0.9222259521484376,-0.0342559739947319,-0.0269463956356048,0.0070374030619859
1769244887056,-0.3027801513671875,0.114044189453125,-0.927490234375,-0.0420395955443382,-0.0363244526088237,0.0142143554985523
1769244887066,-0.308929443359375,0.1165313720703125,-0.9353179931640624,-0.0406528860330581,-0.0339569002389907,0.0137190083041787
1769244887076,-0.3199310302734375,0.11590576171875,-0.9461822509765624,-0.0285568106919527,-0.0196762327104806,0.013169864192605
1769244887087,-0.325653076171875,0.1205596923828125,-0.9546051025390624,-0.0110782170668244,-0.0072499234229326,0.0122966133058071
1769244887096,-0.32879638671875,0.1231231689453125,-0.9597625732421876,0.011086206883192,-0.0027907264884561,0.0074432687833905
1769244887106,-0.3307342529296875,0.1230926513671875,-0.95867919921875,0.0249511562287807,-0.0004849616379942,0.0067146280780434
1769244887117,-0.3316192626953125,0.12274169921875,-0.9538421630859376,0.031424768269062,-0.0030945930629968,0.0014098774408921
1769244887127,-0.3341522216796875,0.1193695068359375,-0.945281982421875,0.0320740453898906,-0.0083071980625391,-0.0017257283907383
1769244887137,-0.3367767333984375,0.118133544921875,-0.9339599609375,0.0249357093125581,-0.008167115971446,-0.0085647264495491
1769244887147,-0.3338623046875,0.1179351806640625,-0.9284515380859376,0.014444719068706,-0.0069117019884288,-0.0061274007894098
1769244887157,-0.327056884765625,0.117828369140625,-0.9271087646484376,0.0117666441947221,-0.0084400903433561,-0.0012205267557874
1769244887167,-0.325653076171875,0.1165771484375,-0.9296417236328124,0.00725365197286,-0.0144836017861962,-0.0017012272728607
1769244887177,-0.3234100341796875,0.1189117431640625,-0.9288482666015624,0.0037332191132009,-0.01612064614892,-0.0011824434623122
1769244887187,-0.3252716064453125,0.1219329833984375,-0.9301300048828124,0.0086922915652394,-0.0103304013609886,-0.0044823666103184
1769244887197,-0.3310394287109375,0.1255035400390625,-0.9344024658203124,0.0175568889826536,-0.0066421898081898,-0.0133104790002107
1769244887207,-0.33349609375,0.130096435546875,-0.93560791015625,0.0239969454705715,0.0006865629111416,-0.0153477974236011
1769244887217,-0.3308563232421875,0.1286468505859375,-0.93499755859375,0.029582392424345,0.0035270904190838,-0.0193955358117818
1769244887227,-0.328155517578125,0.125640869140625,-0.9322967529296876,0.0314798951148986,0.0034349451307207,-0.0262300055474042
1769244887237,-0.3292236328125,0.1179046630859375,-0.9302520751953124,0.0211913045495748,-0.0080198431387543,-0.0264651626348495
1769244887247,-0.319061279296875,0.1260223388671875,-0.9199981689453124,0.0069636334665119,-0.0172575507313013,-0.0241423547267913
1769244887257,-0.3147125244140625,0.11297607421875,-0.9231719970703124,0.0084281060844659,-0.0199020691215991,-0.0151840131729841
1769244887267,-0.3052825927734375,0.1117095947265625,-0.9354248046875,-0.0041944785043597,-0.0208461601287126,-0.0012801815755665
1769244887277,-0.3032989501953125,0.1133880615234375,-0.92755126953125,-0.0112198973074555,-0.0200048666447401,0.0081543326377868
1769244887288,-0.3081512451171875,0.1076812744140625,-0.9296875,-0.0142601625993847,-0.0126108666881918,0.014378672465682
1769244887297,-0.313323974609375,0.112548828125,-0.9356536865234376,-0.0160695146769285,-0.0073007899336516,0.0143882604315876
1769244887307,-0.3198089599609375,0.111236572265625,-0.938262939453125,-0.0181158874183893,-0.0067915935069322,0.0131248570978641
1769244887318,-0.32232666015625,0.1106719970703125,-0.939788818359375,-0.0201404225081205,-0.0049590724520385,0.0175544917583465
1769244887328,-0.32220458984375,0.1123199462890625,-0.9434814453125,-0.0175957717001438,-0.005633917171508,0.0222664233297109
1769244887338,-0.323638916015625,0.1128692626953125,-0.9475250244140624,-0.0119032645598053,-0.0041561289690434,0.026072347536683
1769244887348,-0.3300018310546875,0.115142822265625,-0.949127197265625,-0.002593119861558,0.001111869700253,0.0229292847216129
1769244887358,-0.333892822265625,0.1185150146484375,-0.95269775390625,0.0105386609211564,-0.0005779059720225,0.0139776011928915
1769244887368,-0.3380126953125,0.1182861328125,-0.9512786865234376,0.0137222036719322,-0.0025869945529848,0.0057457699440419
1769244887378,-0.335479736328125,0.1160430908203125,-0.9431304931640624,0.0113240275532007,5.619269722956233e-05,0.0075503280386328
1769244887388,-0.32720947265625,0.1142120361328125,-0.93585205078125,0.0083511406555771,-0.0039513320662081,0.005560946650803
1769244887398,-0.3249053955078125,0.1134185791015625,-0.9303741455078124,0.0009614011505618,0.0001374191051581,0.013505688868463
1769244887408,-0.3200836181640625,0.1119384765625,-0.9268341064453124,-0.0047590686008334,0.0050719901919364,0.0215985029935836
1769244887418,-0.316253662109375,0.1107330322265625,-0.9300689697265624,-0.0045979474671185,0.0058554923161864,0.0313802920281887
1769244887428,-0.3191070556640625,0.115081787109375,-0.9338836669921876,-0.0002753708686213,0.0016050871927291,0.0295858550816774
1769244887438,-0.3294830322265625,0.1173553466796875,-0.9351806640625,0.0017158746486529,-0.0039806268177926,0.0201928857713937
1769244887448,-0.3346710205078125,0.118316650390625,-0.931549072265625,-0.0037673076149076,-0.0070531158708035,0.0137488357722759
1769244887458,-0.3335723876953125,0.1161041259765625,-0.9263458251953124,-0.0130220586434006,-0.0108158960938453,0.0090544810518622
1769244887468,-0.329498291015625,0.11517333984375,-0.9249267578125,-0.0236957427114248,-0.0097975032404065,0.0126188565045595
1769244887478,-0.3245391845703125,0.1144561767578125,-0.924224853515625,-0.0313486009836196,-0.0050544133409857,0.0168852396309375
1769244887488,-0.3233795166015625,0.1136322021484375,-0.9306640625,-0.0314796306192874,0.0009076052810996,0.0248302482068538
1769244887498,-0.3195953369140625,0.1150054931640625,-0.9389801025390624,-0.0265637002885341,0.0034506577067077,0.0287179313600063
1769244887509,-0.3215484619140625,0.116180419921875,-0.9440155029296876,-0.0173805877566337,0.0030296121258288,0.0221401900053024
1769244887519,-0.3287506103515625,0.1175689697265625,-0.9460601806640624,-0.0099663473665714,0.0034357442054897,0.0130753219127655
1769244887529,-0.3289642333984375,0.118316650390625,-0.9435882568359376,-0.0078113176859915,0.0013427657540887,0.003884752979502
1769244887539,-0.3301849365234375,0.11578369140625,-0.942291259765625,-0.0103810019791126,0.0007291734800674,-0.0003877562412526
1769244887549,-0.3269500732421875,0.1162261962890625,-0.936248779296875,-0.0117184417322278,-0.0032746228389441,-0.0012239888310432
1769244887559,-0.325439453125,0.1163177490234375,-0.9355010986328124,-0.0161094609647989,-0.0012767193838953,0.0018165421206504
1769244887569,-0.3232421875,0.1129150390625,-0.9361419677734376,-0.0160370226949453,0.0006367618334479,0.0067806742154061
1769244887579,-0.3122711181640625,0.1095123291015625,-0.9363861083984376,-0.0227625705301761,-0.0055670719593763,0.0189236234873533
1769244887589,-0.31109619140625,0.1160430908203125,-0.9368133544921876,-0.0226166285574436,-0.0147507162764668,0.0172311849892139
1769244887599,-0.3289794921875,0.1197662353515625,-0.9437103271484376,-0.0170721933245658,-0.0139485727995634,0.0121080614626407
1769244887609,-0.33868408203125,0.1233978271484375,-0.9441070556640624,-0.00646588858217,6.231796578504145e-05,0.0022786005865782
1769244887619,-0.343902587890625,0.12530517578125,-0.946075439453125,0.0073577812872827,0.0127639984712004,-0.0085564702749252
1769244887629,-0.3431243896484375,0.1230010986328125,-0.9435577392578124,0.0095905754715204,0.0176668781787157,-0.0197574589401483
1769244887639,-0.3275146484375,0.115081787109375,-0.934417724609375,-0.0051452270708978,0.0070922640152275,-0.0155360829085111
1769244887649,-0.3086700439453125,0.117034912109375,-0.928192138671875,-0.0065630939789116,0.0015017564874142,-0.0044879592023789
1769244887659,-0.313751220703125,0.1207122802734375,-0.9359588623046876,-0.0016969662392511,0.0053220610134303,0.0011414308100938
1769244887670,-0.3298797607421875,0.120574951171875,-0.937896728515625,0.0061329938471317,0.011044661514461,0.0068328725174069
1769244887679,-0.3329620361328125,0.1240386962890625,-0.9304656982421876,0.00262401252985,0.0192820858210325,0.0048107341863214
1769244887689,-0.3357696533203125,0.1251068115234375,-0.9224853515625,-0.0125735821202397,0.0182543713599443,-0.002346244873479
1769244887699,-0.3333892822265625,0.1246795654296875,-0.9158477783203124,-0.0306045152246952,0.0067857345566153,-0.0108028464019298
1769244887709,-0.324798583984375,0.1201019287109375,-0.9158172607421876,-0.0482823103666305,-0.0106885973364114,-0.0148292798548936
1769244887719,-0.3170318603515625,0.113433837890625,-0.9219818115234376,-0.056316003203392,-0.0202477481216192,-0.013244698755443
1769244887729,-0.31298828125,0.1128387451171875,-0.9332122802734376,-0.0524568147957325,-0.0195891484618186,-0.0082379560917615
1769244887740,-0.318267822265625,0.1124114990234375,-0.945098876953125,-0.0371915772557258,-0.0098752677440643,-0.0072179655544459
1769244887750,-0.33013916015625,0.1138916015625,-0.9515838623046876,-0.0186517145484685,0.0030453247018158,-0.0121285682544112
1769244887760,-0.3354949951171875,0.1150665283203125,-0.954833984375,-0.002192846732214,0.0134905083104968,-0.0098403804004192
1769244887770,-0.333099365234375,0.117462158203125,-0.9532012939453124,0.0114191016182303,0.0209678653627634,-0.0087894964963197
1769244887780,-0.3336944580078125,0.1181793212890625,-0.953155517578125,0.0223449859768152,0.0193151086568832,-0.0122337630018591
1769244887790,-0.3359832763671875,0.1165924072265625,-0.9481048583984376,0.0254715383052825,0.0191105771809816,-0.0102715454995632
1769244887800,-0.3355255126953125,0.1170196533203125,-0.9400787353515624,0.0255604870617389,0.0231561847031116,-0.0108944596722722
1769244887810,-0.3336029052734375,0.1161651611328125,-0.9375,0.027600735425949,0.022907979786396,-0.0110886041074991
1769244887820,-0.3298492431640625,0.1173248291015625,-0.9362640380859376,0.0263290759176015,0.0222408566623926,-0.0130114061757922
1769244887830,-0.3289337158203125,0.1161956787109375,-0.9324951171875,0.0188820790499448,0.0144521761685609,-0.0161550007760524
1769244887840,-0.324615478515625,0.1165618896484375,-0.9247283935546876,0.0029379993211477,0.0106856673955917,-0.0164945535361766
1769244887851,-0.3211212158203125,0.1160736083984375,-0.922210693359375,-0.0086827035993337,0.0045345644466578,-0.0166953559964895
1769244887860,-0.3163909912109375,0.1146240234375,-0.9248199462890624,-0.014108894392848,0.0037510623224079,-0.0029675604309886
1769244887870,-0.308837890625,0.1183929443359375,-0.9301605224609376,-0.0119970077648758,0.0070770843885838,0.0059811933897435
1769244887880,-0.314178466796875,0.121795654296875,-0.9380035400390624,-0.0119970077648758,0.0070770843885838,0.0059811933897435
1769244887891,-0.322601318359375,0.12200927734375,-0.938140869140625,-0.009278985671699,0.0108640994876623,0.0024154870770871
1769244887900,-0.3280029296875,0.1229400634765625,-0.932586669921875,-0.0151222273707389,0.0147163616493344,-0.0013326457701623
1769244887911,-0.3273162841796875,0.123504638671875,-0.9290313720703124,-0.0191308166831731,0.0119203086942434,-0.0107234846800565
1769244887920,-0.328521728515625,0.12115478515625,-0.9291229248046876,-0.0265210904181003,0.0111527862027287,-0.0155286258086562
1769244887930,-0.32562255859375,0.119964599609375,-0.9268798828125,-0.0324556790292263,0.0074435351416468,-0.0197654496878385
1769244887941,-0.3272247314453125,0.119384765625,-0.930450439453125,-0.0325028151273727,0.003876230912283,-0.025825472548604
1769244887953,-0.326629638671875,0.1187896728515625,-0.9327392578125,-0.031261783093214,0.0092989597469568,-0.0267101731151342
1769244887961,-0.3225555419921875,0.1173248291015625,-0.9335479736328124,-0.0296822618693113,0.0150529853999614,-0.0208320450037717
1769244887971,-0.3174591064453125,0.11602783203125,-0.9358367919921876,-0.0255144145339727,0.0201073978096246,-0.0125706531107425
1769244887981,-0.3142547607421875,0.11639404296875,-0.93719482421875,-0.0217266008257865,0.0225210208445787,-0.0056570866145193
1769244887991,-0.3159637451171875,0.116058349609375,-0.9393463134765624,-0.0191846136003732,0.0186972543597221,0.0031723575666546
1769244888006,-0.3173828125,0.1169586181640625,-0.9400787353515624,-0.0155022609978914,0.0145469848066568,0.006844856776297
1769244888011,-0.321563720703125,0.1189422607421875,-0.939849853515625,-0.0168170630931854,0.0089271822944283,0.001498028053902
1769244888021,-0.3273773193359375,0.1181640625,-0.93756103515625,-0.023127157241106,0.0116337528452277,0.0001086569682229
1769244888031,-0.3278350830078125,0.1220855712890625,-0.939544677734375,-0.0192325506359338,0.0091684646904468,-0.0052991579286754
1769244888041,-0.331390380859375,0.121429443359375,-0.9488067626953124,-0.0081303641200065,0.0078217042610049,-0.0100433127954602
1769244888051,-0.327484130859375,0.1211090087890625,-0.9524688720703124,-0.0027534421533346,0.0108337393030524,-0.0072746905498206
1769244888061,-0.322265625,0.1183929443359375,-0.9495697021484376,0.0026786073576658,0.0110262855887413,-0.0042384206317365
1769244888071,-0.31854248046875,0.11505126953125,-0.945465087890625,0.0031523837242275,0.0056554889306426,-7.616640505148098e-05
1769244888081,-0.3190460205078125,0.1129302978515625,-0.9435577392578124,-0.0009131979313679,0.0011776498286053,0.0020711403340101
1769244888091,-0.318695068359375,0.1123809814453125,-0.940521240234375,-0.001072454964742,-0.0058384481817483,0.0025590313598513
1769244888107,-0.3188018798828125,0.1136932373046875,-0.9383087158203124,-0.0064770742319524,-0.0055662728846073,0.0065780077129602
1769244888111,-0.3224945068359375,0.1141204833984375,-0.9379425048828124,-0.0021347899455577,0.0027739484794437,0.0075950692407786
1769244888121,-0.3231658935546875,0.1184539794921875,-0.9432830810546876,0.0040077911689877,0.0084645915776491,0.0110928649082779
1769244888131,-0.3249053955078125,0.1177215576171875,-0.943084716796875,0.009049953892827,0.0117943417280912,0.0107714217156171
1769244888141,-0.3278045654296875,0.1184234619140625,-0.9418792724609376,0.0125347003340721,0.0095258606597781,0.0028463865164667
1769244888152,-0.33294677734375,0.1233978271484375,-0.93902587890625,0.0143528403714299,0.0103945843875408,-0.0087839039042592
1769244888161,-0.3351287841796875,0.1231689453125,-0.9335479736328124,0.0144053045660257,0.0076267607510089,-0.0170799177139997
1769244888171,-0.331939697265625,0.1233978271484375,-0.93060302734375,0.0085807051509618,0.004293015692383,-0.0271208342164754
1769244888181,-0.331329345703125,0.1217803955078125,-0.926513671875,0.0024647556710988,0.0019864519126713,-0.0325046814978122
1769244888192,-0.327667236328125,0.1190643310546875,-0.9238433837890624,-0.0058682751841843,0.0002958771947305,-0.0282830372452735
1769244888203,-0.3202667236328125,0.1172027587890625,-0.9233551025390624,-0.0136095518246293,-0.0018202705541625,-0.0203111302107572
1769244888212,-0.3180084228515625,0.118438720703125,-0.92608642578125,-0.0184951201081275,-0.0053273872472345,-0.0229196976870298
1769244888222,-0.321502685546875,0.1174774169921875,-0.9252471923828124,-0.0265003163367509,-0.0077466028742492,-0.026046248152852
1769244888232,-0.3240203857421875,0.119720458984375,-0.9278411865234376,-0.0269645061343908,-0.0115583855658769,-0.0301440544426441
1769244888242,-0.325164794921875,0.1199188232421875,-0.9299468994140624,-0.0337190814316272,-0.014708106406033,-0.0363268479704856
1769244888252,-0.324981689453125,0.12164306640625,-0.9296417236328124,-0.0372927784919738,-0.0177467726171016,-0.0399348996579647
1769244888262,-0.325531005859375,0.123046875,-0.9337615966796876,-0.0366608090698719,-0.0185742173343896,-0.0442556105554103
1769244888272,-0.3284759521484375,0.1227569580078125,-0.9342803955078124,-0.0369668044149875,-0.0178655497729778,-0.048814944922924
1769244888282,-0.3252410888671875,0.12255859375,-0.9405364990234376,-0.0289759915322065,-0.0149808134883642,-0.0452279299497604
1769244888292,-0.3195037841796875,0.1197509765625,-0.947265625,-0.0222240798175334,-0.0221758764237165,-0.0404094755649566
1769244888302,-0.3097076416015625,0.1159820556640625,-0.9459686279296876,-0.0272859502583742,-0.0305845402181148,-0.0283275116235017
1769244888312,-0.3045654296875,0.1192779541015625,-0.9425048828125,-0.0252997633069753,-0.0375681482255458,-0.0214016959071159
1769244888322,-0.3246002197265625,0.119293212890625,-0.946563720703125,-0.0210805181413888,-0.0380267426371574,-0.0292260628193616
1769244888332,-0.3375244140625,0.1201934814453125,-0.9434356689453124,-0.0191257577389478,-0.0294348541647195,-0.0326740555465221
1769244888343,-0.342041015625,0.123809814453125,-0.9376373291015624,-0.0174716673791408,-0.0256017670035362,-0.0462878681719303
1769244888353,-0.3456268310546875,0.123687744140625,-0.9390106201171876,-0.0150460610166192,-0.0195843540132045,-0.0616860017180442
1769244888362,-0.336517333984375,0.1227264404296875,-0.93682861328125,-0.0190525203943252,-0.0288622751832008,-0.0676924958825111
1769244888373,-0.322357177734375,0.12225341796875,-0.937164306640625,-0.0108633004128932,-0.0313565917313098,-0.0661007240414619
1769244888383,-0.325164794921875,0.126556396484375,-0.945159912109375,0.0052970275282859,-0.0209681317210197,-0.0653406605124473
1769244888393,-0.3368988037109375,0.1264801025390625,-0.94384765625,0.0169707275927066,-0.0137299271300435,-0.0605512261390686
1769244888403,-0.33758544921875,0.1247100830078125,-0.9318084716796876,0.0136143453419208,-0.0092038847506046,-0.0577620975673198
1769244888413,-0.333526611328125,0.123321533203125,-0.9164581298828124,-0.0047646616585552,-0.0123251089826226,-0.0587988682091236
1769244888423,-0.329742431640625,0.1168212890625,-0.9061737060546876,-0.0355004705488681,-0.0240949504077434,-0.0566462352871894
1769244888433,-0.3204345703125,0.1080474853515625,-0.8998565673828125,-0.0664567872881889,-0.0389703027904033,-0.0510365515947341
1769244888443,-0.3118133544921875,0.102081298828125,-0.9046478271484376,-0.0846885219216346,-0.0446289852261543,-0.0387175679206848
1769244888453,-0.308349609375,0.1048431396484375,-0.9189453125,-0.082605667412281,-0.0314186438918113,-0.0162162538617849
1769244888463,-0.3110504150390625,0.1085205078125,-0.937255859375,-0.0670016705989837,-0.0135525604709982,-0.0017446368001401
1769244888473,-0.3241729736328125,0.1110687255859375,-0.950927734375,-0.0396217107772827,0.0036834180355072,0.0041851578280329
1769244888483,-0.3348541259765625,0.1165924072265625,-0.9608001708984376,-0.0064408550970256,0.0181134901940822,-0.0014375743921846
1769244888493,-0.3441925048828125,0.120330810546875,-0.962738037109375,0.0169233232736587,0.018330005928874,-0.0091373054310679
1769244888503,-0.348114013671875,0.1186676025390625,-0.9501495361328124,0.024981515482068,0.014593856409192,-0.0178149491548538
1769244888513,-0.3486480712890625,0.1175994873046875,-0.9364166259765624,0.0219029020518064,0.0061058294959366,-0.0278587955981493
1769244888523,-0.3459320068359375,0.1142730712890625,-0.9278106689453124,0.0119717083871364,-0.0050211236812174,-0.0369284562766552
1769244888533,-0.3430328369140625,0.1143341064453125,-0.9198455810546876,-7.829693640815094e-05,-0.0108502507209777,-0.038783349096775
1769244888543,-0.33319091796875,0.1129150390625,-0.91778564453125,-0.0096342517063021,-0.0132915703579783,-0.0314798951148986
1769244888554,-0.324249267578125,0.113677978515625,-0.9219207763671876,-0.017560351639986,-0.026853185147047,-0.0225085038691759
1769244888563,-0.3202667236328125,0.1150970458984375,-0.9262237548828124,-0.0248259883373975,-0.0319028049707412,-0.0171278547495603
1769244888574,-0.321746826171875,0.1200408935546875,-0.9310760498046876,-0.0265242848545312,-0.0288106091320514,-0.0072547169402241
1769244888584,-0.3250274658203125,0.1277313232421875,-0.9410858154296876,-0.0179294664412736,-0.0242502111941576,-0.0019949739798903
1769244888594,-0.331329345703125,0.1301116943359375,-0.9499664306640624,-0.0091112069785594,-0.0206512156873941,-0.0073609771206974
1769244888605,-0.3374786376953125,0.1358795166015625,-0.9490509033203124,-0.0032045817933976,-0.0184727497398853,-0.0150684313848614
1769244888614,-0.3395843505859375,0.138458251953125,-0.944183349609375,-0.0022240057587623,-0.0169677976518869,-0.0252957697957754
1769244888624,-0.3362274169921875,0.1388702392578125,-0.9408416748046876,-0.0089394329115748,-0.0180775374174118,-0.0221407227218151
1769244888634,-0.3289794921875,0.13958740234375,-0.9382781982421876,-0.0103921871632337,-0.0177084226161241,-0.0249761901795864
1769244888644,-0.3324737548828125,0.1365814208984375,-0.9392852783203124,-0.011478223837912,-0.0089370356872677,-0.0210703983902931
1769244888655,-0.329315185546875,0.1356658935546875,-0.9424591064453124,-0.0059058261103928,0.0018202705541625,-0.0164309050887823
1769244888664,-0.32843017578125,0.13037109375,-0.942352294921875,-0.0037260286044329,0.0161262396723032,-0.0062997075729072
1769244888674,-0.3258819580078125,0.1257171630859375,-0.9409637451171876,-0.0014532869681715,0.0307456627488136,-0.0006090649403631
1769244888684,-0.3250732421875,0.123931884765625,-0.938934326171875,-0.001064199139364,0.0384187623858451,0.0096446378156542
1769244888694,-0.323974609375,0.122833251953125,-0.937103271484375,0.0008530105114914,0.0399974845349788,0.0157009325921535
1769244888704,-0.32720947265625,0.1242218017578125,-0.937744140625,0.0019851203542202,0.0379628278315067,0.0149986566975712
1769244888714,-0.3339996337890625,0.1270599365234375,-0.940521240234375,0.0047337687574326,0.035369973629713,0.007939682342112
1769244888724,-0.339019775390625,0.127899169921875,-0.9408111572265624,0.0048147290945053,0.030027674511075,0.0015805860748514
1769244888734,-0.3385467529296875,0.126953125,-0.938201904296875,0.0052453619427978,0.0257658176124095,-0.0054658716544508
1769244888744,-0.33935546875,0.1241455078125,-0.93731689453125,0.0009004147723317,0.0234462041407823,-0.0060051619075238
1769244888755,-0.3354339599609375,0.122161865234375,-0.931182861328125,-0.0005534048541449,0.0224752146750688,-0.0053438991308212
1769244888765,-0.3323211669921875,0.1217193603515625,-0.9321136474609376,0.0003587277897167,0.022086126729846,-0.0020903151016682
1769244888774,-0.3332061767578125,0.1228485107421875,-0.9321746826171876,0.0069042448885738,0.0242158565670251,-0.0015275891637429
1769244888785,-0.334686279296875,0.1244049072265625,-0.9338226318359376,0.010840130969882,0.0282425563782453,-0.0024650217965245
1769244888795,-0.331756591796875,0.1229400634765625,-0.9339752197265624,0.016564330086112,0.0301816035062074,-0.001529986038804
1769244888805,-0.3315887451171875,0.1216888427734375,-0.93328857421875,0.0190352108329534,0.0258939154446125,-0.0061953114345669
1769244888815,-0.3329315185546875,0.119232177734375,-0.92742919921875,0.0164364967495203,0.025887256488204,-0.0166077390313148
1769244888825,-0.3326263427734375,0.1156463623046875,-0.91925048828125,0.0107852695509791,0.0228533837944269,-0.0234049241989851
1769244888836,-0.3280181884765625,0.11468505859375,-0.9116973876953124,-0.0043806335888803,0.0171715300530195,-0.0214773286134004
1769244888845,-0.322723388671875,0.1143951416015625,-0.9062347412109376,-0.0193792898207902,0.0091578122228384,-0.0190392043441534
1769244888855,-0.3222503662109375,0.1146087646484375,-0.90740966796875,-0.0335188098251819,0.0039063245058059,-0.0128875691443681
1769244888865,-0.323272705078125,0.1176300048828125,-0.9118194580078124,-0.0481326431035995,-0.0027427896857261,-0.0078089209273457
1769244888875,-0.3245849609375,0.1189727783203125,-0.9177398681640624,-0.0585852824151515,0.0009520800667814,-0.0013483584625646
1769244888885,-0.3227081298828125,0.123016357421875,-0.922576904296875,-0.0608590878546237,-0.0023952471092343,0.00789893604815
1769244888895,-0.3253021240234375,0.120849609375,-0.9319915771484376,-0.0599275156855583,-0.0024088292848318,0.0136050246655941
1769244888905,-0.3244171142578125,0.1230010986328125,-0.937713623046875,-0.0549311600625515,-0.0027153589762747,0.0172402393072843
1769244888915,-0.3252716064453125,0.1223297119140625,-0.94085693359375,-0.0507646426558494,-0.0022003035992383,0.0244350358843803
1769244888925,-0.322235107421875,0.125732421875,-0.9415435791015624,-0.0455610938370227,-0.0003137203748337,0.0220115594565868
1769244888935,-0.3324432373046875,0.124053955078125,-0.94317626953125,-0.0399325005710125,0.0032186964526772,0.0244307741522789
1769244888945,-0.33221435546875,0.1264495849609375,-0.94635009765625,-0.0310708340257406,0.008877114392817,0.0221087634563446
1769244888956,-0.336669921875,0.1301727294921875,-0.95184326171875,-0.0209686644375324,0.0168101396411657,0.0172551535069942
1769244888965,-0.3394775390625,0.12872314453125,-0.9517669677734376,-0.0133371111005544,0.0307914689183235,0.022464295849204
1769244888975,-0.328094482421875,0.1298675537109375,-0.9521636962890624,-0.0021590245887637,0.0357161872088909,0.0296439118683338
1769244888986,-0.326751708984375,0.126678466796875,-0.9509124755859376,0.0036242958158254,0.0355281680822372,0.0238475427031517
1769244888996,-0.3321533203125,0.1267242431640625,-0.9444732666015624,0.0079063922166824,0.0332804583013057,0.0164772439748048
1769244889006,-0.3363800048828125,0.121307373046875,-0.9378662109375,0.0045348308049142,0.0274334885179996,0.0075023910030722
1769244889016,-0.3324432373046875,0.12109375,-0.9286346435546876,-0.0025286714080721,0.0231391414999961,0.0028186896815896
1769244889026,-0.3201446533203125,0.11907958984375,-0.9213409423828124,-0.0161693822592496,0.0178469084203243,0.0151089113205671
1769244889036,-0.3096466064453125,0.1205902099609375,-0.9208221435546876,-0.0200304333120584,0.017217069864273,0.0268824808299541
1769244889046,-0.32061767578125,0.1256256103515625,-0.9300689697265624,-0.0108225541189312,0.0131677333265542,0.027116572484374
1769244889056,-0.3329010009765625,0.128753662109375,-0.93597412109375,-0.0042642536573112,0.0160271693021059,0.0203225817531347
1769244889066,-0.3403167724609375,0.130279541015625,-0.9334259033203124,0.0042775692418217,0.0274095200002193,0.0066059711389243
1769244889076,-0.3444061279296875,0.12860107421875,-0.93212890625,0.0082273036241531,0.0308726951479911,-0.0097516970708966
1769244889087,-0.3353424072265625,0.124755859375,-0.9262237548828124,-0.0043340283446013,0.0175241325050592,-0.0164993479847908
1769244889096,-0.3172760009765625,0.12359619140625,-0.9189605712890624,-0.0106579707935452,0.0055050202645361,-0.017565943300724
1769244889106,-0.319366455078125,0.127471923828125,-0.927490234375,-0.0018690064316615,0.0093090794980525,-0.0161331631243228
1769244889116,-0.33154296875,0.1320648193359375,-0.9337615966796876,0.0125533426180481,0.0212221983820199,-0.0139546981081366
1769244889126,-0.3330535888671875,0.1300811767578125,-0.9314727783203124,0.0133205987513065,0.0294220708310604,-0.0128670623525977
1769244889136,-0.3273468017578125,0.1280059814453125,-0.91925048828125,-0.0084046702831983,0.0219279360026121,-0.0159054640680551
1769244889146,-0.3233184814453125,0.1256103515625,-0.9108428955078124,-0.0365625396370887,0.0082142539322376,-0.020026171579957
1769244889157,-0.315521240234375,0.12249755859375,-0.9122772216796876,-0.0577927269041538,-0.0015997608425095,-0.0244147945195436
1769244889166,-0.308319091796875,0.1165771484375,-0.92474365234375,-0.0624508596956729,-0.0018485001055523,-0.0156151782721281
1769244889176,-0.303985595703125,0.1163177490234375,-0.9417266845703124,-0.0431575886905193,0.0133565515279769,0.0040602553635835
1769244889187,-0.3024444580078125,0.118133544921875,-0.965118408203125,-0.0118974056094884,0.0188607722520828,0.0198469422757625
1769244889197,-0.3118896484375,0.1186676025390625,-0.9725189208984376,0.0187909975647926,0.0291688051074743,0.0253469012677669
1769244889207,-0.3250732421875,0.1218719482421875,-0.972625732421875,0.04476960003376,0.0291469655930995,0.0211929026991128
1769244889217,-0.334381103515625,0.1209869384765625,-0.9660491943359376,0.060486514121294,0.0344088412821292,0.0205769147723913
1769244889227,-0.3379058837890625,0.12237548828125,-0.9530029296875,0.0637009516358375,0.026921097189188,0.0151493921875953
1769244889237,-0.3413238525390625,0.122222900390625,-0.942626953125,0.0589884854853153,0.0156700406223535,0.0074539217166602
1769244889247,-0.34173583984375,0.1194305419921875,-0.934234619140625,0.0522922314703464,0.0047862329520285,1.4114753867033867e-05
1769244889257,-0.3373565673828125,0.11663818359375,-0.928436279296875,0.0417671538889408,-0.0008061388507485,-0.0021078919526189
1769244889267,-0.332855224609375,0.1176605224609375,-0.9274444580078124,0.0375276692211627,-0.0064672203734517,-0.0008711199625395
1769244889277,-0.3284149169921875,0.1167449951171875,-0.9292755126953124,0.0349446684122085,-0.0113093797117471,-0.0023936491925269
1769244889287,-0.3232269287109375,0.1160888671875,-0.927520751953125,0.0264132320880889,-0.0108515825122594,0.0032900692895054
1769244889297,-0.315338134765625,0.1189422607421875,-0.923980712890625,0.0208403002470731,-0.0124702518805861,0.0065447185188531
1769244889307,-0.3175201416015625,0.11767578125,-0.9288330078125,0.0206083394587039,-0.0094584831967949,0.0106007130816578
1769244889317,-0.3171539306640625,0.1193084716796875,-0.928466796875,0.0230155698955059,-0.0049976878799498,0.0118657145649194
1769244889327,-0.314605712890625,0.118865966796875,-0.9278717041015624,0.0229095760732889,-0.0002378202771069,0.0186538454145193
1769244889337,-0.3161468505859375,0.1180267333984375,-0.9251251220703124,0.0156782958656549,-0.0003480751474853,0.023779897019267
1769244889347,-0.3182525634765625,0.1200408935546875,-0.9227447509765624,0.00453722756356,-0.0046360306441783,0.0180929843336343
1769244889357,-0.327301025390625,0.1220550537109375,-0.92047119140625,-0.007619303651154,-0.0110696954652667,0.006818757392466
1769244889367,-0.3330230712890625,0.1221160888671875,-0.9199371337890624,-0.0215100850909948,-0.0152015900239348,-0.0049846386536955
1769244889377,-0.3290863037109375,0.1220550537109375,-0.9222564697265624,-0.0297195464372634,-0.01991618424654,-0.0084627270698547
1769244889388,-0.3252105712890625,0.118499755859375,-0.9279327392578124,-0.0345545150339603,-0.0248427651822567,-0.0097072217613458
1769244889397,-0.322113037109375,0.1165618896484375,-0.93133544921875,-0.035853337496519,-0.0253969691693782,-0.0062666842713952
1769244889408,-0.3226318359375,0.1142120361328125,-0.9366912841796876,-0.0318623259663581,-0.0252305213361978,-0.0060645504854619
1769244889418,-0.3234405517578125,0.11663818359375,-0.9427642822265624,-0.0284066069871187,-0.023021962493658,-0.0079940110445022
1769244889428,-0.32720947265625,0.1180267333984375,-0.944549560546875,-0.0191462635993957,-0.0182391908019781,-0.007809187285602
1769244889438,-0.32757568359375,0.120635986328125,-0.949462890625,-0.0065788067877292,-0.0182991120964288,-0.010513893328607
1769244889448,-0.32904052734375,0.123565673828125,-0.95587158203125,0.0059508332051336,-0.0240281037986278,-0.015353656373918
1769244889458,-0.32928466796875,0.1220550537109375,-0.953155517578125,0.0092795183882117,-0.0333486348390579,-0.0191012565046548
1769244889468,-0.329986572265625,0.120330810546875,-0.9439849853515624,0.0106627643108367,-0.027224963530898,-0.0156652461737394
1769244889478,-0.3251800537109375,0.11962890625,-0.940216064453125,0.0105285411700606,-0.0257876552641391,-0.0133485626429319
1769244889488,-0.3251953125,0.1170501708984375,-0.93719482421875,0.0086395610123872,-0.0226704254746437,-0.0043835630640387
1769244889498,-0.3215789794921875,0.1185455322265625,-0.9362335205078124,0.009491772390902,-0.0196168441325426,0.0019992350134998
1769244889508,-0.3199005126953125,0.1193084716796875,-0.9364166259765624,0.0109924636781215,-0.0136138126254081,0.0071985241957008
1769244889518,-0.321044921875,0.11956787109375,-0.939300537109375,0.0185454543679952,-0.0093812514096498,0.0088499505072832
1769244889528,-0.32452392578125,0.12017822265625,-0.9405670166015624,0.0224547088146209,-0.0119227059185504,0.0105485143139958
1769244889538,-0.325347900390625,0.121490478515625,-0.937896728515625,0.0202863626182079,-0.0125440210103988,0.0095429047942161
1769244889548,-0.327362060546875,0.1213226318359375,-0.932830810546875,0.0162671208381652,-0.0144111635163426,0.0112515892833471
1769244889558,-0.3270416259765625,0.12103271484375,-0.9301300048828124,0.010095776990056,-0.0156410112977027,0.0109266834333539
1769244889570,-0.32623291015625,0.1192626953125,-0.9279022216796876,0.0044085970148444,-0.0167134664952754,0.0127264475449919
1769244889578,-0.3238677978515625,0.1193389892578125,-0.9272308349609376,7.323692989302799e-05,-0.0184048395603895,0.0126846358180046
1769244889589,-0.3238067626953125,0.118072509765625,-0.92657470703125,-0.0028280108235776,-0.0177209395915269,0.0107991183176636
1769244889598,-0.3262176513671875,0.115936279296875,-0.928436279296875,-0.0080986730754375,-0.0147525807842612,0.0141302002593874
1769244889609,-0.3237762451171875,0.11822509765625,-0.928375244140625,-0.0074169035069644,-0.0093117430806159,0.0179233402013778
1769244889619,-0.322357177734375,0.11590576171875,-0.9314117431640624,-0.007726895622909,-0.0102744754403829,0.022972960025072
1769244889629,-0.322723388671875,0.1168212890625,-0.930511474609375,-0.0091745899990201,-0.0049436260014772,0.0311190374195575
1769244889639,-0.32318115234375,0.1181793212890625,-0.93304443359375,-0.0070307450369,-0.0033217607997357,0.0367071479558944
1769244889649,-0.326690673828125,0.1196746826171875,-0.937042236328125,-0.0030945930629968,-0.0033244239166378,0.0383367352187633
1769244889659,-0.331268310546875,0.1194610595703125,-0.936431884765625,-0.0026972496416419,-0.000421578384703,0.0337465107440948
1769244889669,-0.33453369140625,0.1201324462890625,-0.93609619140625,-0.0026154904626309,-0.0033089776989072,0.0246358383446931
1769244889679,-0.33905029296875,0.120635986328125,-0.9365386962890624,-0.002322010230273,-0.0075239627622067,0.018958244472742
1769244889689,-0.3378448486328125,0.119232177734375,-0.936309814453125,-0.0019110844004899,-0.007079747505486,0.0135107487440109
1769244889699,-0.3367462158203125,0.1223907470703125,-0.935943603515625,-0.0028780782595276,-0.0117021957412362,0.0078019965440034
1769244889709,-0.3349151611328125,0.12200927734375,-0.9357147216796876,-0.0049734534695744,-0.0135909095406532,0.0038695731200277
1769244889719,-0.334686279296875,0.1218109130859375,-0.9340362548828124,-0.0065063689835369,-0.0104888603091239,0.0041928808204829
1769244889729,-0.3305816650390625,0.1191864013671875,-0.93402099609375,-0.005903429351747,-0.013488644734025,0.0087293097749352
1769244889739,-0.322540283203125,0.11529541015625,-0.9329833984375,-0.0135243311524391,-0.020507937297225,0.0158074591308832
1769244889750,-0.32305908203125,0.1176910400390625,-0.9339599609375,-0.0143626937642693,-0.0283213872462511,0.0157017316669225
1769244889759,-0.33709716796875,0.11871337890625,-0.934844970703125,-0.011150655336678,-0.0298191476613283,0.0070792147889733
1769244889769,-0.340576171875,0.12060546875,-0.930908203125,-0.0104012414813041,-0.0210746582597494,0.0012381036067381
1769244889779,-0.34228515625,0.1205291748046875,-0.929718017578125,-0.0084352968260645,-0.0135384453460574,-0.0038408108521252
1769244889790,-0.3418121337890625,0.1197357177734375,-0.9258880615234376,-0.0148950600996613,-0.0071370052173733,-0.0072275530546903
1769244889799,-0.3268280029296875,0.1173553466796875,-0.9241790771484376,-0.0260164197534322,-0.0130454944446682,-0.0006301039247773
1769244889810,-0.3178863525390625,0.1207427978515625,-0.92657470703125,-0.022514896467328,-0.0110068451613187,0.0044733118265867
1769244889820,-0.328277587890625,0.1269989013671875,-0.9387054443359376,-0.004596616141498,-0.0071750883944332,-0.0021201425697654
1769244889830,-0.34674072265625,0.1303253173828125,-0.942840576171875,0.0061689461581408,-0.003206179710105,-0.0109256180003285
1769244889840,-0.34808349609375,0.12896728515625,-0.93072509765625,0.002633333671838,-0.0005635248962789,-0.0122084626927971
1769244889850,-0.3429107666015625,0.1310882568359375,-0.9181365966796876,-0.0129538821056485,-0.0094712655991315,-0.0195156447589397
1769244889860,-0.3401336669921875,0.12701416015625,-0.908905029296875,-0.0371439047157764,-0.0226773489266634,-0.0266201589256525
1769244889870,-0.33294677734375,0.1235198974609375,-0.9053192138671876,-0.0614638924598693,-0.0332706049084663,-0.0286974254995584
1769244889880,-0.32122802734375,0.11883544921875,-0.9097747802734376,-0.0756010189652443,-0.0338932536542415,-0.016334231942892
1769244889890,-0.3143310546875,0.116912841796875,-0.923370361328125,-0.0727085545659065,-0.0252691376954317,-0.0029470541048794
1769244889900,-0.3167877197265625,0.1201171875,-0.9376983642578124,-0.0626889467239379,-0.0114800883457064,0.0076736323535442
1769244889910,-0.32086181640625,0.1217803955078125,-0.9457550048828124,-0.0455714799463748,0.0021126857027411,0.0174833852797746
1769244889920,-0.3244171142578125,0.123077392578125,-0.95269775390625,-0.026578614488244,0.0135128796100616,0.024922925978899
1769244889930,-0.3295135498046875,0.1264801025390625,-0.955596923828125,-0.008070177398622,0.0144897270947694,0.0259623583406209
1769244889940,-0.3343963623046875,0.1271820068359375,-0.9525299072265624,0.002216016408056,0.0121879568323493,0.0257849916815757
1769244889950,-0.33770751953125,0.1224822998046875,-0.9410552978515624,-0.0052930326201021,0.0105493133887648,0.0242089331150054
1769244889960,-0.3394927978515625,0.12359619140625,-0.9259490966796876,-0.0169691294431686,0.0105794072151184,0.0195542592555284
1769244889970,-0.3372039794921875,0.124420166015625,-0.922637939453125,-0.023796409368515,0.0060797305777668,0.0230965297669172
1769244889980,-0.3358154296875,0.1227874755859375,-0.929351806640625,-0.0275416132062673,0.0012096078135073,0.0272766277194023
1769244889990,-0.3288116455078125,0.1257781982421875,-0.9334564208984376,-0.0321603342890739,-0.0020943097770214,0.0339632928371429
1769244890000,-0.3287200927734375,0.128021240234375,-0.9378509521484376,-0.0271432045847177,-0.0029475865885615,0.0321193188428878
1769244890011,-0.332061767578125,0.131103515625,-0.94244384765625,-0.0194221679121255,-0.0033688987605273,0.0289685353636741
1769244890021,-0.3336944580078125,0.1310577392578125,-0.9446258544921876,-0.0077945399098098,0.0027015106752514,0.0266571771353483
1769244890031,-0.333740234375,0.1302947998046875,-0.9435882568359376,-0.0017856494523584,0.010479805059731,0.0287083443254232
1769244890041,-0.328704833984375,0.129913330078125,-0.9371795654296876,0.0024000408593565,0.0128742530941963,0.0341459847986698
1769244890050,-0.3279876708984375,0.1259918212890625,-0.9300689697265624,-0.0027923244051635,0.009917345829308,0.03550286591053
1769244890061,-0.327789306640625,0.125213623046875,-0.9239349365234376,-0.0142005076631903,0.0041670482605695,0.0334501005709171
1769244890071,-0.3290252685546875,0.126983642578125,-0.916412353515625,-0.0250856447964906,0.0009376989910379,0.0317030698060989
1769244890081,-0.3323822021484375,0.127044677734375,-0.918548583984375,-0.0315765663981437,-0.0038229676429182,0.0305387340486049
1769244890091,-0.331329345703125,0.127960205078125,-0.920501708984375,-0.0357550680637359,-0.0027734159957617,0.0274723712354898
1769244890101,-0.3380584716796875,0.1281585693359375,-0.924835205078125,-0.0388025231659412,-0.0028597023338079,0.0262063033878803
1769244890111,-0.338897705078125,0.130828857421875,-0.92864990234375,-0.0365002192556858,-0.0049292449839413,0.0224957223981618
1769244890121,-0.3422698974609375,0.1321563720703125,-0.9345703125,-0.0314111858606338,-0.006509032100439,0.01556724216789
1769244890131,-0.3395233154296875,0.1305084228515625,-0.9366607666015624,-0.0287176650017499,-0.0072861425578594,0.0151581801474094
1769244890141,-0.338958740234375,0.12994384765625,-0.9326171875,-0.0305488537997007,-0.0071801487356424,0.0141336619853973
1769244890151,-0.3383331298828125,0.1291961669921875,-0.932342529296875,-0.0304545778781175,-0.0072232917882502,0.0128521490842103
1769244890161,-0.3386077880859375,0.1297607421875,-0.9335479736328124,-0.0315502025187015,-0.001294029993005,0.0151805505156517
1769244890171,-0.3349456787109375,0.12823486328125,-0.9342041015625,-0.0275994036346673,0.003328418591991,0.0207819771021604
1769244890181,-0.334259033203125,0.129638671875,-0.93841552734375,-0.0157704409211874,0.0013494236627593,0.0205699894577264
1769244890192,-0.33953857421875,0.131195068359375,-0.943572998046875,-0.012277971021831,0.0023257385473698,0.0171438325196504
1769244890201,-0.341217041015625,0.1335906982421875,-0.9421539306640624,-0.0035643747542053,0.0012745888670906,0.0108854044228792
1769244890211,-0.344970703125,0.1333770751953125,-0.9390106201171876,-0.0007693872321397,-0.0010524812387302,0.0014860439114272
1769244890221,-0.3433685302734375,0.13165283203125,-0.934906005859375,-0.0013696637470275,-0.0060443105176091,-0.0065553709864616
1769244890231,-0.3394622802734375,0.1301116943359375,-0.9294586181640624,-0.0076968017965555,-0.0072065140120685,-0.0090395677834749
1769244890242,-0.333648681640625,0.1288604736328125,-0.923431396484375,-0.0150644369423389,-0.0060898503288626,-0.0053998255170881
1769244890251,-0.3294677734375,0.1268310546875,-0.9217071533203124,-0.0200730431824922,-0.0017584852175787,0.0032346753869205
1769244890262,-0.3286285400390625,0.1242523193359375,-0.923431396484375,-0.0253575537353754,0.0027638284955173,0.0152764245867729
1769244890272,-0.3265228271484375,0.1255645751953125,-0.9244384765625,-0.0239612590521574,0.0079884175211191,0.0245500840246677
1769244890282,-0.32598876953125,0.127288818359375,-0.9282073974609376,-0.023127956315875,0.0098640825599432,0.0359987467527389
1769244890292,-0.3303070068359375,0.127532958984375,-0.9295806884765624,-0.0209460277110338,0.0097847199067473,0.0401191897690296
1769244890302,-0.334075927734375,0.1299896240234375,-0.9274139404296876,-0.0209673326462507,0.0069146314635872,0.0348224304616451
1769244890312,-0.3419036865234375,0.1337432861328125,-0.9288787841796876,-0.0233828201889991,0.0068842712789773,0.0243886969983577
1769244890322,-0.3477935791015625,0.1361846923828125,-0.927734375,-0.0272499974817037,0.0087343696504831,0.0124393589794635
1769244890332,-0.3471527099609375,0.1356048583984375,-0.929473876953125,-0.0274129826575517,0.0060328589752316,0.0027971181552857
1769244890342,-0.342498779296875,0.13568115234375,-0.93212890625,-0.026955185458064,0.0165467523038387,0.0046751792542636
1769244890353,-0.3383941650390625,0.1326446533203125,-0.9332275390625,-0.0253303907811641,0.0112137719988822,0.003704457078129
1769244890362,-0.3378143310546875,0.1351318359375,-0.9384918212890624,-0.0219931825995445,0.0076131783425807,0.0026831347495317
1769244890372,-0.33990478515625,0.1371002197265625,-0.9406280517578124,-0.0163416881114244,0.0100925816223025,-0.0023571639321744
1769244890382,-0.34185791015625,0.1361846923828125,-0.93841552734375,-0.0150037165731191,0.0051601408049464,-0.0091586112976074
1769244890392,-0.344696044921875,0.1339569091796875,-0.9351348876953124,-0.0121267037466168,0.0091277183964848,-0.0147605706006288
1769244890402,-0.340362548828125,0.1354217529296875,-0.93707275390625,-0.0068182251416146,0.0084771076217293,-0.0160295665264129
1769244890412,-0.33709716796875,0.1338348388671875,-0.9366302490234376,-0.0011073424248024,0.0102992430329322,-0.0157605875283479
1769244890423,-0.334747314453125,0.1346893310546875,-0.9367218017578124,0.0033316144254058,0.011127752251923,-0.0172825846821069
1769244890432,-0.3346405029296875,0.1376190185546875,-0.935821533203125,0.007129015866667,0.0089282477274537,-0.0192471984773874
1769244890443,-0.3361053466796875,0.1369781494140625,-0.937255859375,0.0116625148802995,0.0072864089161157,-0.025490179657936
1769244890453,-0.339324951171875,0.1345367431640625,-0.9354248046875,0.0116497315466403,0.0029079054947942,-0.032570194453001
1769244890462,-0.3297119140625,0.130828857421875,-0.927520751953125,0.0040141828358173,-0.0007294398383237,-0.0304495189338922
1769244890473,-0.3231353759765625,0.1326446533203125,-0.9264373779296876,0.0005033374181948,-0.0109450593590736,-0.0232371464371681
1769244890483,-0.3284912109375,0.134002685546875,-0.9313507080078124,0.0040370859205722,-0.0184000469744205,-0.0210323147475719
1769244890493,-0.3348846435546875,0.1352081298828125,-0.928070068359375,0.000899615813978,-0.0111629059538245,-0.0182229466736316
1769244890503,-0.3357391357421875,0.135498046875,-0.9243927001953124,0.0001949433935806,0.0014586133183911,-0.0176000334322452
1769244890513,-0.3360748291015625,0.136474609375,-0.92498779296875,-0.0023262712638825,0.0082491412758827,-0.0208943635225296
1769244890523,-0.3306884765625,0.1335601806640625,-0.9273529052734376,-0.0090142674744129,0.0060014333575963,-0.0207617375999689
1769244890533,-0.316619873046875,0.136199951171875,-0.9336090087890624,-0.0017534252256155,0.0032735576387494,-0.0132702654227614
1769244890543,-0.32080078125,0.14154052734375,-0.94659423828125,0.0190983265638351,0.0100481063127517,-0.0094635430723428
1769244890553,-0.3307037353515625,0.139312744140625,-0.9476318359375,0.0322809740900993,0.0174847170710563,-0.0009616674506105
1769244890563,-0.33349609375,0.14129638671875,-0.937042236328125,0.0316561982035636,0.0195193719118833,-0.0017052220646291
1769244890573,-0.334716796875,0.140777587890625,-0.9214019775390624,0.0152548532932996,0.0129277827218174,-0.0064525729976594
1769244890583,-0.332244873046875,0.1397552490234375,-0.910858154296875,-0.0090683298185467,0.003458913648501,-0.0048168594948947
1769244890593,-0.3209686279296875,0.134735107421875,-0.9071807861328124,-0.0273919440805912,-0.0089673958718776,0.0027262780349701
1769244890605,-0.3134613037109375,0.128143310546875,-0.913360595703125,-0.0412781983613967,-0.0184565056115388,0.0135861160233616
1769244890613,-0.31060791015625,0.1258392333984375,-0.92022705078125,-0.0456087626516819,-0.019864784553647,0.0228832121938467
1769244890624,-0.315399169921875,0.126190185546875,-0.9290771484375,-0.0396579317748546,-0.0107823405414819,0.0303504485636949
1769244890634,-0.325408935546875,0.1291351318359375,-0.939300537109375,-0.0247580762952566,-0.0026927222497761,0.0322277098894119
1769244890643,-0.33404541015625,0.1332550048828125,-0.9457855224609376,-0.0058869174681603,-0.0001142496112152,0.0254512969404459
1769244890653,-0.3441314697265625,0.1370849609375,-0.94903564453125,0.0056666741147637,0.001211738330312,0.0122657213360071
1769244890664,-0.3507080078125,0.1373748779296875,-0.94256591796875,0.0091431643813848,0.0060714744031429,0.0111495899036526
1769244890674,-0.3445281982421875,0.1369476318359375,-0.9313507080078124,0.0089612705633044,0.0032650355715304,0.0090419640764594
1769244890684,-0.345916748046875,0.1353607177734375,-0.928924560546875,0.0047406931407749,-0.0034980620257556,0.0026559706311672
1769244890694,-0.3466949462890625,0.1362152099609375,-0.92919921875,0.0047406931407749,-0.0034980620257556,0.0026559706311672
1769244890703,-0.3421630859375,0.134521484375,-0.9315338134765624,-8.149272616719827e-05,-0.004504204262048,-0.0009917612187564
1769244890714,-0.3382415771484375,0.1328582763671875,-0.9329376220703124,0.0035260252188891,-0.003907922655344,-0.0001451422722311
1769244890724,-0.3287353515625,0.133331298828125,-0.936279296875,0.0077956048771739,-0.0076262280344963,0.0047846352681517
1769244890734,-0.32598876953125,0.1329803466796875,-0.938873291015625,0.0133315175771713,-0.0077367490157485,0.0055255265906453
1769244890744,-0.32757568359375,0.1351470947265625,-0.937408447265625,0.0177648831158876,-0.0022775353863835,0.0111562479287385
1769244890754,-0.3267059326171875,0.134185791015625,-0.93756103515625,0.0240105278789997,0.002248773118481,0.015229819342494
1769244890764,-0.326629638671875,0.1332244873046875,-0.9333343505859376,0.0221500433981418,0.0026855315081775,0.0200386885553598
1769244890774,-0.3269805908203125,0.1313018798828125,-0.9248809814453124,0.0125240478664636,-0.0036043222062289,0.0196567922830581
1769244890784,-0.3282623291015625,0.1320343017578125,-0.9174041748046876,0.0020072245970368,-0.0107352025806903,0.013578925281763
1769244890794,-0.335662841796875,0.1340179443359375,-0.91546630859375,-0.0104664890095591,-0.012452408671379,0.0054972972720861
1769244890804,-0.3386383056640625,0.13232421875,-0.9195404052734376,-0.01469905115664,-0.0118659809231758,0.0039428099989891
1769244890814,-0.330352783203125,0.1331939697265625,-0.9260711669921876,-0.0113442670553922,-0.0086643286049366,0.013267601840198
1769244890824,-0.3235626220703125,0.13018798828125,-0.9326934814453124,-0.006074936594814,-0.0095263933762907,0.0210344456136226
1769244890834,-0.324310302734375,0.1285400390625,-0.9345245361328124,-0.0049172607250511,-0.0080430125817656,0.031957134604454
1769244890844,-0.3260040283203125,0.1313018798828125,-0.9310760498046876,-0.001882588607259,-0.0086861662566661,0.0357872918248176
1769244890855,-0.3314361572265625,0.1338348388671875,-0.9304046630859376,-0.0059023639187216,-0.0052269860170781,0.0342373326420784
1769244890864,-0.3375091552734375,0.1353912353515625,-0.9314117431640624,-0.0026932547334581,-0.0055934372358024,0.0260164197534322
1769244890874,-0.342803955078125,0.136138916015625,-0.93267822265625,-0.0025992451701313,-0.0089785810559988,0.0184810068458318
1769244890884,-0.3408355712890625,0.1378326416015625,-0.9319305419921876,-0.0026943201664835,-0.0119421472772955,0.0151283526793122
1769244890894,-0.3386383056640625,0.1342010498046875,-0.9304046630859376,-0.0067883976735174,-0.0144710848107934,0.0165882967412471
1769244890905,-0.3308563232421875,0.133544921875,-0.926666259765625,-0.0210245922207832,-0.0466199666261673,0.0175627488642931
1769244890915,-0.3345794677734375,0.133331298828125,-0.9232940673828124,-0.0226062424480915,-0.0196743682026863,0.0209095422178506
1769244890925,-0.3365325927734375,0.1349639892578125,-0.9264984130859376,-0.0244938917458057,-0.0060850568115711,0.0206602718681097
1769244890935,-0.33612060546875,0.1322479248046875,-0.9269866943359376,-0.0220075640827417,-0.0008151935762725,0.0231601800769567
1769244890945,-0.33294677734375,0.134918212890625,-0.9320068359375,-0.0161494091153144,0.0010426276130601,0.0184754133224487
1769244890955,-0.334991455078125,0.1340789794921875,-0.9369659423828124,-0.0136633478105068,0.0047617321833968,0.0207087397575378
1769244890965,-0.330352783203125,0.1370697021484375,-0.936279296875,-0.0090986900031566,0.0089527489617466,0.0241649914532899
1769244890975,-0.32891845703125,0.1357269287109375,-0.937042236328125,-0.0066693541593849,0.00969710201025,0.0256797969341278
1769244890985,-0.332916259765625,0.134063720703125,-0.93450927734375,-0.005330316722393,0.0106390621513128,0.0256060268729925
1769244890995,-0.335540771484375,0.1354827880859375,-0.9346466064453124,-0.0052738580852746,0.0082352934405207,0.0217638853937387
1769244891005,-0.3381195068359375,0.13360595703125,-0.9362030029296876,-0.0047974181361496,0.0076355491764843,0.0215183421969413
1769244891015,-0.3342132568359375,0.1350860595703125,-0.932891845703125,-0.005764412228018,0.0099050952121615,0.0234770961105823
1769244891026,-0.3338165283203125,0.135284423828125,-0.9329071044921876,-0.0028831381350755,0.0093759251758456,0.0234992001205682
1769244891035,-0.33868408203125,0.1323089599609375,-0.934417724609375,-0.0028146950062364,0.0092896381393074,0.0153134427964687
1769244891045,-0.3422393798828125,0.13348388671875,-0.933807373046875,-0.0023478427901864,0.0133296540006995,0.0131991589441895
1769244891056,-0.3361968994140625,0.134307861328125,-0.9375,0.0042900862172245,0.0183782074600458,0.0102129559963941
1769244891065,-0.334716796875,0.1310272216796875,-0.93829345703125,0.0089673958718776,0.017347564920783,0.0132252583280205
1769244891076,-0.3327789306640625,0.13092041015625,-0.93359375,0.0094566186890006,0.016201339662075,0.012680641375482
1769244891086,-0.3318939208984375,0.1309051513671875,-0.9296722412109376,0.009687514975667,0.0139192780479788,0.013831659220159
1769244891096,-0.3328857421875,0.131561279296875,-0.931976318359375,0.0132265891879796,0.0076509956270456,0.0133594814687967
1769244891106,-0.3368072509765625,0.1319580078125,-0.9325714111328124,0.0152106443420052,0.004627242218703,0.006335926707834
1769244891116,-0.3432464599609375,0.1325531005859375,-0.9293212890625,0.0096068205311894,0.00515987444669,-0.0021518340799957
1769244891126,-0.3438720703125,0.13330078125,-0.92523193359375,0.0052333776839077,0.0058243330568075,-0.0042781019583344
1769244891136,-0.34027099609375,0.1343536376953125,-0.9267425537109376,0.0004937500343658,-9.960222087102012e-05,-0.0048666605725884
1769244891146,-0.337310791015625,0.135955810546875,-0.9314727783203124,0.00067857344402,-0.0029968551825731,-0.0078384820371866
1769244891156,-0.3378753662109375,0.1359100341796875,-0.9337615966796876,0.0028157602064311,-0.0055510927923023,-0.0126393623650074
1769244891166,-0.3393096923828125,0.1358642578125,-0.9356689453125,0.0068219532258808,-0.0036615801509469,-0.0162721797823905
1769244891176,-0.3360443115234375,0.13336181640625,-0.938690185546875,0.0106414593756198,-0.0028056402225047,-0.0171254575252532
1769244891186,-0.3303680419921875,0.130859375,-0.93359375,0.0076174396090209,-0.0007890945998951,-0.0070728231221437
1769244891196,-0.3257598876953125,0.12957763671875,-0.929718017578125,0.0039646481163799,0.0031052457634359,-0.0013635384384542
1769244891206,-0.3238372802734375,0.1260986328125,-0.9287872314453124,-0.0061255367472767,0.0034621094819158,0.0058269966393709
1769244891216,-0.3251495361328125,0.1268310546875,-0.923980712890625,-0.0138750690966844,-0.0032178976107388,0.0083577986806631
1769244891227,-0.3322296142578125,0.1307220458984375,-0.9270782470703124,-0.0124625284224748,-0.0070347399450838,0.0012463594321161
1769244891236,-0.3443450927734375,0.13336181640625,-0.93115234375,-0.0073300846852362,-0.0040658479556441,-0.0078009315766394
1769244891246,-0.3441009521484375,0.1352081298828125,-0.9315948486328124,-0.0068405955098569,0.0050536142662167,-0.0120486728847026
1769244891257,-0.339813232421875,0.1333465576171875,-0.9300994873046876,-0.0097314566373825,0.0172596797347068,-0.0115115139633417
1769244891266,-0.3282318115234375,0.1322174072265625,-0.9319610595703124,-0.0114489290863275,0.0194839518517255,-0.0007161240209825
1769244891277,-0.3155975341796875,0.13140869140625,-0.93597412109375,-0.0085383607074618,0.0147014483809471,0.0087295761331915
1769244891287,-0.3199310302734375,0.135772705078125,-0.9451141357421876,0.0141557659953832,0.0217172801494598,0.0078592542558908
1769244891297,-0.339630126953125,0.139984130859375,-0.9553375244140624,0.038982018828392,0.0309336818754673,0.0023574302904307
1769244891307,-0.3497161865234375,0.137969970703125,-0.945404052734375,0.0456138253211975,0.0286305788904428,-0.0017936390358954
1769244891317,-0.344085693359375,0.138885498046875,-0.927947998046875,0.0310521926730871,0.0205430909991264,-0.0040107206441462
1769244891327,-0.340179443359375,0.1378173828125,-0.912994384765625,0.0059143481776118,0.0078509990125894,-0.0119538651779294
1769244891338,-0.335205078125,0.136260986328125,-0.9068756103515624,-0.0149374045431613,-0.0018796591321006,-0.0128438929095864
1769244891347,-0.327178955078125,0.13348388671875,-0.914306640625,-0.0288196634501218,-0.0090307788923382,-0.0173393096774816
1769244891357,-0.326263427734375,0.1330718994140625,-0.9234771728515624,-0.0285608042031526,-0.0163395591080188,-0.0117474701255559
1769244891367,-0.3247528076171875,0.1312713623046875,-0.934234619140625,-0.0180849935859441,-0.0072123729623854,-0.0089165298268198
1769244891377,-0.3242034912109375,0.1337432861328125,-0.944183349609375,-0.0010671286145225,0.0041276332922279,-0.0038951393216848
1769244891388,-0.3264312744140625,0.132781982421875,-0.9521331787109376,0.018925754353404,0.0173419713973999,0.0008404936525039
1769244891397,-0.32562255859375,0.132476806640625,-0.9523162841796876,0.0353111177682876,0.0196011308580636,0.0103453155606985
1769244891407,-0.3246917724609375,0.1342010498046875,-0.945037841796875,0.0451978370547294,0.0193422716110944,0.0129490876570343
1769244891417,-0.331298828125,0.134033203125,-0.9367828369140624,0.0469339527189731,0.0159539319574832,0.0126585373654961
1769244891427,-0.335479736328125,0.1326141357421875,-0.9267730712890624,0.037329263985157,0.0103138899430632,0.0124111296609044
1769244891438,-0.3387908935546875,0.1322784423828125,-0.91680908203125,0.0225628335028886,0.0072643044404685,0.0099037634208798
1769244891447,-0.3366241455078125,0.1328125,-0.91357421875,0.0101498393341898,0.0062744072638452,0.0138596231117844
1769244891457,-0.3282318115234375,0.13177490234375,-0.917877197265625,0.0028101676143705,0.0032783513888716,0.0205612014979124
1769244891467,-0.322845458984375,0.132843017578125,-0.923248291015625,-0.0045332326553761,-0.0036565200425684,0.0296676140278577
1769244891478,-0.3238372802734375,0.1346282958984375,-0.9271240234375,-0.0055436361581087,0.0016002934426069,0.0378922559320926
1769244891488,-0.3269805908203125,0.1377105712890625,-0.934814453125,0.0027060380671173,0.0064110276289284,0.0355995409190654
1769244891498,-0.3344573974609375,0.1396942138671875,-0.94146728515625,0.0182032380253076,0.0102078961208462,0.0278433486819267
1769244891508,-0.33941650390625,0.137908935546875,-0.9431610107421876,0.0261370614171028,0.0142431184649467,0.0204959530383348
1769244891518,-0.3363189697265625,0.1369171142578125,-0.9356842041015624,0.0220733433961868,0.0150447292253375,0.0217582918703556
1769244891528,-0.3289947509765625,0.134765625,-0.92449951171875,0.0113245602697134,0.0117935426533222,0.0227692276239395
1769244891538,-0.32598876953125,0.1340484619140625,-0.9207611083984376,0.0029499835800379,0.0052232579328119,0.0244584716856479
1769244891549,-0.3276519775390625,0.13189697265625,-0.9228363037109376,-0.0023374564480036,0.0018740664236247,0.0294092874974012
1769244891558,-0.3283843994140625,0.131500244140625,-0.9273223876953124,-0.003646400058642,0.0057921088300645,0.0327816493809223
1769244891568,-0.3325958251953125,0.132110595703125,-0.9312591552734376,0.0021294634789228,0.0092944325879216,0.0327203944325447
1769244891578,-0.3336181640625,0.132568359375,-0.936431884765625,0.0095042893663048,0.0150841446593403,0.0378022380173206
1769244891588,-0.3308258056640625,0.1335296630859375,-0.9420166015625,0.016335031017661,0.0169861745089292,0.037516750395298
1769244891598,-0.3349151611328125,0.133575439453125,-0.9412078857421876,0.0176391806453466,0.0192232299596071,0.0375537686049938
1769244891608,-0.333404541015625,0.1320648193359375,-0.937225341796875,0.0169949624687433,0.0253628809005022,0.0424206927418708
1769244891618,-0.328369140625,0.131622314453125,-0.9352264404296876,0.0194946061819791,0.0183827355504035,0.0439488142728805
1769244891628,-0.3316802978515625,0.131317138671875,-0.935333251953125,0.0188099071383476,0.0174271930009126,0.0446425676345825
1769244891638,-0.33209228515625,0.129241943359375,-0.9308013916015624,0.0154958693310618,0.0157414115965366,0.0445474945008754
1769244891648,-0.332550048828125,0.12921142578125,-0.9274139404296876,0.0121096596121788,0.0171187985688447,0.0445557497441768
1769244891658,-0.3281707763671875,0.1285858154296875,-0.9277801513671876,0.0105559714138507,0.0168239865452051,0.0446303188800811
1769244891668,-0.328643798828125,0.1301116943359375,-0.92633056640625,0.0075167720206081,0.0194876808673143,0.0487078838050365
1769244891678,-0.3258209228515625,0.131195068359375,-0.924957275390625,0.0064794709905982,0.0211130082607269,0.0519303083419799
1769244891689,-0.3285369873046875,0.1317291259765625,-0.926025390625,0.0054147392511367,0.0225151628255844,0.0500112362205982
1769244891698,-0.3331146240234375,0.131011962890625,-0.9296875,0.0087556745857,0.013292103074491,0.041819617152214
1769244891709,-0.33367919921875,0.1324462890625,-0.93133544921875,0.0097804591059684,0.0021808627061545,0.0304508507251739
1769244891719,-0.3390045166015625,0.1365814208984375,-0.9312896728515624,0.0106332032009959,-0.0081625888124108,0.0114401411265134
1769244891729,-0.34222412109375,0.1362457275390625,-0.93231201171875,0.0077061229385435,-0.0099524995312094,0.0057052900083363
1769244891739,-0.335479736328125,0.1350555419921875,-0.9301300048828124,0.0099128177389502,-0.0092997588217258,0.0029329392127692
1769244891749,-0.3326416015625,0.132781982421875,-0.9313507080078124,0.0042565301991999,-0.0080763027071952,0.0063074305653572
1769244891759,-0.329315185546875,0.1318511962890625,-0.9304351806640624,0.0005816344055347,-0.009548763744533,0.0109493201598525
1769244891769,-0.3281707763671875,0.1293792724609375,-0.931610107421875,-0.0022466427180916,-0.0096819223836064,0.0103335976600646
1769244891779,-0.3301544189453125,0.1290435791015625,-0.9340972900390624,0.0021262678783386,-0.010947722941637,0.0070549799129366
1769244891789,-0.3304901123046875,0.12939453125,-0.9354095458984376,0.0041510690934956,-0.005249623209238,0.009623066522181
1769244891799,-0.3286895751953125,0.130126953125,-0.93914794921875,0.0112377405166625,-0.0033177661243826,0.0102664856240153
1769244891809,-0.3300933837890625,0.1301116943359375,-0.9420013427734376,0.0205263141542673,-0.0024985778145492,0.0076914755627512
1769244891819,-0.332275390625,0.128662109375,-0.938934326171875,0.0252190697938203,0.0050405650399625,0.0086046736687421
1769244891829,-0.3308868408203125,0.1280975341796875,-0.9397125244140624,0.0296625550836324,0.0081247715279459,0.014390124939382
1769244891839,-0.3320159912109375,0.12646484375,-0.936065673828125,0.028029503300786,0.0077399448491632,0.0106742158532142
1769244891849,-0.33465576171875,0.1263885498046875,-0.9315948486328124,0.0211329814046621,0.0054986285977065,0.0058496333658695
1769244891859,-0.334136962890625,0.1283416748046875,-0.9312896728515624,0.0237639192491769,0.0031515848822891,-0.0020631509833037
1769244891872,-0.33740234375,0.1288604736328125,-0.9363250732421876,0.0294324569404125,0.0024250745773315,-0.0121887559071183
1769244891879,-0.3361358642578125,0.1280517578125,-0.9386138916015624,0.040015060454607,0.0014082795241847,-0.0175454374402761
1769244891889,-0.3313446044921875,0.1266937255859375,-0.9376983642578124,0.044755220413208,-1.8642127770363004e-06,-0.0178149491548538
1769244891899,-0.3297882080078125,0.1241607666015625,-0.9304656982421876,0.0437019392848014,0.001170192961581,-0.0139275332912802
1769244891910,-0.3268585205078125,0.122528076171875,-0.92449951171875,0.0359734483063221,0.0018114821286872,-0.0087871002033352
1769244891920,-0.3234100341796875,0.1197052001953125,-0.9173126220703124,0.0210741255432367,-0.0023587618488818,-0.004521248396486
1769244891930,-0.3166351318359375,0.114959716796875,-0.9106597900390624,-0.0043225768022239,-0.0067066387273371,0.0104182865470647
1769244891940,-0.31134033203125,0.11944580078125,-0.910614013671875,-0.0157720390707254,-0.0126327043399214,0.0202048700302839
1769244891950,-0.3247528076171875,0.1239471435546875,-0.92083740234375,-0.0169912334531545,-0.0199127215892076,0.0203713178634643
1769244891960,-0.3365020751953125,0.1261444091796875,-0.9280853271484376,-0.0187625028192996,-0.0218017026782035,0.0100177470594644
1769244891970,-0.3463897705078125,0.126617431640625,-0.927093505859375,-0.0235684420913457,-0.015329155139625,-0.0052144695073366
1769244891980,-0.3479156494140625,0.129425048828125,-0.9273681640625,-0.021931929513812,-0.0060522998683154,-0.0176053587347269
1769244891990,-0.339111328125,0.128753662109375,-0.9375152587890624,-0.0142990443855524,-0.0074190339073538,-0.0228421986103057
1769244892000,-0.325286865234375,0.1280517578125,-0.948028564453125,0.0006194512825459,-0.0099708754569292,-0.0181997772306203
1769244892010,-0.3291778564453125,0.1332244873046875,-0.959991455078125,0.0237455423921346,-0.0116009963676333,-0.0254068225622177
1769244892020,-0.3479461669921875,0.1337890625,-0.9601287841796876,0.0481491535902023,0.001121190842241,-0.0318945497274398
1769244892030,-0.353729248046875,0.131866455078125,-0.9493408203125,0.0512778349220752,0.000451672123745,-0.0415098927915096
1769244892040,-0.3465576171875,0.1266937255859375,-0.92559814453125,0.0307890716940164,-0.0039731701835989,-0.0438199192285537
1769244892050,-0.3332977294921875,0.1207427978515625,-0.9078826904296876,-0.0016197345685213,-0.016384832561016,-0.0468207672238349
1769244892060,-0.3243255615234375,0.116119384765625,-0.903472900390625,-0.0305099729448556,-0.0256454423069953,-0.0427314862608909
1769244892071,-0.3166351318359375,0.11181640625,-0.9128570556640624,-0.0391388796269893,-0.0298135560005903,-0.0377835966646671
1769244892081,-0.31207275390625,0.1114959716796875,-0.930206298828125,-0.0345092415809631,-0.0231258254498243,-0.0262723509222269
1769244892090,-0.3149566650390625,0.1146240234375,-0.944580078125,-0.0136729348450899,-0.008584433235228,-0.0224778782576322
1769244892100,-0.3238372802734375,0.1169891357421875,-0.9514617919921876,0.0043047335930168,0.0078129153698682,-0.0164990816265344
1769244892111,-0.325927734375,0.12005615234375,-0.9486541748046876,0.0154583184048533,0.0141254067420959,-0.0093724625185132
1769244892122,-0.33465576171875,0.121917724609375,-0.943023681640625,0.0176777970045804,0.0115458685904741,-0.0147579070180654
1769244892131,-0.3434295654296875,0.121490478515625,-0.931884765625,0.010350908152759,0.0074150394648313,-0.0232235640287399
1769244892141,-0.3450775146484375,0.12359619140625,-0.9253997802734376,0.0027755463961511,0.0003531351685523,-0.0349113792181015
1769244892151,-0.34393310546875,0.12347412109375,-0.924163818359375,-0.0050496198236942,-0.0080818952992558,-0.0376951806247234
1769244892161,-0.3390960693359375,0.121795654296875,-0.92730712890625,-0.0095911081880331,-0.0139136854559183,-0.0434840954840183
1769244892171,-0.3346405029296875,0.1197662353515625,-0.9315185546875,-0.009982593357563,-0.0169046819210052,-0.0402374342083931
1769244892181,-0.3291168212890625,0.1163787841796875,-0.9317779541015624,-0.0095847165212035,-0.0098795285448431,-0.0317307636141777
1769244892191,-0.322418212890625,0.117218017578125,-0.9354705810546876,-0.008993761613965,-0.0061614895239472,-0.0228246226906776
1769244892201,-0.3214569091796875,0.120513916015625,-0.94012451171875,-0.0054956991225481,-0.0003371562052052,-0.0159118548035621
1769244892211,-0.325042724609375,0.123809814453125,-0.9441375732421876,0.0031683626584708,0.0046176551841199,-0.0111884726211428
1769244892222,-0.33319091796875,0.1250762939453125,-0.9461517333984376,0.0086922915652394,0.0089588742703199,-0.0182338654994964
1769244892231,-0.33734130859375,0.124237060546875,-0.9457855224609376,0.0169821791350841,0.0139339249581098,-0.0170562155544757
1769244892241,-0.3352203369140625,0.1255950927734375,-0.9451751708984376,0.0221412554383277,0.0121136540547013,-0.0178708769381046
1769244892251,-0.33294677734375,0.1269073486328125,-0.94281005859375,0.0222930554300546,0.0080406162887811,-0.0225527137517929
1769244892262,-0.33709716796875,0.12506103515625,-0.93634033203125,0.0171113424003124,0.0119075253605842,-0.0282343011349439
1769244892272,-0.33807373046875,0.1230316162109375,-0.9296417236328124,0.0127573404461145,0.0154029242694377,-0.0275000669062137
1769244892281,-0.3343658447265625,0.122344970703125,-0.9310760498046876,0.0128018148243427,0.0192932710051536,-0.0263865999877452
1769244892292,-0.330108642578125,0.1200714111328125,-0.9368743896484376,0.0186562426388263,0.0214637462049722,-0.0228097084909677
1769244892301,-0.325469970703125,0.120269775390625,-0.942169189453125,0.0251911077648401,0.0179246719926595,-0.0175997670739889
1769244892312,-0.3257598876953125,0.120452880859375,-0.941741943359375,0.0272713024169206,0.0191276222467422,-0.0145238153636455
1769244892322,-0.3252716064453125,0.1179351806640625,-0.9348297119140624,0.0282731838524341,0.0200647879391908,-0.0100667485967278
1769244892332,-0.322998046875,0.121185302734375,-0.9319305419921876,0.0300883930176496,0.014969628304243,-0.0088587393984198
1769244892342,-0.326446533203125,0.119476318359375,-0.93035888671875,0.0277789011597633,0.011992746964097,-0.009548763744533
1769244892352,-0.330902099609375,0.1212005615234375,-0.92486572265625,0.0180567651987075,0.0093381078913807,-0.0121770380064845
1769244892362,-0.333465576171875,0.122528076171875,-0.9234466552734376,0.016390424221754,0.0065228804014623,-0.016595222055912
1769244892372,-0.3354644775390625,0.12261962890625,-0.92584228515625,0.0166002810001373,0.0075862808153033,-0.017559552565217
1769244892382,-0.3303680419921875,0.1223907470703125,-0.930633544921875,0.018688466399908,0.0075468658469617,-0.0135696046054363
1769244892392,-0.3253631591796875,0.12261962890625,-0.9339599609375,0.0233780276030302,0.0095202680677175,-0.0100995060056447
1769244892402,-0.323760986328125,0.11895751953125,-0.9351043701171876,0.0248576793819665,0.0110009862110018,0.0018690064316615
1769244892412,-0.321990966796875,0.1176300048828125,-0.9316864013671876,0.0214264616370201,0.0074294204823672,0.0032921996898949
1769244892423,-0.3292999267578125,0.1176300048828125,-0.928436279296875,0.0118595892563462,0.0121868913993239,0.0020072245970368
1769244892432,-0.3297119140625,0.120086669921875,-0.927459716796875,0.0074936025775969,0.0153579171746969,0.0063385898247361
1769244892442,-0.328216552734375,0.120025634765625,-0.933929443359375,0.009172991849482,0.0166857689619064,0.0087926927953958
1769244892452,-0.329010009765625,0.12066650390625,-0.9405975341796876,0.0174170732498168,0.0146846696734428,0.0065162223763763
1769244892462,-0.33148193359375,0.1215667724609375,-0.94610595703125,0.0289003569632768,0.0154537912458181,0.0059582903049886
1769244892472,-0.333404541015625,0.1199188232421875,-0.9467010498046876,0.0368086136877536,0.014002101495862,0.0024389228783547
1769244892482,-0.3325347900390625,0.120208740234375,-0.9419708251953124,0.0371385812759399,0.0087559409439563,0.0021369203459471
1769244892493,-0.33026123046875,0.119049072265625,-0.931854248046875,0.0329688675701618,0.0028168254066258,-0.0047478834167122
1769244892503,-0.336212158203125,0.117095947265625,-0.9255218505859376,0.0199832953512668,-1.1984225238848012e-05,-0.0060709421522915
1769244892513,-0.3335418701171875,0.1147308349609375,-0.92010498046875,0.0100206760689616,-0.0004322310560382,-0.0028152274899184
1769244892522,-0.3271331787109375,0.1161346435546875,-0.919921875,0.0030834078788757,-0.0059947757981717,-0.0006506102508865
1769244892532,-0.3284149169921875,0.1115570068359375,-0.9241485595703124,-0.0057918424718081,-0.0059279301203787,0.0037358824629336
1769244892543,-0.3273468017578125,0.1129150390625,-0.926422119140625,-0.0081471418961882,-0.0038618498947471,0.0116209695115685
1769244892553,-0.325103759765625,0.113739013671875,-0.929168701171875,-0.0061207432299852,-0.0025856629945337,0.0177459735423326
1769244892563,-0.324981689453125,0.113739013671875,-0.9310760498046876,-0.006302903406322,-0.0064400560222566,0.0168378353118896
1769244892573,-0.3318328857421875,0.115875244140625,-0.930267333984375,-0.0051790494471788,-0.0098688760772347,0.0099554285407066
1769244892584,-0.3404083251953125,0.1177215576171875,-0.9298858642578124,-0.0071828118525445,-0.0073125078342854,0.0054190000519156
1769244892593,-0.3382110595703125,0.1203765869140625,-0.9281158447265624,-0.0114553207531571,-0.0053273872472345,0.005814479663968
1769244892603,-0.3348388671875,0.118499755859375,-0.9299774169921876,-0.0141965122893452,-0.0035779569298028,0.0076147764921188
1769244892613,-0.3319244384765625,0.1166534423828125,-0.9310760498046876,-0.0137272635474801,-0.0035382758360356,0.0119123198091983
1769244892623,-0.3272247314453125,0.1161346435546875,-0.9340057373046876,-0.0142601625993847,-0.0088693918660283,0.0133107453584671
1769244892633,-0.324371337890625,0.1124267578125,-0.93475341796875,-0.0179702118039131,-0.0131474938243627,0.0168466251343488
1769244892643,-0.326141357421875,0.11669921875,-0.9327239990234376,-0.0145994490012526,-0.0150473928079009,0.0152282211929559
1769244892653,-0.337249755859375,0.1189422607421875,-0.9404754638671876,-0.0037750308401882,-0.0167105365544557,0.010170878842473
1769244892663,-0.3450164794921875,0.1174468994140625,-0.9405517578125,-0.0031931300181895,-0.0134598826989531,0.0019867182709276
1769244892674,-0.3455657958984375,0.11767578125,-0.9307708740234376,-0.0052203284576535,-0.0016223976854234,-0.0060099554248154
1769244892683,-0.3447113037109375,0.119781494140625,-0.9304962158203124,-0.0049987533129751,0.0074017234146595,-0.0115490639582276
1769244892693,-0.3333587646484375,0.115142822265625,-0.9339599609375,-0.008674981072545,0.0095836510881781,-0.0004905542591586
1769244892703,-0.3139801025390625,0.11578369140625,-0.9381866455078124,-0.0012072109384462,0.0058877165429294,0.0105437207967042
1769244892713,-0.3234710693359375,0.1205902099609375,-0.95086669921875,0.0184442549943923,0.0158367529511451,0.0071532507427036
1769244892723,-0.3428192138671875,0.122161865234375,-0.9525146484375,0.0393460728228092,0.0286982245743274,0.0012527509825304
1769244892733,-0.3462982177734375,0.122344970703125,-0.943634033203125,0.0455461777746677,0.0287131369113922,-0.0043204464018344
1769244892744,-0.34320068359375,0.121551513671875,-0.930328369140625,0.0336527675390243,0.0165203865617513,-0.0131751904264092
1769244892754,-0.3418426513671875,0.12066650390625,-0.914703369140625,0.010645986534655,0.0043987431563436,-0.0226853378117084
1769244892764,-0.336669921875,0.117279052734375,-0.9088287353515624,-0.0111985923722386,-0.0125296404585242,-0.0282316375523805
1769244892774,-0.3270721435546875,0.110992431640625,-0.9114837646484376,-0.0275117848068475,-0.0239476766437292,-0.0240403544157743
1769244892784,-0.3193817138671875,0.105712890625,-0.919036865234375,-0.0345198921859264,-0.0288146045058965,-0.0185270793735981
1769244892794,-0.3166656494140625,0.1037445068359375,-0.9249267578125,-0.0375154167413711,-0.02232501283288,-0.0060933125205338
1769244892804,-0.3191680908203125,0.1051483154296875,-0.929840087890625,-0.033464215695858,-0.0152423363178968,-0.000437557377154
1769244892814,-0.329742431640625,0.1051025390625,-0.935546875,-0.0266856737434864,-0.0021233384031802,-0.0014186658663675
1769244892825,-0.3339691162109375,0.1109619140625,-0.938568115234375,-0.01769963465631,0.0077029271051287,0.0042717102915048
1769244892834,-0.3363494873046875,0.1175384521484375,-0.94482421875,0.0013062804937362,0.0052749230526387,0.0025318672414869
1769244892844,-0.3443603515625,0.1213836669921875,-0.954071044921875,0.0150418002158403,-0.0021736719645559,-0.0080392844974994
1769244892854,-0.35272216796875,0.1209716796875,-0.9467926025390624,0.0181366596370935,-0.004817125853151,-0.0215604193508625
1769244892864,-0.353729248046875,0.1193695068359375,-0.939361572265625,0.0199097916483879,-0.0103490436449646,-0.0305445939302444
1769244892874,-0.3475189208984375,0.1177520751953125,-0.9372711181640624,0.0172753930091857,-0.0122460136190056,-0.0283432248979806
1769244892884,-0.338348388671875,0.1163177490234375,-0.9367828369140624,0.0175526291131973,-0.0171142723411321,-0.0262465178966522
1769244892894,-0.3302459716796875,0.1148529052734375,-0.9346923828125,0.0111280186101794,-0.0195228345692157,-0.0187547784298658
1769244892906,-0.324951171875,0.116119384765625,-0.93621826171875,0.0114097809419035,-0.0229013208299875,-0.0130841098725795
1769244892914,-0.3257293701171875,0.117034912109375,-0.937469482421875,0.0143515085801482,-0.0188780836760997,-0.0134590836241841
1769244892925,-0.3300018310546875,0.11553955078125,-0.936370849609375,0.0186780802905559,-0.0133957006037235,-0.0090616717934608
1769244892935,-0.326446533203125,0.1150970458984375,-0.9369964599609376,0.0208565462380647,-0.0077708377502858,-0.0009547432418912
1769244892945,-0.32220458984375,0.114837646484375,-0.93310546875,0.0194203034043312,-0.0068453890271484,0.0070616379380226
1769244892955,-0.3239593505859375,0.11346435546875,-0.9285736083984376,0.0132662709802389,-0.0091463606804609,0.0084328996017575
1769244892965,-0.3268280029296875,0.112030029296875,-0.925811767578125,0.0048528122715651,-0.0129144666716456,0.0081564635038375
1769244892975,-0.3331451416015625,0.1125335693359375,-0.923187255859375,-0.0015736619243398,-0.0125035410746932,0.0062067629769444
1769244892985,-0.338348388671875,0.115570068359375,-0.9227142333984376,-0.0101503720507025,-0.0125501463189721,0.0028168254066258
1769244892995,-0.3410491943359375,0.115753173828125,-0.9224090576171876,-0.0160439480096101,-0.0153315523639321,-0.0055300537496805
1769244893005,-0.343170166015625,0.112762451171875,-0.9228668212890624,-0.019954266026616,-0.0201513413339853,-0.0074163707904517
1769244893015,-0.341156005859375,0.1145782470703125,-0.92669677734375,-0.0193486642092466,-0.024355674162507,-0.0105336010456085
1769244893025,-0.3411712646484375,0.1168670654296875,-0.9335479736328124,-0.0148870702832937,-0.0290066171437501,-0.0110728908330202
1769244893035,-0.341766357421875,0.116729736328125,-0.9339447021484376,-0.0105351991951465,-0.0309408716857433,-0.0125256450846791
1769244893045,-0.344207763671875,0.1171417236328125,-0.935760498046875,-0.0031672974582761,-0.0299440510571002,-0.021764151751995
1769244893057,-0.348846435546875,0.1163482666015625,-0.9351806640625,-0.0031672974582761,-0.0299440510571002,-0.021764151751995
1769244893066,-0.344818115234375,0.115447998046875,-0.9322662353515624,-0.0041976743377745,-0.0280774403363466,-0.0271360129117965
1769244893075,-0.3372955322265625,0.1142120361328125,-0.932861328125,-0.0030868700705468,-0.0233615152537822,-0.0206943601369857
1769244893085,-0.332763671875,0.1108551025390625,-0.933349609375,-0.0002303634391864,-0.0202416218817234,-0.0111639713868498
1769244893095,-0.3299407958984375,0.1108245849609375,-0.9332275390625,0.0015193333383649,-0.0183763448148965,-0.0063849287107586
1769244893106,-0.3311004638671875,0.11029052734375,-0.93341064453125,0.0048679918982088,-0.0165384970605373,-0.0004436826275195
1769244893115,-0.33428955078125,0.1117706298828125,-0.931732177734375,0.0078350203111767,-0.0147973215207457,-0.0004186489095445
1769244893126,-0.3382568359375,0.11163330078125,-0.9315338134765624,0.003540406236425,-0.0194032583385705,-0.0021643510553985
1769244893136,-0.3396453857421875,0.1161346435546875,-0.929931640625,0.0026146916206926,-0.0244614016264677,-0.0114691695198416
1769244893145,-0.343292236328125,0.1162109375,-0.9285736083984376,0.0007243797881528,-0.0283978190273046,-0.0148830758407711
1769244893156,-0.3410491943359375,0.115753173828125,-0.92999267578125,-0.0039406795985996,-0.0295802634209394,-0.0138130178675055
1769244893166,-0.3388519287109375,0.1147918701171875,-0.9301910400390624,-0.0056893108412623,-0.0270734298974275,-0.0130761209875345
1769244893176,-0.334991455078125,0.1139678955078125,-0.9317779541015624,-0.0024264061357825,-0.0244454219937324,-0.0064419205300509
1769244893186,-0.3340301513671875,0.114410400390625,-0.93634033203125,0.0018346516881138,-0.0252598170191049,-0.0027097663842141
1769244893196,-0.334503173828125,0.112701416015625,-0.9356842041015624,0.0014242585748434,-0.0297293998301029,-0.0002804308605846
1769244893206,-0.3409576416015625,0.1114349365234375,-0.9291229248046876,-0.0030032468494027,-0.0273248311132192,-0.0060235378332436
1769244893216,-0.3437957763671875,0.1101226806640625,-0.9239501953125,-0.0104118948802351,-0.0233913417905569,-0.0089128008112311
1769244893226,-0.344329833984375,0.111053466796875,-0.92059326171875,-0.0195593200623989,-0.0216461736708879,-0.0109376022592186
1769244893236,-0.34075927734375,0.11053466796875,-0.9221954345703124,-0.0231412723660469,-0.0184320043772459,-0.0065356637351214
1769244893246,-0.3373260498046875,0.11138916015625,-0.925628662109375,-0.0220499075949192,-0.0159914828836917,0.0011494202772155
1769244893256,-0.340362548828125,0.1109771728515625,-0.93133544921875,-0.0187497194856405,-0.0101072285324335,-0.0017230651574209
1769244893266,-0.345977783203125,0.1104583740234375,-0.9339447021484376,-0.015009575523436,-0.0058693406172096,-0.0007006776868365
1769244893277,-0.3443450927734375,0.1115875244140625,-0.9357757568359376,-0.0119954105466604,-0.0087178573012351,-0.0011113371001556
1769244893286,-0.3485565185546875,0.1103363037109375,-0.9361419677734376,-0.0107820741832256,-0.0069934609346091,-0.0069191586226224
1769244893296,-0.3484954833984375,0.1137542724609375,-0.937652587890625,-0.0055095474235713,-0.0063015716150403,-0.0097405118867754
1769244893307,-0.3472900390625,0.1141204833984375,-0.93719482421875,-0.00355771696195,-0.0087229181081056,-0.0104920556768774
1769244893316,-0.345916748046875,0.11126708984375,-0.933990478515625,-0.0055857142433524,-0.0110313454642891,-0.0154657755047082
1769244893326,-0.34027099609375,0.1087493896484375,-0.9327239990234376,-0.0092840455472469,-0.0124801052734255,-0.007669371087104
1769244893337,-0.336273193359375,0.115478515625,-0.9350433349609376,-0.0005723133217543,-0.0098552936688065,-0.0018844527658075
1769244893347,-0.3487396240234375,0.1184844970703125,-0.9430084228515624,0.0086731165647506,-0.0090334424749016,-0.0073663033545017
1769244893356,-0.3553924560546875,0.121368408203125,-0.941802978515625,0.0149158323183655,-0.0036237633321434,-0.0145608335733413
1769244893366,-0.3520660400390625,0.118743896484375,-0.93389892578125,0.0121765052899718,0.002599777886644,-0.0200259052217006
1769244893377,-0.35003662109375,0.1153106689453125,-0.9268646240234376,0.0063993097282946,0.0025236115325242,-0.0261328015476465
1769244893387,-0.3347930908203125,0.1110382080078125,-0.9235382080078124,-0.0017291904659941,-0.003483947366476,-0.0166905634105205
1769244893397,-0.3207244873046875,0.113861083984375,-0.9261932373046876,-0.0006833671359345,-0.0012974920682609,-0.001881523290649
1769244893407,-0.329010009765625,0.1184234619140625,-0.9350128173828124,0.0134295225143432,0.0055130096152424,0.0001238369877682
1769244893417,-0.3472442626953125,0.1172332763671875,-0.9368896484375,0.0227122362703084,0.0133661394938826,-0.0013933659065514
1769244893427,-0.352813720703125,0.1211090087890625,-0.926788330078125,0.016491625458002,0.0145182227715849,-0.0034914042335003
1769244893437,-0.3513031005859375,0.121917724609375,-0.9165191650390624,0.0038725025951862,0.0085596656426787,-0.0070864050649106
1769244893447,-0.34796142578125,0.1194610595703125,-0.911468505859375,-0.0125147262588143,-0.0010980212828144,-0.0117543935775756
1769244893458,-0.3400726318359375,0.1171417236328125,-0.9122772216796876,-0.0235567241907119,-0.0117173762992024,-0.0136662777513265
1769244893467,-0.332275390625,0.1098480224609375,-0.9189300537109376,-0.0313499346375465,-0.0191995278000831,-0.0096853841096162
1769244893477,-0.3274383544921875,0.10693359375,-0.92706298828125,-0.0303334053605794,-0.0235370174050331,0.0039734365418553
1769244893487,-0.32818603515625,0.107177734375,-0.938018798828125,-0.0203548055142164,-0.0165867004543542,0.0089221224188804
1769244893497,-0.3404998779296875,0.1064605712890625,-0.944793701171875,-0.007643804885447,-0.0051018176600337,0.0058000986464321
1769244893507,-0.35272216796875,0.1099395751953125,-0.9482574462890624,0.006989998742938,-0.0008178567513823,-0.0004359594604466
1769244893517,-0.3597564697265625,0.1093902587890625,-0.9503936767578124,0.0219423174858093,0.0042165829800069,-0.0127056753262877
1769244893527,-0.3632965087890625,0.1097259521484375,-0.9480133056640624,0.0295626856386661,0.0063111591152846,-0.0208959598094224
1769244893537,-0.3613739013671875,0.1111907958984375,-0.93902587890625,0.0311185047030448,0.0043334956280887,-0.0251026898622512
1769244893548,-0.3599700927734375,0.1093597412109375,-0.9305572509765624,0.0261490456759929,0.0057995659299194,-0.0250619426369667
1769244893558,-0.3532562255859375,0.1092681884765625,-0.924560546875,0.0226669628173112,0.0047388286329805,-0.020236562937498
1769244893567,-0.345733642578125,0.1081695556640625,-0.9230804443359376,0.017315074801445,0.0020136160310357,-0.0115900766104459
1769244893578,-0.33807373046875,0.108123779296875,-0.92401123046875,0.012238023802638,0.0015307849971577,-0.0057215350680053
1769244893588,-0.335968017578125,0.1107177734375,-0.9247589111328124,0.0087263798341155,-0.0020847225096076,-0.0008652610122226
1769244893598,-0.338043212890625,0.1131134033203125,-0.9259185791015624,0.0072507224977016,-0.0029947245493531,-0.0048568067140877
1769244893608,-0.3417816162109375,0.114654541015625,-0.92962646484375,0.0088440915569663,0.0017731325933709,-0.00497158896178
1769244893618,-0.343017578125,0.1149444580078125,-0.9290771484375,0.0109463911503553,0.0083929523825645,-0.0066206185147166
1769244893628,-0.3393096923828125,0.1140899658203125,-0.9264068603515624,0.0103285377845168,0.0144697530195117,-0.0007832356495782
1769244893638,-0.3339080810546875,0.1130218505859375,-0.9243621826171876,0.0022690133191645,0.0160183813422918,0.0068959891796112
1769244893648,-0.331573486328125,0.1132965087890625,-0.9229736328125,0.0031164311803877,0.013986655510962,0.0099237374961376
1769244893658,-0.3372802734375,0.1127777099609375,-0.93035888671875,0.0047191213816404,0.0149437952786684,0.0059487028047442
1769244893668,-0.3431396484375,0.1118621826171875,-0.93341064453125,0.0054610781371593,0.0176122821867465,-0.0023973775096237
1769244893678,-0.3454132080078125,0.1119232177734375,-0.932525634765625,0.0024985778145492,0.0262904595583677,0.0009243832319043
1769244893688,-0.3440704345703125,0.112945556640625,-0.9316558837890624,0.0012487561907619,0.0288220606744289,0.0014303837670013
1769244893698,-0.339630126953125,0.1126861572265625,-0.9368743896484376,0.0035409389529377,0.0265754181891679,0.0022879217285662
1769244893708,-0.343505859375,0.110107421875,-0.9384307861328124,0.0043409527279436,0.0278478767722845,9.58738019107841e-05
1769244893718,-0.3471832275390625,0.110137939453125,-0.940032958984375,0.0069894660264253,0.0296947788447141,-0.0022586269769817
1769244893728,-0.3472747802734375,0.11090087890625,-0.9406585693359376,0.0153579171746969,0.0371239334344863,-0.0014210627414286
1769244893740,-0.3445587158203125,0.111114501953125,-0.94140625,0.0179587602615356,0.0356101915240287,-0.0049755838699638
1769244893748,-0.34637451171875,0.1100006103515625,-0.9356842041015624,0.0145973181352019,0.0366850420832634,-0.0040778322145342
1769244893759,-0.343170166015625,0.1100616455078125,-0.9308929443359376,0.0143709499388933,0.0356525368988513,-0.0028943235520273
1769244893768,-0.3393096923828125,0.1098175048828125,-0.933624267578125,0.0144045054912567,0.0387708321213722,-0.0072898706421256
1769244893779,-0.3391571044921875,0.1105499267578125,-0.9347686767578124,0.0146348690614104,0.0260427854955196,0.0011238539591431
1769244893790,-0.3430023193359375,0.103118896484375,-0.93170166015625,0.011632421053946,0.0211987625807523,-0.0017773937433958
1769244893799,-0.343963623046875,0.1097259521484375,-0.9293060302734376,0.0069955913349986,0.019095929339528,-0.0064784055575728
1769244893809,-0.3478240966796875,0.10272216796875,-0.9271697998046876,0.0031278827227652,0.0140652190893888,-0.0100782001391053
1769244893819,-0.34783935546875,0.1036224365234375,-0.9276275634765624,0.0036751623265445,0.0118710407987236,-0.0120095247402787
1769244893829,-0.3419189453125,0.1058502197265625,-0.93035888671875,0.0043827639892697,0.0076350164599716,-0.0130292493849992
1769244893840,-0.3444671630859375,0.104034423828125,-0.9310760498046876,0.0026873957831412,0.0091042825952172,-0.0157741699367761
1769244893849,-0.3460235595703125,0.106201171875,-0.930572509765625,0.0004018710169475,0.0089618032798171,-0.0172516908496618
1769244893859,-0.3444061279296875,0.1072540283203125,-0.931549072265625,0.0025702167768031,0.0050400323234498,-0.0190344117581844
1769244893869,-0.347198486328125,0.1082763671875,-0.9368896484375,0.0054885088466107,0.0015542207984253,-0.0258702132850885
1769244893879,-0.349456787109375,0.1092071533203125,-0.937042236328125,0.0051667988300323,0.0018224010709673,-0.0298676174134016
1769244893889,-0.3482818603515625,0.10809326171875,-0.9354095458984376,0.0045436192303895,0.0080629866570234,-0.0291919745504856
1769244893899,-0.342071533203125,0.1083221435546875,-0.933685302734375,0.0045809033326804,0.0085468832403421,-0.0286673307418823
1769244893909,-0.34136962890625,0.10546875,-0.9314117431640624,0.0030812772456556,0.0099679455161094,-0.0242382269352674
1769244893919,-0.340087890625,0.104461669921875,-0.9287109375,8.52211542223813e-06,0.0149477906525135,-0.0272981990128755
1769244893930,-0.33978271484375,0.1050262451171875,-0.92987060546875,0.0013235911028459,0.0162745770066976,-0.0252070855349302
1769244893941,-0.338623046875,0.1042022705078125,-0.9324798583984376,0.0045252433046698,0.015498798340559,-0.0255032293498516
1769244893949,-0.3385772705078125,0.1047821044921875,-0.9321136474609376,0.0047526773996651,0.0159097239375114,-0.0265463888645172
1769244893960,-0.3394775390625,0.105316162109375,-0.9285430908203124,0.0028272117488086,0.0231508594006299,-0.0233109146356582
1769244893969,-0.3380279541015625,0.1051177978515625,-0.928314208984375,0.0009760485263541,0.0242323689162731,-0.0197643842548131
1769244893980,-0.3355560302734375,0.1016387939453125,-0.9274444580078124,-0.0011536814272403,0.0257442463189363,-0.0124159231781959
1769244893989,-0.328216552734375,0.098846435546875,-0.92529296875,-0.0112135056406259,0.0159363560378551,-0.0062634884379804
1769244894000,-0.3264007568359375,0.100189208984375,-0.9239501953125,-0.015793077647686,0.0119530661031603,-0.0029068402945995
1769244894010,-0.3371734619140625,0.10791015625,-0.93280029296875,-0.0087042758241295,0.0028514466248452,-0.0101546328514814
1769244894020,-0.35052490234375,0.109710693359375,-0.9366912841796876,-0.0058115501888096,-6.364954606397077e-05,-0.0153525909408926
1769244894030,-0.349578857421875,0.1121978759765625,-0.933380126953125,-0.0029750172980129,0.0063449810259044,-0.0272332187741994
1769244894040,-0.3525238037109375,0.1098480224609375,-0.9319000244140624,-0.0061457767151296,0.0149429971352219,-0.0368416383862495
1769244894050,-0.3410491943359375,0.107391357421875,-0.9291229248046876,-0.0125461518764495,0.0165363661944866,-0.0305557791143655
1769244894060,-0.3224945068359375,0.1024322509765625,-0.9305419921875,-0.0182096306234598,0.0178748704493045,-0.0181766077876091
1769244894070,-0.3186187744140625,0.1047210693359375,-0.9366302490234376,-0.0077362167648971,0.0256702098995447,-0.0075580510310828
1769244894080,-0.329315185546875,0.1083984375,-0.94793701171875,0.0141967786476016,0.0400829724967479,-0.0020442423410713
1769244894090,-0.3414764404296875,0.1107330322265625,-0.94683837890625,0.0271421391516923,0.0471653826534748,-0.0020216056145727
1769244894100,-0.343109130859375,0.11175537109375,-0.9328460693359376,0.0188019163906574,0.0366544164717197,-0.0032338765449821
1769244894110,-0.338714599609375,0.1103363037109375,-0.9161376953125,-0.0061737401410937,0.022170815616846,-0.0108113689348101
1769244894120,-0.3358001708984375,0.1049041748046875,-0.9013671875,-0.0402110703289508,0.0075596491806209,-0.0158633850514888
1769244894130,-0.3249359130859375,0.101898193359375,-0.8991546630859375,-0.0653979182243347,-0.0025941852945834,-0.0134212663397192
1769244894140,-0.319732666015625,0.0991058349609375,-0.91363525390625,-0.0729631558060646,-0.0003376888344064,-0.0056589511223137
1769244894150,-0.3186492919921875,0.0984039306640625,-0.93115234375,-0.0640719234943389,0.0109064439311623,0.0062349927611649
1769244894160,-0.3217315673828125,0.101318359375,-0.94512939453125,-0.0430896803736686,0.0242816377431154,0.0167933609336614
1769244894171,-0.3314056396484375,0.1053009033203125,-0.956207275390625,-0.0161411520093679,0.0386621728539466,0.0179121550172567
1769244894180,-0.3438568115234375,0.1089935302734375,-0.9597015380859376,0.0064001088030636,0.0537367314100265,0.0136782620102167
1769244894191,-0.34967041015625,0.1089019775390625,-0.9516754150390624,0.0188780836760997,0.0646817907691001,0.0087468866258859
1769244894201,-0.350677490234375,0.1075592041015625,-0.9429473876953124,0.0224853344261646,0.064086839556694,-0.001874332781881
1769244894211,-0.3500213623046875,0.10577392578125,-0.9342193603515624,0.0180237423628568,0.0596508122980594,-0.0077173081226646
1769244894221,-0.344696044921875,0.103759765625,-0.9296112060546876,0.0097740674391388,0.0464055798947811,-0.0093410378322005
1769244894231,-0.339996337890625,0.1014862060546875,-0.929473876953125,0.0046597328037023,0.0330849811434745,-0.0095761949196457
1769244894241,-0.3354644775390625,0.10101318359375,-0.9313201904296876,5.885586142539978e-05,0.024304274469614,-0.0076134447008371
1769244894251,-0.3285980224609375,0.0994720458984375,-0.932891845703125,-0.0059516322799026,0.0178679469972848,-0.0034527883399277
1769244894261,-0.323089599609375,0.1027374267578125,-0.9347686767578124,-0.0027499801944941,0.0153073174878954,0.0028674255590885
1769244894271,-0.3236541748046875,0.10479736328125,-0.9426727294921876,0.0089109372347593,0.0179302636533975,0.0032043154351413
1769244894281,-0.32843017578125,0.105926513671875,-0.945892333984375,0.0180285349488258,0.0183835346251726,0.0021544971968978
1769244894291,-0.331451416015625,0.1061553955078125,-0.9434051513671876,0.0230222288519144,0.0199545323848724,0.000672714493703
1769244894301,-0.3326568603515625,0.10614013671875,-0.937347412109375,0.0210810508579015,0.0171097442507743,-0.0036011263728141
1769244894311,-0.3348388671875,0.107757568359375,-0.9305267333984376,0.0107583720237016,0.0128558771684765,-0.0087335705757141
1769244894321,-0.3342437744140625,0.107513427734375,-0.9259796142578124,-0.0014375743921846,0.0037159086205065,-0.01271259970963
1769244894331,-0.334808349609375,0.1050567626953125,-0.9235687255859376,-0.0124582676216959,0.0023260049056261,-0.0162546038627624
1769244894341,-0.3356781005859375,0.1056976318359375,-0.9249420166015624,-0.0168639346957206,-0.0002340918581467,-0.0245652645826339
1769244894351,-0.3360595703125,0.1046905517578125,-0.929718017578125,-0.0173563528805971,0.0024993766564875,-0.0283485502004623
1769244894361,-0.33197021484375,0.10321044921875,-0.93731689453125,-0.0127083379775285,0.0062744072638452,-0.0233183726668357
1769244894371,-0.3259429931640625,0.103302001953125,-0.9422149658203124,-0.0024703482631593,0.0089982887730002,-0.0149070443585515
1769244894381,-0.323150634765625,0.1000518798828125,-0.9439544677734376,0.000655403942801,0.0106449211016297,-0.0068320734426379
1769244894392,-0.3225860595703125,0.100250244140625,-0.9402008056640624,0.0044884914532303,0.0143674872815608,-0.002828809665516
1769244894402,-0.327880859375,0.0994110107421875,-0.9345855712890624,0.0034583809319883,0.0171787198632955,-0.0003949467791244
1769244894412,-0.328826904296875,0.1009979248046875,-0.933197021484375,0.0067417924292385,0.0164873637259006,-0.003752393880859
1769244894422,-0.332275390625,0.1028594970703125,-0.9332733154296876,0.0082459459081292,0.0131967617198824,-0.011672368273139
1769244894432,-0.3335723876953125,0.1009979248046875,-0.9351654052734376,0.0106683569028973,0.012295814231038,-0.0127378990873694
1769244894442,-0.3322296142578125,0.1049652099609375,-0.9334869384765624,0.0122366929426789,0.0099519668146967,-0.0170713942497968
1769244894452,-0.333343505859375,0.10626220703125,-0.9355010986328124,0.0143962502479553,0.0068150293081998,-0.0199971441179513
1769244894462,-0.3354339599609375,0.10491943359375,-0.936065673828125,0.0120486728847026,0.0067612333223223,-0.0196573249995708
1769244894472,-0.3296051025390625,0.1046600341796875,-0.932159423828125,0.0061034327372908,0.0058456384576857,-0.0104284062981605
1769244894482,-0.320770263671875,0.1036224365234375,-0.93353271484375,0.0038562573026865,0.0029087045695632,0.0016053534345701
1769244894493,-0.320098876953125,0.0997467041015625,-0.938079833984375,0.0031989889685064,0.0018956380663439,0.013880661688745
1769244894502,-0.31805419921875,0.104095458984375,-0.9383697509765624,0.0080794980749487,0.0003502056933939,0.0193694364279508
1769244894512,-0.3255462646484375,0.104766845703125,-0.942413330078125,0.0123333651572465,2.5300030756625347e-05,0.0219138208776712
1769244894522,-0.3292999267578125,0.1046905517578125,-0.9387969970703124,0.0093237273395061,0.0030676953028887,0.0187281481921672
1769244894532,-0.3310394287109375,0.1064453125,-0.935272216796875,0.0110763534903526,0.0030844730790704,0.0128628015518188
1769244894543,-0.33465576171875,0.107421875,-0.9375152587890624,0.0107802096754312,-0.0020929782185703,0.0085426215082407
1769244894552,-0.3355560302734375,0.10784912109375,-0.935638427734375,0.0087847029790282,-0.0022548984270542,0.005199555773288
1769244894562,-0.33233642578125,0.1066131591796875,-0.9337310791015624,0.0025313345249742,0.0002103897277265,0.0110598411411046
1769244894572,-0.326690673828125,0.1052398681640625,-0.9322052001953124,0.0014514228096231,-0.0015912387752905,0.0173251945525407
1769244894583,-0.3267669677734375,0.1049957275390625,-0.9345245361328124,8.788431296125054e-05,0.0009720537927933,0.0234667100012302
1769244894593,-0.326934814453125,0.1043853759765625,-0.9351806640625,-0.0005347627447918,0.0028802086599171,0.0242478158324956
1769244894603,-0.330718994140625,0.1017608642578125,-0.9343719482421876,-0.002004028763622,0.0009147958480753,0.0230307504534721
1769244894613,-0.3323516845703125,0.1017608642578125,-0.933624267578125,-0.0039380164816975,0.0003922836331184,0.0216813273727893
1769244894625,-0.33331298828125,0.10205078125,-0.9315948486328124,-0.0034429347142577,-0.00206128670834,0.018362496048212
1769244894633,-0.330963134765625,0.09808349609375,-0.9316558837890624,-0.0097980359569191,-0.0067543089389801,0.0206267144531011
1769244894643,-0.322967529296875,0.096405029296875,-0.9271697998046876,-0.0149206258356571,-0.0098896482959389,0.0211763922125101
1769244894653,-0.3294830322265625,0.101806640625,-0.931060791015625,-0.010602843016386,-0.0063503077253699,0.0206730533391237
1769244894663,-0.3381500244140625,0.1042022705078125,-0.9360198974609376,-0.003745203372091,-0.001439438550733,0.0234925430268049
1769244894673,-0.3359832763671875,0.1017913818359375,-0.935150146484375,-0.0066712186671793,0.0014389059506356,0.0209337770938873
1769244894683,-0.337799072265625,0.1026458740234375,-0.9315338134765624,-0.0056155412457883,0.0064246095716953,0.015117167495191
1769244894693,-0.342193603515625,0.1060791015625,-0.9348602294921876,-0.0019909793045371,0.0075636436231434,0.0059242015704512
1769244894703,-0.332763671875,0.10418701171875,-0.93988037109375,0.0019702066201716,0.003924966789782,0.0091673992574214
1769244894713,-0.3197479248046875,0.1059417724609375,-0.9423980712890624,0.0115999309346079,0.0042301649227738,0.0124790398404002
1769244894723,-0.3252105712890625,0.1090087890625,-0.95013427734375,0.0310774911195039,0.0125344339758157,0.0132313827052712
1769244894733,-0.3396759033203125,0.11083984375,-0.9506378173828124,0.0470322221517562,0.0203039404004812,0.0068272799253463
1769244894743,-0.344085693359375,0.1092681884765625,-0.939453125,0.045521680265665,0.0210421681404113,0.0079836240038275
1769244894753,-0.337799072265625,0.106231689453125,-0.921875,0.0210030190646648,0.0061335260979831,0.0073553845286369
1769244894763,-0.3294677734375,0.1028594970703125,-0.905120849609375,-0.0144306048750877,-0.0167132001370191,6.524744821945205e-05
1769244894774,-0.325958251953125,0.100921630859375,-0.905120849609375,-0.0400781780481338,-0.0318394228816032,-0.0070762853138148
1769244894783,-0.32098388671875,0.0978240966796875,-0.9156951904296876,-0.052709549665451,-0.0372877158224582,-0.0022895196452736
1769244894794,-0.313385009765625,0.0939178466796875,-0.92913818359375,-0.044423658400774,-0.0242874957621097,0.012033493258059
1769244894803,-0.31646728515625,0.096588134765625,-0.9430084228515624,-0.0282681230455636,-0.0145475175231695,0.0146170258522033
1769244894814,-0.3259124755859375,0.0970611572265625,-0.9495086669921876,-0.013253754004836,0.000549410120584,0.0237897522747516
1769244894823,-0.33001708984375,0.10101318359375,-0.9499053955078124,-0.0015949672088027,0.0053249904885888,0.0256145503371953
1769244894834,-0.3379974365234375,0.104400634765625,-0.947021484375,0.0058371163904666,0.0055324509739875,0.0215271301567554
1769244894844,-0.3438568115234375,0.10333251953125,-0.9422454833984376,0.0054224622435867,0.0031907332595437,0.0141443144530057
1769244894854,-0.3476409912109375,0.103759765625,-0.9362335205078124,0.0039787627756595,-0.0057686730287969,0.0066429888829588
1769244894864,-0.3518829345703125,0.102813720703125,-0.9310760498046876,-0.0005592638044618,-0.0101748732849955,-0.0048821070231497
1769244894874,-0.3474578857421875,0.101348876953125,-0.9323883056640624,-0.0021441110875457,-0.0134838512167334,-0.0062994412146508
1769244894884,-0.3387298583984375,0.101348876953125,-0.9354095458984376,-0.0009443568997085,-0.0115011278539896,-0.0024208133108913
1769244894894,-0.3331146240234375,0.1009674072265625,-0.93701171875,-0.0001035969689837,-0.0104182865470647,-1.5712650565546937e-05
1769244894904,-0.327117919921875,0.1016082763671875,-0.938812255859375,0.0015949672088027,-0.0085146585479378,0.0065846657380461
1769244894914,-0.3232879638671875,0.10491943359375,-0.9395751953125,0.005183576606214,-0.0072464612312614,0.0121765052899718
1769244894924,-0.3260650634765625,0.1067047119140625,-0.9421844482421876,0.0092763230204582,-0.0073497919365763,0.0106076365336775
1769244894934,-0.3339996337890625,0.1053009033203125,-0.939697265625,0.0081079937517642,-0.0038480013608932,0.0029699571896344
1769244894944,-0.3364410400390625,0.10693359375,-0.9300994873046876,-0.0007408913807012,0.0016791230300441,0.0023102923296391
1769244894954,-0.3312835693359375,0.1089630126953125,-0.9256744384765624,-0.0076187714003026,-0.0019190738676115,0.0039438754320144
1769244894964,-0.329437255859375,0.1075592041015625,-0.926239013671875,-0.0138018326833844,-0.0067684240639209,0.0022546320687979
1769244894975,-0.330230712890625,0.10516357421875,-0.9275970458984376,-0.0219465773552656,-0.0106590362265706,0.0007595335482619
1769244894984,-0.3335723876953125,0.102386474609375,-0.9274749755859376,-0.0284039452672004,-0.0109067102894186,-0.0029465213883668
1769244894994,-0.332916259765625,0.100860595703125,-0.9273529052734376,-0.0327915027737617,-0.0090624708682298,-0.0039507993496954
1769244895005,-0.3314971923828125,0.0980377197265625,-0.93023681640625,-0.035143606364727,-0.0121767716482281,-0.0003001382574439
1769244895015,-0.32818603515625,0.0984344482421875,-0.9322967529296876,-0.0369489639997482,-0.020799022167921,0.0095666069537401
1769244895025,-0.32708740234375,0.09893798828125,-0.93572998046875,-0.0353771671652793,-0.0171891059726476,0.011928298510611
1769244895035,-0.334869384765625,0.1043243408203125,-0.9406280517578124,-0.0308809503912925,-0.0184008441865444,0.0097221359610557
1769244895045,-0.34149169921875,0.103912353515625,-0.9410400390625,-0.0257498379796743,-0.0165155939757823,0.0087823066860437
1769244895055,-0.3426055908203125,0.10821533203125,-0.9416656494140624,-0.0229117069393396,-0.0231575164943933,0.0023302659392356
1769244895065,-0.3459625244140625,0.1085662841796875,-0.942352294921875,-0.0185411944985389,-0.0203678552061319,-0.0043140547350049
1769244895075,-0.34649658203125,0.10723876953125,-0.940155029296875,-0.0206126011908054,-0.0171310491859912,-0.0075274249538779
1769244895085,-0.3404693603515625,0.1056671142578125,-0.936614990234375,-0.0177499689161777,-0.013105415739119,-0.0023302659392356
1769244895095,-0.3350830078125,0.10589599609375,-0.93707275390625,-0.0111868744716048,-0.0152010573074221,-0.0018855180824175
1769244895105,-0.3350830078125,0.103851318359375,-0.9399261474609376,-0.0059617524966597,-0.019728697836399,-0.0028226843569427
1769244895115,-0.33740234375,0.10260009765625,-0.9349212646484376,-0.0037870150990784,-0.0194506626576185,-0.0062712118960917
1769244895125,-0.334808349609375,0.105316162109375,-0.9296722412109376,-0.0086925579234957,-0.016410132870078,-0.0055263256654143
1769244895135,-0.3304290771484375,0.1049957275390625,-0.924285888671875,-0.0134774595499038,-0.0175329204648733,-0.0007741809240542
1769244895145,-0.3285064697265625,0.1056365966796875,-0.9217376708984376,-0.0193989984691143,-0.0179273355752229,0.0004324973560869
1769244895155,-0.330718994140625,0.1044158935546875,-0.9222259521484376,-0.024330373853445,-0.0176338553428649,0.0008362325606867
1769244895165,-0.331939697265625,0.1054229736328125,-0.9251708984375,-0.0266531817615032,-0.0186562426388263,0.0051809134893119
1769244895176,-0.33538818359375,0.1078338623046875,-0.9257354736328124,-0.0302255470305681,-0.0167968235909938,0.0018317222129553
1769244895185,-0.3372802734375,0.10791015625,-0.9259185791015624,-0.0339566357433795,-0.0147906634956598,0.0038503983523696
1769244895195,-0.33349609375,0.1085357666015625,-0.9249420166015624,-0.0381463207304477,-0.0189151018857955,0.0013891047565266
1769244895206,-0.33624267578125,0.10888671875,-0.92626953125,-0.0410457029938697,-0.0212104804813861,0.002192846732214
1769244895216,-0.3379364013671875,0.109100341796875,-0.9280548095703124,-0.0414598248898983,-0.0196517314761877,0.0035510589368641
1769244895226,-0.33526611328125,0.1078033447265625,-0.9326934814453124,-0.0388017259538173,-0.0235396809875965,0.0059684100560843
1769244895236,-0.3367156982421875,0.104461669921875,-0.93310546875,-0.0381471179425716,-0.0165579374879598,0.0106406603008508
1769244895246,-0.334625244140625,0.105865478515625,-0.933380126953125,-0.036867469549179,-0.0148697597905993,0.0197638515383005
1769244895256,-0.3353118896484375,0.1077728271484375,-0.9373931884765624,-0.0295152813196182,-0.015009575523436,0.020847225561738
1769244895266,-0.3402862548828125,0.1060638427734375,-0.94097900390625,-0.0261178873479366,-0.0189372058957815,0.0214895792305469
1769244895276,-0.339019775390625,0.105072021484375,-0.9376678466796876,-0.0297938473522663,-0.0240483451634645,0.0181212127208709
1769244895286,-0.3458251953125,0.1108856201171875,-0.93646240234375,-0.0281964838504791,-0.027117371559143,0.0106308059766888
1769244895296,-0.3565826416015625,0.1128082275390625,-0.941070556640625,-0.0151166347786784,-0.0342575721442699,-0.0042312303557991
1769244895306,-0.363494873046875,0.1113739013671875,-0.941070556640625,-0.0133797209709882,-0.0309914723038673,-0.0176844540983438
1769244895316,-0.357421875,0.1135711669921875,-0.9317779541015624,-0.011942945420742,-0.0221228785812854,-0.0233428739011287
1769244895326,-0.351959228515625,0.1097412109375,-0.9314727783203124,-0.0170341115444898,-0.0141768055036664,-0.0245833732187747
1769244895336,-0.3379058837890625,0.1066741943359375,-0.9305267333984376,-0.022703181952238,-0.0114153735339641,-0.0134577518329024
1769244895346,-0.3230133056640625,0.108642578125,-0.93560791015625,-0.0186658296734094,-0.0089974896982312,-0.0009957558941096
1769244895356,-0.3283233642578125,0.11376953125,-0.9473724365234376,0.0034479945898056,0.0014855111949145,-0.0012128035305067
1769244895366,-0.3475494384765625,0.11895751953125,-0.9547119140625,0.0226336736232042,0.015827165916562,-0.0062248725444078
1769244895376,-0.354522705078125,0.118988037109375,-0.9414520263671876,0.0268257558345794,0.0195760987699031,-0.0072792181745171
1769244895386,-0.3516693115234375,0.1183013916015625,-0.925323486328125,0.0134686706587672,0.0104837995022535,-0.0134897101670503
1769244895396,-0.347381591796875,0.115997314453125,-0.90924072265625,-0.0160514041781425,-0.0035180358681827,-0.0230246260762214
1769244895406,-0.34307861328125,0.1132659912109375,-0.8997955322265625,-0.0469488650560379,-0.0176391806453466,-0.030650321394205
1769244895417,-0.3373260498046875,0.1085357666015625,-0.9012603759765624,-0.0702483281493187,-0.0296721421182155,-0.0300063677132129
1769244895427,-0.3256378173828125,0.1071319580078125,-0.9110260009765624,-0.0801662057638168,-0.0328146703541278,-0.0184075031429529
1769244895437,-0.323028564453125,0.10577392578125,-0.924896240234375,-0.0773552432656288,-0.0419378615915775,-0.015057778917253
1769244895447,-0.330657958984375,0.10662841796875,-0.9354705810546876,-0.0703857466578483,-0.0289264563471078,-0.0084584662690758
1769244895460,-0.3379669189453125,0.11029052734375,-0.94342041015625,-0.0467145070433616,-0.0118353543803095,-0.0095714004710316
1769244895467,-0.3468017578125,0.114288330078125,-0.9519500732421876,-0.0252326522022485,-0.003771036164835,-0.0148689607158303
1769244895477,-0.349945068359375,0.114349365234375,-0.9523773193359376,-0.006107160821557,-0.0003920173039659,-0.0120824957266449
1769244895487,-0.34747314453125,0.115631103515625,-0.948211669921875,0.0048035434447228,0.0003520698810461,-0.0145975844934582
1769244895497,-0.35345458984375,0.11572265625,-0.940521240234375,0.0062227421440184,-0.0024202808272093,-0.0167922955006361
1769244895507,-0.353057861328125,0.116912841796875,-0.9335479736328124,0.0070925303734838,-0.0020181434229016,-0.0211894419044256
1769244895517,-0.3513031005859375,0.1151275634765625,-0.9296722412109376,0.0033497239928692,-0.0032333438284695,-0.0228888038545846
1769244895528,-0.348052978515625,0.1151275634765625,-0.9271087646484376,-7.5101139373146e-05,-0.0066251456737518,-0.0232251621782779
1769244895537,-0.3412628173828125,0.1153106689453125,-0.928802490234375,-0.0036946034524589,-0.0138787971809506,-0.023991884663701
1769244895547,-0.33966064453125,0.113525390625,-0.9304962158203124,-0.0086901606991887,-0.0171614103019237,-0.0207950267940759
1769244895560,-0.335235595703125,0.1157684326171875,-0.92950439453125,-0.0052850432693958,-0.0153272906318306,-0.0173885766416788
1769244895567,-0.336761474609375,0.116363525390625,-0.932159423828125,-0.0022876553703099,-0.0133970314636826,-0.0129916984587907
1769244895577,-0.3390045166015625,0.11346435546875,-0.931488037109375,-0.0008418252109549,-0.0089135998860001,-0.0141155524179339
1769244895587,-0.3406524658203125,0.115570068359375,-0.925628662109375,-0.0030365362763404,-0.0061953114345669,-0.0123815685510635
1769244895597,-0.3393402099609375,0.114837646484375,-0.9239349365234376,-0.0080688456073403,-0.0054152715019881,-0.0107820741832256
1769244895609,-0.336761474609375,0.1147308349609375,-0.92279052734375,-0.0112790195271372,-0.0044376254081726,-0.0064539043232798
1769244895617,-0.334930419921875,0.1151123046875,-0.92132568359375,-0.0170735251158475,-0.000843689427711,-0.0027353328187018
1769244895627,-0.3350372314453125,0.113067626953125,-0.924407958984375,-0.0208424311131238,0.001374990097247,0.0061588264070451
1769244895637,-0.3385162353515625,0.111785888671875,-0.92822265625,-0.0185904614627361,0.0007217166712507,0.0035697009880095
1769244895648,-0.3433380126953125,0.1121978759765625,-0.931549072265625,-0.019572103396058,0.0009139968897216,0.0020503676496446
1769244895657,-0.3482208251953125,0.1134490966796875,-0.93048095703125,-0.0185811407864093,-0.0022807312197983,-0.0022847258951514
1769244895668,-0.3503875732421875,0.1146392822265625,-0.9297332763671876,-0.0210554841905832,-0.0030360035598278,-0.0032967270817607
1769244895678,-0.3466033935546875,0.1185455322265625,-0.9315185546875,-0.017021594569087,-0.0048373658210039,-0.0057417750358581
1769244895688,-0.3463287353515625,0.11834716796875,-0.932373046875,-0.0152814844623208,-0.0087444894015789,-0.0085362298414111
1769244895698,-0.3472747802734375,0.1163330078125,-0.934051513671875,-0.0156383477151393,-0.0137597545981407,-0.0120739731937646
1769244895708,-0.3479766845703125,0.11614990234375,-0.9319915771484376,-0.0150905363261699,-0.0130018182098865,-0.0145935900509357
1769244895718,-0.345977783203125,0.115814208984375,-0.928466796875,-0.0194432064890861,-0.0143211483955383,-0.012320315465331
1769244895728,-0.342193603515625,0.1153564453125,-0.925506591796875,-0.0204173903912305,-0.0133056854829192,-0.0101663507521152
1769244895738,-0.343597412109375,0.114013671875,-0.9262542724609376,-0.0249492917209863,-0.0174695383757352,-0.0057300571352243
1769244895748,-0.3429718017578125,0.115814208984375,-0.9266815185546876,-0.0233990661799907,-0.0112704979255795,-0.0032562471460551
1769244895758,-0.3428192138671875,0.11627197265625,-0.92987060546875,-0.0229247566312551,-0.0176005642861127,-0.0017989652696996
1769244895768,-0.342803955078125,0.1163787841796875,-0.9313507080078124,-0.0224347356706857,-0.0149238221347332,0.0015025554457679
