timestamp_ms,acc_x,acc_y,acc_z,gyro_x,gyro_y,gyro_z
1769251703220,-0.26702880859375,-0.9336395263671876,0.181976318359375,-0.1102165207266807,0.0033015208318829,0.0216885171830654
1769251703229,-0.2785491943359375,-0.9356689453125,0.1891632080078125,-0.1344494223594665,9.58738019107841e-05,0.0301062371581792
1769251703238,-0.2828521728515625,-0.939453125,0.193328857421875,-0.1605566591024398,-0.0081902854144573,0.0305214244872331
1769251703248,-0.292083740234375,-0.933258056640625,0.1934814453125,-0.1956818848848343,-0.0009627327090129,0.0135253965854644
1769251703258,-0.308837890625,-0.9448394775390624,0.1963043212890625,-0.2259537726640701,-0.0024743429385125,0.0077585871331393
1769251703268,-0.3007965087890625,-0.9438323974609376,0.1898345947265625,-0.2483256608247757,-0.017427459359169,0.0035792884882539
1769251703278,-0.2961578369140625,-0.9457244873046876,0.1812896728515625,-0.2600747346878052,-0.0436076633632183,-0.0048584048636257
1769251703288,-0.298126220703125,-0.946319580078125,0.1728973388671875,-0.2687920331954956,-0.0780599117279052,-0.016356335952878
1769251703298,-0.309814453125,-0.9322052001953124,0.1625213623046875,-0.2669347524642944,-0.0938569903373718,-0.0338647551834583
1769251703308,-0.323211669921875,-0.9337921142578124,0.156158447265625,-0.2532999217510223,-0.1213788911700248,-0.0321741811931133
1769251703318,-0.3063812255859375,-0.9441680908203124,0.14764404296875,-0.2440209239721298,-0.0890137627720832,-0.0278430823236703
1769251703328,-0.284698486328125,-0.9549713134765624,0.1203460693359375,-0.2352599203586578,-0.0537420585751533,-0.0283797103911638
1769251703338,-0.2724151611328125,-0.958892822265625,0.109588623046875,-0.2173775881528854,-0.0331725999712944,-0.0278641209006309
1769251703348,-0.2692108154296875,-0.95849609375,0.1053314208984375,-0.196243017911911,-0.0236275643110275,-0.0285978224128484
1769251703359,-0.277069091796875,-0.9560699462890624,0.104339599609375,-0.1791761517524719,-0.0173725988715887,-0.0310788229107856
1769251703368,-0.286041259765625,-0.9519805908203124,0.1118621826171875,-0.156397059559822,-0.0265075080096721,-0.0248731262981891
1769251703378,-0.279266357421875,-0.9457244873046876,0.1099395751953125,-0.131499171257019,-0.0406270548701286,-0.0112856775522232
1769251703388,-0.2736358642578125,-0.9457550048828124,0.1112060546875,-0.1051322743296623,-0.0486056171357631,-0.0115844840183854
1769251703399,-0.288299560546875,-0.944091796875,0.1068572998046875,-0.0860118493437767,-0.0282923579216003,-0.0277773030102252
1769251703409,-0.3055267333984375,-0.942474365234375,0.11065673828125,-0.0672663897275924,-0.0054669370874762,-0.0253737997263669
1769251703419,-0.2945404052734375,-0.9510040283203124,0.108062744140625,-0.0493928492069244,-0.0073497919365763,-0.027573836967349
1769251703429,-0.2899169921875,-0.94970703125,0.1104583740234375,-0.0281027406454086,-0.0222091656178236,-0.0228304807096719
1769251703439,-0.2858123779296875,-0.9506072998046876,0.1065521240234375,-0.0058331214822828,-0.0196770317852497,-0.0201577320694923
1769251703449,-0.28564453125,-0.9495391845703124,0.102294921875,0.0075354143045842,-0.0007504787645302,-0.0142692169174551
1769251703459,-0.283599853515625,-0.949981689453125,0.10504150390625,0.0402060076594352,0.0035446672700345,-0.0115738315507769
1769251703469,-0.290557861328125,-0.9353790283203124,0.0953826904296875,0.0539029128849506,0.019814983010292,-0.0203108638525009
1769251703479,-0.31219482421875,-0.9381256103515624,0.1081695556640625,0.0692773386836052,0.049283392727375,-0.016917198896408
1769251703489,-0.301513671875,-0.94342041015625,0.109893798828125,0.0828831642866134,0.0883466377854347,-0.0234999991953372
1769251703499,-0.3066253662109375,-0.9488067626953124,0.1144561767578125,0.097116433084011,0.1268700659275055,-0.0412512980401515
1769251703509,-0.304046630859375,-0.9707489013671876,0.117095947265625,0.1049056425690651,0.1198393180966377,-0.0511662475764751
1769251703519,-0.2871856689453125,-0.981689453125,0.1369476318359375,0.1161721423268318,0.0512037985026836,-0.0552169159054756
1769251703529,-0.2734832763671875,-0.9681549072265624,0.1521759033203125,0.1259632557630539,-0.0351745001971721,-0.0656184256076812
1769251703539,-0.2767486572265625,-0.9404296875,0.1533050537109375,0.1347429007291793,-0.0714443549513816,-0.062229286879301
1769251703549,-0.2760772705078125,-0.915130615234375,0.139862060546875,0.1462634652853012,-0.0542051829397678,-0.0366640053689479
1769251703559,-0.2648773193359375,-0.9119720458984376,0.126953125,0.1554100960493087,-0.0336871221661567,-0.0089767174795269
1769251703569,-0.2583770751953125,-0.9439849853515624,0.131927490234375,0.1464917063713073,-0.0172439683228731,0.0181702151894569
1769251703579,-0.2427215576171875,-0.9742279052734376,0.14373779296875,0.1475521773099899,-0.0063146213069558,0.0257285330444574
1769251703589,-0.231109619140625,-0.9709014892578124,0.1421966552734375,0.149750605225563,0.0044773062691092,0.0291688051074743
1769251703600,-0.23138427734375,-0.975860595703125,0.148406982421875,0.1511660814285278,-0.003760383464396,0.0317675173282623
1769251703610,-0.2440185546875,-0.9517364501953124,0.156707763671875,0.1449238955974578,-0.0169326439499855,0.0340450517833232
1769251703620,-0.2628631591796875,-0.931915283203125,0.163665771484375,0.1293609142303466,-0.0337859280407428,0.0386147685348987
1769251703630,-0.2812652587890625,-0.9276885986328124,0.1726837158203125,0.1010797470808029,-0.0393372848629951,0.0480402298271656
1769251703641,-0.2861328125,-0.9288330078125,0.1771087646484375,0.0627627149224281,-0.0436065979301929,0.0560986883938312
1769251703650,-0.28369140625,-0.93408203125,0.1789703369140625,0.0280811693519353,-0.0300508439540863,0.0673223137855529
1769251703660,-0.273468017578125,-0.9342193603515624,0.1694183349609375,-0.002992061432451,-0.0156916119158267,0.0739959329366684
1769251703670,-0.274078369140625,-0.94427490234375,0.1632537841796875,-0.0262901932001113,-0.0032735576387494,0.0742936730384826
1769251703680,-0.2769622802734375,-0.949310302734375,0.15924072265625,-0.0426806174218654,0.0045153894461691,0.0738196298480033
1769251703690,-0.2761077880859375,-0.949920654296875,0.1521453857421875,-0.0459927916526794,0.0081945462152361,0.0799459666013717
1769251703700,-0.275848388671875,-0.950653076171875,0.1470489501953125,-0.0472324937582016,0.0264411941170692,0.0732931196689605
1769251703711,-0.281982421875,-0.94830322265625,0.1433868408203125,-0.0365191288292408,0.031681764870882,0.0762255266308784
1769251703720,-0.28411865234375,-0.935272216796875,0.1418914794921875,-0.0386283509433269,0.0279610604047775,0.0742036551237106
1769251703730,-0.2981414794921875,-0.950714111328125,0.1544952392578125,-0.0329672694206237,0.0171198640018701,0.0772947892546653
1769251703740,-0.293609619140625,-0.9534759521484376,0.1527252197265625,-0.0214573554694652,0.0099453087896108,0.0769515037536621
1769251703750,-0.2945556640625,-0.9466552734375,0.1464080810546875,-0.009052351117134,0.0067891962826251,0.072330392897129
1769251703760,-0.2967071533203125,-0.9453277587890624,0.143524169921875,0.0015438344562426,0.0016626114957034,0.0738121718168258
1769251703770,-0.3011932373046875,-0.944488525390625,0.1403350830078125,0.0195039268583059,0.0036796897184103,0.0815888717770576
1769251703781,-0.2978668212890625,-0.943389892578125,0.132598876953125,0.0387687012553215,0.0181086957454681,0.0870904251933097
1769251703790,-0.300567626953125,-0.9477081298828124,0.1330413818359375,0.0602851770818233,0.0251519586890935,0.0912212580442428
1769251703800,-0.3025360107421875,-0.9533233642578124,0.137939453125,0.0932018458843231,0.0170144028961658,0.0867223814129829
1769251703811,-0.3002166748046875,-0.9544525146484376,0.132781982421875,0.1339772492647171,-0.0012911005178466,0.0771539062261581
1769251703820,-0.302886962890625,-0.9544219970703124,0.12261962890625,0.1867461800575256,-0.0164096001535654,0.0755754485726356
1769251703831,-0.3057403564453125,-0.9446563720703124,0.1099700927734375,0.2500889301300049,-0.0143451169133186,0.0745357498526573
1769251703841,-0.30548095703125,-0.9414215087890624,0.0952301025390625,0.3295624554157257,-0.0123392241075634,0.0932878702878952
1769251703851,-0.2863922119140625,-0.9172821044921876,0.07781982421875,0.4089869856834411,-0.0142034366726875,0.0996778607368469
1769251703861,-0.296051025390625,-0.92718505859375,0.0806121826171875,0.4717174768447876,0.0127315074205398,0.103417731821537
1769251703871,-0.299957275390625,-0.931915283203125,0.094146728515625,0.5146934390068054,0.0749077945947647,0.1019612550735473
1769251703881,-0.3006591796875,-0.9340362548828124,0.1042022705078125,0.5449008345603943,0.106713131070137,0.1071421653032302
1769251703891,-0.293609619140625,-0.931427001953125,0.127166748046875,0.5668708682060242,0.0821614488959312,0.1134772896766662
1769251703901,-0.2952728271484375,-0.926361083984375,0.155364990234375,0.5733969807624817,0.0316601917147636,0.1223922222852706
1769251703911,-0.299530029296875,-0.9244384765625,0.1799163818359375,0.578685462474823,0.0151134394109249,0.1278905868530273
1769251703921,-0.3037261962890625,-0.925140380859375,0.1999053955078125,0.567561686038971,-0.0094598140567541,0.1322896033525467
1769251703931,-0.3025665283203125,-0.921539306640625,0.221343994140625,0.5426198840141296,-0.044147752225399,0.13820581138134
1769251703941,-0.3017578125,-0.9259490966796876,0.2327423095703125,0.5104198455810547,-0.0553050674498081,0.1481500566005706
1769251703951,-0.29852294921875,-0.927215576171875,0.240142822265625,0.4655565023422241,-0.042207907885313,0.1514030992984771
1769251703961,-0.301849365234375,-0.9285125732421876,0.251068115234375,0.4096282720565796,-0.0214288588613271,0.1492818892002105
1769251703971,-0.3065032958984375,-0.9281768798828124,0.2657928466796875,0.3421203196048736,-0.023743413388729,0.1450935453176498
1769251703981,-0.313446044921875,-0.9300079345703124,0.2874755859375,0.2778526544570923,-0.0434031337499618,0.1383911669254303
1769251703991,-0.322967529296875,-0.9237518310546876,0.297332763671875,0.2201350331306457,-0.0576451867818832,0.1233765259385109
1769251704001,-0.3308563232421875,-0.921600341796875,0.2952117919921875,0.1773383021354675,-0.0645467713475227,0.1228654682636261
1769251704012,-0.3217315673828125,-0.921356201171875,0.2824554443359375,0.1346904337406158,-0.0724811255931854,0.124556578695774
1769251704021,-0.3244476318359375,-0.923736572265625,0.2791595458984375,0.1002208739519119,-0.087519459426403,0.1235411092638969
1769251704032,-0.32470703125,-0.9215240478515624,0.2717132568359375,0.0856326147913932,-0.0968479812145233,0.1279465109109878
1769251704042,-0.3148040771484375,-0.9150390625,0.2447052001953125,0.0889722183346748,-0.0832456201314926,0.1359706223011016
1769251704052,-0.306365966796875,-0.9113311767578124,0.2270965576171875,0.091234840452671,-0.0713916271924972,0.1413877606391906
1769251704062,-0.3119659423828125,-0.91302490234375,0.226898193359375,0.0978602468967437,-0.0293443072587251,0.144761174917221
1769251704071,-0.310394287109375,-0.903411865234375,0.2264404296875,0.1013785526156425,0.0101101584732532,0.1384846419095993
1769251704082,-0.3297882080078125,-0.913116455078125,0.2373504638671875,0.0880342498421669,0.0222544390708208,0.1241531074047088
1769251704092,-0.34490966796875,-0.921051025390625,0.25213623046875,0.0814666301012039,0.0234443396329879,0.1121451780200004
1769251704102,-0.3432159423828125,-0.9160919189453124,0.2477264404296875,0.0755328387022018,0.028668662533164,0.0986882299184799
1769251704112,-0.346221923828125,-0.9156036376953124,0.2472991943359375,0.0646154806017875,0.033392310142517,0.0812298730015754
1769251704122,-0.3432769775390625,-0.9163360595703124,0.2554168701171875,0.0560094714164733,0.0343891307711601,0.0773424580693245
1769251704132,-0.330413818359375,-0.917694091796875,0.2550201416015625,0.0529385805130004,0.0493869893252849,0.0742712989449501
1769251704142,-0.327880859375,-0.9086456298828124,0.2443389892578125,0.0558052100241184,0.0647403821349144,0.0719484910368919
1769251704152,-0.3277435302734375,-0.8995208740234375,0.23388671875,0.062635414302349,0.0700046494603157,0.0676581412553787
1769251704162,-0.3336029052734375,-0.8771820068359375,0.22467041015625,0.0646136105060577,0.0762108787894249,0.0544483289122581
1769251704172,-0.3497772216796875,-0.872161865234375,0.2311248779296875,0.0584981963038444,0.0858131721615791,0.0437650568783283
1769251704182,-0.3521881103515625,-0.9155426025390624,0.2584686279296875,0.0409069545567035,0.0749570652842521,0.0329792536795139
1769251704193,-0.34490966796875,-0.933197021484375,0.277557373046875,0.0294516328722238,0.0482373051345348,0.016382435336709
1769251704202,-0.3387451171875,-0.9184112548828124,0.268310546875,0.0331278592348098,0.0372357852756977,0.0008293083519674
1769251704213,-0.33721923828125,-0.910552978515625,0.25628662109375,0.0386800169944763,0.0144849326461553,-0.0023020363878458
1769251704223,-0.3378753662109375,-0.8887481689453125,0.2509002685546875,0.0441845059394836,-0.0222863964736461,0.0015811186749488
1769251704233,-0.3397979736328125,-0.87908935546875,0.249114990234375,0.0379697531461715,-0.0695519149303436,0.0007773766992613
1769251704243,-0.346405029296875,-0.8846435546875,0.2599334716796875,0.0304718893021345,-0.0909304395318031,0.0159736406058073
1769251704253,-0.3335418701171875,-0.88641357421875,0.25457763671875,0.025856364518404,-0.0870427563786506,0.0196485351771116
1769251704263,-0.33953857421875,-0.899383544921875,0.2501373291015625,0.0123621271923184,-0.1098910793662071,0.0183278750628232
1769251704273,-0.342559814453125,-0.911376953125,0.2542266845703125,0.0058376491069793,-0.1253784298896789,0.0054847802966833
1769251704283,-0.35040283203125,-0.9154510498046876,0.244171142578125,-0.0049047437496483,-0.1357716768980026,-0.0073758908547461
1769251704293,-0.3549957275390625,-0.9187164306640624,0.2433319091796875,-0.0070283482782542,-0.1293771564960479,-0.0108744855970144
1769251704303,-0.344970703125,-0.9192962646484376,0.2385406494140625,-0.016490027308464,-0.1199138835072517,-0.0079463403671979
1769251704313,-0.336456298828125,-0.9163970947265624,0.2382354736328125,-0.0203649271279573,-0.0883463770151138,0.0102979112416505
1769251704323,-0.3243865966796875,-0.9104461669921876,0.2307281494140625,-0.0221116933971643,-0.0724148079752922,0.0137477703392505
1769251704333,-0.332061767578125,-0.91815185546875,0.2328338623046875,-0.0184130948036909,-0.0849636271595954,0.030117955058813
1769251704343,-0.31744384765625,-0.90234375,0.2284088134765625,-0.0111884726211428,-0.0744761005043983,0.0412033610045909
1769251704353,-0.321014404296875,-0.9075469970703124,0.2271270751953125,-0.0028197548817843,-0.0525462999939918,0.0461448580026626
1769251704363,-0.3261871337890625,-0.908721923828125,0.233154296875,0.0050512175075709,0.0057716025039553,0.0425120405852794
1769251704373,-0.3397369384765625,-0.910888671875,0.2449493408203125,0.0005443501286208,0.0493398532271385,0.0234603192657232
1769251704383,-0.3518829345703125,-0.91302490234375,0.2640838623046875,-0.014748053625226,0.0436345636844635,0.0006010754732415
1769251704393,-0.35919189453125,-0.9134674072265624,0.2769775390625,-0.0325057432055473,0.0317560657858848,-0.0182943195104599
1769251704403,-0.3613128662109375,-0.9119110107421876,0.278106689453125,-0.0385804139077663,0.0260608959943056,-0.0273061897605657
1769251704414,-0.3567962646484375,-0.913665771484375,0.2672119140625,-0.0420257486402988,0.0342170931398868,-0.0377686843276023
1769251704423,-0.352508544921875,-0.9192657470703124,0.2660980224609375,-0.0486761927604675,0.0355633199214935,-0.0512996725738048
1769251704434,-0.3449554443359375,-0.923553466796875,0.266754150390625,-0.05663638189435,0.0286018177866935,-0.0641440972685813
1769251704444,-0.339691162109375,-0.9215240478515624,0.264404296875,-0.0628649815917015,0.0327563472092151,-0.067625381052494
1769251704454,-0.3339385986328125,-0.9102630615234376,0.261962890625,-0.0754627957940101,0.035577967762947,-0.0679361745715141
1769251704464,-0.331146240234375,-0.900482177734375,0.262603759765625,-0.0887852609157562,0.037606231868267,-0.071307472884655
1769251704474,-0.330810546875,-0.8972625732421875,0.2652740478515625,-0.1094974651932716,0.050591804087162,-0.0782948061823844
1769251704484,-0.3316802978515625,-0.8931884765625,0.271453857421875,-0.1376316249370575,0.0549958758056163,-0.0904705077409744
1769251704494,-0.343536376953125,-0.8937530517578125,0.2801971435546875,-0.1644616425037384,0.0419133603572845,-0.1080764010548591
1769251704504,-0.351470947265625,-0.8985595703125,0.2796478271484375,-0.1867786645889282,0.0278188474476337,-0.1222255080938339
1769251704514,-0.3454742431640625,-0.903961181640625,0.26654052734375,-0.1859158128499984,0.0389314219355583,-0.1327963918447494
1769251704524,-0.3429718017578125,-0.9067230224609376,0.2380828857421875,-0.1642517894506454,0.0514874272048473,-0.1359466463327407
1769251704534,-0.3292694091796875,-0.9114227294921876,0.2119140625,-0.1332539319992065,0.0453373864293098,-0.1402471214532852
1769251704544,-0.32373046875,-0.9221038818359376,0.2031097412109375,-0.1097123846411705,0.0432135164737701,-0.1506369113922119
1769251704554,-0.32562255859375,-0.9314422607421876,0.202545166015625,-0.0824719741940498,0.0351076535880565,-0.1518105715513229
1769251704564,-0.3151397705078125,-0.930755615234375,0.1957244873046875,-0.0554339624941349,0.0306455269455909,-0.1470003724098205
1769251704574,-0.30279541015625,-0.9355926513671876,0.1904144287109375,-0.0071945297531783,-0.0003731088654603,-0.1153106167912483
1769251704584,-0.2770233154296875,-0.9166717529296876,0.17803955078125,0.0403191931545734,-0.0159656498581171,-0.0833052769303321
1769251704595,-0.27142333984375,-0.9166107177734376,0.1806793212890625,0.0624553896486759,0.0360892936587333,-0.0578917935490608
1769251704604,-0.2767181396484375,-0.922393798828125,0.18341064453125,0.0671183168888092,0.0622061155736446,-0.0457376614212989
1769251704614,-0.3009185791015625,-0.9166259765625,0.2134857177734375,0.0581511855125427,0.0491417124867439,-0.0355947464704513
1769251704624,-0.3212738037109375,-0.9146881103515624,0.241973876953125,0.033866886049509,0.029366411268711,-0.0314338244497776
1769251704635,-0.3322601318359375,-0.9175872802734376,0.25860595703125,0.0041750376112759,0.0083495425060391,-0.0223641619086265
1769251704644,-0.3289337158203125,-0.91583251953125,0.2678375244140625,-0.0218296647071838,-0.0046261772513389,-0.0130356410518288
1769251704655,-0.319427490234375,-0.9126434326171876,0.2636260986328125,-0.0366847775876522,-0.0094970986247062,-0.0105759454891085
1769251704665,-0.316375732421875,-0.91253662109375,0.2525787353515625,-0.0421091057360172,-0.0133717320859432,-0.0135443042963743
1769251704675,-0.3174285888671875,-0.914459228515625,0.239349365234375,-0.0307227578014135,0.0025651566684246,-0.0144135607406497
1769251704685,-0.314666748046875,-0.904998779296875,0.2164459228515625,-0.0105413245037198,0.0169089417904615,0.0006873618694953
1769251704695,-0.302886962890625,-0.897735595703125,0.2085113525390625,0.0066917249932885,0.0455403216183185,0.0225593708455562
1769251704705,-0.296356201171875,-0.89605712890625,0.2086029052734375,0.0202504098415374,0.0773792117834091,0.035583559423685
1769251704715,-0.305419921875,-0.9058837890625,0.2212982177734375,0.0264353360980749,0.0912849083542823,0.0398566015064716
1769251704725,-0.31439208984375,-0.91790771484375,0.238067626953125,0.0266012512147426,0.078785628080368,0.0468900091946125
1769251704735,-0.3061981201171875,-0.930755615234375,0.2485809326171875,0.0204464197158813,0.0655446574091911,0.0482008196413517
1769251704745,-0.3105316162109375,-0.9423828125,0.253936767578125,0.006310626398772,0.0461344718933105,0.0321784429252147
1769251704755,-0.327423095703125,-0.92791748046875,0.2549285888671875,-0.0118851549923419,0.0185289438813924,0.0276547968387603
1769251704765,-0.32623291015625,-0.9088287353515624,0.2494964599609375,-0.0198890194296836,-0.0104678208008408,0.0245761834084987
1769251704776,-0.3317718505859375,-0.881683349609375,0.233184814453125,-0.0174117479473352,-0.0222666896879673,0.0202368274331092
1769251704785,-0.33917236328125,-0.8805694580078125,0.2181549072265625,-0.0044789044186472,-0.0184844676405191,0.0325912311673164
1769251704795,-0.3299102783203125,-0.9119110107421876,0.2194061279296875,-0.0001954760227818,-0.0170538183301687,0.0386957302689552
1769251704805,-0.3161468505859375,-0.9467010498046876,0.2293853759765625,0.0027089675422757,-0.0132681345567107,0.0352123156189918
1769251704815,-0.3030242919921875,-0.9490509033203124,0.2343597412109375,0.0091881724074482,-0.0005624596378766,0.0163765754550695
1769251704825,-0.308563232421875,-0.9392547607421876,0.23651123046875,0.0116566559299826,0.0145371314138174,0.0033153691329061
1769251704835,-0.3123321533203125,-0.9203948974609376,0.2383880615234375,0.0187150985002517,0.0190378725528717,0.0018692727899178
1769251704846,-0.3268280029296875,-0.9046173095703124,0.24041748046875,0.0070994547568261,0.0103778056800365,-0.0060911821201443
1769251704855,-0.34747314453125,-0.89208984375,0.2513885498046875,-0.0090456930920481,-0.0028583707753568,-0.0075186365284025
1769251704866,-0.348724365234375,-0.8919525146484375,0.2558746337890625,-0.0319611281156539,-0.0086323702707886,0.0081053311005234
1769251704876,-0.3351898193359375,-0.901336669921875,0.2537384033203125,-0.0447743944823741,-0.0170128047466278,0.0267221573740243
1769251704886,-0.31597900390625,-0.9140167236328124,0.237396240234375,-0.0443842411041259,-0.0207596067339181,0.0475134551525116
1769251704896,-0.2969970703125,-0.9194488525390624,0.21710205078125,-0.0390272922813892,0.0051060789264738,0.0669417455792427
1769251704906,-0.2845001220703125,-0.9220733642578124,0.2061004638671875,-0.0157001335173845,0.0248265191912651,0.0814991220831871
1769251704916,-0.2911834716796875,-0.92401123046875,0.193359375,0.0106196207925677,0.0461118333041667,0.0811859294772148
1769251704926,-0.307220458984375,-0.9310455322265624,0.1927032470703125,0.0222235471010208,0.0500703565776348,0.0851481854915618
1769251704936,-0.3216705322265625,-0.9266510009765624,0.2044677734375,0.0236816275864839,0.0701388716697692,0.0573394559323787
1769251704946,-0.359832763671875,-0.928863525390625,0.2208099365234375,0.0105075016617774,0.0643670037388801,0.0419940538704395
1769251704956,-0.358642578125,-0.9226531982421876,0.2376251220703125,-0.0046256445348262,0.0465307496488094,0.0280420202761888
1769251704966,-0.35626220703125,-0.919677734375,0.2430419921875,-0.0201872941106557,0.0376144871115684,0.0130590768530964
1769251704976,-0.348358154296875,-0.92254638671875,0.245361328125,-0.0331028252840042,0.021090904250741,-0.0018373148050159
1769251704986,-0.34503173828125,-0.923919677734375,0.2429962158203125,-0.0424390695989131,-0.0017153420485556,-0.0143211483955383
1769251704996,-0.3315582275390625,-0.915130615234375,0.241607666015625,-0.0432449430227279,-0.008584433235228,-0.0150966607034206
1769251705006,-0.3167877197265625,-0.9110565185546876,0.23443603515625,-0.0419919230043888,0.0003922836331184,-0.0126486830413341
1769251705016,-0.31353759765625,-0.9149169921875,0.2337188720703125,-0.0401958897709846,0.0005262406193651,-0.0025403893087059
1769251705026,-0.3111572265625,-0.9194183349609376,0.2357025146484375,-0.0425826124846935,0.0026474483311176,-0.0032951291650533
1769251705036,-0.3220062255859375,-0.9241485595703124,0.2385406494140625,-0.046404518187046,-0.005405684467405,-0.0132209965959191
1769251705046,-0.3343048095703125,-0.9237823486328124,0.24017333984375,-0.0429786257445812,0.0118244355544447,-0.031181089580059
1769251705056,-0.3453216552734375,-0.9273223876953124,0.2305450439453125,-0.0488378480076789,0.0297118220478296,-0.0577881969511508
1769251705067,-0.360748291015625,-0.926483154296875,0.23236083984375,-0.047486025840044,0.0281418897211551,-0.0686887800693512
1769251705077,-0.35040283203125,-0.9185943603515624,0.229644775390625,-0.0523228608071804,0.0132391061633825,-0.0864568576216697
1769251705087,-0.355621337890625,-0.9158935546875,0.22821044921875,-0.0534219443798065,0.0068272799253463,-0.10079026222229
1769251705097,-0.3463287353515625,-0.9109039306640624,0.2258148193359375,-0.0467392764985561,0.0202687866985797,-0.1084138229489326
1769251705107,-0.3303070068359375,-0.907257080078125,0.2191314697265625,-0.0351361483335495,0.0362163260579109,-0.1120493039488792
1769251705117,-0.3204498291015625,-0.9121856689453124,0.2179107666015625,-0.0226115696132183,0.0348730273544788,-0.1094183698296547
1769251705127,-0.3175811767578125,-0.9195709228515624,0.2200469970703125,-0.019784091040492,0.0251061525195837,-0.1060281619429588
1769251705137,-0.3144683837890625,-0.9263916015625,0.2296142578125,-0.024819329380989,0.0152471298351883,-0.100389190018177
1769251705147,-0.3139801025390625,-0.925445556640625,0.2357177734375,-0.0348229631781578,0.0145357996225357,-0.1092010587453842
1769251705157,-0.327911376953125,-0.9224090576171876,0.2393646240234375,-0.0508234985172748,0.0232291556894779,-0.1144163236021995
1769251705167,-0.328643798828125,-0.930389404296875,0.2460479736328125,-0.0726092234253883,0.0190927349030971,-0.1133752912282943
1769251705177,-0.316650390625,-0.9367523193359376,0.2461395263671875,-0.0975902080535888,0.0012732573086395,-0.1193737983703613
1769251705187,-0.316070556640625,-0.9390716552734376,0.2428741455078125,-0.1196382492780685,-0.0117994016036391,-0.1347208023071289
1769251705197,-0.316680908203125,-0.943634033203125,0.2386016845703125,-0.1357077658176422,-0.0157699082046747,-0.1515905857086181
1769251705207,-0.3148345947265625,-0.943603515625,0.226776123046875,-0.1434887200593948,-0.0057582869194447,-0.1607020646333694
1769251705217,-0.3076934814453125,-0.9300384521484376,0.208038330078125,-0.1382239162921905,0.0047564054839313,-0.1604972630739212
1769251705229,-0.29638671875,-0.91998291015625,0.1934967041015625,-0.1301984786987304,0.0306394025683403,-0.1581190675497055
1769251705237,-0.2934112548828125,-0.9116363525390624,0.1855926513671875,-0.1186752542853355,0.0598103366792202,-0.1416082680225372
1769251705247,-0.2823333740234375,-0.9107513427734376,0.1856689453125,-0.103275790810585,0.0936822816729545,-0.1285577118396759
1769251705257,-0.2820281982421875,-0.9178466796875,0.187530517578125,-0.092636726796627,0.1201319992542266,-0.1161252707242965
1769251705268,-0.279205322265625,-0.926727294921875,0.199676513671875,-0.0885583609342575,0.1332648396492004,-0.1033751219511032
1769251705278,-0.26947021484375,-0.9327850341796876,0.21014404296875,-0.0806024372577667,0.1500110626220703,-0.0906790345907211
1769251705288,-0.2677459716796875,-0.9279632568359376,0.21221923828125,-0.0661420002579689,0.158343568444252,-0.0877695307135582
1769251705298,-0.2725830078125,-0.9161376953125,0.2131195068359375,-0.05568403378129,0.1602594405412674,-0.0777595117688179
1769251705308,-0.2780609130859375,-0.91925048828125,0.2189788818359375,-0.0445450991392135,0.124736338853836,-0.0820772945880889
1769251705318,-0.3095550537109375,-0.91265869140625,0.219482421875,-0.058739211410284,0.0486748628318309,-0.0904007330536842
1769251705328,-0.3293914794921875,-0.912750244140625,0.2319183349609375,-0.0798130705952644,-0.0084390249103307,-0.081971563398838
1769251705338,-0.3351898193359375,-0.933563232421875,0.2340850830078125,-0.0959803238511085,-0.0428316183388233,-0.0779600441455841
1769251705348,-0.33074951171875,-0.9422454833984376,0.2225341796875,-0.1032837778329849,-0.0587253645062446,-0.0647808611392974
1769251705358,-0.3058319091796875,-0.946624755859375,0.21185302734375,-0.0950945541262626,-0.048475656658411,-0.0472814962267875
1769251705368,-0.2862701416015625,-0.9551544189453124,0.1922149658203125,-0.0899109840393066,-0.0145600344985723,-0.0404930971562862
1769251705378,-0.281524658203125,-0.9536590576171876,0.1878662109375,-0.0806450471282005,0.0199026018381118,-0.0314292944967746
1769251705388,-0.2812042236328125,-0.9379425048828124,0.18487548828125,-0.0763024911284446,0.0285304449498653,-0.025439579039812
1769251705398,-0.2921905517578125,-0.9081268310546876,0.18438720703125,-0.0713894963264465,0.0241876281797885,-0.0168482214212417
1769251705408,-0.30206298828125,-0.88726806640625,0.1831207275390625,-0.0646093562245369,0.0272324196994304,-0.0025446503423154
1769251705418,-0.311859130859375,-0.891876220703125,0.1935882568359375,-0.0663465335965156,0.0169928316026926,0.0180631559342145
1769251705428,-0.30511474609375,-0.9167327880859376,0.2036285400390625,-0.0654935240745544,-0.0041121868416666,0.0335342586040496
1769251705439,-0.2935638427734375,-0.9446258544921876,0.205230712890625,-0.0571495741605758,-0.0135818552225828,0.0266353394836187
1769251705448,-0.2890625,-0.9478302001953124,0.202423095703125,-0.0429525263607502,-0.0051249871030449,0.028512867167592
1769251705458,-0.28375244140625,-0.94482421875,0.1959991455078125,-0.0019259981345385,-0.0159776341170072,0.0134561536833643
1769251705469,-0.3037567138671875,-0.908233642578125,0.16949462890625,0.0424044467508792,-0.0147291449829936,0.02127998881042
1769251705479,-0.308624267578125,-0.899169921875,0.169219970703125,0.0756289809942245,-0.0148654989898204,0.0397572666406631
1769251705489,-0.312774658203125,-0.9111328125,0.1806793212890625,0.0900987312197685,-0.0230350121855735,0.0551684461534023
1769251705499,-0.314300537109375,-0.91363525390625,0.188140869140625,0.0915171355009079,-0.0314303599298,0.0589067265391349
1769251705509,-0.317138671875,-0.927520751953125,0.1998291015625,0.0814056396484375,-0.0226086396723985,0.056402288377285
1769251705519,-0.3156585693359375,-0.9357452392578124,0.2030029296875,0.0636559426784515,-0.0100744720548391,0.0411128140985965
1769251705529,-0.3161163330078125,-0.9412689208984376,0.20941162109375,0.0516176559031009,-0.0193710345774889,0.034462634474039
1769251705539,-0.3055877685546875,-0.941314697265625,0.202911376953125,0.0429754294455051,-0.0295869205147027,0.0372190065681934
1769251705549,-0.296630859375,-0.942626953125,0.1991119384765625,0.0286958273500204,-0.0199886225163936,0.0378408543765544
1769251705559,-0.2975311279296875,-0.9459991455078124,0.206024169921875,0.0194812901318073,-0.0158862881362438,0.0379710830748081
1769251705569,-0.2924652099609375,-0.9404754638671876,0.20623779296875,0.0216799955815076,0.0040743700228631,0.0487971007823944
1769251705579,-0.27764892578125,-0.930389404296875,0.1958465576171875,0.0258995071053504,0.0293874498456716,0.0549090541899204
1769251705589,-0.2819976806640625,-0.9369354248046876,0.1995391845703125,0.0225809421390295,0.0155446045100688,0.0498224161565303
1769251705599,-0.2938079833984375,-0.940093994140625,0.2122344970703125,0.012705941684544,-0.0055657401680946,0.0344850048422813
1769251705609,-0.3078765869140625,-0.9401702880859376,0.2197418212890625,0.0008633967954665,-0.0269703641533851,0.0170439649373292
1769251705619,-0.3182220458984375,-0.936737060546875,0.2223968505859375,-0.0070437947288155,-0.0287858415395021,0.0009584716754034
1769251705629,-0.3265228271484375,-0.939056396484375,0.2194671630859375,-0.0176351871341466,-0.0118089886382222,-0.0146042425185441
1769251705639,-0.3239593505859375,-0.9410858154296876,0.221923828125,-0.0241807028651237,-0.0033758229110389,-0.0340812727808952
1769251705649,-0.3203582763671875,-0.947113037109375,0.222381591796875,-0.032903354614973,0.0216959752142429,-0.0395247712731361
1769251705660,-0.2979583740234375,-0.948272705078125,0.2187347412109375,-0.0376685485243797,0.0430816896259784,-0.0429304242134094
1769251705669,-0.29156494140625,-0.9506988525390624,0.2147369384765625,-0.0519510805606842,0.0182708837091922,-0.0820647776126861
1769251705680,-0.3202362060546875,-0.9189300537109376,0.2264404296875,-0.0697207599878311,-0.0139917153865098,-0.1113331839442253
1769251705689,-0.3264617919921875,-0.9267578125,0.2319793701171875,-0.0820834189653396,-0.0266318768262863,-0.1050004512071609
1769251705700,-0.30523681640625,-0.92645263671875,0.213836669921875,-0.0742750316858291,-0.0194101836532354,-0.0958849862217903
1769251705713,-0.2981414794921875,-0.924774169921875,0.1940155029296875,-0.0682368427515029,-0.0206964891403913,-0.1056449338793754
1769251705720,-0.299468994140625,-0.9264373779296876,0.1961822509765625,-0.0608074255287647,-0.025274196639657,-0.115034706890583
1769251705730,-0.2863311767578125,-0.929779052734375,0.19024658203125,-0.0463443286716938,-0.0113732954487204,-0.1002022325992584
1769251705740,-0.2583770751953125,-0.9103546142578124,0.186492919921875,-0.0310833510011434,-0.0087239826098084,-0.0787605941295623
1769251705750,-0.2502899169921875,-0.916290283203125,0.1919708251953125,-0.0286004859954118,-0.0080683128908276,-0.0533734746277332
1769251705760,-0.2489776611328125,-0.9224090576171876,0.200958251953125,-0.0353358872234821,0.0085636610165238,-0.0270731635391712
1769251705770,-0.2545166015625,-0.9212188720703124,0.2106475830078125,-0.0498850010335445,0.0105754127725958,-0.0226672291755676
1769251705780,-0.281158447265625,-0.925994873046875,0.218292236328125,-0.0677012801170349,0.0185603685677051,-0.0100113553926348
1769251705790,-0.2835235595703125,-0.928009033203125,0.2174530029296875,-0.0738686323165893,0.0304489862173795,0.0062206117436289
1769251705800,-0.2797698974609375,-0.9342803955078124,0.204315185546875,-0.0772561728954315,0.012075837701559,0.0185369327664375
1769251705810,-0.2842254638671875,-0.9476776123046876,0.199981689453125,-0.078647144138813,0.0130540169775486,0.0168199930340051
1769251705820,-0.2940521240234375,-0.950103759765625,0.1942596435546875,-0.0697892010211944,0.0158306285738945,0.0200477447360754
1769251705830,-0.2973785400390625,-0.94036865234375,0.18255615234375,-0.0616758801043033,0.0110015179961919,0.0148186273872852
1769251705840,-0.3061676025390625,-0.9337158203125,0.1781158447265625,-0.0456878580152988,0.0213532261550426,0.0265868697315454
1769251705851,-0.295135498046875,-0.9295806884765624,0.16790771484375,-0.0320985466241836,0.0236046612262725,0.0382179580628871
1769251705860,-0.2958984375,-0.9247283935546876,0.1671142578125,-0.013342703692615,0.02307815477252,0.0560086742043495
1769251705870,-0.2883148193359375,-0.9180908203125,0.16729736328125,0.0026626284234225,0.0312018617987632,0.0779991969466209
1769251705880,-0.2808990478515625,-0.9264678955078124,0.1740264892578125,0.017084976658225,0.0422132350504398,0.1044166833162307
1769251705890,-0.2731475830078125,-0.9359893798828124,0.1826324462890625,0.0278228428214788,0.0473097264766693,0.1319226175546646
1769251705901,-0.2673187255859375,-0.9443359375,0.1913299560546875,0.0377063676714897,0.0618740208446979,0.143450379371643
1769251705911,-0.278350830078125,-0.9521331787109376,0.1936187744140625,0.049365684390068,0.0953723266720771,0.145039215683937
1769251705921,-0.2914276123046875,-0.953216552734375,0.197509765625,0.05631760135293,0.1300501376390457,0.1474658846855163
1769251705931,-0.299591064453125,-0.949310302734375,0.195892333984375,0.042409773916006,0.244491770863533,0.1382084786891937
1769251705941,-0.3049774169921875,-0.9429779052734376,0.1766510009765625,0.0409524925053119,0.265841007232666,0.1409856230020523
1769251705951,-0.3128204345703125,-0.9269561767578124,0.194000244140625,0.0278569310903549,0.1769071370363235,0.1212705001235008
1769251705961,-0.3388671875,-0.9297637939453124,0.214141845703125,0.0084012076258659,0.0766753330826759,0.0999039635062217
1769251705971,-0.347442626953125,-0.935546875,0.2190093994140625,-0.0088281128555536,0.0221497770398855,0.0801238641142845
1769251705981,-0.3444976806640625,-0.9449462890625,0.21405029296875,-0.0232206340879201,0.0067513794638216,0.0701511278748512
1769251705991,-0.3294830322265625,-0.9489898681640624,0.2048797607421875,-0.0280324332416057,-0.0080459425225853,0.0638703256845474
1769251706001,-0.314605712890625,-0.942230224609375,0.1956787109375,-0.0227308794856071,-0.0090973582118749,0.0676147267222404
1769251706012,-0.3001708984375,-0.946685791015625,0.1887054443359375,-0.0103541035205125,0.0069998526014387,0.0825137868523597
1769251706021,-0.2900390625,-0.930206298828125,0.177459716796875,0.0041508027352392,0.0289658717811107,0.0918042212724685
1769251706032,-0.30499267578125,-0.9111328125,0.1786956787109375,0.0086305057629942,0.0215974375605583,0.080093502998352
1769251706041,-0.33062744140625,-0.8961944580078125,0.1877899169921875,0.016112657263875,0.0060885190032422,0.0568779297173023
1769251706051,-0.3414154052734375,-0.876617431640625,0.186187744140625,0.0314399488270282,0.010138121433556,0.0581714287400245
1769251706061,-0.334625244140625,-0.9054718017578124,0.18695068359375,0.0393191762268543,0.0113855460658669,0.0602420344948768
1769251706071,-0.326629638671875,-0.945587158203125,0.201751708984375,0.0476844310760498,-0.0046032737009227,0.0434321612119674
1769251706081,-0.3144378662109375,-0.943389892578125,0.202239990234375,0.061996791511774,-0.0157355535775423,0.019833093509078
1769251706091,-0.308990478515625,-0.943878173828125,0.2035064697265625,0.0761224627494812,-0.0185153614729642,-0.0011755193118005
1769251706102,-0.316650390625,-0.9292144775390624,0.203460693359375,0.0866193100810051,-0.0162663217633962,-0.0170666016638278
1769251706112,-0.3321075439453125,-0.91131591796875,0.203887939453125,0.0987492129206657,-0.027951207011938,-0.0175627488642931
1769251706121,-0.337615966796875,-0.9029998779296876,0.2007598876953125,0.1114687398076057,-0.0408856458961963,-0.0062842611223459
1769251706132,-0.3329925537109375,-0.9122161865234376,0.1988525390625,0.1111819148063659,-0.0437341630458831,0.0038432078436017
1769251706142,-0.3257904052734375,-0.9199066162109376,0.2027587890625,0.1054923385381698,-0.0673119276762008,0.0176493003964424
1769251706152,-0.3141326904296875,-0.9194488525390624,0.207122802734375,0.0954687297344207,-0.0963044315576553,0.023427028208971
1769251706162,-0.3105621337890625,-0.920562744140625,0.2032012939453125,0.0908393561840057,-0.0434619896113872,0.0026509105227887
1769251706173,-0.316925048828125,-0.924285888671875,0.20037841796875,0.094420775771141,-0.0300692189484834,0.028383171185851
1769251706182,-0.298309326171875,-0.910552978515625,0.201904296875,0.0925706773996353,-0.0202781073749065,0.0456899888813495
1769251706192,-0.3015289306640625,-0.92022705078125,0.20703125,0.0867849588394165,0.008610532619059,0.0415679477155208
1769251706202,-0.3261260986328125,-0.9059295654296876,0.210968017578125,0.0743709057569503,0.0350189693272113,0.0366245917975902
1769251706212,-0.3349761962890625,-0.8846893310546875,0.211181640625,0.0636607334017753,0.029984263703227,0.0297381877899169
1769251706222,-0.3474884033203125,-0.888336181640625,0.214569091796875,0.0425075143575668,0.0209095422178506,0.0099554285407066
1769251706232,-0.3709869384765625,-0.9194793701171876,0.2261962890625,0.0280167199671268,0.0033657029271125,-0.0183012429624795
1769251706242,-0.37078857421875,-0.9333648681640624,0.2178955078125,0.0317826978862285,-0.0105439871549606,-0.0265911314636468
1769251706252,-0.343841552734375,-0.929107666015625,0.1959991455078125,0.0511148497462272,-0.0031619712244719,-0.0332048237323761
1769251706263,-0.323577880859375,-0.9217376708984376,0.1833343505859375,0.0805680826306343,-0.0029774140566587,-0.0277773030102252
1769251706272,-0.3082275390625,-0.9183807373046876,0.1812591552734375,0.1010792106389999,0.0093112103641033,-0.0237535331398248
1769251706282,-0.3097686767578125,-0.9207611083984376,0.193695068359375,0.1082124933600425,0.0299632251262664,-0.0245056096464395
1769251706293,-0.3203582763671875,-0.926361083984375,0.2109222412109375,0.1061208397150039,0.0376613587141037,-0.0227018501609563
1769251706302,-0.3240509033203125,-0.9329376220703124,0.2263946533203125,0.0869394242763519,0.0237732399255037,-0.0375215411186218
1769251706313,-0.330810546875,-0.9351959228515624,0.2460174560546875,0.0567447729408741,0.0047287088818848,-0.0597213879227638
1769251706322,-0.338653564453125,-0.9339447021484376,0.2577056884765625,0.0312537923455238,0.0120540000498294,-0.067981444299221
1769251706334,-0.331329345703125,-0.9263916015625,0.248504638671875,0.0118449414148926,0.01783012971282,-0.0639198571443557
1769251706343,-0.322998046875,-0.9199066162109376,0.24139404296875,0.0001443433284293,0.0087135965004563,-0.0551791004836559
1769251706353,-0.309906005859375,-0.9104461669921876,0.2381744384765625,-0.0063092950731515,-0.0151334125548601,-0.0615927912294864
1769251706363,-0.3126983642578125,-0.9134368896484376,0.2303619384765625,-0.0102411862462759,-0.020485833287239,-0.0531934462487697
1769251706373,-0.3005828857421875,-0.9234619140625,0.2264251708984375,-0.0252259951084852,-0.0032690302468836,-0.0463267527520656
1769251706383,-0.2943878173828125,-0.9357757568359376,0.2408447265625,-0.0470298267900943,-0.0018503642641007,-0.0501457266509532
1769251706393,-0.2989044189453125,-0.936309814453125,0.248779296875,-0.0758620053529739,0.0026149577461183,-0.0620250217616558
1769251706403,-0.3062591552734375,-0.9269256591796876,0.2479400634765625,-0.1027013435959816,0.0236997362226247,-0.0565908402204513
1769251706413,-0.296142578125,-0.9103546142578124,0.2416229248046875,-0.1333838850259781,0.054323960095644,-0.0316913500428199
1769251706423,-0.2862548828125,-0.9095306396484376,0.244110107421875,-0.1771595925092697,0.083560936152935,-0.0318452827632427
1769251706433,-0.3115386962890625,-0.918792724609375,0.260986328125,-0.2323109954595565,0.0706217065453529,-0.0435163192451
1769251706443,-0.321441650390625,-0.9130401611328124,0.2690582275390625,-0.2736832201480865,0.0613808035850524,-0.0408933721482753
1769251706453,-0.3128662109375,-0.9122772216796876,0.2560882568359375,-0.3101219236850738,0.06325513869524,-0.0441821068525314
1769251706463,-0.3195953369140625,-0.9195404052734376,0.2433624267578125,-0.3294780254364013,0.0435016714036464,-0.0525460317730903
1769251706474,-0.323822021484375,-0.9231719970703124,0.2264556884765625,-0.3361724317073822,0.0250180009752511,-0.059434562921524
1769251706483,-0.317535400390625,-0.929656982421875,0.208892822265625,-0.3318077623844147,0.0144995804876089,-0.071659542620182
1769251706495,-0.31768798828125,-0.9336090087890624,0.1957550048828125,-0.3250630497932434,0.0018716695485636,-0.0856584459543228
1769251706503,-0.31927490234375,-0.9345703125,0.1838531494140625,-0.3093757033348083,0.0054376423358917,-0.0931938588619232
1769251706513,-0.3148651123046875,-0.9322357177734376,0.1712493896484375,-0.2938390672206878,0.0114369448274374,-0.0946711152791976
1769251706523,-0.312286376953125,-0.9290313720703124,0.1647186279296875,-0.2753836512565613,0.0155161088332533,-0.0944202467799186
1769251706534,-0.31036376953125,-0.931365966796875,0.1619415283203125,-0.2619194984436035,0.0103290705010294,-0.0953440964221954
1769251706544,-0.3087310791015625,-0.939208984375,0.163726806640625,-0.2509933412075043,0.0093935020267963,-0.0991177931427955
1769251706554,-0.3069610595703125,-0.9435882568359376,0.167449951171875,-0.2378112226724624,-0.0184245463460683,-0.0998733341693878
1769251706564,-0.3076324462890625,-0.9436187744140624,0.1769561767578125,-0.2323725223541259,-0.0253908447921276,-0.1059922128915786
1769251706574,-0.3082122802734375,-0.940185546875,0.172607421875,-0.233391985297203,-0.0309379417449235,-0.1015527248382568
1769251706584,-0.294708251953125,-0.934112548828125,0.1641387939453125,-0.235674038529396,-0.0480274483561515,-0.098229095339775
1769251706594,-0.29742431640625,-0.9310150146484376,0.16253662109375,-0.2350836247205734,-0.0519998185336589,-0.0973931327462196
1769251706604,-0.2994842529296875,-0.929595947265625,0.1605682373046875,-0.233616754412651,-0.0541417971253395,-0.0957129448652267
1769251706614,-0.2993927001953125,-0.930694580078125,0.1567840576171875,-0.2297807335853576,-0.0356573313474655,-0.0988983511924743
1769251706624,-0.3027191162109375,-0.9390106201171876,0.1541595458984375,-0.2283575385808944,-0.0036980654112994,-0.1031436920166015
1769251706634,-0.3057708740234375,-0.9524993896484376,0.1543121337890625,-0.2241633236408233,0.0113155050203204,-0.1037940382957458
1769251706644,-0.2965087890625,-0.962738037109375,0.152587890625,-0.2224194854497909,-0.0137405795976519,-0.1106724515557289
1769251706654,-0.3014373779296875,-0.9525604248046876,0.1579742431640625,-0.218063086271286,-0.0257365219295024,-0.1197567582130432
1769251706664,-0.3097686767578125,-0.922821044921875,0.1504974365234375,-0.2121479362249374,0.0004332963144406,-0.1311188638210296
1769251706674,-0.31549072265625,-0.8989715576171875,0.140533447265625,-0.2069843411445617,0.0289224609732627,-0.1393690705299377
1769251706684,-0.3211669921875,-0.9036865234375,0.1412811279296875,-0.2096301913261413,0.0309310182929039,-0.1290445327758789
1769251706694,-0.31231689453125,-0.939910888671875,0.1588897705078125,-0.2122315615415573,-0.0194325540214777,-0.1302557438611984
1769251706704,-0.30474853515625,-0.971405029296875,0.171112060546875,-0.2004627883434295,-0.0738332122564315,-0.1533775776624679
1769251706715,-0.2951507568359375,-0.973785400390625,0.1614227294921875,-0.1789508461952209,-0.0725767314434051,-0.16949263215065
1769251706725,-0.277069091796875,-0.9698944091796876,0.13885498046875,-0.1550321877002716,-0.0372805260121822,-0.1776919662952423
1769251706735,-0.2743072509765625,-0.9490814208984376,0.1186981201171875,-0.1271872520446777,0.0030791468452662,-0.1775436252355575
1769251706745,-0.27447509765625,-0.9310150146484376,0.1099090576171875,-0.0974676981568336,0.0098576908931136,-0.15737284719944
1769251706755,-0.2722625732421875,-0.9277191162109376,0.1141510009765625,-0.0785677805542945,-0.0026767430827021,-0.1363559812307357
1769251706765,-0.271392822265625,-0.9376068115234376,0.12176513671875,-0.0677702575922012,-0.013107013888657,-0.1173796206712722
1769251706775,-0.268463134765625,-0.9446868896484376,0.127410888671875,-0.0621440634131431,-0.0248108077794313,-0.1068649291992187
1769251706785,-0.271514892578125,-0.9515380859375,0.1295623779296875,-0.0578965879976749,-0.0400898940861225,-0.0898446664214134
1769251706796,-0.2606353759765625,-0.9499053955078124,0.1322021484375,-0.0515577346086502,-0.0625038594007492,-0.0722835212945938
1769251706805,-0.25482177734375,-0.9528656005859376,0.1322174072265625,-0.046361107379198,-0.0828482806682586,-0.0607616193592548
1769251706815,-0.251953125,-0.9541473388671876,0.13299560546875,-0.0392209067940712,-0.0946830958127975,-0.0482165329158306
1769251706825,-0.24920654296875,-0.95404052734375,0.1310882568359375,-0.038575354963541,-0.0746667832136154,-0.0310908071696758
1769251706835,-0.253692626953125,-0.9561767578125,0.1276092529296875,-0.044123250991106,-0.0544882752001285,-0.0235260985791683
1769251706845,-0.2581024169921875,-0.960479736328125,0.1271820068359375,-0.0431514643132686,-0.02216362580657,-0.012825783342123
1769251706855,-0.2540435791015625,-0.9546966552734376,0.1208038330078125,-0.039034217596054,0.0034738273825496,-0.0065308697521686
1769251706865,-0.259857177734375,-0.9559478759765624,0.118316650390625,-0.023021962493658,-0.0083098616451025,-0.000524909060914
1769251706875,-0.2598419189453125,-0.9524383544921876,0.1142578125,-0.0033545177429914,0.0009856359101831,-0.0039025961887091
1769251706885,-0.2640838623046875,-0.9493408203125,0.1091156005859375,0.0118979383260011,0.011046259663999,-0.008552742190659
1769251706896,-0.2720184326171875,-0.9471435546875,0.1151885986328125,0.0283400285989046,0.013538178987801,-0.0063857277855277
1769251706905,-0.26983642578125,-0.939453125,0.121185302734375,0.0348759591579437,0.0043657198548316,-0.0054642739705741
1769251706915,-0.2720794677734375,-0.9429168701171876,0.13299560546875,0.0401130653917789,0.0038717035204172,0.0017470336752012
1769251706925,-0.2706146240234375,-0.9502105712890624,0.1421356201171875,0.0423285476863384,0.0017936390358954,0.001555019756779
1769251706936,-0.269744873046875,-0.9601898193359376,0.149871826171875,0.0429045893251895,-0.0178026985377073,-0.0011302455095574
1769251706946,-0.2704315185546875,-0.9633026123046876,0.1545562744140625,0.0443208590149879,-0.0430944748222827,-0.0150686977431178
1769251706956,-0.2727813720703125,-0.95721435546875,0.1505584716796875,0.0447709336876869,-0.0359526760876178,-0.0127663947641849
1769251706966,-0.266387939453125,-0.95562744140625,0.144195556640625,0.048156876116991,-0.0268196295946836,-0.0101479748263955
1769251706976,-0.269378662109375,-0.95379638671875,0.139801025390625,0.0640096068382263,-0.0358863621950149,0.0021015002857893
1769251706986,-0.2579803466796875,-0.9421234130859376,0.1258544921875,0.0843771994113922,-0.0502248220145702,0.0206046104431152
1769251706996,-0.24786376953125,-0.9378204345703124,0.124359130859375,0.0983947440981864,-0.0403034798800945,0.0368006266653537
1769251707006,-0.2408294677734375,-0.9444427490234376,0.1202239990234375,0.1058755666017532,-0.016520919278264,0.0511787645518779
1769251707016,-0.2351531982421875,-0.9530029296875,0.1241455078125,0.1122306659817695,-0.0042293663136661,0.0628026649355888
1769251707026,-0.2381134033203125,-0.9543914794921876,0.1353759765625,0.1124346628785133,-0.0103080309927463,0.0681662708520889
1769251707036,-0.2489166259765625,-0.94683837890625,0.1478424072265625,0.1057967394590377,-0.0336887203156948,0.0757139325141906
1769251707047,-0.2608642578125,-0.93865966796875,0.1587066650390625,0.0917602777481079,-0.0546507276594638,0.0825854241847992
1769251707056,-0.274017333984375,-0.94110107421875,0.1639556884765625,0.0767752081155777,-0.0841353833675384,0.092861495912075
1769251707066,-0.2735595703125,-0.9424285888671876,0.163848876953125,0.0706832259893417,-0.1051381379365921,0.1071730554103851
1769251707076,-0.2673797607421875,-0.941741943359375,0.1529541015625,0.0677910298109054,-0.1165338009595871,0.1164959892630577
1769251707087,-0.270263671875,-0.9467010498046876,0.1500091552734375,0.0683479011058807,-0.1029940247535705,0.1153596118092536
1769251707096,-0.280303955078125,-0.95928955078125,0.14642333984375,0.0555229149758815,-0.0642865747213363,0.1046366617083549
1769251707106,-0.2836151123046875,-0.9685211181640624,0.14971923828125,0.0380485840141773,-0.0401370339095592,0.0977827534079551
1769251707116,-0.2789764404296875,-0.964202880859375,0.1553802490234375,0.0261525083333253,-0.0451475046575069,0.0928737446665763
1769251707127,-0.2833099365234375,-0.9529876708984376,0.1579132080078125,0.015687083825469,-0.0082408860325813,0.0935951992869377
1769251707136,-0.2951507568359375,-0.9449615478515624,0.15252685546875,-0.0059673450887203,0.0155749646946787,0.0817052498459816
1769251707146,-0.3083648681640625,-0.937713623046875,0.1660308837890625,-0.0181904546916484,0.0146697564050555,0.0808351933956146
1769251707157,-0.296783447265625,-0.9356536865234376,0.16748046875,-0.0286452267318964,0.0021941782906651,0.0794056057929992
1769251707167,-0.291046142578125,-0.9398193359375,0.1704254150390625,-0.0438454858958721,-0.0099370526149868,0.066553995013237
1769251707177,-0.2958831787109375,-0.9453277587890624,0.176055908203125,-0.0608343221247196,-0.0103650232776999,0.0609584264457225
1769251707187,-0.286376953125,-0.95245361328125,0.17779541015625,-0.0746268332004547,-0.0026916568167507,0.0608638823032379
1769251707197,-0.27655029296875,-0.9676361083984376,0.17816162109375,-0.090563453733921,0.0051926313899457,0.0660740882158279
1769251707208,-0.266021728515625,-0.9777984619140624,0.17852783203125,-0.1043458431959152,0.0063119581900537,0.0624202340841293
1769251707217,-0.280242919921875,-0.9774017333984376,0.1747283935546875,-0.1344038844108581,-0.0023374564480036,0.0418566353619098
1769251707227,-0.3094329833984375,-0.9638671875,0.18157958984375,-0.1712100952863693,-0.0088299764320254,0.0305227544158697
1769251707237,-0.318603515625,-0.9606170654296876,0.18463134765625,-0.208830177783966,-0.0017664746847003,0.040078442543745
1769251707247,-0.3075103759765625,-0.9744415283203124,0.1821441650390625,-0.2432070523500442,-0.0040456079877913,0.0490969717502594
1769251707257,-0.2981109619140625,-0.97821044921875,0.17572021484375,-0.2654047608375549,-0.0188796818256378,0.049605369567871
1769251707267,-0.28985595703125,-0.9723663330078124,0.166168212890625,-0.2730951905250549,-0.025332786142826,0.0390315540134906
1769251707277,-0.2963104248046875,-0.97247314453125,0.156341552734375,-0.2791112661361694,-0.0209444295614957,0.0244094692170619
1769251707287,-0.3001251220703125,-0.9669952392578124,0.15264892578125,-0.2852450609207153,-0.0235806927084922,0.0196290947496891
1769251707298,-0.2960357666015625,-0.9491424560546876,0.1442718505859375,-0.2790998220443725,-0.0279690492898225,0.0139586925506591
1769251707307,-0.299957275390625,-0.9296875,0.127471923828125,-0.2578235566616058,-0.0407524891197681,0.0081572625786066
1769251707317,-0.2975006103515625,-0.905670166015625,0.109405517578125,-0.2170769274234771,-0.0274587888270616,0.0091282511129975
1769251707327,-0.29193115234375,-0.89093017578125,0.0959625244140625,-0.1800030618906021,0.0270079150795936,0.0166878998279571
1769251707337,-0.2959136962890625,-0.898712158203125,0.094146728515625,-0.1539163291454315,0.056584183126688,0.0031153657473623
1769251707348,-0.31182861328125,-0.934967041015625,0.106353759765625,-0.125242069363594,0.0413892529904842,-0.0071734907105565
1769251707357,-0.2971954345703125,-0.9566802978515624,0.108673095703125,-0.0909259095788002,0.0279264394193887,-0.0252728667110204
1769251707368,-0.288421630859375,-0.962982177734375,0.10546875,-0.0538499169051647,0.0220669526606798,-0.0410827212035656
1769251707378,-0.2889556884765625,-0.95654296875,0.1016693115234375,-0.0166500825434923,-0.0136404447257518,-0.0458987802267074
1769251707388,-0.2925262451171875,-0.9369964599609376,0.1025543212890625,0.0133717320859432,-0.0652993768453598,-0.0448433719575405
1769251707398,-0.299407958984375,-0.9289398193359376,0.1095428466796875,0.0210264548659324,-0.0787275657057762,-0.0402680598199367
1769251707408,-0.2989959716796875,-0.9293060302734376,0.106231689453125,0.0117240343242883,-0.065294049680233,-0.0279842298477888
1769251707418,-0.290618896484375,-0.9354248046875,0.104217529296875,-0.0027225494850426,-0.0349659733474254,-0.0168101396411657
1769251707428,-0.2886810302734375,-0.9344329833984376,0.0987091064453125,-0.0174309220165014,-0.027378361672163,-0.0176303926855325
1769251707438,-0.302001953125,-0.937744140625,0.1063079833984375,-0.0275693088769912,-0.0418627597391605,-0.0151323471218347
1769251707448,-0.2984619140625,-0.9439239501953124,0.1131744384765625,-0.0285149980336427,-0.0559676624834537,-0.0166215877979993
1769251707458,-0.2977447509765625,-0.9472808837890624,0.1146392822265625,-0.0340786091983318,-0.0639837756752967,-0.0309861451387405
1769251707468,-0.3052215576171875,-0.95025634765625,0.12005615234375,-0.0224278103560209,-0.0913501530885696,-0.0332407765090465
1769251707478,-0.2863922119140625,-0.9558258056640624,0.1101531982421875,0.0066491141915321,-0.0846214070916175,-0.035670381039381
1769251707488,-0.281890869140625,-0.9460601806640624,0.0979766845703125,0.0304335393011569,-0.0510725043714046,-0.0532091595232486
1769251707498,-0.288482666015625,-0.9346923828125,0.0968475341796875,0.0476788394153118,0.0044299019500613,-0.0558030791580677
1769251707508,-0.2869110107421875,-0.935699462890625,0.0980682373046875,0.0671673193573951,0.0015038870042189,-0.0461874678730964
1769251707518,-0.278076171875,-0.9376373291015624,0.1087493896484375,0.0809510424733161,0.0230304840952157,-0.0410028286278247
1769251707530,-0.281951904296875,-0.9441375732421876,0.11334228515625,0.091309405863285,0.038661640137434,-0.0393940098583698
1769251707538,-0.2833709716796875,-0.9478302001953124,0.123992919921875,0.0939470008015632,0.0242078676819801,-0.0354115217924118
1769251707548,-0.2817230224609375,-0.9439544677734376,0.1377716064453125,0.0980772972106933,0.0059646819718182,-0.0320916250348091
1769251707558,-0.2844390869140625,-0.9425811767578124,0.1408233642578125,0.0991801097989082,-0.0005060005933046,-0.02848357334733
1769251707569,-0.28875732421875,-0.94635009765625,0.14447021484375,0.0935488566756248,0.006844856776297,-0.0179595593363046
1769251707579,-0.2864837646484375,-0.9479827880859376,0.1493988037109375,0.0868052020668983,0.005445631686598,-0.0153933372348546
1769251707589,-0.2779998779296875,-0.9503326416015624,0.152984619140625,0.0781802907586097,-0.011028416454792,-0.015793876722455
1769251707599,-0.2733612060546875,-0.952606201171875,0.1538238525390625,0.0633403584361076,-0.0037257622461766,-0.0184562392532825
1769251707609,-0.2774658203125,-0.949737548828125,0.1535797119140625,0.0453110225498676,0.0181696824729442,-0.0116939404979348
1769251707619,-0.2791900634765625,-0.9510498046875,0.154388427734375,0.0271946024149656,0.0174658093601465,-0.0042275018058717
1769251707629,-0.2796783447265625,-0.947357177734375,0.1544647216796875,0.0112350778654217,0.0112939337268471,-0.0089080072939395
1769251707639,-0.2847137451171875,-0.943817138671875,0.1580352783203125,-0.0112334797158837,0.0125051392242312,-0.0185726191848516
1769251707649,-0.293792724609375,-0.943328857421875,0.1610107421875,-0.0322655290365219,0.0138255339115858,-0.0188708938658237
1769251707659,-0.286163330078125,-0.9423370361328124,0.1606292724609375,-0.0472221076488494,0.0110396016389131,-0.0152093125507235
1769251707669,-0.2763671875,-0.9420318603515624,0.1592864990234375,-0.06305992603302,-0.0008884305134415,-0.0147464554756879
1769251707679,-0.2743377685546875,-0.9418792724609376,0.1582489013671875,-0.0789286345243454,-0.0074097132310271,-0.0128521490842103
1769251707689,-0.2752227783203125,-0.9405670166015624,0.1572113037109375,-0.0989548116922378,-0.0052448292262852,-0.0193928722292184
1769251707699,-0.2865142822265625,-0.9436187744140624,0.1599578857421875,-0.1212814226746559,-0.0050533479079604,-0.0122753083705902
1769251707709,-0.2762298583984375,-0.9435577392578124,0.1555633544921875,-0.1402694880962371,-0.0029992519412189,0.0003094593121204
1769251707719,-0.26513671875,-0.94964599609375,0.1508941650390625,-0.1653921604156494,-0.0104638263583183,0.0060200756415724
1769251707729,-0.26708984375,-0.955810546875,0.15185546875,-0.1888380944728851,-0.021172396838665,0.0056187370792031
1769251707740,-0.2677154541015625,-0.95550537109375,0.1462554931640625,-0.1987778097391128,-0.0386248901486396,0.0042543997988104
1769251707749,-0.2731170654296875,-0.9499664306640624,0.144622802734375,-0.2061968445777893,-0.0631334260106086,-0.0012647352414205
1769251707761,-0.2836456298828125,-0.952484130859375,0.1431884765625,-0.2140089571475982,-0.074576236307621,-0.0080579267814755
1769251707770,-0.283782958984375,-0.9524383544921876,0.1290435791015625,-0.2137383818626403,-0.0505518577992916,-0.0069769495166838
1769251707780,-0.279083251953125,-0.9514312744140624,0.1065673828125,-0.2038505971431732,-0.0241972152143716,0.0043412190861999
1769251707790,-0.2666473388671875,-0.9496307373046876,0.0867919921875,-0.1802259683609008,-0.0060927798040211,0.0154348826035857
1769251707800,-0.268524169921875,-0.95050048828125,0.0780181884765625,-0.1561568528413772,0.0151169011369347,0.0122196478769183
1769251707810,-0.2788238525390625,-0.950347900390625,0.0746002197265625,-0.1308647990226745,0.0338660888373851,0.0091482242569327
1769251707820,-0.282928466796875,-0.94940185546875,0.0780792236328125,-0.1006989106535911,0.0402100048959255,0.0107573065906763
1769251707830,-0.2772369384765625,-0.951324462890625,0.0775909423828125,-0.0686136782169342,0.0345292165875434,0.0231995955109596
1769251707840,-0.2670135498046875,-0.95574951171875,0.07843017578125,-0.0369308516383171,0.0218997057527303,0.0358671881258487
1769251707850,-0.2671051025390625,-0.955108642578125,0.0803375244140625,-0.0130947632715106,0.0059809270314872,0.0312215685844421
1769251707860,-0.2885894775390625,-0.9507904052734376,0.0920562744140625,-0.0023057649377733,0.0436049997806549,0.0266180280596017
1769251707870,-0.304107666015625,-0.9532623291015624,0.0998382568359375,0.0102795353159308,0.0424768850207328,0.0304670948535203
1769251707880,-0.29705810546875,-0.954437255859375,0.1053009033203125,0.0391953401267528,0.018179003149271,0.0397037379443645
1769251707890,-0.2827606201171875,-0.9435577392578124,0.0934906005859375,0.0682568177580833,8.495483780279756e-05,0.0498226843774318
1769251707900,-0.2807159423828125,-0.9368743896484376,0.08941650390625,0.0858629792928695,-0.0153379430994391,0.0554776415228843
1769251707910,-0.2876129150390625,-0.9376678466796876,0.0986175537109375,0.0874329060316085,-0.0311949364840984,0.0684317871928215
1769251707920,-0.2878875732421875,-0.946380615234375,0.1112060546875,0.0821633115410804,-0.0481299795210361,0.0928649604320526
1769251707930,-0.2747802734375,-0.964935302734375,0.116943359375,0.0656498521566391,-0.0639875084161758,0.0937864109873771
1769251707940,-0.2894439697265625,-0.9725799560546876,0.1233062744140625,0.0356251038610935,-0.0172820519655942,0.071538895368576
1769251707950,-0.3059539794921875,-0.9553680419921876,0.129241943359375,0.0050565437413752,0.0468649752438068,0.0505475960671901
1769251707961,-0.3107757568359375,-0.9321441650390624,0.1274566650390625,-0.0165241155773401,0.0512400195002555,0.0325654000043869
1769251707970,-0.2986907958984375,-0.9213714599609376,0.1266021728515625,-0.0298452470451593,0.0325840413570404,0.0110758207738399
1769251707981,-0.294952392578125,-0.9330596923828124,0.12738037109375,-0.0587943419814109,0.0059484364464879,-0.0061242054216563
1769251707990,-0.294677734375,-0.9833984375,0.1502532958984375,-0.0976147055625915,-0.0277799665927886,-0.0306601747870445
1769251708001,-0.289886474609375,-1.0050506591796875,0.155670166015625,-0.1201804727315902,-0.0194338858127594,-0.0620543174445629
1769251708011,-0.2892913818359375,-0.9928131103515624,0.151123046875,-0.1374396234750747,-0.0118814269080758,-0.0913128703832626
1769251708021,-0.2974700927734375,-0.9741668701171876,0.146331787109375,-0.1346350461244583,-0.0320607312023639,-0.1117486357688903
1769251708031,-0.301177978515625,-0.9418182373046876,0.134063720703125,-0.1292919367551803,-0.0278920847922563,-0.1135294884443283
1769251708041,-0.3076934814453125,-0.9257965087890624,0.12579345703125,-0.1181396916508674,-0.0157344881445169,-0.0914369747042656
1769251708051,-0.294189453125,-0.92926025390625,0.1128692626953125,-0.103995107114315,-0.0199468098580837,-0.0637446269392967
1769251708061,-0.2806549072265625,-0.9375762939453124,0.10662841796875,-0.0972554460167884,-0.0158442109823226,-0.0504242926836013
1769251708071,-0.2778472900390625,-0.9420623779296876,0.1089630126953125,-0.103987917304039,-0.0173725988715887,-0.0463509857654571
1769251708081,-0.2756805419921875,-0.9490814208984376,0.1110992431640625,-0.1220878288149833,-0.0217974409461021,-0.039945550262928
1769251708091,-0.2687835693359375,-0.9510955810546876,0.1091461181640625,-0.1459247171878814,-0.0247918982058763,-0.0311608482152223
1769251708101,-0.26519775390625,-0.9555511474609376,0.102935791015625,-0.170594647526741,-0.0287195295095443,-0.0166761819273233
1769251708111,-0.2621002197265625,-0.946258544921875,0.0955963134765625,-0.1944112926721573,-0.0220437832176685,-0.0036892769858241
1769251708121,-0.26434326171875,-0.9431304931640624,0.0876007080078125,-0.215765044093132,-0.0310045219957828,0.0049233860336244
1769251708131,-0.261627197265625,-0.9396514892578124,0.08111572265625,-0.2301288098096847,-0.0425352081656456,-0.0002450108295306
1769251708141,-0.2739715576171875,-0.9396209716796876,0.07696533203125,-0.2326548099517822,-0.0370869152247905,-0.0033545177429914
1769251708151,-0.278533935546875,-0.942474365234375,0.0689239501953125,-0.2076221704483032,-0.0295259337872266,0.013544837012887
1769251708161,-0.264434814453125,-0.9566192626953124,0.0504302978515625,-0.1508172154426574,-0.0343664959073066,0.0349172390997409
1769251708171,-0.2596893310546875,-0.96234130859375,0.037109375,-0.0822067186236381,-0.0211510919034481,0.044945903122425
1769251708181,-0.2674560546875,-0.969268798828125,0.0344696044921875,-0.0093937683850526,0.0049239182844758,0.0474514067173004
1769251708191,-0.2775726318359375,-0.9713134765625,0.0330810546875,0.0550992041826248,0.017559552565217,0.050857588648796
1769251708202,-0.283447265625,-0.96356201171875,0.0458221435546875,0.1018336862325668,0.0106185553595423,0.0536917224526405
1769251708212,-0.2916412353515625,-0.96173095703125,0.062652587890625,0.1298631876707077,-0.0011696603614836,0.0595032759010791
1769251708222,-0.2923431396484375,-0.958465576171875,0.0745086669921875,0.1441710293292999,-0.0122358938679099,0.0687811970710754
1769251708232,-0.289215087890625,-0.96112060546875,0.0797576904296875,0.1458416283130645,-0.0114923389628529,0.0699657723307609
1769251708242,-0.2939300537109375,-0.961944580078125,0.08709716796875,0.1284833997488021,0.0206192582845687,0.058167964220047
1769251708252,-0.3094635009765625,-0.968536376953125,0.1024169921875,0.1037897765636444,0.038352183997631,0.0497987158596515
1769251708263,-0.3045196533203125,-0.9638824462890624,0.115142822265625,0.0870688557624816,0.0369513593614101,0.0485193319618701
1769251708272,-0.2958984375,-0.95556640625,0.1155548095703125,0.0771781429648399,0.0231607127934694,0.0453645512461662
1769251708282,-0.29449462890625,-0.942718505859375,0.116241455078125,0.0682794526219368,0.0093628754839301,0.0334969721734523
1769251708292,-0.30035400390625,-0.937530517578125,0.1230621337890625,0.0572073645889759,0.0124209830537438,0.0152726965025067
1769251708302,-0.305755615234375,-0.9368438720703124,0.1305999755859375,0.0453043654561042,0.0062475097365677,0.0086605995893478
1769251708312,-0.287445068359375,-0.946441650390625,0.12835693359375,0.040724791586399,-0.0043108589015901,0.0077801588922739
1769251708322,-0.2742156982421875,-0.9496917724609376,0.117431640625,0.0384163632988929,-0.0129616046324372,-0.0004692489746958
1769251708333,-0.2761993408203125,-0.9422760009765624,0.108489990234375,0.0392603203654289,-0.0213409755378961,0.0044171190820634
1769251708342,-0.2703857421875,-0.938232421875,0.09588623046875,0.033071931451559,-0.0178620871156454,0.0135767953470349
1769251708352,-0.273712158203125,-0.9347381591796876,0.093994140625,0.01649721711874,-0.00971254799515,0.0164178553968668
1769251708363,-0.294281005859375,-0.9403533935546876,0.106903076171875,-0.0126851685345172,-0.0101479748263955,0.0049031460657715
1769251708372,-0.3132476806640625,-0.95465087890625,0.1259918212890625,-0.0444316454231739,-0.0082025360316038,-0.0119264340028166
1769251708383,-0.3106536865234375,-0.9621429443359376,0.137664794921875,-0.0654061734676361,-0.0115200355648994,-0.0263618323951959
1769251708392,-0.29931640625,-0.9670257568359376,0.1368865966796875,-0.083467997610569,-0.02026585675776,-0.0461856052279472
1769251708403,-0.2916259765625,-0.9697418212890624,0.1337738037109375,-0.1007673591375351,-0.0280558690428733,-0.0594979487359523
1769251708413,-0.2848968505859375,-0.96612548828125,0.12371826171875,-0.1189263835549354,-0.0250081475824117,-0.0679281875491142
1769251708423,-0.28399658203125,-0.9544525146484376,0.1121673583984375,-0.1381602734327316,-0.0079484703019261,-0.067756675183773
1769251708433,-0.2867584228515625,-0.943359375,0.099578857421875,-0.154155746102333,-0.0048418929800391,-0.0619163624942302
1769251708443,-0.289154052734375,-0.940216064453125,0.0931243896484375,-0.1702183336019516,-0.0035310853272676,-0.0617448575794696
1769251708453,-0.2958221435546875,-0.94769287109375,0.0925750732421875,-0.1800600439310073,-0.0002058623504126,-0.0682797208428382
1769251708463,-0.297821044921875,-0.9557037353515624,0.0927276611328125,-0.1806142479181289,-0.0038224351592361,-0.0654357299208641
1769251708473,-0.28985595703125,-0.9577789306640624,0.0855712890625,-0.1651250422000885,-0.022913571447134,-0.0640479549765586
1769251708483,-0.2870330810546875,-0.962158203125,0.08245849609375,-0.1469425708055496,-0.0525979623198509,-0.0694070383906364
1769251708493,-0.2955474853515625,-0.9639892578125,0.087982177734375,-0.1396614909172058,-0.0598265826702117,-0.0818392038345336
1769251708503,-0.300262451171875,-0.9611053466796876,0.08404541015625,-0.1324208974838256,-0.0483243875205516,-0.0790735110640525
1769251708513,-0.28924560546875,-0.9539642333984376,0.068389892578125,-0.1156227365136146,-0.0226922631263732,-0.0693710818886756
1769251708523,-0.27813720703125,-0.9510650634765624,0.0547943115234375,-0.0939491316676139,-0.0061702779494225,-0.053911168128252
1769251708533,-0.269683837890625,-0.9438323974609376,0.0461578369140625,-0.0622489936649799,0.0021081583108752,-0.0399836339056491
1769251708543,-0.2639923095703125,-0.9362335205078124,0.044219970703125,-0.0253892466425895,0.0173235964030027,-0.0286641344428062
1769251708553,-0.26666259765625,-0.934967041015625,0.048309326171875,0.01111869700253,0.0156085202470421,-0.0187539793550968
1769251708563,-0.265167236328125,-0.937957763671875,0.0563812255859375,0.0430422760546207,0.0114124445244669,-0.0106382630765438
1769251708573,-0.2630462646484375,-0.9459381103515624,0.067413330078125,0.0655302703380584,0.0126364333555102,-0.005445631686598
1769251708583,-0.2680816650390625,-0.9534454345703124,0.0807952880859375,0.0772151574492454,0.0098486356437206,-0.0028088360559195
1769251708593,-0.274627685546875,-0.957550048828125,0.0859527587890625,0.0864603221416473,-0.0025300029665231,0.0052094091661274
1769251708603,-0.2764739990234375,-0.9624786376953124,0.0886383056640625,0.0907874256372451,-0.01174081210047,0.018117219209671
1769251708614,-0.275177001953125,-0.9544830322265624,0.08380126953125,0.1017716377973556,-0.0138809280470013,0.0255178771913051
1769251708624,-0.2772369384765625,-0.9357147216796876,0.076751708984375,0.1108359694480896,-0.011772503145039,0.0295885186642408
1769251708634,-0.2738494873046875,-0.9236907958984376,0.0833282470703125,0.1149241849780082,-0.0091231912374496,0.0365015529096126
1769251708644,-0.2717132568359375,-0.9475250244140624,0.0977020263671875,0.1048662289977073,-0.014512363821268,0.0436846315860748
1769251708654,-0.26226806640625,-0.97222900390625,0.1124114990234375,0.0896891430020332,-0.0215604193508625,0.0383782833814621
1769251708664,-0.2626800537109375,-0.9920806884765624,0.1211090087890625,0.0657680928707122,-0.0164199862629175,0.0188357401639223
1769251708674,-0.27581787109375,-0.9899444580078124,0.1260223388671875,0.0427498593926429,0.002975549781695,0.0015297196805477
1769251708684,-0.2828521728515625,-0.976837158203125,0.12152099609375,0.0266244206577539,0.0048152613453567,0.0028336034156382
1769251708695,-0.2801971435546875,-0.961700439453125,0.11260986328125,0.0222006440162658,0.0015238607302308,0.0069223544560372
1769251708704,-0.27880859375,-0.9409332275390624,0.097991943359375,0.0281458832323551,-0.0101660843938589,0.0128713240846991
1769251708714,-0.2787322998046875,-0.9301910400390624,0.087860107421875,0.0288883727043867,-0.0276313610374927,0.0123791713267564
1769251708724,-0.290496826171875,-0.9308929443359376,0.093231201171875,0.0147531135007739,-0.0044948831200599,0.0040368195623159
1769251708734,-0.301971435546875,-0.9416351318359376,0.10302734375,-0.0015409049810841,0.005192897748202,0.0088286455720663
1769251708744,-0.286376953125,-0.9571380615234376,0.1061553955078125,-0.0129621373489499,0.0018516959389671,0.0161499418318271
1769251708754,-0.2667236328125,-0.963348388671875,0.1014251708984375,-0.018073009327054,-0.0028730181511491,0.0188466589897871
1769251708764,-0.259552001953125,-0.96832275390625,0.0955810546875,-0.0247791167348623,-0.0175803247839212,0.018549183383584
1769251708774,-0.2583770751953125,-0.9652862548828124,0.09259033203125,-0.0348778218030929,-0.0211534891277551,0.0227732229977846
1769251708785,-0.2622222900390625,-0.958221435546875,0.0897369384765625,-0.0476641915738582,-0.0119727728888392,0.0354043282568454
1769251708794,-0.2647247314453125,-0.958099365234375,0.0907745361328125,-0.0602774545550346,-0.0181595627218484,0.0527524277567863
1769251708804,-0.265533447265625,-0.954620361328125,0.086273193359375,-0.0605922415852546,-0.0341009795665741,0.0673500150442123
1769251708814,-0.268646240234375,-0.947784423828125,0.079437255859375,-0.0479507483541965,-0.0341680906713008,0.0616388618946075
1769251708825,-0.29345703125,-0.9398193359375,0.0695953369140625,-0.0266385357826948,0.0202219150960445,0.0643185377120971
1769251708835,-0.297607421875,-0.940216064453125,0.066986083984375,-0.0047864993102848,0.0239434167742729,0.0728771388530731
1769251708845,-0.28961181640625,-0.9539642333984376,0.072418212890625,0.0211247261613607,0.0175150781869888,0.0730286687612533
1769251708855,-0.286468505859375,-0.960113525390625,0.0708770751953125,0.045847650617361,0.0287006199359893,0.0670940801501274
1769251708865,-0.2914886474609375,-0.95989990234375,0.069854736328125,0.0632048025727272,0.0593498758971691,0.0623102448880672
1769251708875,-0.295379638671875,-0.958404541015625,0.0711669921875,0.0792077332735061,0.0604305863380432,0.0662005916237831
1769251708885,-0.2946929931640625,-0.9538116455078124,0.07769775390625,0.0873889699578285,0.0574044361710548,0.0640101432800293
1769251708895,-0.2925262451171875,-0.955322265625,0.0863800048828125,0.0876057520508766,0.068225659430027,0.0499454550445079
1769251708905,-0.29705810546875,-0.956329345703125,0.09661865234375,0.0845303311944007,0.0563330464065074,0.0391948074102401
1769251708915,-0.2918243408203125,-0.9506988525390624,0.11187744140625,0.0912406966090202,0.0252038892358541,0.0367268547415733
1769251708925,-0.2853240966796875,-0.940704345703125,0.119415283203125,0.094694547355175,0.0278737097978591,0.0318111926317215
1769251708935,-0.2916107177734375,-0.93511962890625,0.1211700439453125,0.0895682349801063,0.0334210731089115,0.0281536076217889
1769251708945,-0.29290771484375,-0.93212890625,0.125152587890625,0.0802165418863296,0.0247037485241889,0.0255732703953981
1769251708955,-0.2898712158203125,-0.93463134765625,0.1260528564453125,0.0629030689597129,0.0236323587596416,0.0152018563821911
1769251708965,-0.2987823486328125,-0.9365386962890624,0.1272430419921875,0.0358818359673023,0.0098334560170769,0.0068078385666012
1769251708975,-0.3043365478515625,-0.942291259765625,0.126800537109375,0.0112214954569935,-0.0155552579089999,0.0090126693248748
1769251708985,-0.29833984375,-0.936798095703125,0.1194610595703125,-0.0056797238066792,-0.0332306586205959,0.0054019559174776
1769251708996,-0.3021240234375,-0.928466796875,0.1113128662109375,-0.0199808981269598,-0.0181782040745019,0.0036772927269339
1769251709005,-0.30487060546875,-0.9290924072265624,0.1095733642578125,-0.0258188135921955,-0.009336776100099,0.0112260226160287
1769251709016,-0.29278564453125,-0.9366607666015624,0.1063232421875,-0.0231348797678947,-0.0110949957743287,0.0213231313973665
1769251709026,-0.2762298583984375,-0.9477691650390624,0.101837158203125,-0.0193649102002382,-0.0136130144819617,0.025242505595088
1769251709036,-0.276214599609375,-0.9568939208984376,0.103240966796875,-0.0229042507708072,-0.0174532923847436,0.0144399255514144
1769251709046,-0.2816162109375,-0.960357666015625,0.1085052490234375,-0.0193497296422719,-0.0522560141980648,0.0380642935633659
1769251709056,-0.2512969970703125,-0.9647674560546876,0.1046295166015625,-0.0275221709161996,-0.0314226374030113,0.0229684319347143
1769251709066,-0.283416748046875,-0.9768829345703124,0.10614013671875,-0.0376011729240417,-0.0535029061138629,0.0228576455265283
1769251709076,-0.2826080322265625,-0.963134765625,0.10809326171875,-0.0522381700575351,-0.0218991730362176,0.0183931216597557
1769251709086,-0.304351806640625,-0.960968017578125,0.1052093505859375,-0.0721338465809822,-0.0006431533838622,0.0071423314511775
1769251709096,-0.3187713623046875,-0.9605560302734376,0.11151123046875,-0.0858629792928695,-0.017854630947113,0.0079300943762063
1769251709106,-0.3131103515625,-0.952911376953125,0.10723876953125,-0.0991801097989082,-0.0239556655287742,0.0087322387844324
1769251709116,-0.3105621337890625,-0.95196533203125,0.1045684814453125,-0.1089712232351303,-0.0140138203278183,-0.0028423918411135
1769251709126,-0.3224945068359375,-0.9522247314453124,0.101654052734375,-0.115931399166584,-0.0111410683020949,-0.0098052266985178
1769251709136,-0.31219482421875,-0.9590606689453124,0.0991668701171875,-0.1060209721326828,-0.0286681298166513,-0.0039966059848666
1769251709146,-0.293731689453125,-0.9549407958984376,0.0849609375,-0.0890332013368606,-0.0458481833338737,0.0066712186671793
1769251709156,-0.2779998779296875,-0.9439697265625,0.0760040283203125,-0.0662269592285156,-0.0446018241345882,0.0037350833881646
1769251709166,-0.29058837890625,-0.9405517578125,0.0628509521484375,-0.0457054376602172,-0.0187534485012292,0.0010096043115481
1769251709176,-0.2977752685546875,-0.9445648193359376,0.05792236328125,-0.0285227205604314,0.0102574313059449,0.0020871192682534
1769251709186,-0.2980804443359375,-0.9410552978515624,0.059539794921875,-0.0025664882268756,0.0231268908828496,-0.0054711978882551
1769251709196,-0.3016204833984375,-0.943450927734375,0.060333251953125,0.0318599268794059,0.0300937201827764,-0.0017041567480191
1769251709207,-0.2906341552734375,-0.947174072265625,0.0612640380859375,0.074515514075756,0.0496631599962711,0.0084163881838321
1769251709216,-0.28118896484375,-0.94091796875,0.05963134765625,0.1114993616938591,0.0596428252756595,0.0116699719801545
1769251709226,-0.282562255859375,-0.947784423828125,0.0719757080078125,0.1398795992136001,0.0552299655973911,0.0277117881923913
1769251709237,-0.2691192626953125,-0.9516448974609376,0.078521728515625,0.1645276993513107,0.0269692987203598,0.044933121651411
1769251709247,-0.2626190185546875,-0.9474639892578124,0.082122802734375,0.1818118691444397,0.0104395914822816,0.0621589794754982
1769251709257,-0.2634429931640625,-0.945831298828125,0.086517333984375,0.1935636103153228,-0.0073508573696017,0.0762998312711715
1769251709267,-0.270965576171875,-0.946563720703125,0.091461181640625,0.1992257535457611,-0.004659466445446,0.0933256894350051
1769251709277,-0.2766265869140625,-0.9598388671875,0.0987091064453125,0.2092144787311554,0.0033579797018319,0.09490467607975
1769251709287,-0.2875518798828125,-0.9785308837890624,0.0913543701171875,0.2158641219139099,0.0250302515923976,0.1004017069935798
1769251709297,-0.285125732421875,-0.96148681640625,0.0941009521484375,0.2236546576023101,0.0500655621290206,0.0955883041024208
1769251709307,-0.2968597412109375,-0.9365386962890624,0.09649658203125,0.2234080582857132,0.0770878568291664,0.093903861939907
1769251709317,-0.29937744140625,-0.9283447265625,0.103179931640625,0.2212889790534973,0.1107358336448669,0.1072974279522895
1769251709327,-0.2950897216796875,-0.9243927001953124,0.10931396484375,0.2119807004928589,0.1278125494718551,0.1181380897760391
1769251709337,-0.294830322265625,-0.93988037109375,0.12457275390625,0.1914959251880645,0.1295952796936035,0.1198728755116462
1769251709347,-0.29791259765625,-0.963470458984375,0.1432342529296875,0.1658989489078521,0.1080122217535972,0.115091435611248
1769251709357,-0.302154541015625,-0.9712371826171876,0.15081787109375,0.1416535377502441,0.0753205865621566,0.0970405265688896
1769251709367,-0.31396484375,-0.962005615234375,0.15582275390625,0.1247571110725402,0.0412670113146305,0.0749197825789451
1769251709377,-0.32684326171875,-0.946624755859375,0.150115966796875,0.1209791526198387,0.0050655985251069,0.0661952644586563
1769251709387,-0.3226165771484375,-0.9294281005859376,0.1380157470703125,0.1233616173267364,-0.0049273804761469,0.0775962546467781
1769251709397,-0.3115692138671875,-0.9300994873046876,0.123870849609375,0.1147862374782562,-0.0030200246255844,0.0771083682775497
1769251709407,-0.31585693359375,-0.9376373291015624,0.12408447265625,0.0956101492047309,0.0072158346883952,0.0736965909600257
1769251709418,-0.317138671875,-0.9438018798828124,0.12615966796875,0.0659577101469039,0.0029497172217816,0.0707860216498375
1769251709427,-0.3147125244140625,-0.951202392578125,0.1360931396484375,0.0375343263149261,-0.0064397896640002,0.0618923977017402
1769251709438,-0.3182525634765625,-0.9544830322265624,0.1406402587890625,0.0209987591952085,-0.0054107443429529,0.0389553867280483
1769251709448,-0.3300018310546875,-0.952606201171875,0.1391448974609375,0.0002103897277265,0.0057377805933356,0.0335113555192947
1769251709458,-0.3193817138671875,-0.9559783935546876,0.1426239013671875,-0.0166652631014585,0.0012447615154087,0.0344389341771602
1769251709468,-0.312896728515625,-0.958831787109375,0.1402587890625,-0.0291155409067869,-0.0157786961644887,0.0323741845786571
1769251709478,-0.3111724853515625,-0.95404052734375,0.13507080078125,-0.0398350320756435,-0.0162135902792215,0.0281333681195974
1769251709488,-0.313507080078125,-0.950439453125,0.1291351318359375,-0.0459291413426399,-0.015059377066791,0.0197121854871511
1769251709498,-0.3176116943359375,-0.943817138671875,0.1224822998046875,-0.0516243129968643,-0.0053052832372486,0.0168072097003459
1769251709508,-0.316192626953125,-0.9378204345703124,0.121124267578125,-0.0508525297045707,0.010054231621325,0.011764514259994
1769251709518,-0.3194732666015625,-0.93646240234375,0.1204681396484375,-0.0530530996620655,0.0185771472752094,0.0009542105835862
1769251709528,-0.327178955078125,-0.9384307861328124,0.12164306640625,-0.0522157996892929,0.0151158357039093,-0.0033798178192228
1769251709538,-0.3175201416015625,-0.941925048828125,0.1204681396484375,-0.0455080978572368,0.0152897406369447,0.0024093617685139
1769251709548,-0.3053131103515625,-0.9457855224609376,0.1193695068359375,-0.0392283610999584,0.0233058556914329,0.000713194545824
1769251709558,-0.3101959228515625,-0.9472503662109376,0.1253509521484375,-0.0370522923767566,0.0220206137746572,-0.0003619235940277
1769251709568,-0.3129119873046875,-0.9444122314453124,0.1285247802734375,-0.0295325927436351,0.0171981621533632,0.0043510724790394
1769251709578,-0.30474853515625,-0.9450836181640624,0.125396728515625,-0.0290833171457052,0.0159858912229537,0.0049196574836969
1769251709588,-0.3074493408203125,-0.9427947998046876,0.13116455078125,-0.032703086733818,0.0063899885863065,-0.0028916602022945
1769251709598,-0.3194732666015625,-0.9476776123046876,0.140777587890625,-0.047706801444292,0.0072635053656995,-0.0095690041780471
1769251709608,-0.332305908203125,-0.938018798828125,0.1474456787109375,-0.0590153820812702,0.0011430287268012,-0.0178540982306003
1769251709618,-0.334320068359375,-0.9347991943359376,0.145172119140625,-0.0570092238485813,-0.0015251922886818,-0.0136734675616025
1769251709629,-0.3153076171875,-0.9374847412109376,0.129364013671875,-0.047197338193655,-0.0102222776040434,-0.0129506858065724
1769251709638,-0.3071136474609375,-0.9299774169921876,0.1165771484375,-0.0381356664001941,-0.0109000522643327,-0.0224083699285984
1769251709648,-0.3112640380859375,-0.931396484375,0.1136016845703125,-0.0340032391250133,-0.0092004220932722,-0.022751385346055
1769251709659,-0.306854248046875,-0.9409027099609376,0.1113433837890625,-0.0344969891011714,-0.0067910607904195,-0.0246733892709016
1769251709669,-0.3116607666015625,-0.942840576171875,0.112518310546875,-0.0358754433691501,-0.0049047437496483,-0.0242177210748195
1769251709679,-0.312286376953125,-0.942626953125,0.11431884765625,-0.0398350320756435,-0.00808722153306,-0.0197049956768751
1769251709689,-0.3196258544921875,-0.9403076171875,0.118194580078125,-0.045339785516262,-0.0166442245244979,-0.0213713347911834
1769251709699,-0.3184814453125,-0.9416656494140624,0.1193389892578125,-0.0488791242241859,-0.0186274796724319,-0.0189862083643674
1769251709709,-0.316131591796875,-0.9465179443359376,0.1178741455078125,-0.0476881600916385,-0.0016642092959955,-0.0175246652215719
1769251709719,-0.3125457763671875,-0.94805908203125,0.111083984375,-0.0390312895178794,0.0069404640235006,-0.0193936713039875
1769251709729,-0.3076934814453125,-0.9478759765625,0.1041259765625,-0.0270225629210472,-0.0014564828015863,-0.0198237728327512
1769251709739,-0.3065032958984375,-0.950897216796875,0.0977783203125,-0.0178695451468229,-0.0116302911192178,-0.0299539044499397
1769251709749,-0.3155517578125,-0.949951171875,0.095489501953125,-0.0150881391018629,-0.0006410228670574,-0.0380595028400421
1769251709759,-0.31549072265625,-0.9482269287109376,0.100250244140625,-0.0109325423836708,-0.0014423680258914,-0.0433914177119731
1769251709769,-0.3155670166015625,-0.947601318359375,0.1008453369140625,-0.003434412414208,-0.0167267825454473,-0.0328713953495025
1769251709779,-0.303863525390625,-0.94757080078125,0.102386474609375,0.0025569009594619,-0.0316998735070228,-0.028880650177598
1769251709789,-0.310211181640625,-0.944732666015625,0.105560302734375,-0.0015909724170342,-0.014199442230165,-0.0419985838234424
1769251709799,-0.3234405517578125,-0.9331207275390624,0.1110076904296875,0.0074856132268905,0.0081623224541544,-0.032896164804697
1769251709809,-0.3073272705078125,-0.930633544921875,0.1043701171875,0.0170490238815546,0.0070997211150825,-0.0146899968385696
1769251709819,-0.29632568359375,-0.9418792724609376,0.10821533203125,0.0169291831552982,0.0033294840250164,-0.0075740301981568
1769251709830,-0.2930755615234375,-0.9468231201171876,0.1170806884765625,0.0162695180624723,-0.0045406897552311,-0.00804487708956
1769251709839,-0.2961883544921875,-0.9473114013671876,0.1220550537109375,0.0037364149466156,-0.000239684493863,-0.0193161740899086
1769251709850,-0.3130645751953125,-0.945404052734375,0.13262939453125,-0.0245634000748395,0.03341681137681,-0.0394126549363136
1769251709860,-0.327239990234375,-0.951080322265625,0.14825439453125,-0.0461376681923866,0.0377180837094783,-0.032219722867012
1769251709870,-0.3047637939453125,-0.94403076171875,0.1488800048828125,-0.0658684968948364,0.0232019927352666,-0.0222043711692094
1769251709880,-0.296173095703125,-0.943817138671875,0.1423492431640625,-0.081646129488945,-0.0004873584839515,-0.0252821873873472
1769251709890,-0.29876708984375,-0.94036865234375,0.1410675048828125,-0.1002246066927909,-0.0285821091383695,-0.026071548461914
1769251709900,-0.2994842529296875,-0.930328369140625,0.1363677978515625,-0.1175481975078582,-0.0350493304431438,-0.0179981756955385
1769251709910,-0.2991943359375,-0.9299468994140624,0.1357574462890625,-0.135443314909935,-0.0301331356167793,-0.0149813462048769
1769251709920,-0.30767822265625,-0.9364471435546876,0.1381378173828125,-0.1564750969409942,-0.0266441274434328,-0.0280292369425296
1769251709930,-0.3227081298828125,-0.943572998046875,0.1417388916015625,-0.1867973059415817,0.0013148026773706,-0.0501254834234714
1769251709940,-0.3355865478515625,-0.9460601806640624,0.147705078125,-0.2032564431428909,0.0075468658469617,-0.0574901923537254
1769251709950,-0.320098876953125,-0.943634033203125,0.1359100341796875,-0.2142236083745956,0.0014705975772812,-0.0540957264602184
1769251709960,-0.302825927734375,-0.9537506103515624,0.1239166259765625,-0.2192649692296981,-0.0064219464547932,-0.0569953769445419
1769251709970,-0.30145263671875,-0.9640960693359376,0.11431884765625,-0.2208498269319534,-0.0140993073582649,-0.0671984776854515
1769251709980,-0.302093505859375,-0.963958740234375,0.105072021484375,-0.2182116955518722,0.0037358824629336,-0.0797169357538223
1769251709991,-0.3079833984375,-0.947296142578125,0.092437744140625,-0.2056751251220703,0.0063543021678924,-0.0776508525013923
1769251710000,-0.30517578125,-0.9258575439453124,0.077972412109375,-0.1704399138689041,-0.0139347240328788,-0.0680871754884719
1769251710010,-0.29595947265625,-0.904205322265625,0.0592041015625,-0.1218398883938789,-0.0300399251282215,-0.055517055094242
1769251710020,-0.2952117919921875,-0.915252685546875,0.0503997802734375,-0.0697319433093071,-0.0436556003987789,-0.0438803732395172
1769251710031,-0.2903594970703125,-0.9589996337890624,0.05517578125,-0.0228312797844409,-0.0503393374383449,-0.045277465134859
1769251710040,-0.28106689453125,-0.9773406982421876,0.0524749755859375,0.0393695086240768,-0.0450124815106391,-0.044407945126295
1769251710051,-0.2710418701171875,-0.9682769775390624,0.041229248046875,0.0964104235172271,-0.0163131933659315,-0.0444713272154331
1769251710061,-0.274627685546875,-0.9608612060546876,0.0418548583984375,0.1544114053249359,-0.0167904309928417,-0.0324314422905445
1769251710070,-0.2793426513671875,-0.9425506591796876,0.04364013671875,0.2071672976016998,-0.0177204068750143,-0.0163374282419681
1769251710081,-0.28668212890625,-0.9352874755859376,0.04833984375,0.2389420121908188,-0.0341696888208389,0.0062379222363233
1769251710091,-0.28460693359375,-0.9339752197265624,0.0595550537109375,0.2553899586200714,-0.0364307127892971,0.0271296221762895
1769251710101,-0.282958984375,-0.93536376953125,0.0687408447265625,0.255270391702652,-0.0321829691529274,0.0436835661530494
1769251710111,-0.282562255859375,-0.940185546875,0.0813446044921875,0.2549521327018738,-0.0295621529221534,0.0688773319125175
1769251710121,-0.272705078125,-0.93707275390625,0.0856475830078125,0.2588661909103393,-0.0272409413009881,0.0852914601564407
1769251710131,-0.2729339599609375,-0.9352264404296876,0.0871124267578125,0.2606403827667236,-0.0330487638711929,0.1015801504254341
1769251710141,-0.278717041015625,-0.945526123046875,0.099334716796875,0.2507840096950531,-0.0104494448751211,0.102582037448883
1769251710151,-0.2953948974609375,-0.9480438232421876,0.1123809814453125,0.2356801629066467,0.0210213959217071,0.1013489887118339
1769251710161,-0.307373046875,-0.9470672607421876,0.12445068359375,0.2160556018352508,0.0143163548782467,0.101329818367958
1769251710171,-0.3097381591796875,-0.942413330078125,0.1406707763671875,0.2000188380479812,0.0013158678775653,0.0996941030025482
1769251710181,-0.311279296875,-0.9456634521484376,0.1500701904296875,0.1755696982145309,-0.0031342741567641,0.087872065603733
1769251710191,-0.31829833984375,-0.9496002197265624,0.1582794189453125,0.1512576937675476,-0.0146042425185441,0.0729378536343574
1769251710201,-0.3201141357421875,-0.9443359375,0.1602630615234375,0.1235544309020042,-0.0203316360712051,0.0561727248132228
1769251710211,-0.3222808837890625,-0.9420623779296876,0.1634521484375,0.0966471806168556,-0.01349663361907,0.0467081181704998
1769251710221,-0.32379150390625,-0.9416046142578124,0.1614837646484375,0.0719958990812301,-0.008674981072545,0.0419895276427269
1769251710232,-0.3178558349609375,-0.9378509521484376,0.1588287353515625,0.0536754801869392,5.965480886516161e-05,0.0404118709266185
1769251710241,-0.3159942626953125,-0.9399871826171876,0.155853271484375,0.0389980003237724,-0.000267914001597,0.0374608226120471
1769251710251,-0.314117431640625,-0.9388580322265624,0.15533447265625,0.0320870950818061,-0.0008652610122226,0.0306745562702417
1769251710262,-0.31707763671875,-0.9422607421875,0.1539459228515625,0.0218485742807388,-0.0005914880894124,0.0210187323391437
1769251710272,-0.3217315673828125,-0.94866943359375,0.1595306396484375,0.0049606701359152,-0.0114731639623641,0.0055241947993636
1769251710282,-0.3201904296875,-0.951446533203125,0.164031982421875,-0.0098134819418191,-0.0174327865242958,-0.000532632227987
1769251710292,-0.310882568359375,-0.94781494140625,0.1595916748046875,-0.0173640772700309,-0.0205667931586503,-0.0009765811264514
1769251710302,-0.30865478515625,-0.9424896240234376,0.146209716796875,-0.019726300612092,-0.0124244457110762,0.0033004553988575
1769251710313,-0.308837890625,-0.9347991943359376,0.136688232421875,-0.0191934015601873,-0.0083783045411109,-0.0017667410429567
1769251710322,-0.3143310546875,-0.93157958984375,0.131744384765625,-0.0158008001744747,-0.0067726848646998,-0.0016871124971657
1769251710332,-0.3100738525390625,-0.9258880615234376,0.1262359619140625,-0.0126401614397764,0.0038786276709288,-0.0063130231574177
1769251710342,-0.3140411376953125,-0.930877685546875,0.128753662109375,-0.0119804963469505,0.0012610068079084,-0.0101929828524589
1769251710352,-0.3082427978515625,-0.9331512451171876,0.1297607421875,-0.0098694087937474,-0.0065870624966919,-0.0059979711659252
1769251710362,-0.30096435546875,-0.9320526123046876,0.129669189453125,-0.0063897222280502,-0.0032264196779578,-0.0055606802925467
1769251710372,-0.30535888671875,-0.93084716796875,0.1278839111328125,-0.0072288843803107,-0.004670385736972,-0.004807005636394
1769251710382,-0.3061065673828125,-0.93115234375,0.1291961669921875,-0.0026775421574711,-0.0050746533088386,0.0009403621661476
1769251710392,-0.300537109375,-0.93212890625,0.1262664794921875,-0.0056416406296193,0.0033920682035386,-0.0047604003921151
1769251710402,-0.311767578125,-0.9464263916015624,0.13067626953125,-0.005805957596749,-0.0040653152391314,-0.0093514239415526
1769251710413,-0.3102264404296875,-0.94647216796875,0.1282806396484375,-0.0024767396971583,-0.0086057391017675,-0.011355185881257
1769251710422,-0.30450439453125,-0.9454498291015624,0.1208648681640625,0.0067740166559815,-0.0085516767576336,-0.0095948362722992
1769251710432,-0.303314208984375,-0.9465484619140624,0.118743896484375,0.0097498325631022,-0.0023931164760142,-0.0055902414023876
1769251710442,-0.303924560546875,-0.944976806640625,0.1232452392578125,0.0058411112986505,-0.002649845322594,-0.0094939032569527
1769251710452,-0.3079376220703125,-0.944732666015625,0.1316070556640625,0.0016016251174733,0.0020817930344492,-0.0098233362659811
1769251710463,-0.30914306640625,-0.9457855224609376,0.1340484619140625,-0.007954329252243,-0.000760865106713,-0.0110526513308286
1769251710473,-0.310455322265625,-0.9469451904296876,0.14447021484375,-0.0244555417448282,-0.0161733776330947,-0.0185968540608882
1769251710483,-0.3174285888671875,-0.937347412109375,0.15118408203125,-0.0441368333995342,-0.0267333425581455,-0.0234832223504781
1769251710492,-0.3170928955078125,-0.9307403564453124,0.153900146484375,-0.053500510752201,-0.0359209813177585,-0.0176018960773944
1769251710503,-0.3057403564453125,-0.93280029296875,0.1487884521484375,-0.0631403550505638,-0.036912478506565,-0.0106433229520916
1769251710513,-0.29925537109375,-0.9445953369140624,0.1480560302734375,-0.0778228938579559,-0.0403290465474128,-0.0035358788445591
1769251710523,-0.2946929931640625,-0.933929443359375,0.1531219482421875,-0.0901605188846588,-0.0371564216911792,-0.0147848045453429
1769251710533,-0.3083343505859375,-0.9517822265625,0.1555328369140625,-0.0945667177438736,-0.0464974604547023,0.0047779772430658
1769251710543,-0.280364990234375,-0.920501708984375,0.143463134765625,-0.0813939273357391,-0.0196826253086328,0.0113818179816007
1769251710553,-0.286773681640625,-0.9004058837890625,0.1292877197265625,-0.091541901230812,-0.0141666857525706,0.013309147208929
1769251710563,-0.3079376220703125,-0.930572509765625,0.143768310546875,-0.1018754988908767,-0.0409093499183654,0.0209699962288141
1769251710573,-0.312164306640625,-0.95379638671875,0.139862060546875,-0.103107213973999,-0.0445972941815853,0.0214504301548004
1769251710583,-0.309326171875,-0.9713592529296876,0.1219024658203125,-0.0932282134890556,-0.0125799737870693,0.0129349734634161
1769251710593,-0.3055572509765625,-0.9472503662109376,0.1064300537109375,-0.0749362930655479,0.0064262077212333,0.0101466439664363
1769251710603,-0.3001251220703125,-0.9322967529296876,0.100616455078125,-0.0613222122192382,0.0044275051914155,0.0206538792699575
1769251710613,-0.299468994140625,-0.9317169189453124,0.1076812744140625,-0.055052600800991,0.0015182681381702,0.0316745713353157
1769251710623,-0.305267333984375,-0.9351348876953124,0.1148681640625,-0.0598215200006961,0.0026370619889348,0.0392757654190063
1769251710633,-0.308013916015625,-0.9390869140625,0.1211090087890625,-0.0649872571229934,-0.0106023102998733,0.049214418977499
1769251710643,-0.3044586181640625,-0.94683837890625,0.1227569580078125,-0.065545454621315,-0.0106505136936903,0.0569937787950038
1769251710653,-0.30364990234375,-0.954742431640625,0.1177978515625,-0.0670314952731132,-0.0090837758034467,0.0569953769445419
1769251710664,-0.3073577880859375,-0.9618377685546876,0.116851806640625,-0.0679492205381393,-0.0309680365025997,0.0520586743950843
1769251710673,-0.3155670166015625,-0.952362060546875,0.111419677734375,-0.0659601092338562,-0.0724073573946952,0.0438649244606494
1769251710684,-0.3246002197265625,-0.9327545166015624,0.1030731201171875,-0.0436348281800746,-0.1282258778810501,0.043311521410942
1769251710694,-0.31707763671875,-0.9029083251953124,0.0919342041015625,-0.0089181270450353,-0.1104191839694976,0.0396874919533729
1769251710704,-0.3212127685546875,-0.9227142333984376,0.0813751220703125,0.0276686456054449,-0.0644418373703956,0.0440912954509258
1769251710714,-0.30950927734375,-0.9567413330078124,0.082122802734375,0.0492980405688285,-0.0932705551385879,0.04550277069211
1769251710724,-0.2960052490234375,-0.976348876953125,0.10211181640625,0.0585013926029205,-0.0683337822556495,0.0218435134738683
1769251710734,-0.3130645751953125,-0.9790802001953124,0.111053466796875,0.0765198096632957,0.0159621890634298,-0.004431233741343
1769251710744,-0.320648193359375,-0.9599456787109376,0.1112060546875,0.1028504818677902,0.0199627894908189,-0.0151834804564714
1769251710754,-0.31903076171875,-0.9271697998046876,0.119598388671875,0.1031279861927032,-0.0004458131734281,-0.0247253198176622
1769251710764,-0.3340911865234375,-0.924072265625,0.1395263671875,0.0974623709917068,-0.0093530220910906,-0.032384306192398
1769251710774,-0.3329925537109375,-0.9251861572265624,0.14239501953125,0.0904350876808166,-0.0015302523970603,-0.0252723339945077
1769251710784,-0.3159332275390625,-0.923126220703125,0.13616943359375,0.0797419697046279,0.0239053331315517,-0.0177326574921607
1769251710794,-0.3077239990234375,-0.937042236328125,0.1320037841796875,0.0669129863381385,0.030147248879075,0.0018919096328318
1769251710804,-0.2899322509765625,-0.9447174072265624,0.13037109375,0.0414102897047996,0.0380509793758392,0.0055809202603995
1769251710814,-0.2960968017578125,-0.9416351318359376,0.1389312744140625,0.0097775291651487,0.026313629001379,0.003948668949306
1769251710824,-0.3089447021484375,-0.94482421875,0.14739990234375,-0.0179656837135553,0.0215399134904146,0.0022085595410317
1769251710834,-0.316802978515625,-0.9517974853515624,0.145355224609375,-0.0440923608839511,0.0033427998423576,0.006467486731708
1769251710844,-0.31689453125,-0.953460693359375,0.144805908203125,-0.0720912367105484,-0.0048855687491595,0.0138894505798816
1769251710854,-0.315155029296875,-0.951690673828125,0.139739990234375,-0.0929709523916244,-0.0065535069443285,0.0016013587592169
1769251710865,-0.323394775390625,-0.9522705078125,0.1349334716796875,-0.1126463860273361,-0.0102220112457871,0.0013049489352852
1769251710874,-0.3115081787109375,-0.9510498046875,0.13128662109375,-0.1157537624239921,-0.009882990270853,0.0028690234757959
1769251710885,-0.305877685546875,-0.9458770751953124,0.11810302734375,-0.1141121909022331,-0.0020913803018629,0.0018221348291262
1769251710894,-0.3077239990234375,-0.9512939453125,0.113494873046875,-0.1008722856640815,0.0054632085375487,-0.0007392935222014
1769251710905,-0.3092498779296875,-0.9517974853515624,0.1045989990234375,-0.0792785733938217,0.0125954207032918,-0.0040906155481934
1769251710915,-0.3092498779296875,-0.9503631591796876,0.100311279296875,-0.065646655857563,0.0343822091817855,-0.0121352262794971
1769251710925,-0.317657470703125,-0.9539794921875,0.110260009765625,-0.0527593530714511,0.03854526206851,-0.0159744396805763
1769251710935,-0.3161468505859375,-0.94635009765625,0.1172637939453125,-0.035751074552536,0.0284753162413835,-0.0213830526918172
1769251710945,-0.3147735595703125,-0.941497802734375,0.11785888671875,-0.0280012749135494,0.0191678348928689,-0.0281866304576396
1769251710955,-0.32135009765625,-0.9507904052734376,0.1285858154296875,-0.0223742816597223,0.0070832096971571,-0.0345904678106308
1769251710965,-0.318115234375,-0.9537506103515624,0.1358642578125,-0.0175907108932733,-0.0042559974826872,-0.0388419367372989
1769251710975,-0.31195068359375,-0.9549102783203124,0.1324310302734375,-0.0097546260803937,-0.0025172198656946,-0.0442870371043682
1769251710985,-0.3143157958984375,-0.947998046875,0.1275787353515625,-0.0034735610242933,0.0036549223586916,-0.044048685580492
1769251710995,-0.3125762939453125,-0.9456024169921876,0.1233367919921875,-0.0008127967594191,0.0064714811742305,-0.0455749407410621
1769251711005,-0.3137969970703125,-0.9378204345703124,0.1229095458984375,-0.0019829897210001,0.0100630205124616,-0.0527343191206455
1769251711015,-0.31146240234375,-0.9296417236328124,0.1260833740234375,-0.0047814394347369,0.0041153826750814,-0.0548912100493907
1769251711026,-0.3058929443359375,-0.9322052001953124,0.1302032470703125,-0.0118143148720264,-0.0014327806420624,-0.0552789680659771
1769251711035,-0.3014678955078125,-0.939453125,0.134796142578125,-0.0192517247051,-0.0042807650752365,-0.0510389506816864
1769251711045,-0.2948760986328125,-0.9379425048828124,0.1326141357421875,-0.0271647758781909,-0.002544383984059,-0.0449032932519912
1769251711055,-0.2952423095703125,-0.9349822998046876,0.1235809326171875,-0.032284703105688,0.0058075552806258,-0.040505614131689
1769251711065,-0.3004608154296875,-0.9351806640625,0.1226348876953125,-0.036470927298069,0.0087966872379183,-0.0243210513144731
1769251711075,-0.293365478515625,-0.9375,0.1160430908203125,-0.0361113995313644,0.0031340080313384,-0.0116513296961784
1769251711085,-0.29510498046875,-0.944183349609375,0.1135101318359375,-0.0452934466302394,-0.004041080828756,-0.0121730426326394
1769251711095,-0.3076171875,-0.9473724365234376,0.1187744140625,-0.0444550812244415,-0.004890096373856,-0.0042597260326147
1769251711106,-0.30126953125,-0.9458160400390624,0.11309814453125,-0.0388797558844089,-5.219795639277436e-05,0.0046892939135432
1769251711116,-0.297088623046875,-0.9461822509765624,0.1058807373046875,-0.0254955068230628,-0.0059015648439526,0.0113759590312838
1769251711126,-0.2918701171875,-0.9495697021484376,0.09881591796875,-0.001358478446491,0.0017584852175787,0.020754812285304
1769251711136,-0.2870941162109375,-0.9436798095703124,0.090484619140625,0.0174532923847436,0.0197569262236356,0.0265109688043594
1769251711146,-0.2903594970703125,-0.941802978515625,0.0928192138671875,0.0343001820147037,0.0249098762869834,0.0240430179983377
1769251711156,-0.30303955078125,-0.9425506591796876,0.1036224365234375,0.0423980578780174,0.0271011255681514,0.0222975816577672
1769251711166,-0.3084716796875,-0.944000244140625,0.1073150634765625,0.0460947901010513,0.0370016917586326,0.0154572529718279
1769251711176,-0.314697265625,-0.9447174072265624,0.11480712890625,0.0387857444584369,0.0431301593780517,0.0058235344476997
1769251711186,-0.322265625,-0.943878173828125,0.1242218017578125,0.0289602782577276,0.0390238314867019,0.0021358551457524
1769251711196,-0.3167572021484375,-0.93963623046875,0.1273040771484375,0.021416874602437,0.0258121564984321,0.003401655703783
1769251711206,-0.308258056640625,-0.9383544921875,0.1258392333984375,0.0067154271528124,0.0079343561083078,0.0096726007759571
1769251711216,-0.3035888671875,-0.944244384765625,0.1267547607421875,-0.0052738580852746,0.0004167847218923,0.0198951456695795
1769251711226,-0.2997589111328125,-0.942413330078125,0.121368408203125,-0.0087588708847761,0.0053236591629683,0.0343957915902137
1769251711236,-0.2950897216796875,-0.9399871826171876,0.1126251220703125,-0.0083663202822208,-0.0001563275582157,0.0484903044998645
1769251711246,-0.2930908203125,-0.9379730224609376,0.106658935546875,-0.0086773773655295,-0.0080310283228755,0.0598316416144371
1769251711256,-0.298675537109375,-0.9367828369140624,0.109405517578125,-0.0074382089078426,0.0034770229831337,0.0615400597453117
1769251711266,-0.306884765625,-0.9360809326171876,0.111968994140625,-0.0073007899336516,0.0066480487585067,0.0562872402369976
1769251711276,-0.316986083984375,-0.932373046875,0.1187591552734375,-0.0164138600230216,0.0081420820206403,0.0450002327561378
1769251711286,-0.3239593505859375,-0.9324798583984376,0.131195068359375,-0.0357944816350936,-0.0021174794528633,0.0289608109742403
1769251711297,-0.337432861328125,-0.9388275146484376,0.143768310546875,-0.0520011484622955,-0.0096361152827739,0.0160439480096101
1769251711306,-0.329193115234375,-0.940338134765625,0.1431884765625,-0.0597919598221778,-0.012477708980441,0.0133879771456122
1769251711317,-0.3148651123046875,-0.9483795166015624,0.1337738037109375,-0.0607704073190689,-0.0067300745286047,0.0128830419853329
1769251711327,-0.311492919921875,-0.9538116455078124,0.1253204345703125,-0.0650434494018554,0.003801129758358,0.0011478224769234
1769251711337,-0.318115234375,-0.9609527587890624,0.129241943359375,-0.0673023387789726,-0.004008057527244,-0.0085743134841322
1769251711347,-0.3199005126953125,-0.963653564453125,0.129730224609375,-0.0649915188550949,-0.0187720898538827,-0.0171422343701124
1769251711357,-0.3220672607421875,-0.947509765625,0.1164398193359375,-0.0513835623860359,-0.0147166280075907,-0.0271269585937261
1769251711367,-0.334625244140625,-0.926666259765625,0.1029510498046875,-0.0421503819525241,-0.0119549296796321,-0.0356408171355724
1769251711377,-0.3358917236328125,-0.912353515625,0.0998077392578125,-0.0246494207531213,-0.006744721904397,-0.0345574431121349
1769251711387,-0.3245086669921875,-0.9096221923828124,0.0931396484375,0.006190251559019,0.0041342913173139,-0.0246776491403579
1769251711397,-0.3070831298828125,-0.9298248291015624,0.0875091552734375,0.035681564360857,0.0189169663935899,-0.0131831802427768
1769251711407,-0.2881622314453125,-0.9624176025390624,0.0931243896484375,0.0627480670809745,0.0138143487274646,-0.0066160908900201
1769251711417,-0.270660400390625,-0.9781341552734376,0.1003265380859375,0.0888619646430015,0.0032397354952991,-0.0228901356458663
1769251711427,-0.291259765625,-0.9724884033203124,0.11468505859375,0.0911472216248512,0.0007099987124092,-0.0756018161773681
1769251711437,-0.3394012451171875,-0.9387054443359376,0.1410980224609375,0.0890747457742691,-0.0142740104347467,-0.0868904218077659
1769251711447,-0.33197021484375,-0.918182373046875,0.1468963623046875,0.0766628161072731,-0.0351750329136848,-0.0871958881616592
1769251711457,-0.332183837890625,-0.9164581298828124,0.15679931640625,0.0614740140736103,-0.0616689585149288,-0.0899461358785629
1769251711467,-0.3280181884765625,-0.912017822265625,0.1494140625,0.0477693863213062,-0.0579826086759567,-0.0851436555385589
1769251711477,-0.313201904296875,-0.9180908203125,0.13995361328125,0.0330745950341224,-0.0522200614213943,-0.0794772505760192
1769251711487,-0.300079345703125,-0.924163818359375,0.133544921875,0.0242134612053632,-0.059213787317276,-0.0646556913852691
1769251711498,-0.2867279052734375,-0.9287109375,0.1293182373046875,0.0165917593985795,-0.0742819532752037,-0.0555918887257576
1769251711507,-0.28955078125,-0.9312286376953124,0.1318206787109375,0.0122521389275789,-0.0790913552045822,-0.0476077310740947
1769251711518,-0.2922210693359375,-0.94097900390625,0.1320037841796875,0.0025819346774369,-0.0583173669874668,-0.0369636118412017
1769251711528,-0.29156494140625,-0.9511871337890624,0.1251983642578125,-0.0113285547122359,-0.029070533812046,-0.0218128878623247
1769251711538,-0.2853546142578125,-0.9525604248046876,0.11700439453125,-0.0202331002801656,-0.0047936900518834,-0.0078717712312936
1769251711548,-0.2796630859375,-0.9514007568359376,0.1065521240234375,-0.026795394718647,0.0108941933140158,0.0032402679789811
1769251711558,-0.280059814453125,-0.9530181884765624,0.103118896484375,-0.0321121290326118,0.0223636291921138,0.0120494719594717
1769251711568,-0.2856292724609375,-0.950408935546875,0.1059417724609375,-0.0334951095283031,0.0225330051034688,0.0144745465368032
1769251711578,-0.292449951171875,-0.9490203857421876,0.110015869140625,-0.0347838141024112,0.019300727173686,0.016457537189126
1769251711588,-0.2966156005859375,-0.9470367431640624,0.114410400390625,-0.0365934297442436,0.0260449163615703,0.016891898587346
1769251711598,-0.2979278564453125,-0.9474639892578124,0.114715576171875,-0.0387412719428539,0.0392797626554966,0.0220653545111417
1769251711608,-0.29632568359375,-0.9510040283203124,0.1167449951171875,-0.036072514951229,0.0409141443669796,0.0296532325446605
1769251711618,-0.29400634765625,-0.9531097412109376,0.1187896728515625,-0.0341406613588333,0.0368706658482551,0.0329006910324096
1769251711629,-0.293731689453125,-0.951141357421875,0.1215972900390625,-0.0301895942538976,0.0236829593777656,0.0460228845477104
1769251711639,-0.288970947265625,-0.9499053955078124,0.1239166259765625,-0.0320849642157554,0.0086997486650943,0.0450028963387012
1769251711648,-0.298004150390625,-0.9557647705078124,0.1284942626953125,-0.041915226727724,-0.000214650775888,0.0420060381293296
1769251711658,-0.303619384765625,-0.9511871337890624,0.13720703125,-0.054261639714241,0.005299690645188,0.0352477356791496
1769251711668,-0.3116912841796875,-0.9500885009765624,0.1367340087890625,-0.0598476193845272,0.0136620160192251,0.0353915467858314
1769251711678,-0.3157501220703125,-0.9445953369140624,0.128326416015625,-0.061708103865385,0.0154290236532688,0.0442952923476696
1769251711688,-0.3083648681640625,-0.9378509521484376,0.123138427734375,-0.0651257410645484,0.0197675786912441,0.0433011353015899
1769251711698,-0.3097381591796875,-0.937744140625,0.12445068359375,-0.0682448372244834,0.0192306861281394,0.0465384721755981
1769251711708,-0.30352783203125,-0.935546875,0.1229400634765625,-0.0688672140240669,0.0235303603112697,0.042139995843172
1769251711718,-0.303131103515625,-0.9329986572265624,0.11932373046875,-0.0679990276694297,0.0226381998509168,0.0439581349492073
1769251711728,-0.297149658203125,-0.936492919921875,0.11627197265625,-0.0653411895036697,0.019332418218255,0.0405231900513172
1769251711739,-0.302337646484375,-0.9411468505859376,0.113433837890625,-0.0571373216807842,0.0051891691982746,0.042369294911623
1769251711749,-0.300537109375,-0.93804931640625,0.1035003662109375,-0.0480652637779712,-0.0060392501763999,0.0476285070180892
1769251711759,-0.300537109375,-0.9374237060546876,0.10040283203125,-0.040811613202095,-0.011297395452857,0.0499710217118263
1769251711769,-0.30487060546875,-0.94525146484375,0.0998992919921875,-0.0374152809381485,-0.00735724857077,0.0457640253007411
1769251711779,-0.309478759765625,-0.951873779296875,0.10198974609375,-0.0350464023649692,0.010211625136435,0.0439815707504749
1769251711789,-0.3117218017578125,-0.957855224609375,0.1024932861328125,-0.0325587429106235,0.0219676159322261,0.0392619185149669
1769251711799,-0.3145294189453125,-0.965911865234375,0.1027374267578125,-0.0232163723558187,0.0178074929863214,0.0400893613696098
1769251711809,-0.3095550537109375,-0.9593658447265624,0.096221923828125,-0.0128132672980427,0.0143813360482454,0.0308234263211488
1769251711819,-0.31573486328125,-0.9579010009765624,0.096435546875,-0.0034253578633069,0.0163962841033935,0.0256896503269672
1769251711829,-0.3169403076171875,-0.9554901123046876,0.0984649658203125,0.0019185412675142,0.0159848257899284,0.0132620092481374
1769251711839,-0.3249053955078125,-0.9517059326171876,0.10101318359375,0.0057007623836398,0.0139411156997084,0.0008689894457347
1769251711849,-0.331298828125,-0.9484405517578124,0.106536865234375,0.0064222128130495,0.0063353939913213,-0.0090190609917044
1769251711859,-0.3304290771484375,-0.949249267578125,0.1077880859375,0.0058245994150638,0.0054080812260508,-0.0149776181206107
1769251711869,-0.327056884765625,-0.95159912109375,0.1107025146484375,0.0024977787397801,0.0072608422487974,-0.0272521264851093
1769251711879,-0.3273162841796875,-0.9485015869140624,0.11590576171875,-0.0010540791554376,0.007717574480921,-0.03753512352705
1769251711889,-0.3231048583984375,-0.9454498291015624,0.119384765625,-0.0058344532735645,0.0100489053875207,-0.0387788191437721
1769251711900,-0.3143310546875,-0.94671630859375,0.1201629638671875,-0.0071955947205424,0.0118822259828448,-0.038513571023941
1769251711909,-0.3088836669921875,-0.9455718994140624,0.1203765869140625,-0.0094089480116963,0.001055677072145,-0.0366152673959732
1769251711920,-0.307586669921875,-0.9379119873046876,0.118560791015625,-0.0083056008443236,0.0042554652318358,-0.0319784395396709
1769251711929,-0.3045806884765625,-0.9328765869140624,0.1143798828125,-0.0098779303953051,0.0113703664392232,-0.0262004453688859
1769251711940,-0.3032684326171875,-0.9403533935546876,0.115142822265625,-0.01503327768296,0.0111083108931779,-0.0232438035309314
1769251711950,-0.3059234619140625,-0.9391326904296876,0.1173095703125,-0.0180887226015329,0.0055652079172432,-0.0264430586248636
1769251711960,-0.3073272705078125,-0.933135986328125,0.11810302734375,-0.0209785178303718,0.0087921600788831,-0.028758144006133
1769251711970,-0.3100433349609375,-0.9330902099609376,0.1151275634765625,-0.0265743527561426,0.0004277036641724,-0.0218690801411867
1769251711980,-0.30450439453125,-0.938232421875,0.1165771484375,-0.0259607601910829,-0.0141171505674719,-0.0104537066072225
1769251711990,-0.2954559326171875,-0.9454345703125,0.115203857421875,-0.030973894521594,-0.0280822347849607,-0.0068499166518449
1769251712000,-0.300140380859375,-0.9501495361328124,0.1155548095703125,-0.0389998629689216,-0.0206773150712251,-0.0068805427290499
1769251712010,-0.3065338134765625,-0.9499359130859376,0.1142425537109375,-0.0427495948970317,-0.0162705816328525,-0.0023025691043585
1769251712020,-0.305450439453125,-0.956939697265625,0.1108245849609375,-0.0443738549947738,-0.0237580593675375,0.0100097572430968
1769251712030,-0.2982025146484375,-0.958282470703125,0.1084747314453125,-0.0418744795024395,-0.0283014122396707,0.0156772304326295
1769251712040,-0.2974853515625,-0.9486846923828124,0.1006927490234375,-0.0412997677922248,-0.0380453877151012,0.0254361182451248
1769251712050,-0.3024139404296875,-0.933563232421875,0.1046600341796875,-0.0454513728618621,-0.1022957414388656,0.0268241576850414
1769251712060,-0.3145294189453125,-0.91717529296875,0.1116180419921875,-0.0415301322937011,-0.1060025990009307,0.0115613145753741
1769251712070,-0.339874267578125,-0.9180145263671876,0.1004638671875,-0.0394600592553615,-0.0960098877549171,0.024017984047532
1769251712080,-0.31707763671875,-0.929962158203125,0.109100341796875,-0.0420393273234367,-0.0869732499122619,0.0335457101464271
1769251712090,-0.3031005859375,-0.9649505615234376,0.1175384521484375,-0.0380925238132476,-0.0588393472135067,0.0178977735340595
1769251712100,-0.3005523681640625,-0.969635009765625,0.113555908203125,-0.0298290010541677,-0.0298745427280664,0.0028125643730163
1769251712110,-0.3023681640625,-0.9677734375,0.1177215576171875,-0.0193904750049114,-0.0239151865243911,-0.0106923254206776
1769251712120,-0.3139801025390625,-0.9487457275390624,0.115692138671875,-0.0056126117706298,-0.0234006643295288,-0.0180072300136089
1769251712131,-0.3229217529296875,-0.932281494140625,0.1047821044921875,0.0062075620517134,-0.0194751638919115,-0.0264116339385509
1769251712140,-0.328948974609375,-0.931640625,0.105712890625,-7.909588020993397e-05,-0.0037518613971769,-0.0196874178946018
1769251712151,-0.3195648193359375,-0.9324493408203124,0.108489990234375,-0.0146029107272624,0.0098734032362699,-0.0182588994503021
1769251712161,-0.3231353759765625,-0.937591552734375,0.109954833984375,-0.045277465134859,0.0112310824915766,-0.0242163892835378
1769251712171,-0.3213958740234375,-0.9358978271484376,0.1214447021484375,-0.0800516903400421,0.0215713381767272,-0.0308716297149658
1769251712181,-0.317626953125,-0.9392852783203124,0.12493896484375,-0.1155513599514961,0.0432124510407447,-0.0307989250868558
1769251712191,-0.31500244140625,-0.9448394775390624,0.128631591796875,-0.1351191997528076,0.0527809225022792,-0.0320761762559413
1769251712201,-0.309478759765625,-0.95404052734375,0.1178436279296875,-0.1495178490877151,0.0267541166394948,-0.0366775877773761
1769251712211,-0.3004913330078125,-0.9487457275390624,0.1145172119140625,-0.1581558138132095,0.0161629915237426,-0.0383391343057155
1769251712221,-0.29840087890625,-0.948974609375,0.10784912109375,-0.1601955294609069,0.0337752737104892,-0.0323965549468994
1769251712231,-0.2949371337890625,-0.9506072998046876,0.0982666015625,-0.1457247138023376,0.0762702673673629,-0.0280103292316198
1769251712241,-0.291778564453125,-0.9476318359375,0.0833282470703125,-0.1340866982936859,0.1037053540349006,-0.0055652079172432
1769251712251,-0.2764129638671875,-0.9488525390625,0.0840301513671875,-0.126978725194931,0.1106298416852951,0.0071756211109459
1769251712261,-0.282196044921875,-0.951690673828125,0.088531494140625,-0.1305580139160156,0.0962634161114692,0.0051556136459112
1769251712271,-0.30804443359375,-0.9542388916015624,0.0994110107421875,-0.1424093395471573,0.0910849049687385,-0.0055894423276185
1769251712281,-0.3164825439453125,-0.9481201171875,0.1067962646484375,-0.1499628722667694,0.1069975569844245,-0.0087335705757141
1769251712291,-0.3119049072265625,-0.94476318359375,0.1047210693359375,-0.1565384715795517,0.0945568680763244,-0.0120092583820223
1769251712301,-0.3119659423828125,-0.943267822265625,0.1110992431640625,-0.1473782658576965,0.0441637337207794,-0.0078978706151247
1769251712311,-0.2970733642578125,-0.9371795654296876,0.1036376953125,-0.1227384358644485,0.0256478395313024,0.0051646684296429
1769251712321,-0.280242919921875,-0.941558837890625,0.0877685546875,-0.0987638607621193,0.0482586100697517,0.0152111770585179
1769251712332,-0.2772979736328125,-0.9539337158203124,0.0795745849609375,-0.0564233288168907,0.0682791918516159,0.0211750604212284
1769251712341,-0.269134521484375,-0.9422760009765624,0.0601959228515625,-0.0022082931827753,0.1018073186278343,0.0353555940091609
1769251712352,-0.26519775390625,-0.9359283447265624,0.0447998046875,0.0529614835977554,0.1517474502325058,0.0632197186350822
1769251712362,-0.2633056640625,-0.930938720703125,0.032470703125,0.1019404828548431,0.2540083229541778,0.0970634296536445
1769251712372,-0.26806640625,-0.9305877685546876,0.017333984375,0.1272689998149871,0.3427885174751282,0.1116303876042366
1769251712383,-0.2947998046875,-0.9283905029296876,0.034759521484375,0.1316344588994979,0.3682307600975036,0.0875567495822906
1769251712392,-0.3444366455078125,-0.93377685546875,0.0718231201171875,0.1199192106723785,0.2772473096847534,0.0623706988990306
1769251712402,-0.362701416015625,-0.93377685546875,0.11004638671875,0.0998741313815116,0.1632152944803238,0.0352117829024791
1769251712412,-0.3663787841796875,-0.9407501220703124,0.1228179931640625,0.0688493698835372,0.0809342637658119,0.0143706835806369
1769251712422,-0.3602447509765625,-0.9376068115234376,0.12841796875,0.0436758399009704,0.0253096166998147,-0.0020937772933393
1769251712432,-0.3488922119140625,-0.94049072265625,0.1231689453125,0.0226421952247619,-0.0169510208070278,-0.0085173221305012
1769251712442,-0.331573486328125,-0.939422607421875,0.1157684326171875,-0.0052584116347134,0.0036746296100318,-0.0127331055700778
1769251712452,-0.32110595703125,-0.9409027099609376,0.110931396484375,-0.0261969827115535,0.0270824842154979,-0.0054632085375487
1769251712462,-0.311798095703125,-0.9462890625,0.101287841796875,-0.042414303869009,0.0197260342538356,-0.0063902549445629
1769251712472,-0.3169097900390625,-0.9513702392578124,0.09771728515625,-0.0439815707504749,0.0175334531813859,-0.0047020772472023
1769251712482,-0.3069915771484375,-0.9501953125,0.085174560546875,-0.04085049405694,0.0106278769671916,-0.0016793893883004
1769251712492,-0.3096771240234375,-0.9512939453125,0.0770111083984375,-0.0366450957953929,0.0067873322404921,-0.0062845274806022
1769251712502,-0.3167572021484375,-0.9505767822265624,0.076507568359375,-0.0300401896238327,0.0106824720278382,-0.0121163176372647
1769251712512,-0.321136474609375,-0.95037841796875,0.0706634521484375,-0.0234464704990386,0.0068728197365999,-0.0217660162597894
1769251712522,-0.3266143798828125,-0.9481353759765624,0.0730743408203125,-0.0182421207427978,-0.0034895399585366,-0.0373180769383907
1769251712532,-0.33233642578125,-0.9487152099609376,0.0758209228515625,-0.0160767044872045,-0.0196357537060976,-0.0460559092462062
1769251712543,-0.3282318115234375,-0.9469757080078124,0.0772857666015625,-0.0122124580666422,-0.0186117682605981,-0.0482239872217178
1769251712552,-0.318328857421875,-0.946563720703125,0.081024169921875,-0.0146708218380808,-0.0207052789628505,-0.053485594689846
1769251712563,-0.317352294921875,-0.9509124755859376,0.0930938720703125,-0.0172263905405998,-0.0071050473488867,-0.0496479794383049
1769251712573,-0.3014678955078125,-0.94561767578125,0.087890625,-0.0128497518599033,0.0076672406867146,-0.0400912277400493
1769251712583,-0.2980194091796875,-0.9437103271484376,0.0845947265625,-0.0178008340299129,-0.0019827233627438,-0.0420475862920284
1769251712593,-0.307586669921875,-0.9442901611328124,0.09503173828125,-0.0208898354321718,-0.0140734743326902,-0.0422822088003158
