timestamp_ms,acc_x,acc_y,acc_z,gyro_x,gyro_y,gyro_z
1770453396414,0.1327667236328125,-0.47625732421875,-0.8455657958984375,-0.0929334014654159,0.025618277490139,0.0139192780479788
1770453396426,0.132659912109375,-0.471832275390625,-0.8487091064453125,-0.1050851419568061,0.036384105682373,0.0153001267462968
1770453396439,0.1295166015625,-0.4719696044921875,-0.8548126220703125,-0.1021990701556205,0.0413125529885292,0.0166815090924501
1770453396443,0.129638671875,-0.4718170166015625,-0.8678436279296875,-0.1021990701556205,0.0413125529885292,0.0166815090924501
1770453396454,0.129730224609375,-0.47332763671875,-0.8748016357421875,-0.0880417078733444,0.0336780697107315,0.0167550109326839
1770453396464,0.1283416748046875,-0.471649169921875,-0.8760528564453125,-0.0752510800957679,0.0243996158242225,0.0135861160233616
1770453396474,0.1306610107421875,-0.4681854248046875,-0.8772125244140625,-0.0567753985524177,0.0142484446987509,0.0156572572886943
1770453396486,0.1293182373046875,-0.4732818603515625,-0.8827056884765625,-0.0339081659913063,0.0021800636313855,0.0138724064454436
1770453396494,0.128143310546875,-0.4822845458984375,-0.88702392578125,-0.008780974894762,-0.0068299430422484,0.0126348352059721
1770453396504,0.126861572265625,-0.4797515869140625,-0.879730224609375,0.0091863078996539,-0.0142066329717636,0.0122745092958211
1770453396514,0.1232147216796875,-0.47265625,-0.8672637939453125,0.0092566153034567,-0.0121698472648859,0.0113349463790655
1770453396524,0.113739013671875,-0.4705352783203125,-0.8575439453125,-0.0072999908588826,-0.0049390983767807,0.0033678335603326
1770453396534,0.108856201171875,-0.4629364013671875,-0.8576507568359375,-0.0233513955026865,0.0073117087595164,-0.0059588230215013
1770453396544,0.10009765625,-0.4498291015625,-0.8659210205078125,-0.03582164645195,0.0145781440660357,-0.0260489117354154
1770453396554,0.095550537109375,-0.46453857421875,-0.8789520263671875,-0.0411109514534473,0.0093953656032681,-0.0438175201416015
1770453396564,0.100982666015625,-0.4726104736328125,-0.8938446044921875,-0.035758264362812,0.0008703210623934,-0.0528032928705215
1770453396574,0.107391357421875,-0.467041015625,-0.8966827392578125,-0.0264385323971509,-0.018951853737235,-0.0566917732357978
1770453396584,0.108612060546875,-0.473846435546875,-0.8970794677734375,-0.0096134785562753,-0.0317744426429271,-0.0624236948788166
1770453396594,0.114166259765625,-0.4871673583984375,-0.8878936767578125,-0.004953745752573,-0.0206456240266561,-0.0564888417720794
1770453396604,0.127349853515625,-0.494049072265625,-0.8771820068359375,-0.0091010862961411,-0.0040666470304131,-0.040011066943407
1770453396614,0.138336181640625,-0.4781646728515625,-0.868743896484375,0.0044661210849881,-0.0130798490718007,-0.0248923003673553
1770453396624,0.1255035400390625,-0.457977294921875,-0.8628082275390625,0.0228158328682184,0.0045564020983874,-0.0344786159694194
1770453396634,0.10198974609375,-0.4512939453125,-0.8651580810546875,0.0579237528145313,0.0678299143910408,-0.0536176897585392
1770453396644,0.1101531982421875,-0.4672698974609375,-0.8596649169921875,0.0493459776043891,0.0247966926544904,-0.0535122267901897
1770453396654,0.1452178955078125,-0.5190887451171875,-0.872833251953125,0.053296510130167,0.0204514786601066,-0.0215891823172569
1770453396664,0.1592559814453125,-0.519317626953125,-0.8816070556640625,0.0689207464456558,0.0280627943575382,0.0062893209978938
1770453396675,0.15521240234375,-0.4749298095703125,-0.867279052734375,0.1049999222159385,0.0297182146459817,0.0088824415579438
1770453396685,0.1173858642578125,-0.430419921875,-0.848052978515625,0.1317705512046814,-0.0018298579379916,-0.0243623312562704
1770453396695,0.1029205322265625,-0.44964599609375,-0.8488006591796875,0.1347658038139343,-0.0387149043381214,-0.0459848009049892
1770453396705,0.109405517578125,-0.4580841064453125,-0.861236572265625,0.1328283548355102,-0.0428710356354713,-0.0579341389238834
1770453396715,0.1197509765625,-0.4648590087890625,-0.87445068359375,0.1366156339645385,-0.0199020691215991,-0.0617288760840892
1770453396725,0.1406097412109375,-0.482513427734375,-0.87176513671875,0.135045439004898,-0.0269618425518274,-0.0448646768927574
1770453396735,0.1514129638671875,-0.4933013916015625,-0.862548828125,0.128064751625061,-0.0327297151088714,-0.020026171579957
1770453396745,0.1530303955078125,-0.4907379150390625,-0.855377197265625,0.1074534878134727,-0.0134596163406968,-0.0005259743193164
1770453396755,0.149017333984375,-0.492095947265625,-0.85015869140625,0.085697591304779,0.0122199142351746,0.0083463471382856
1770453396765,0.1492767333984375,-0.49444580078125,-0.8436279296875,0.0588191077113151,0.0224512461572885,0.0201867613941431
1770453396775,0.1500701904296875,-0.4900054931640625,-0.8413238525390625,0.0445837117731571,0.0181648898869752,0.0300873275846242
1770453396785,0.1374969482421875,-0.4843902587890625,-0.8489990234375,0.044657215476036,0.0157142486423254,0.0279554687440395
1770453396795,0.1287078857421875,-0.4840087890625,-0.863616943359375,0.0572230741381645,0.0121773043647408,0.0222168881446123
1770453396805,0.1237640380859375,-0.4909820556640625,-0.870574951171875,0.0703836157917976,-0.0020807278342545,0.015598933212459
1770453396815,0.1205902099609375,-0.4950714111328125,-0.86810302734375,0.0740292221307754,-0.0129940956830978,0.0136487009003758
1770453396825,0.1225738525390625,-0.4984283447265625,-0.8502655029296875,0.0551330260932445,-0.0126028768718242,0.0156889483332633
1770453396835,0.1170806884765625,-0.495269775390625,-0.8317413330078125,0.0159099902957677,-0.0082797678187489,0.0121450796723365
1770453396845,0.112152099609375,-0.487701416015625,-0.815521240234375,-0.0345308110117912,-0.0065785404294729,0.0106811402365565
1770453396855,0.1121063232421875,-0.492950439453125,-0.814483642578125,-0.0925666838884353,0.0067543089389801,0.0121322963386774
1770453396865,0.1118316650390625,-0.4956207275390625,-0.8227691650390625,-0.1460450887680053,0.0436028726398944,0.0096891121938824
1770453396876,0.1131134033203125,-0.4864501953125,-0.8296051025390625,-0.1849416196346283,0.0501723550260067,0.0064831990748643
1770453396886,0.113250732421875,-0.481170654296875,-0.85235595703125,-0.2013887763023376,0.0423184297978878,-0.0029230855870991
1770453396896,0.107086181640625,-0.473297119140625,-0.8753204345703125,-0.2010018080472946,0.0221095625311136,-0.0183542389422655
1770453396906,0.116180419921875,-0.475555419921875,-0.890533447265625,-0.1798443347215652,0.0130771864205598,-0.0287637375295162
1770453396916,0.1219482421875,-0.47796630859375,-0.911102294921875,-0.143922284245491,-5.912217602599412e-05,-0.0396320968866348
1770453396926,0.1292724609375,-0.480682373046875,-0.90740966796875,-0.104999653995037,-0.0070824106223881,-0.0388302206993103
1770453396936,0.1375274658203125,-0.481964111328125,-0.8969879150390625,-0.0684980973601341,-0.0030077740084379,-0.0318783037364482
1770453396946,0.137603759765625,-0.4818267822265625,-0.8893280029296875,-0.0378134250640869,0.0050426954403519,-0.0260486453771591
1770453396956,0.137542724609375,-0.4829559326171875,-0.883087158203125,-0.0069612367078661,0.007284278050065,-0.0213574860244989
1770453396966,0.140838623046875,-0.4805450439453125,-0.8827972412109375,0.0192136410623788,0.0028493159916251,-0.0133855799213051
1770453396976,0.1400146484375,-0.484466552734375,-0.8765716552734375,0.03699716553092,-0.0028099012561142,-0.0088291782885789
1770453396986,0.137359619140625,-0.4869232177734375,-0.866729736328125,0.0419631637632846,0.0031212246976792,-0.0011358382180333
1770453396996,0.1377105712890625,-0.4823760986328125,-0.85089111328125,0.0311893448233604,0.0096686063334345,0.0102965794503688
1770453397006,0.134063720703125,-0.476104736328125,-0.8386383056640625,0.0093684680759906,0.0166420936584472,0.0150210270658135
1770453397016,0.1231689453125,-0.477081298828125,-0.8407440185546875,-0.0095013594254851,0.0196874178946018,0.0128180608153343
1770453397026,0.121490478515625,-0.476898193359375,-0.8533935546875,-0.0195513311773538,0.0113565176725387,0.0069471220485866
1770453397036,0.118438720703125,-0.47357177734375,-0.8608856201171875,-0.0264100357890129,-0.0053343116305768,0.0011137339752167
1770453397046,0.11773681640625,-0.473480224609375,-0.8610992431640625,-0.0327185317873954,-0.0176583565771579,-0.0110015179961919
1770453397056,0.1226043701171875,-0.478973388671875,-0.8573760986328125,-0.0466322153806686,-0.0167563427239656,-0.0159898847341537
1770453397066,0.1309661865234375,-0.4842987060546875,-0.850494384765625,-0.0656069740653038,-0.0027933896053582,-0.0132401715964078
1770453397076,0.1357574462890625,-0.4860076904296875,-0.850189208984375,-0.0798700675368309,0.0125618642196059,-0.0083016054704785
1770453397086,0.1343536376953125,-0.484161376953125,-0.856536865234375,-0.0799462273716926,0.0159328933805227,-0.004326038993895
1770453397097,0.1320037841796875,-0.4768524169921875,-0.8700103759765625,-0.0713910907506942,0.0121860923245549,-0.0049670618027448
1770453397107,0.1249847412109375,-0.472320556640625,-0.8815155029296875,-0.0537828058004379,0.0042147189378738,-0.0104702180251479
1770453397117,0.12109375,-0.4671173095703125,-0.8881683349609375,-0.0322953537106514,-0.0076177059672772,-0.0139011684805154
1770453397127,0.1212921142578125,-0.465179443359375,-0.8924407958984375,-0.0065196845680475,-0.015312111005187,-0.0165081359446048
1770453397137,0.12554931640625,-0.468841552734375,-0.8904571533203125,0.0166793782263994,-0.01017726957798,-0.0164593998342752
1770453397147,0.1248016357421875,-0.4669647216796875,-0.883544921875,0.0383114367723465,-0.001161670894362,-0.0183822028338909
1770453397157,0.1258697509765625,-0.466583251953125,-0.8770904541015625,0.0575972497463226,-0.0026642263401299,-0.0161070637404918
1770453397167,0.122772216796875,-0.465606689453125,-0.8666839599609375,0.0727058947086334,-0.0121575966477394,-0.0207873042672872
1770453397177,0.1210174560546875,-0.471282958984375,-0.8589630126953125,0.076963759958744,-0.0131434984505176,-0.0203167237341403
1770453397187,0.133026123046875,-0.4902801513671875,-0.8615875244140625,0.0720209330320358,-0.0105053717270493,-0.0116880815476179
1770453397197,0.147125244140625,-0.4954376220703125,-0.8646697998046875,0.068131648004055,-0.0046994141303002,0.0041161817498505
1770453397207,0.1414642333984375,-0.47393798828125,-0.86279296875,0.0720307826995849,-0.0220983773469924,0.0077292923815548
1770453397217,0.1190032958984375,-0.466583251953125,-0.8647918701171875,0.087827056646347,0.0128947598859667,-0.0109602389857172
1770453397227,0.101104736328125,-0.4462890625,-0.8656463623046875,0.0945307686924934,0.0407452993094921,-0.0318697839975357
1770453397237,0.1064605712890625,-0.46038818359375,-0.85894775390625,0.0743410736322403,0.0036168389488011,-0.0461038462817668
1770453397247,0.1329498291015625,-0.513885498046875,-0.8693695068359375,0.0533439144492149,0.0114316185936331,-0.0288012884557247
1770453397257,0.1531829833984375,-0.5115814208984375,-0.8645172119140625,0.0382235534489154,0.0220855940133333,-0.005803560372442
1770453397267,0.149749755859375,-0.47796630859375,-0.848480224609375,0.038493063300848,0.0084488783031702,-0.0053364420309662
1770453397277,0.115753173828125,-0.454925537109375,-0.83074951171875,0.0296348575502634,-0.0134830521419644,-0.027549335733056
1770453397287,0.1007843017578125,-0.4608306884765625,-0.8280181884765625,-0.0020232035312801,-0.0207002181559801,-0.0398898907005786
1770453397298,0.109161376953125,-0.469512939453125,-0.8422698974609375,-0.0297653526067733,-0.0088566085323691,-0.0454183481633663
1770453397308,0.1232757568359375,-0.4806976318359375,-0.8605499267578125,-0.0412398464977741,0.0046951528638601,-0.0468825548887252
1770453397317,0.1329498291015625,-0.4897613525390625,-0.8678131103515625,-0.0448819883167743,0.0048879659734666,-0.0411301255226135
1770453397328,0.1452789306640625,-0.4883575439453125,-0.8668670654296875,-0.0453352555632591,0.0043571977876126,-0.0227543152868747
1770453397338,0.1468963623046875,-0.4942626953125,-0.876983642578125,-0.0358860939741134,0.0096241310238838,-0.011888351291418
1770453397348,0.143707275390625,-0.4890594482421875,-0.8830718994140625,-0.020341757684946,0.0049718553200364,-0.0039915456436574
1770453397358,0.137237548828125,-0.48431396484375,-0.8711700439453125,-0.0121874241158366,-0.0076888124458491,-0.0002359560749027
1770453397368,0.133514404296875,-0.482696533203125,-0.8553619384765625,-0.0160231757909059,-0.008665126748383,-0.0003123887872789
1770453397378,0.1279144287109375,-0.481231689453125,-0.8495025634765625,-0.0170839112251997,0.0012144014472141,-0.0065678879618644
1770453397388,0.1307525634765625,-0.4872894287109375,-0.8566436767578125,-0.016998691484332,0.001987517112866,-0.0075905416160821
1770453397398,0.1327056884765625,-0.4901580810546875,-0.8581390380859375,-0.0219124890863895,-0.0105423890054225,-0.0079002669081091
1770453397408,0.128875732421875,-0.48944091796875,-0.86004638671875,-0.0296593587845563,-0.0118127176538109,-0.0022913836874067
1770453397418,0.126251220703125,-0.486053466796875,-0.86260986328125,-0.0414555631577968,-0.0066163572482764,0.0016650082543492
1770453397428,0.11846923828125,-0.4761199951171875,-0.86529541015625,-0.0482988245785236,-0.0108606368303298,-0.0028823392931371
1770453397438,0.115020751953125,-0.4745330810546875,-0.866455078125,-0.0555508770048618,-0.0121008716523647,-0.0042312303557991
1770453397448,0.1215057373046875,-0.4852294921875,-0.8747100830078125,-0.056036103516817,0.0049239182844758,-0.0050211236812174
1770453397458,0.1329193115234375,-0.481170654296875,-0.8772735595703125,-0.0503891371190547,0.0074728298932313,-0.0018684738315641
1770453397468,0.135284423828125,-0.48052978515625,-0.8764495849609375,-0.0405697971582412,-0.0021007014438509,0.001193895121105
1770453397478,0.13116455078125,-0.477874755859375,-0.87628173828125,-0.0281669236719608,-0.0046903593465685,0.000429301551776
1770453397488,0.131072998046875,-0.4821014404296875,-0.874298095703125,-0.0200823657214641,-0.0042908852919936,0.0011385013349354
1770453397498,0.1356201171875,-0.4835662841796875,-0.8770599365234375,-0.0161041356623172,-0.0084691187366843,0.0036442696582525
1770453397508,0.13836669921875,-0.48602294921875,-0.877197265625,-0.01124919205904,-0.0001217064636875,0.0050126016139984
1770453397519,0.1386260986328125,-0.486083984375,-0.8748321533203125,-0.0078368838876485,0.0064938520081341,0.0095056211575865
1770453397529,0.1376190185546875,-0.481475830078125,-0.868804931640625,-0.0056078182533383,0.0117935426533222,0.0110286828130483
1770453397539,0.13690185546875,-0.4780120849609375,-0.8699951171875,0.0015462313313037,0.0088137313723564,0.0124252438545227
1770453397549,0.134124755859375,-0.480255126953125,-0.873687744140625,0.0088835060596466,0.002355566015467,0.0132510904222726
1770453397559,0.131622314453125,-0.4817047119140625,-0.8748779296875,0.0122673185542225,0.0019739349372684,0.0170599427074193
1770453397569,0.1311798095703125,-0.4795074462890625,-0.873626708984375,0.0112939337268471,0.002291117561981,0.0169755220413208
1770453397579,0.12774658203125,-0.478424072265625,-0.868743896484375,0.0085663236677646,0.0086677903309464,0.0173552874475717
1770453397590,0.128814697265625,-0.4787445068359375,-0.86639404296875,0.003458114573732,0.0115075185894966,0.0149437952786684
1770453397599,0.13055419921875,-0.48187255859375,-0.8628997802734375,-0.0017979000695049,0.0102414526045322,0.0161563325673341
1770453397609,0.1291656494140625,-0.482574462890625,-0.86309814453125,-0.0060355220921337,0.0133445672690868,0.0169669985771179
1770453397619,0.1324615478515625,-0.479248046875,-0.863433837890625,-0.0056046224199235,0.0143203493207693,0.0155541924759745
1770453397629,0.12957763671875,-0.47650146484375,-0.8643951416015625,-0.0022985744290053,0.0104164220392704,0.0166112016886472
1770453397639,0.126220703125,-0.4714813232421875,-0.86767578125,0.0023521038237959,0.0064057013951241,0.0137248672544956
1770453397651,0.1260528564453125,-0.4734344482421875,-0.8731231689453125,0.0085346326231956,0.0021856562234461,0.0103844637051224
1770453397659,0.1229248046875,-0.480255126953125,-0.871673583984375,0.0135214012116193,0.0017204020405188,0.0077604511752724
1770453397669,0.1291351318359375,-0.483306884765625,-0.8691558837890625,0.0146969202905893,0.0012287824647501,0.0130777191370725
1770453397679,0.13226318359375,-0.4813079833984375,-0.86529541015625,0.0175877828150987,0.0018690064316615,0.0164210516959428
1770453397689,0.1293182373046875,-0.4779205322265625,-0.86370849609375,0.0189052484929561,0.0031617048662155,0.015288408845663
1770453397699,0.1266326904296875,-0.479705810546875,-0.8624114990234375,0.0152644403278827,0.0061756041832268,0.0159067939966917
1770453397709,0.126800537109375,-0.4803619384765625,-0.8643798828125,0.0166013464331626,0.0056869140826165,0.0156623162329196
1770453397719,0.1266326904296875,-0.4795074462890625,-0.8668670654296875,0.0146505814045667,0.0022618228103965,0.01143747754395
1770453397730,0.1265869140625,-0.4812774658203125,-0.8634796142578125,0.0051361722871661,0.0012005530297756,0.0113370763137936
1770453397740,0.12567138671875,-0.483856201171875,-0.859771728515625,-0.0031784826423972,0.0002551308425609,0.0112268216907978
1770453397750,0.1275634765625,-0.482452392578125,-0.8534698486328125,-0.0143634928390383,0.0046778423711657,0.0099692773073911
1770453397760,0.1270294189453125,-0.4778289794921875,-0.850006103515625,-0.024649953469634,0.0092377066612243,0.0058253984898328
1770453397770,0.1226959228515625,-0.476654052734375,-0.852752685546875,-0.0333627499639987,0.0085817705839872,0.0023409186396747
1770453397780,0.124176025390625,-0.4927825927734375,-0.854827880859375,-0.0475334301590919,0.021657358855009,0.0014969628537073
1770453397790,0.1365203857421875,-0.4959564208984375,-0.858551025390625,-0.0606215372681617,0.0273661110550165,0.0145230162888765
1770453397800,0.1383209228515625,-0.4741973876953125,-0.854736328125,-0.0733280107378959,0.0021869877818971,0.0167555436491966
1770453397810,0.1248779296875,-0.4670257568359375,-0.8586273193359375,-0.0653342679142952,0.0294726714491844,0.0022213426418602
1770453397820,0.101898193359375,-0.4371337890625,-0.8721466064453125,-0.0390017293393611,0.0917040854692459,-0.0253069549798965
1770453397830,0.105010986328125,-0.457489013671875,-0.863922119140625,-0.0547974668443203,0.037741519510746,-0.0390193052589893
1770453397840,0.1472930908203125,-0.532684326171875,-0.8834686279296875,-0.0531348586082458,0.049873549491167,-0.0037731665652245
1770453397850,0.1656494140625,-0.5164794921875,-0.9042205810546876,-0.0196155123412609,0.0755522847175598,0.0295395161956548
1770453397860,0.155120849609375,-0.4682769775390625,-0.88525390625,0.0226033125072717,0.0278079286217689,0.0277842264622449
1770453397870,0.1197509765625,-0.447784423828125,-0.8560028076171875,0.033503632992506,-0.0340245440602302,0.007562312297523
1770453397880,0.10626220703125,-0.46112060546875,-0.8484039306640625,0.0141214113682508,-0.0229625739157199,-0.0031750206835567
1770453397890,0.1239166259765625,-0.4648895263671875,-0.86639404296875,0.0040205740369856,0.0158098563551902,-0.0084382258355617
1770453397900,0.1387481689453125,-0.4700469970703125,-0.8789825439453125,0.0110965929925441,0.0265959240496158,-0.009515474550426
1770453397910,0.14111328125,-0.4807281494140625,-0.879058837890625,0.0207907650619745,0.0057524279691278,-0.0025406556669622
1770453397920,0.1354217529296875,-0.48773193359375,-0.875732421875,0.0156034603714942,0.0120233735069632,0.0104537066072225
1770453397930,0.1382598876953125,-0.489501953125,-0.8762359619140625,0.0112696988508105,0.027215376496315,0.0239604599773883
1770453397940,0.144195556640625,-0.4857635498046875,-0.87261962890625,0.0057196710258722,0.0277229733765125,0.0368842482566833
1770453397951,0.1395111083984375,-0.480987548828125,-0.866790771484375,0.0068962555378675,0.0204637292772531,0.044423658400774
1770453397961,0.1317291259765625,-0.4756927490234375,-0.8654327392578125,0.0138875860720872,0.0225207544863224,0.0401338376104831
1770453397971,0.12725830078125,-0.4747161865234375,-0.8655242919921875,0.0238736402243375,0.0220970455557107,0.035733763128519
1770453397981,0.12969970703125,-0.4803009033203125,-0.870086669921875,0.0359739810228347,0.0162407550960779,0.0375385880470275
1770453397991,0.1335906982421875,-0.4856414794921875,-0.8729400634765625,0.0472508706152439,0.010937069542706,0.0437685213983058
1770453398001,0.132720947265625,-0.487548828125,-0.8753662109375,0.0587189719080925,0.0126068722456693,0.0472716428339481
1770453398011,0.1287994384765625,-0.4841156005859375,-0.87628173828125,0.0702656432986259,-0.0002902845444623,0.0512535981833934
1770453398021,0.127655029296875,-0.4798736572265625,-0.8686981201171875,0.0746686458587646,-0.0185494497418403,0.054776694625616
1770453398031,0.1199188232421875,-0.48394775390625,-0.875885009765625,0.0870555415749549,-0.0196336228400468,0.0546376779675483
1770453398041,0.122161865234375,-0.48345947265625,-0.8756561279296875,0.095893770456314,-0.0130867734551429,0.0458244793117046
1770453398051,0.1103057861328125,-0.4783172607421875,-0.8703155517578125,0.1040837913751602,-0.0045260423794388,0.0350477322936058
1770453398061,0.121551513671875,-0.4748077392578125,-0.862945556640625,0.1049913987517356,-0.0290561523288488,0.0263306740671396
1770453398071,0.119873046875,-0.4760589599609375,-0.8528289794921875,0.1001164838671684,-0.0235961396247148,0.0165851023048162
1770453398081,0.127044677734375,-0.4811248779296875,-0.8455352783203125,0.0889184176921844,-0.0069625684991478,0.0135600175708532
1770453398091,0.132568359375,-0.4936676025390625,-0.8413238525390625,0.0710406228899955,0.0094920387491583,0.0151166347786784
1770453398101,0.1399688720703125,-0.4968414306640625,-0.843536376953125,0.0522094070911407,0.0161121245473623,0.0241796374320983
1770453398111,0.1418304443359375,-0.490997314453125,-0.843414306640625,0.0384390018880367,0.0223881304264068,0.0293230004608631
1770453398121,0.1309967041015625,-0.4853515625,-0.8465728759765625,0.0292100831866264,0.0327550172805786,0.0281309708952903
1770453398131,0.1281280517578125,-0.48602294921875,-0.85211181640625,0.0214453712105751,0.0362309738993644,0.0269125737249851
1770453398141,0.1318359375,-0.485992431640625,-0.858551025390625,0.0186402630060911,0.0290359128266572,0.0287131369113922
1770453398151,0.1294097900390625,-0.4864349365234375,-0.8630523681640625,0.0225998517125844,0.0240001417696476,0.026346119120717
1770453398161,0.127960205078125,-0.4885406494140625,-0.8636474609375,0.0265373345464468,0.025941053405404,0.022914370521903
1770453398172,0.1307830810546875,-0.4907379150390625,-0.8580169677734375,0.0224600359797477,0.0250792540609836,0.0217585582286119
1770453398182,0.130126953125,-0.49005126953125,-0.8488616943359375,0.0140915839001536,0.0267386697232723,0.0206850375980138
1770453398192,0.1312103271484375,-0.49139404296875,-0.8477783203125,0.0026120282709598,0.0300002433359622,0.0198597256094217
1770453398202,0.128753662109375,-0.4886627197265625,-0.842376708984375,-0.0093223955482244,0.0278755724430084,0.0192607790231704
1770453398212,0.1246337890625,-0.48846435546875,-0.8424530029296875,-0.0185169596225023,0.0350972674787044,0.0142423193901777
1770453398222,0.122650146484375,-0.4884490966796875,-0.8510894775390625,-0.0241772420704364,0.0370978340506553,0.0119820944964885
1770453398232,0.118377685546875,-0.48968505859375,-0.8565826416015625,-0.0256188102066516,0.0233559217303991,0.001129446667619
1770453398242,0.1155242919921875,-0.4873046875,-0.8618011474609375,-0.0247562117874622,0.0205976869910955,0.003125219605863
1770453398252,0.129730224609375,-0.4854888916015625,-0.8667449951171875,-0.0197795629501342,0.0072904033586382,0.0013960290234535
1770453398262,0.122711181640625,-0.4939117431640625,-0.8595428466796875,-0.0215028952807188,0.0032032502349466,-0.0015153386630117
1770453398272,0.1222686767578125,-0.4958648681640625,-0.854888916015625,-0.0234560575336217,0.0078488681465387,-0.0055644088424742
1770453398282,0.1260833740234375,-0.4936370849609375,-0.8494720458984375,-0.0270361453294754,0.0028269453905522,-0.0033177661243826
1770453398292,0.1295166015625,-0.4960479736328125,-0.8507080078125,-0.0343214869499206,0.0044615939259529,-0.0006157228490337
1770453398302,0.124267578125,-0.4931793212890625,-0.852203369140625,-0.0373580232262611,0.012834838591516,-0.001309476327151
1770453398312,0.1204681396484375,-0.483642578125,-0.8607940673828125,-0.0357715785503387,0.01959740370512,-0.0015880429418757
1770453398323,0.1194915771484375,-0.476593017578125,-0.8685455322265625,-0.028612470254302,0.0143445841968059,-0.0070698936469852
1770453398332,0.119903564453125,-0.476654052734375,-0.87158203125,-0.0205633323639631,0.0090640690177679,-0.0150143690407276
1770453398342,0.1258544921875,-0.48065185546875,-0.872772216796875,-0.0107810087502002,0.0098723378032445,-0.0157882831990718
1770453398352,0.1267547607421875,-0.4781951904296875,-0.8725738525390625,0.0039915456436574,0.0076448703184723,-0.015721172094345
1770453398362,0.12518310546875,-0.4801483154296875,-0.8731842041015625,0.0163944195955991,0.006287723314017,-0.0196035280823707
1770453398372,0.1282806396484375,-0.493316650390625,-0.8759613037109375,0.0245615355670452,0.0066475165076553,-0.0184871312230825
1770453398382,0.1393585205078125,-0.50640869140625,-0.8795166015625,0.0331212021410465,0.0058275288902223,-0.0051066111773252
1770453398393,0.1508026123046875,-0.494049072265625,-0.8724212646484375,0.0515201836824417,-0.0135147431865334,0.0099927131086587
1770453398403,0.1381683349609375,-0.4666595458984375,-0.8621978759765625,0.0636263787746429,-0.021551365032792,0.0017582189757376
1770453398413,0.105499267578125,-0.4536285400390625,-0.85614013671875,0.0841242000460624,0.0559136010706424,-0.0321289077401161
1770453398423,0.1003875732421875,-0.46136474609375,-0.84527587890625,0.066673032939434,0.0373867861926555,-0.0463757552206516
1770453398433,0.1497344970703125,-0.54278564453125,-0.8589324951171875,0.0454590953886508,0.0241119936108589,-0.007464840542525
1770453398443,0.174468994140625,-0.546417236328125,-0.884765625,0.071227841079235,0.0395274348556995,0.0299866609275341
1770453398453,0.164581298828125,-0.5071258544921875,-0.875091552734375,0.1146437600255012,0.0183140262961387,0.0465701632201671
1770453398463,0.128753662109375,-0.464263916015625,-0.85107421875,0.1419265121221542,-0.0166183914989233,0.0314266309142112
1770453398473,0.0978851318359375,-0.4593963623046875,-0.83709716796875,0.1351788640022277,-0.0395253039896488,0.0031348068732768
1770453398483,0.0948486328125,-0.4624176025390625,-0.848602294921875,0.1246601715683937,-0.041317880153656,-0.0198032651096582
1770453398493,0.11175537109375,-0.4733734130859375,-0.863433837890625,0.1262455582618713,-0.0424260199069976,-0.0348067171871662
1770453398503,0.12646484375,-0.4959259033203125,-0.870391845703125,0.128870889544487,-0.0568955056369304,-0.0327355749905109
1770453398513,0.1309967041015625,-0.5089569091796875,-0.86712646484375,0.1305340379476547,-0.0638495534658432,-0.0265290793031454
1770453398523,0.13775634765625,-0.5140533447265625,-0.856903076171875,0.1251778900623321,-0.0599762499332428,-0.0180234760046005
1770453398533,0.140380859375,-0.5092620849609375,-0.852294921875,0.119075521826744,-0.0580180287361145,-0.0106630306690931
1770453398543,0.1368865966796875,-0.50665283203125,-0.829345703125,0.1075576171278953,-0.0531742721796035,-0.0075503280386328
1770453398553,0.134002685546875,-0.5003509521484375,-0.819610595703125,0.0950857698917388,-0.0425320155918598,-0.0080888187512755
1770453398563,0.132293701171875,-0.5011749267578125,-0.811553955078125,0.0759299173951149,-0.0340618304908275,-0.0060530989430844
1770453398573,0.132904052734375,-0.4974212646484375,-0.811431884765625,0.0535724125802516,-0.024685638025403,-0.000974716967903
1770453398583,0.1289520263671875,-0.49993896484375,-0.8110198974609375,0.0257064290344715,-0.0162319671362638,0.0012056130217388
1770453398593,0.1277313232421875,-0.50225830078125,-0.8123779296875,0.0023949807509779,-0.0078017301857471,0.008453938178718
1770453398604,0.12188720703125,-0.502166748046875,-0.8193817138671875,-0.0163070671260356,-0.000786431482993,0.008159658871591
1770453398613,0.115081787109375,-0.5023193359375,-0.8298187255859375,-0.0307967942208051,0.0020524982828646,0.0010354369878768
1770453398624,0.1119842529296875,-0.5025482177734375,-0.8398895263671875,-0.0405021533370018,-0.0057830540463328,-0.0055455002002418
1770453398634,0.1153411865234375,-0.50128173828125,-0.85260009765625,-0.0416965819895267,-0.0064286044798791,-0.014462562277913
1770453398644,0.1179656982421875,-0.49774169921875,-0.863128662109375,-0.0318450145423412,-0.0086739156395196,-0.0241993460804224
1770453398654,0.1256103515625,-0.5096435546875,-0.8650054931640625,-0.0220720134675502,-0.034393660724163,-0.0226187594234943
1770453398664,0.1301116943359375,-0.5026092529296875,-0.8656768798828125,-0.0064981128089129,-0.0433426797389984,-0.0205814410001039
1770453398674,0.1219635009765625,-0.502960205078125,-0.863006591796875,0.0028626318089663,-0.0274603869765996,-0.0278848949819803
1770453398684,0.122528076171875,-0.498870849609375,-0.8526153564453125,0.0033526534680277,-0.0191135071218013,-0.0338626243174076
1770453398694,0.126983642578125,-0.501068115234375,-0.8461761474609375,-0.0039633163250982,-0.0199862252920866,-0.035574771463871
1770453398704,0.1356201171875,-0.51348876953125,-0.8461151123046875,-0.0141134224832057,-0.0161185152828693,-0.0273368153721094
1770453398714,0.1392974853515625,-0.515380859375,-0.85003662109375,-0.0138124851509928,-0.0146796097978949,-0.0181377250701189
1770453398724,0.1351470947265625,-0.5177764892578125,-0.8546142578125,-0.0087772458791732,-0.0169696621596813,-0.0114683704450726
1770453398734,0.1374053955078125,-0.512664794921875,-0.8507080078125,-0.0113213639706373,-0.0225713551044464,-0.0068898638710379
1770453398744,0.1305084228515625,-0.5085601806640625,-0.8505096435546875,-0.0153603143990039,-0.0114137753844261,-0.0069790799170732
1770453398754,0.1257781982421875,-0.503082275390625,-0.8455352783203125,-0.0242845676839351,-0.0024618261959403,-0.0104347979649901
1770453398764,0.128814697265625,-0.4975128173828125,-0.84161376953125,-0.0309557858854532,-0.0050269826315343,-0.0068294103257358
1770453398774,0.1260223388671875,-0.4962310791015625,-0.849945068359375,-0.0317784361541271,-0.0017132115317508,-0.0121235083788633
1770453398784,0.1244964599609375,-0.49658203125,-0.856597900390625,-0.0251836497336626,0.0041816956363618,-0.0141720119863748
1770453398794,0.127655029296875,-0.4974517822265625,-0.8582000732421875,-0.017183780670166,0.0063633569516241,-0.0120002040639519
1770453398805,0.1304473876953125,-0.4952850341796875,-0.8558807373046875,-0.011102451942861,0.0032567796297371,-0.0085969502106308
1770453398814,0.1293792724609375,-0.49658203125,-0.85516357421875,-0.0058008972555398,0.0073924022726714,0.0004213120846543
1770453398825,0.129119873046875,-0.4976654052734375,-0.8590240478515625,0.0043886229395866,0.0132787870243191,0.0059130163863301
1770453398835,0.1260833740234375,-0.4991302490234375,-0.8685760498046875,0.0205542780458927,0.0073535204865038,0.0057819890789687
1770453398845,0.122283935546875,-0.5003662109375,-0.8701629638671875,0.0334820598363876,-0.0042543997988104,0.0026367958635091
1770453398855,0.121063232421875,-0.505859375,-0.865692138671875,0.0417530387639999,-0.0027121631428599,5.060006060375599e-06
1770453398865,0.1252593994140625,-0.506744384765625,-0.8573760986328125,0.0414078943431377,-0.0004599279200192,-0.0011424961267039
1770453398875,0.128814697265625,-0.507476806640625,-0.8528900146484375,0.0376922525465488,0.0040211067534983,-0.0007701861904934
1770453398885,0.1279449462890625,-0.5052490234375,-0.8425750732421875,0.0321922898292541,0.0072611086070537,0.0029606360476464
1770453398895,0.123504638671875,-0.5019989013671875,-0.840087890625,0.0244598034769296,0.0046229814179241,0.0001222391001647
1770453398905,0.1168365478515625,-0.5027618408203125,-0.84271240234375,0.0188346747308969,-0.000768588273786,-0.0019164107507094
1770453398915,0.1146697998046875,-0.5021514892578125,-0.84552001953125,0.0146694900467991,-0.0032248217612504,-0.0101791340857744
1770453398925,0.1109771728515625,-0.5006256103515625,-0.8433380126953125,0.0080997385084629,-0.0056847836822271,-0.0174495633691549
1770453398935,0.1148223876953125,-0.496429443359375,-0.841278076171875,0.0035105790011584,-0.0020738034509122,-0.0255793966352939
1770453398945,0.119049072265625,-0.502410888671875,-0.84375,-0.0001922802330227,-0.0072869411669671,-0.0282673239707946
1770453398955,0.12506103515625,-0.51654052734375,-0.847381591796875,-0.0072187641635537,-0.0049955574795603,-0.0215713381767272
1770453398965,0.1388702392578125,-0.521148681640625,-0.84967041015625,-0.0104515757411718,-0.0044022053480148,-0.0046970173716545
1770453398975,0.14007568359375,-0.508880615234375,-0.851165771484375,-0.004121774341911,-0.0289594791829586,0.0045404233969748
1770453398985,0.1198577880859375,-0.4770660400390625,-0.8508758544921875,0.0091221258044242,-0.0196690429002046,-0.0194394774734973
1770453398995,0.0851898193359375,-0.46636962890625,-0.8585662841796875,0.0293672103434801,0.0402022823691368,-0.0553024038672447
1770453399005,0.1044464111328125,-0.504791259765625,-0.8483123779296875,0.0055529573000967,-0.0043920851312577,-0.0580704919993877
1770453399015,0.1566314697265625,-0.556243896484375,-0.8572235107421875,-0.0065873288549482,0.010897921398282,-0.0182226803153753
1770453399025,0.1743927001953125,-0.548095703125,-0.862335205078125,0.0089468900114297,0.0379244796931743,0.0218328610062599
1770453399036,0.159149169921875,-0.5099029541015625,-0.8493194580078125,0.0402238517999649,0.0045489454641938,0.033434122800827
1770453399045,0.10992431640625,-0.4729156494140625,-0.8317413330078125,0.0528027601540088,-0.0235378164798021,0.0050794472917914
1770453399056,0.0837249755859375,-0.4684906005859375,-0.82843017578125,0.038451250642538,-0.0229303501546382,-0.0249748583883047
1770453399066,0.0988311767578125,-0.4735870361328125,-0.8412628173828125,0.0221540387719869,-0.0258265379816293,-0.0434316284954547
1770453399076,0.123382568359375,-0.494384765625,-0.8531341552734375,0.0163219813257455,-0.0314884185791015,-0.0442960932850837
1770453399086,0.1329498291015625,-0.513275146484375,-0.8544769287109375,0.0122806346043944,-0.0332216024398803,-0.0372927784919738
1770453399096,0.1369781494140625,-0.525146484375,-0.85467529296875,0.0035697009880095,-0.0246749855577945,-0.0215215366333723
1770453399106,0.1406402587890625,-0.5249481201171875,-0.8537750244140625,-0.0078057250939309,-0.0113578494638204,-0.0073367422446608
1770453399116,0.1402740478515625,-0.520538330078125,-0.8567047119140625,-0.0102459797635674,0.0009712548344396,0.0015606123488396
1770453399126,0.1376953125,-0.5134124755859375,-0.8558502197265625,-0.0044354945421218,0.0012133361306041,0.0039041941054165
1770453399136,0.131378173828125,-0.5069122314453125,-0.8552398681640625,0.0088321072980761,0.0007560714147984,0.0011070760665461
1770453399146,0.128387451171875,-0.5058135986328125,-0.854217529296875,0.0202823691070079,-0.0002636529388837,-0.0017571536591276
1770453399156,0.1230926513671875,-0.50482177734375,-0.8574066162109375,0.0312276948243379,0.0005246427026577,-0.0063617592677474
1770453399166,0.12274169921875,-0.511810302734375,-0.8585662841796875,0.0410465039312839,0.0002181128947995,-0.0071577779017388
1770453399176,0.1241912841796875,-0.51824951171875,-0.8563690185546875,0.0478026755154132,0.0062805325724184,-0.0025172198656946
1770453399186,0.1198272705078125,-0.5177154541015625,-0.84765625,0.0475890897214412,0.000843689427711,-0.0007414240390062
1770453399196,0.1153106689453125,-0.5121917724609375,-0.835601806640625,0.0401990860700607,-0.0129901003092527,-0.0038450718857347
1770453399206,0.1165008544921875,-0.511810302734375,-0.8295440673828125,0.025058215484023,-0.0242411568760871,-0.0064011737704277
1770453399216,0.120452880859375,-0.5118408203125,-0.831787109375,0.0085588674992322,-0.0125749139115214,-0.0064714811742305
1770453399226,0.1203765869140625,-0.503173828125,-0.8346710205078125,-0.0056815878488123,-0.0018735338235273,-0.0123392241075634
1770453399237,0.1222381591796875,-0.5073699951171875,-0.8362884521484375,-0.016838900744915,-0.0103490436449646,-0.0083346292376518
1770453399246,0.1270751953125,-0.5085601806640625,-0.8449554443359375,-0.0201089959591627,-0.0136476354673504,-0.0060946443118155
1770453399257,0.1208343505859375,-0.5017242431640625,-0.8539581298828125,-0.0142532382160425,-0.0056408415548503,-0.011526427231729
1770453399267,0.1237640380859375,-0.5033416748046875,-0.853179931640625,-0.0110659664496779,-0.0076195700094103,-0.0208458937704563
1770453399277,0.12957763671875,-0.5103302001953125,-0.8449859619140625,-0.0148423295468091,-0.019651997834444,-0.0204775780439376
1770453399287,0.136322021484375,-0.5130767822265625,-0.83905029296875,-0.021711153909564,-0.0134870465844869,-0.0120404176414012
1770453399297,0.1391754150390625,-0.5120391845703125,-0.8371429443359375,-0.0281165894120931,6.764429417671636e-05,-0.0016149408183991
1770453399307,0.138153076171875,-0.5100250244140625,-0.8374176025390625,-0.033915888518095,0.0085985483601689,0.0069375345483422
1770453399317,0.134613037109375,-0.5116424560546875,-0.8464508056640625,-0.0356727764010429,0.0141581632196903,0.0118971392512321
1770453399327,0.1317291259765625,-0.514373779296875,-0.8542022705078125,-0.0362418927252292,0.0171813834458589,0.0121906194835901
1770453399338,0.13055419921875,-0.5148468017578125,-0.858367919921875,-0.0274523962289094,0.0193795561790466,0.0154013270512223
1770453399347,0.1289215087890625,-0.5117034912109375,-0.859344482421875,-0.0207031480967998,0.0199063308537006,0.0154380779713392
1770453399358,0.125732421875,-0.508880615234375,-0.8541107177734375,-0.0132596129551529,0.019864784553647,0.015017032623291
1770453399367,0.12158203125,-0.505157470703125,-0.852386474609375,-0.0094140078872442,0.0182607620954513,0.0108284130692482
1770453399377,0.1217041015625,-0.50347900390625,-0.8538360595703125,-0.0031529164407402,0.0117349531501531,0.0098888492211699
1770453399387,0.1244964599609375,-0.5025634765625,-0.854583740234375,0.0018503642641007,0.012705142609775,0.0097508979961276
1770453399397,0.1201019287109375,-0.5044097900390625,-0.8588104248046875,0.0144042391330003,0.0098734032362699,0.0077010630629956
1770453399407,0.1165771484375,-0.504119873046875,-0.8579559326171875,0.0243157260119915,-0.0010042780777439,0.0055897086858749
1770453399417,0.1183013916015625,-0.5079498291015625,-0.8525848388671875,0.0269914045929908,-0.0072587118484079,0.0028834044933319
1770453399427,0.120574951171875,-0.5098724365234375,-0.85009765625,0.0276766344904899,-0.0012042814632877,0.0023656859993934
1770453399437,0.1233062744140625,-0.5101776123046875,-0.8464202880859375,0.0231985300779342,0.0007315703551284,0.0004314320976845
1770453399447,0.124114990234375,-0.51025390625,-0.84820556640625,0.0214770622551441,0.0001318264694418,-0.0006617955514229
1770453399458,0.125244140625,-0.512451171875,-0.850341796875,0.0195718370378017,-0.0047388286329805,0.0012394351651892
1770453399468,0.1237945556640625,-0.5095062255859375,-0.8525238037109375,0.0258249398320913,-0.0053550843149423,0.0033481260761618
1770453399478,0.12286376953125,-0.505218505859375,-0.8576507568359375,0.036972664296627,-0.006580404471606,-0.0014439659425988
1770453399488,0.1197052001953125,-0.506805419921875,-0.8566131591796875,0.0450012981891632,-0.0081793665885925,-0.0031204258557409
1770453399498,0.12078857421875,-0.5058746337890625,-0.8509979248046875,0.0456029064953327,-0.0085255773738026,-0.0036224317736923
1770453399508,0.122100830078125,-0.505889892578125,-0.84210205078125,0.0398590005934238,-0.0058562913909554,-0.0056440373882651
1770453399518,0.1250457763671875,-0.50396728515625,-0.834197998046875,0.0323198549449443,-0.0036029906477779,-0.0040900828316807
1770453399528,0.1235198974609375,-0.50506591796875,-0.83209228515625,0.0222057029604911,-0.0028112328145653,-0.0055300537496805
1770453399538,0.1268463134765625,-0.5179901123046875,-0.838470458984375,0.0142582980915904,0.0008703210623934,0.0021944446489214
1770453399548,0.1401824951171875,-0.53240966796875,-0.8490753173828125,0.012596751563251,0.0054088803008198,0.0174287911504507
1770453399558,0.1406097412109375,-0.5215606689453125,-0.8568115234375,0.0260627586394548,-0.0070914654061198,0.0289754588156938
1770453399568,0.1223297119140625,-0.489990234375,-0.858367919921875,0.0437131263315677,-0.0207164641469717,0.0060738716274499
1770453399578,0.091705322265625,-0.4770355224609375,-0.859405517578125,0.0750188529491424,0.0344176292419433,-0.0292111486196517
1770453399589,0.0876922607421875,-0.4833221435546875,-0.84027099609375,0.055252868682146,-0.0036922064609825,-0.0485723279416561
1770453399598,0.130859375,-0.553070068359375,-0.84271240234375,0.0382658950984478,-0.004724713973701,-0.026478212326765
1770453399608,0.152740478515625,-0.5550384521484375,-0.8495635986328125,0.0336674153804779,0.0307624395936727,0.0059529640711843
1770453399618,0.1593017578125,-0.535552978515625,-0.83477783203125,0.0467501953244209,0.0168138667941093,0.0241607297211885
1770453399628,0.12615966796875,-0.484771728515625,-0.8216552734375,0.0522932969033718,-0.0150694968178868,0.006384395994246
1770453399638,0.09149169921875,-0.484222412109375,-0.8157501220703125,0.0354972742497921,-0.0198392178863286,-0.0224869325757026
1770453399648,0.0931396484375,-0.4915618896484375,-0.8360595703125,0.0199361573904752,-0.0097170760855078,-0.0381039753556251
1770453399658,0.1082916259765625,-0.50311279296875,-0.8568572998046875,0.0271597150713205,-0.0045175203122198,-0.0502740889787673
1770453399669,0.1259613037109375,-0.5194549560546875,-0.8588714599609375,0.0307805500924587,-0.015066834166646,-0.0443589426577091
1770453399684,0.1375732421875,-0.53167724609375,-0.84954833984375,0.0110028497874736,-0.0164905600249767,-0.0101168164983391
1770453399689,0.1434783935546875,-0.5370025634765625,-0.840087890625,0.0110028497874736,-0.0164905600249767,-0.0101168164983391
1770453399699,0.146148681640625,-0.5339508056640625,-0.8363189697265625,-0.0019813918042927,0.0006886934279464,0.006572681479156
1770453399709,0.14410400390625,-0.52490234375,-0.8385162353515625,-0.0051654670387506,0.0157310254871845,0.0119623867794871
1770453399719,0.1312103271484375,-0.5150604248046875,-0.8418426513671875,0.0020200076978653,0.0172218643128871,0.0091215930879116
1770453399729,0.122589111328125,-0.50946044921875,-0.8448944091796875,0.0122659876942634,0.008193215355277,0.0046312371268868
1770453399739,0.1196136474609375,-0.5093994140625,-0.847320556640625,0.0198535993695259,-0.0028360001742839,0.000565389113035
1770453399749,0.118072509765625,-0.517425537109375,-0.8461456298828125,0.0176029615104198,-0.0022583606187254,-0.0021331920288503
1770453399759,0.1207427978515625,-0.52740478515625,-0.84503173828125,0.015516641549766,0.0083010727539658,-5.885586142539978e-05
1770453399769,0.123931884765625,-0.5264434814453125,-0.8442840576171875,0.0188184287399053,0.0107850031927227,0.014954182319343
1770453399779,0.1251678466796875,-0.5195159912109375,-0.841064453125,0.0148047786206007,-0.004235491156578,0.0157422106713056
1770453399789,0.1126251220703125,-0.5162353515625,-0.8345489501953125,0.0086155924946069,-0.0099024316295981,0.0101160174235701
1770453399799,0.1117401123046875,-0.5191497802734375,-0.83636474609375,-0.0007478156476281,-0.0089538134634494,0.0071125044487416
1770453399809,0.11578369140625,-0.520294189453125,-0.842132568359375,-0.0012586099328473,0.0044666538015007,-0.0004149205051362
1770453399819,0.12109375,-0.5162506103515625,-0.84625244140625,0.0036402747500687,-0.0079697761684656,-0.0035800873301923
1770453399829,0.1240692138671875,-0.520721435546875,-0.8462066650390625,0.006679474376142,-0.0240776389837265,-0.0060475063510239
1770453399839,0.1235198974609375,-0.513092041015625,-0.844085693359375,0.0098355868831276,-0.014870292507112,-0.0075543224811553
1770453399849,0.1195068359375,-0.5117950439453125,-0.8385772705078125,0.0068861357867717,-0.0040996703319251,-0.0126617327332496
1770453399859,0.12261962890625,-0.5175323486328125,-0.8394317626953125,0.0029364014044404,-0.0067860009148716,-0.0112209627404809
1770453399869,0.1304473876953125,-0.5196075439453125,-0.8443756103515625,0.0019033611752092,-0.0077173081226646,-0.0065439194440841
1770453399879,0.131195068359375,-0.5215606689453125,-0.8481903076171875,0.0105109643191099,-0.0013542174128815,-0.0035084483679383
1770453399890,0.12939453125,-0.5218658447265625,-0.846923828125,0.0154527258127927,0.0004751079250127,-0.0013536848127841
1770453399899,0.131866455078125,-0.5219268798828125,-0.84136962890625,0.0142484446987509,-0.0028154938481748,0.0011893677292391
1770453399910,0.128662109375,-0.52362060546875,-0.8415985107421875,0.0110763534903526,0.0035135084763169,0.0043169842101633
1770453399920,0.1285858154296875,-0.5238494873046875,-0.8465423583984375,0.0110872723162174,0.0105919241905212,0.0053095440380275
1770453399930,0.12762451171875,-0.523590087890625,-0.8435211181640625,0.0087857684120535,0.0089146653190255,0.0082957465201616
1770453399940,0.1232452392578125,-0.5202178955078125,-0.839111328125,0.0079098548740148,0.0082091940566897,0.0071982578374445
1770453399950,0.12725830078125,-0.51959228515625,-0.8392486572265625,0.0032730249222368,0.0105871306732296,0.0087655279785394
1770453399960,0.1262054443359375,-0.516845703125,-0.839691162109375,0.0016223976854234,0.0161110591143369,0.0078525971621274
1770453399970,0.1239166259765625,-0.517913818359375,-0.844757080078125,0.0078041274100542,0.0186194907873868,0.0061566955409944
1770453399980,0.11968994140625,-0.5164642333984375,-0.849609375,0.0197654496878385,0.0161259733140468,0.0079852221533656
1770453399990,0.1187896728515625,-0.5124053955078125,-0.8532562255859375,0.0331550240516662,0.0020474381744861,0.0053428336977958
1770453400000,0.1176300048828125,-0.5159149169921875,-0.8502655029296875,0.0413248017430305,-0.0055534895509481,0.0044970139861106
1770453400010,0.1203765869140625,-0.522613525390625,-0.847381591796875,0.0435597263276577,-0.0055620120838284,0.00457957200706
1770453400020,0.1248321533203125,-0.5267181396484375,-0.840728759765625,0.0424936637282371,-0.0041116545908153,0.0061372546479105
1770453400030,0.1246185302734375,-0.5247802734375,-0.83489990234375,0.0387987941503524,-0.0024109596852213,0.009483516216278
1770453400040,0.124542236328125,-0.524383544921875,-0.8323211669921875,0.03291667252779,-0.0027017768006771,0.0077202375978231
1770453400050,0.1239471435546875,-0.523712158203125,-0.83447265625,0.0272222999483346,0.0001342233153991,0.0099338572472333
1770453400060,0.1246185302734375,-0.5216827392578125,-0.84228515625,0.0250686015933752,0.0037984666414558,0.0100406501442193
1770453400073,0.123260498046875,-0.52081298828125,-0.843963623046875,0.0299403220415115,0.0018245317041873,0.0089756520465016
1770453400080,0.1159210205078125,-0.5167236328125,-0.843475341796875,0.0351145789027214,-0.0009038768475875,0.0033260218333452
1770453400090,0.1157379150390625,-0.5157012939453125,-0.840057373046875,0.0364863723516464,-0.0024415859952569,0.001030909596011
1770453400100,0.116546630859375,-0.5159149169921875,-0.8362274169921875,0.035257589071989,-0.0039755669422447,-0.0041342913173139
1770453400111,0.1190185546875,-0.516571044921875,-0.834197998046875,0.0366581454873085,-0.0012112056137993,-0.0078901471570134
1770453400121,0.121002197265625,-0.520233154296875,-0.830657958984375,0.0308460630476474,-0.006991596892476,-0.0097410446032881
1770453400130,0.1227874755859375,-0.53082275390625,-0.82586669921875,0.0218067616224288,-0.0067005134187638,-0.006678675301373
1770453400141,0.13055419921875,-0.5440216064453125,-0.8277435302734375,0.0055705341510474,0.0044184504076838,0.0049643986858427
1770453400150,0.1400909423828125,-0.546173095703125,-0.8306427001953125,-0.0051233894191682,0.0113685019314289,0.0198397506028413
1770453400161,0.1357574462890625,-0.5164337158203125,-0.8286590576171875,-0.0070477896369993,-0.0107077714055776,0.0207002181559801
1770453400171,0.109283447265625,-0.49658203125,-0.8315582275390625,-0.0025505092926323,0.0073157036677002,-0.0084890918806195
1770453400181,0.085479736328125,-0.4879913330078125,-0.838470458984375,0.0081881554797291,0.0439253784716129,-0.0381100997328758
1770453400191,0.101318359375,-0.5163726806640625,-0.83087158203125,-0.0165456868708133,-0.0034804851748049,-0.0389375463128089
1770453400201,0.143463134765625,-0.5742950439453125,-0.85772705078125,-0.0077468692325055,0.0181595627218484,-0.0078504662960767
1770453400211,0.1547088623046875,-0.5620880126953125,-0.857818603515625,0.0080318273976445,0.0308780204504728,0.0173502285033464
1770453400221,0.14520263671875,-0.513427734375,-0.8366851806640625,0.030303843319416,0.0020937772933393,0.0153350140899419
1770453400231,0.0985107421875,-0.48046875,-0.8258819580078125,0.0319848321378231,-0.0246518161147832,-0.0205702558159828
1770453400241,0.0838775634765625,-0.4998626708984375,-0.8305206298828125,0.0210746582597494,-0.0288494918495416,-0.0391210354864597
1770453400251,0.10882568359375,-0.511566162109375,-0.8526458740234375,0.0267096403986215,-0.024497352540493,-0.0426100455224514
1770453400261,0.1297454833984375,-0.5294342041015625,-0.86468505859375,0.0448814556002616,-0.0275762341916561,-0.0397711135447025
1770453400271,0.1356201171875,-0.5413665771484375,-0.85015869140625,0.0543282181024551,-0.0347169674932956,-0.0312194377183914
1770453400281,0.135528564453125,-0.540557861328125,-0.83306884765625,0.0477677881717681,-0.0335507690906524,-0.0159043986350297
1770453400291,0.1401519775390625,-0.5439300537109375,-0.8321533203125,0.0315747037529945,-0.0162410214543342,-0.0009254484903067
1770453400303,0.14215087890625,-0.5418548583984375,-0.8280792236328125,0.0133802536875009,-0.0085322353988885,0.0111434645950794
1770453400311,0.137237548828125,-0.5341644287109375,-0.8224945068359375,0.0007715177489444,-0.0055287224240601,0.0149975912645459
1770453400324,0.126800537109375,-0.5252227783203125,-0.8241729736328125,-0.0042136535048484,-0.004302336834371,0.0105274757370352
1770453400331,0.1169891357421875,-0.5201416015625,-0.8268280029296875,-0.0086874980479478,-0.0069335396401584,0.0036453348584473
1770453400342,0.1143341064453125,-0.5182952880859375,-0.8272857666015625,-0.0163038726896047,-0.0026282735634595,-0.0004458131734281
1770453400352,0.1131744384765625,-0.524139404296875,-0.8368377685546875,-0.0183278750628232,0.0086680566892027,-0.0038219024427235
1770453400362,0.11541748046875,-0.53271484375,-0.846588134765625,-0.0126971527934074,0.0108204232528805,-0.0004854942671954
1770453400372,0.1193389892578125,-0.5340118408203125,-0.8485107421875,-0.0040770331397652,0.00262401252985,0.0031587753910571
1770453400382,0.121551513671875,-0.5309600830078125,-0.8417816162109375,0.0001840244367485,-0.009572465904057,0.0066690878011286
1770453400392,0.11846923828125,-0.526031494140625,-0.8308563232421875,-0.0044181840494275,-0.013668674044311,0.0052395029924809
1770453400402,0.1179351806640625,-0.53057861328125,-0.827423095703125,-0.0106529109179973,-0.0016586167039349,0.0045172539539635
1770453400412,0.1194915771484375,-0.534027099609375,-0.8372802734375,-0.0076936059631407,0.0175017621368169,0.001677791471593
1770453400422,0.1241302490234375,-0.5264434814453125,-0.84466552734375,0.0015917713753879,0.0028628981672227,-0.0004953479510731
1770453400432,0.1222991943359375,-0.5297698974609375,-0.84893798828125,0.0116587867960333,-0.0169632714241743,-0.0027742148377001
1770453400442,0.1159515380859375,-0.518890380859375,-0.8494110107421875,0.0223710853606462,-0.012476110830903,-0.0094241276383399
1770453400452,0.118438720703125,-0.5200958251953125,-0.8461456298828125,0.0239607263356447,-0.0110891368240118,-0.0178788658231496
1770453400462,0.1241607666015625,-0.529754638671875,-0.842437744140625,0.0269304178655147,-0.0109980562701821,-0.0157589893788099
1770453400472,0.1305084228515625,-0.532379150390625,-0.84344482421875,0.0293834544718265,-0.0076129124499857,-0.0106390621513128
1770453400482,0.1312713623046875,-0.53240966796875,-0.8362884521484375,0.0347262881696224,-0.0043310988694429,-0.0024005733430385
1770453400492,0.12969970703125,-0.5310821533203125,-0.8314666748046875,0.0359026081860065,-0.0075929383747279,0.0031071100383996
1770453400502,0.1284637451171875,-0.528228759765625,-0.8290557861328125,0.0315374210476875,-0.0068059745244681,0.005838181823492
1770453400512,0.127593994140625,-0.53228759765625,-0.8294219970703125,0.0233236979693174,0.0001392833219142,0.0101333279162645
1770453400522,0.12701416015625,-0.5351104736328125,-0.8354644775390625,0.0192687697708606,0.0068288776092231,0.0122801018878817
1770453400532,0.127197265625,-0.53594970703125,-0.8354339599609375,0.0155832208693027,0.0080086579546332,0.0121155185624957
1770453400542,0.1229400634765625,-0.5337677001953125,-0.8317108154296875,0.0082904202863574,0.0157344881445169,0.0092275869101285
1770453400552,0.12408447265625,-0.53167724609375,-0.8277435302734375,0.0024799355305731,0.0164058711379766,0.0085098650306463
1770453400563,0.12060546875,-0.528411865234375,-0.8280029296875,-0.0042259041219949,0.0179326608777046,0.0063433833420276
1770453400573,0.119873046875,-0.5270538330078125,-0.832550048828125,-0.0006282397080212,0.0211196653544902,0.0074464646168053
1770453400583,0.115020751953125,-0.522003173828125,-0.8398895263671875,0.0073551181703805,0.0148750860244035,0.0019939087796956
1770453400593,0.1118621826171875,-0.519927978515625,-0.8439178466796875,0.0195566564798355,-0.0002727076935116,-0.0009238505735993
1770453400603,0.1138458251953125,-0.5235443115234375,-0.84466552734375,0.0275208409875631,-0.009182047098875,-0.003745203372091
1770453400613,0.117584228515625,-0.5329437255859375,-0.84197998046875,0.0323587395250797,-0.0084656560793519,-0.0003544667270034
1770453400623,0.122406005859375,-0.5374298095703125,-0.8361663818359375,0.0337909869849681,-0.0073583140037953,-4.474110755836591e-05
1770453400633,0.1251983642578125,-0.5377197265625,-0.83355712890625,0.0332996323704719,-0.0132755916565656,0.0023212111555039
1770453400643,0.125,-0.5351409912109375,-0.8269805908203125,0.0248313136398792,-0.0111623732373118,0.003295661881566
1770453400653,0.1180877685546875,-0.5339202880859375,-0.8248443603515625,0.0158514007925987,-0.0080398172140121,-0.0002039981336565
1770453400663,0.1219635009765625,-0.536102294921875,-0.8236541748046875,0.0025992451701313,-0.0044789044186472,-0.0004024036461487
1770453400673,0.126251220703125,-0.533782958984375,-0.8226776123046875,-0.0068629658780992,0.0115309543907642,0.0018972359830513
1770453400683,0.1185760498046875,-0.531219482421875,-0.82666015625,-0.0157022643834352,0.0162575338035821,0.0015960324089974
1770453400694,0.1217498779296875,-0.523193359375,-0.8234405517578125,-0.0211822502315044,0.0051281829364597,0.0033790187444537
1770453400703,0.1148834228515625,-0.5250396728515625,-0.8370208740234375,-0.0174743309617042,0.0144479153677821,-0.000348874105839
1770453400713,0.1114349365234375,-0.524688720703125,-0.8451995849609375,-0.0067031765356659,0.0138119524344801,-0.0042133871465921
1770453400723,0.11444091796875,-0.52618408203125,-0.849517822265625,0.0102339955046772,-0.0038661109283566,-0.0077455374412238
1770453400733,0.1201629638671875,-0.5316162109375,-0.8481903076171875,0.0205239169299602,-0.0159243717789649,-0.0102217448875308
1770453400743,0.125335693359375,-0.537353515625,-0.8404541015625,0.0225796103477478,-0.0146569730713963,-0.0067316722124814
1770453400753,0.1278839111328125,-0.5465850830078125,-0.83685302734375,0.0218222085386514,-0.0001467401743866,0.000532099569682
1770453400764,0.13421630859375,-0.5545806884765625,-0.835662841796875,0.0197297632694244,0.0121695809066295,0.0116651784628629
1770453400774,0.1347503662109375,-0.5364227294921875,-0.8370513916015625,0.0282585360109806,-0.0101775359362363,0.0209316462278366
1770453400789,0.1168670654296875,-0.5066070556640625,-0.830291748046875,0.0352738350629806,0.0426497273147106,-0.0253937728703022
1770453400793,0.09185791015625,-0.5042877197265625,-0.826812744140625,0.0352738350629806,0.0426497273147106,-0.0253937728703022
1770453400804,0.092437744140625,-0.5078582763671875,-0.82073974609375,0.0112518556416034,0.0210421681404113,-0.0381167605519294
1770453400814,0.127899169921875,-0.5675811767578125,-0.829559326171875,-0.0023707458749413,0.016898289322853,-0.0192503929138183
1770453400825,0.1464080810546875,-0.572845458984375,-0.8435821533203125,0.0046554720029234,0.0345023162662982,0.0092046838253736
1770453400834,0.14111328125,-0.54473876953125,-0.8280029296875,0.0133719984441995,0.0187851395457983,0.0146077051758766
1770453400844,0.1134796142578125,-0.4995269775390625,-0.815032958984375,0.0198181793093681,-0.0177129507064819,-0.011462777853012
1770453400854,0.0879058837890625,-0.505645751953125,-0.813507080078125,0.0091889705508947,-0.0303682927042245,-0.0367002226412296
1770453400864,0.0995330810546875,-0.5167236328125,-0.8302764892578125,2.157160452043172e-05,-0.0283533446490764,-0.0434843599796295
1770453400874,0.1207275390625,-0.5297698974609375,-0.8426055908203125,0.0047295079566538,-0.0254635475575923,-0.0415309332311153
1770453400884,0.128570556640625,-0.5420989990234375,-0.8390655517578125,0.0072302161715924,-0.0209281854331493,-0.0375849269330501
1770453400894,0.1345367431640625,-0.5450439453125,-0.82952880859375,0.0018511632224544,-0.0098595544695854,-0.0222847983241081
1770453400904,0.1405487060546875,-0.5475616455078125,-0.829010009765625,-0.0045473473146557,-0.0051966262981295,-0.0055103464983403
1770453400914,0.141510009765625,-0.55169677734375,-0.834014892578125,-0.0083319656550884,-0.0067167584784328,0.0090028159320354
1770453400925,0.137359619140625,-0.5460357666015625,-0.8319854736328125,-0.0104425204917788,-0.0093996273353695,0.0135272601619362
1770453400934,0.1325225830078125,-0.533966064453125,-0.8279266357421875,-0.0101847266778349,-0.0050397659651935,0.010284861549735
1770453400944,0.12469482421875,-0.52740478515625,-0.8224639892578125,-0.0098955072462558,-0.0007603325066156,0.008101069368422
1770453400958,0.11968994140625,-0.528564453125,-0.828155517578125,-0.0084829665720462,0.0011805793037638,0.0012969594681635
1770453400964,0.116119384765625,-0.5301513671875,-0.83935546875,-0.0035673042293637,0.0060032978653907,0.0003459446306806
1770453400974,0.1144256591796875,-0.5357818603515625,-0.8474273681640625,0.0003025351034011,0.0120348250493407,0.0015433018561452
1770453400984,0.1125030517578125,-0.5400238037109375,-0.847900390625,0.0064254086464643,0.0115072522312402,0.0051460261456668
1770453400994,0.115142822265625,-0.5369110107421875,-0.840850830078125,0.0093751261010766,0.0069529809989035,0.0089503517374396
1770453401005,0.11529541015625,-0.5304718017578125,-0.8326568603515625,0.0092459628358483,-0.0032019184436649,0.0073348782025277
1770453401015,0.1155548095703125,-0.531829833984375,-0.8292083740234375,0.0088105360046029,-0.0072696306742727,0.0036503949668258
1770453401025,0.11444091796875,-0.5404052734375,-0.832794189453125,0.0107208210974931,0.0062405853532254,-0.0018000305863097
1770453401035,0.1185455322265625,-0.534637451171875,-0.8391571044921875,0.017671937122941,0.0102387890219688,-0.0045039379037916
1770453401045,0.12042236328125,-0.5336151123046875,-0.8380584716796875,0.0266004521399736,-0.0095287906005978,-0.0086094671860337
1770453401055,0.1159210205078125,-0.531158447265625,-0.8398895263671875,0.0409479662775993,-0.0116974022239446,-0.0160625893622636
1770453401065,0.1160888671875,-0.528289794921875,-0.8366241455078125,0.0422790125012397,-0.0092214616015553,-0.0194242987781763
1770453401075,0.1215972900390625,-0.5384368896484375,-0.83062744140625,0.0388917401432991,-0.011149856261909,-0.0187348052859306
1770453401085,0.13055419921875,-0.54241943359375,-0.8329925537109375,0.0409737974405288,-0.0135826542973518,-0.0097090862691402
1770453401095,0.13037109375,-0.5417938232421875,-0.8302154541015625,0.0412068255245685,-0.0116462698206305,-0.0052618738263845
1770453401105,0.126678466796875,-0.53875732421875,-0.827362060546875,0.0386717617511749,-0.0054922369308769,-0.0025041704066097
1770453401115,0.1298828125,-0.5382843017578125,-0.8230743408203125,0.0315587259829044,-0.0101591609418392,0.0023289343807846
1770453401125,0.128173828125,-0.5426025390625,-0.8264617919921875,0.025433188304305,0.0006516755092889,0.0038432078436017
1770453401137,0.1326446533203125,-0.5478668212890625,-0.8345794677734375,0.0231231618672609,0.0140550984069705,0.0083356937393546
1770453401145,0.130096435546875,-0.549407958984375,-0.838836669921875,0.0244198553264141,0.0264617018401622,0.0094062853604555
1770453401155,0.1280670166015625,-0.5388946533203125,-0.82611083984375,0.0172466319054365,0.0008069378091022,0.0149398008361458
1770453401165,0.1254119873046875,-0.540802001953125,-0.823486328125,0.0111341439187526,0.0093655381351709,0.0104031059890985
1770453401175,0.1179046630859375,-0.540069580078125,-0.8206939697265625,-0.0016919062472879,0.0221234112977981,0.0096837859600782
1770453401185,0.1237030029296875,-0.540802001953125,-0.81988525390625,-0.013775466941297,0.0330178700387477,0.0114140417426824
1770453401195,0.1339111328125,-0.54229736328125,-0.82177734375,-0.0177049618214368,0.0552075952291488,0.0186530463397502
1770453401206,0.1187744140625,-0.5381927490234375,-0.8258514404296875,-0.0164543408900499,0.0420206859707832,0.0179148185998201
1770453401215,0.107757568359375,-0.5278778076171875,-0.8282012939453125,-0.0153448674827814,0.0242398250848054,0.0126159265637397
1770453401226,0.1085357666015625,-0.532501220703125,-0.8405914306640625,-0.0098305260762572,0.0118302945047616,0.0091104079037904
1770453401236,0.1124267578125,-0.538909912109375,-0.845123291015625,-0.0061202105134725,-0.0025081650819629,0.0052940980531275
1770453401246,0.1229400634765625,-0.5415802001953125,-0.8418121337890625,-0.0014929680619388,-0.0058022290468215,0.0053678676486015
1770453401256,0.1294097900390625,-0.5442047119140625,-0.8338470458984375,-0.0016343819443136,-0.0006327670416794,0.0069873356260359
1770453401266,0.1270599365234375,-0.5421295166015625,-0.826324462890625,-0.0055071506649255,0.0069971894845366,0.0091389035806059
1770453401276,0.121612548828125,-0.5397186279296875,-0.82525634765625,-0.0079671125859022,0.0146609684452414,0.0076326197013258
1770453401286,0.1187896728515625,-0.54022216796875,-0.832122802734375,-0.0023744744248688,0.0083937514573335,0.0089756520465016
1770453401296,0.1168212890625,-0.5373992919921875,-0.8355255126953125,0.0031814121175557,-0.0068379323929548,0.0092747248709201
1770453401306,0.1195526123046875,-0.53668212890625,-0.8364105224609375,0.0061396514065563,-0.0089141326025128,0.0071609737351536
1770453401316,0.1191558837890625,-0.5349273681640625,-0.8340606689453125,0.0083468798547983,-0.0006580671179108,0.0066746803931891
1770453401326,0.1198577880859375,-0.5321502685546875,-0.8280029296875,0.00562459602952,0.0058248657733201,0.00510980701074
1770453401338,0.11859130859375,-0.53167724609375,-0.824493408203125,0.0025244103744626,0.0067921262234449,0.0020975056104362
1770453401346,0.1179351806640625,-0.5338592529296875,-0.8247528076171875,-0.0009446232579648,0.0066581689752638,-0.0008005462004803
1770453401356,0.119659423828125,-0.53485107421875,-0.825408935546875,-0.0018013621447607,0.0013126720441505,-0.0003169161791447
1770453401366,0.1210174560546875,-0.5384368896484375,-0.828338623046875,-0.0020756677258759,-0.003770237090066,-0.0007803061744198
1770453401376,0.122894287109375,-0.54486083984375,-0.8321380615234375,-0.0026557042729109,-0.0002061286650132,0.0014098774408921
1770453401386,0.1288604736328125,-0.553802490234375,-0.8351898193359375,-0.0026708841323852,0.0102094942703843,0.0077785607427358
1770453401396,0.136444091796875,-0.5580902099609375,-0.831695556640625,-0.0054458980448544,0.0122609268873929,0.0229117069393396
1770453401407,0.131378173828125,-0.53131103515625,-0.8201141357421875,-0.007120493799448,-0.0148183610290288,0.0255562253296375
1770453401416,0.108795166015625,-0.513580322265625,-0.8168182373046875,-0.0076267607510089,-0.0006652576266787,0.0007595335482619
1770453401427,0.089019775390625,-0.5036468505859375,-0.8281707763671875,0.0078608524054288,0.0364317782223224,-0.0259530376642942
1770453401437,0.1001739501953125,-0.53118896484375,-0.8207855224609375,-0.018394187092781,-0.0107083041220903,-0.0321582034230232
1770453401447,0.1401214599609375,-0.5897674560546875,-0.8381195068359375,-0.0196133814752101,0.0242182537913322,0.0030522488523274
1770453401457,0.1539764404296875,-0.5738372802734375,-0.8397369384765625,-0.0086528770625591,0.0510282963514328,0.0266039129346609
1770453401467,0.137908935546875,-0.5294189453125,-0.8157806396484375,0.0034149715211242,0.0140795996412634,0.0163435526192188
1770453401477,0.1015777587890625,-0.4972381591796875,-0.805419921875,-0.0020841897930949,-0.0219108909368515,-0.0111434645950794
1770453401487,0.0910491943359375,-0.516326904296875,-0.813629150390625,-0.0193971339613199,-0.0113304192200303,-0.027493942528963
1770453401497,0.112091064453125,-0.5274810791015625,-0.8395233154296875,-0.0160857588052749,0.0159467421472072,-0.030966704711318
1770453401507,0.12408447265625,-0.5395050048828125,-0.850860595703125,0.0013014868600293,0.0037840856239199,-0.0281312372535467
1770453401517,0.1245574951171875,-0.544281005859375,-0.8420562744140625,0.0080227730795741,-0.0199864916503429,-0.0263557080179452
1770453401527,0.1275177001953125,-0.5450286865234375,-0.835845947265625,0.0014695322606712,-0.019431222230196,-0.015100123360753
1770453401537,0.1360015869140625,-0.553466796875,-0.8290863037109375,-0.0142521727830171,-0.0030032468494027,0.001340635237284
1770453401547,0.1431121826171875,-0.553741455078125,-0.826995849609375,-0.0244898963719606,0.0092462291941046,0.012287825345993
1770453401557,0.135009765625,-0.546295166015625,-0.82830810546875,-0.0243615321815013,0.0168197266757488,0.0145669588819146
1770453401567,0.1253662109375,-0.5384368896484375,-0.828521728515625,-0.0211388412863016,0.0186080392450094,0.0127581395208835
1770453401577,0.1210784912109375,-0.53643798828125,-0.82904052734375,-0.0179342590272426,0.0216650813817977,0.0074821510352194
1770453401587,0.119354248046875,-0.5368804931640625,-0.8325347900390625,-0.0107256146147847,0.0198562629520893,0.0021411816123872
1770453401597,0.1168365478515625,-0.53814697265625,-0.836181640625,-0.0067622987553477,0.0207731891423463,0.0024160197935998
1770453401607,0.1145477294921875,-0.5420074462890625,-0.831817626953125,-0.0111554488539695,0.0150236906483769,0.0050730556249618
1770453401617,0.114501953125,-0.5437164306640625,-0.8235931396484375,-0.0168618038296699,0.0117405457422137,0.0097218696027994
1770453401628,0.1161041259765625,-0.5401763916015625,-0.8229522705078125,-0.0237335581332445,0.0133935697376728,0.0131171336397528
1770453401638,0.1103973388671875,-0.53564453125,-0.8238067626953125,-0.0255232024937868,0.0064547033980488,0.0095093492418527
1770453401648,0.1118621826171875,-0.541259765625,-0.832672119140625,-0.023447535932064,0.002127066720277,0.0051508196629583
1770453401658,0.1142425537109375,-0.5432891845703125,-0.8401641845703125,-0.0127339046448469,0.0078025292605161,-5.219795639277436e-05
1770453401668,0.12115478515625,-0.5369873046875,-0.8390045166015625,-0.009052351117134,-0.0053702644072473,-0.0018809906905516
1770453401678,0.1263580322265625,-0.5394439697265625,-0.8337860107421875,-0.0004458131734281,0.0010580739472061,-0.0049047437496483
1770453401688,0.115570068359375,-0.5304107666015625,-0.8389434814453125,0.0007419566973112,0.0043617254123091,-0.0152226286008954
1770453401698,0.1263885498046875,-0.53009033203125,-0.821044921875,-0.0047619980759918,-0.0155083863064646,-0.0135991657152771
1770453401708,0.1341552734375,-0.543731689453125,-0.822418212890625,-0.010505904443562,-0.0122939506545662,-0.0082190474495291
1770453401718,0.1346588134765625,-0.541534423828125,-0.829193115234375,-0.0070624370127916,-0.0148306116461753,-0.0019406455103307
1770453401728,0.1328277587890625,-0.5394744873046875,-0.823089599609375,-0.0148705588653683,0.0017933726776391,0.0024596955627202
1770453401738,0.1280364990234375,-0.5359954833984375,-0.8220977783203125,-0.0223196875303983,0.0154745634645223,0.0066999807022511
1770453401748,0.1290740966796875,-0.53668212890625,-0.8248443603515625,-0.0287349745631217,0.0138340564444661,0.0128159299492836
1770453401758,0.130126953125,-0.53851318359375,-0.83349609375,-0.0293280612677335,0.0132034197449684,0.0161073300987482
1770453401768,0.1285858154296875,-0.5410614013671875,-0.83966064453125,-0.0239117238670587,0.017862619832158,0.0177339892834424
1770453401778,0.1264801025390625,-0.5409088134765625,-0.8383331298828125,-0.02178705483675,0.0178128182888031,0.0174322538077831
1770453401788,0.1229248046875,-0.5374298095703125,-0.834228515625,-0.0201894249767065,0.0211460310965776,0.0181153547018766
1770453401798,0.121917724609375,-0.532745361328125,-0.833892822265625,-0.0189635716378688,0.0270374771207571,0.0146372662857174
1770453401808,0.1191558837890625,-0.5313262939453125,-0.8345947265625,-0.0158079918473958,0.0211846474558115,0.0112001905217766
1770453401818,0.117431640625,-0.5319061279296875,-0.8379058837890625,-0.0067186225205659,0.0149856070056557,0.0102675510570406
1770453401828,0.1187591552734375,-0.5312957763671875,-0.83795166015625,0.0040509342215955,0.0099618202075362,0.0065926550887525
1770453401838,0.1168212890625,-0.5310211181640625,-0.8360748291015625,0.0120550645515322,0.0038882151711732,0.006874683778733
1770453401848,0.117919921875,-0.531890869140625,-0.831512451171875,0.0138460407033562,-0.0036799560766667,0.0067817396484315
1770453401859,0.117401123046875,-0.5348663330078125,-0.83001708984375,0.011289938353002,-0.0004814995336346,0.00721903052181
1770453401869,0.1214447021484375,-0.541900634765625,-0.82891845703125,0.0063780043274164,0.0048080710694193,0.0084635261446237
1770453401879,0.1216278076171875,-0.5437164306640625,-0.831756591796875,0.0068496502935886,0.0071639032103121,0.0080073261633515
1770453401890,0.1223907470703125,-0.5419464111328125,-0.83551025390625,0.0073913373053073,0.0077239661477506,0.009009207598865
1770453401899,0.1232757568359375,-0.5419921875,-0.8324737548828125,0.0058965049684047,-0.0004836300504393,0.0080206422135233
1770453401909,0.122100830078125,-0.5404205322265625,-0.8276824951171875,0.0016367788193747,-0.0018354506464675,0.0083040026947855
1770453401919,0.12286376953125,-0.5391387939453125,-0.8247833251953125,-0.0086329029873013,0.0033473272342234,0.0095138764008879
1770453401929,0.1221160888671875,-0.53460693359375,-0.823699951171875,-0.0123980799689888,0.0120121883228421,0.008927715010941
1770453401939,0.117218017578125,-0.53118896484375,-0.8273468017578125,-0.0162862949073314,0.0107320062816143,0.0036591833923012
1770453401949,0.115447998046875,-0.5298309326171875,-0.83209228515625,-0.0108222877606749,0.0073718959465622,-0.0020325244404375
1770453401960,0.115570068359375,-0.5327301025390625,-0.83831787109375,-0.0036503949668258,0.0094992294907569,-0.0046829022467136
1770453401969,0.1191558837890625,-0.533721923828125,-0.83807373046875,0.0058546932414174,0.0113751599565148,-0.0073748254217207
1770453401979,0.123687744140625,-0.5374755859375,-0.834075927734375,0.0111221596598625,0.0045641255564987,-0.0056608151644468
1770453401989,0.125152587890625,-0.54071044921875,-0.830718994140625,0.0103695504367351,0.0029292108956724,-0.0013899037148803
1770453401999,0.1297760009765625,-0.5472564697265625,-0.8283843994140625,0.002681270474568,0.0072469939477741,0.0063111591152846
1770453402009,0.1340789794921875,-0.5548095703125,-0.8254241943359375,-0.0101895201951265,0.0206522811204195,0.0195638481527566
1770453402019,0.14111328125,-0.550994873046875,-0.8228759765625,-0.018150508403778,0.025194302201271,0.0334453098475933
1770453402029,0.1300811767578125,-0.521728515625,-0.8240509033203125,-0.0193705018609762,0.0034104441292583,0.0262462515383958
1770453402039,0.1007232666015625,-0.5065765380859375,-0.83575439453125,0.0036341496743261,0.0413146838545799,-0.005740710068494
1770453402049,0.076629638671875,-0.494171142578125,-0.8506927490234375,0.0354527980089187,0.0954897701740264,-0.0477667227387428
1770453402059,0.107208251953125,-0.54931640625,-0.85052490234375,0.0187965910881757,0.0103240106254816,-0.0352109856903553
1770453402070,0.15606689453125,-0.5886993408203125,-0.8661041259765625,0.0517092682421207,0.0353396162390708,0.0009888317435979
1770453402079,0.14959716796875,-0.5707550048828125,-0.8595733642578125,0.0915051475167274,0.0651883259415626,0.0122545352205634
1770453402090,0.133544921875,-0.5135650634765625,-0.8311004638671875,0.1137870177626609,-0.0202714502811431,0.0030157635919749
1770453402100,0.0885772705078125,-0.4965057373046875,-0.785186767578125,0.0854027792811393,-0.0746683776378631,-0.0236374195665121
1770453402110,0.0947418212890625,-0.5239715576171875,-0.79095458984375,0.036404613405466,-0.0453126206994056,-0.0378187522292137
1770453402120,0.1156005859375,-0.53216552734375,-0.8052520751953125,0.0061843926087021,0.003458114573732,-0.0365465581417083
1770453402130,0.1356048583984375,-0.5428466796875,-0.8221435546875,0.0016586167039349,0.010229468345642,-0.0379308722913265
1770453402140,0.1355438232421875,-0.5560150146484375,-0.8320159912109375,0.0016961672808974,-0.0120148509740829,-0.028776254504919
1770453402150,0.128997802734375,-0.5542144775390625,-0.8310089111328125,-0.006916229147464,-0.0115626463666558,-0.0178242698311805
1770453402160,0.1328277587890625,-0.5521087646484375,-0.83062744140625,-0.0209380388259887,0.0048703891225159,-0.0060554957017302
1770453402170,0.137359619140625,-0.5505828857421875,-0.824920654296875,-0.0350618474185466,0.0148098384961485,0.0033475933596491
1770453402180,0.1342620849609375,-0.5448455810546875,-0.8170928955078125,-0.042389802634716,0.0222357977181673,0.0088022798299789
1770453402190,0.1302947998046875,-0.542449951171875,-0.8192138671875,-0.0407700650393962,0.0309848133474588,0.0096433060243725
1770453402200,0.1314239501953125,-0.544036865234375,-0.824676513671875,-0.0370568223297596,0.0294034294784069,0.0119211077690124
1770453402211,0.1302337646484375,-0.5456085205078125,-0.8297576904296875,-0.0296268686652183,0.0268619749695062,0.0150916008278727
1770453402222,0.12420654296875,-0.544677734375,-0.8358001708984375,-0.0195547919720411,0.0275709070265293,0.0151752242818474
1770453402230,0.1180877685546875,-0.54412841796875,-0.8333740234375,-0.0127701237797737,0.0213324520736932,0.0127208549529314
1770453402240,0.1166229248046875,-0.537933349609375,-0.8257598876953125,-0.013341904617846,0.0158330257982015,0.0146255483850836
1770453402250,0.1158294677734375,-0.5295867919921875,-0.816986083984375,-0.0218240730464458,0.0157113187015056,0.0110563794150948
1770453402260,0.1136627197265625,-0.53369140625,-0.8118896484375,-0.0361505486071109,0.0125770447775721,0.0110340090468525
1770453402270,0.117034912109375,-0.538665771484375,-0.8137359619140625,-0.0476045385003089,0.0190533194690942,0.0065777413547039
1770453402280,0.116607666015625,-0.531890869140625,-0.82171630859375,-0.0514288358390331,0.0361843705177307,0.0008705873624421
1770453402291,0.12158203125,-0.5414886474609375,-0.8255767822265625,-0.0582300163805484,0.0182575676590204,0.0014990933705121
1770453402301,0.1242828369140625,-0.5398712158203125,-0.830352783203125,-0.0599181950092315,0.0004418184107635,0.0012141350889578
1770453402311,0.121612548828125,-0.52801513671875,-0.830047607421875,-0.0611885227262973,0.0082539347931742,-0.0053723948076367
1770453402321,0.1211395263671875,-0.5257415771484375,-0.8261566162109375,-0.0679308474063873,0.0161419510841369,-0.0135168740525841
1770453402331,0.128387451171875,-0.5321807861328125,-0.8285369873046875,-0.0659718289971351,0.0062166168354451,-0.0129853067919611
1770453402341,0.1374969482421875,-0.5384521484375,-0.8426971435546875,-0.0512796975672245,0.0021774005144834,-0.0072248894721269
1770453402351,0.140228271484375,-0.537017822265625,-0.8527374267578125,-0.0238398183137178,0.0121669173240661,-0.0012945625931024
1770453402361,0.1366119384765625,-0.536102294921875,-0.8511810302734375,-0.0016756609547883,0.0083902888000011,0.0053622745908796
1770453402371,0.1391754150390625,-0.536102294921875,-0.846160888671875,0.0140849258750677,-0.0030405309516936,0.0119946114718914
1770453402381,0.1345367431640625,-0.5385589599609375,-0.840972900390625,0.0239945482462644,0.0018695390317589,0.0162913557142019
1770453402391,0.13427734375,-0.5381927490234375,-0.8421173095703125,0.0302412584424018,0.0045028729364275,0.0202434863895177
1770453402401,0.135498046875,-0.5375518798828125,-0.831634521484375,0.0300114285200834,-0.003304183948785,0.0221495106816291
1770453402411,0.1301422119140625,-0.5353546142578125,-0.82244873046875,0.0257341247051954,0.0024825986474752,0.0221212804317474
1770453402421,0.1244659423828125,-0.5314788818359375,-0.823516845703125,0.0236547291278839,0.0110206929966807,0.0155347511172294
1770453402431,0.120086669921875,-0.5317840576171875,-0.826202392578125,0.0254912450909614,0.0058786617591977,0.0101735414937138
1770453402441,0.1210174560546875,-0.5325927734375,-0.8273468017578125,0.0286881029605865,-0.0009824400767683,0.0076185050420463
1770453402451,0.1190032958984375,-0.533172607421875,-0.824249267578125,0.0245365016162395,-0.0125016765668988,0.003597664181143
1770453402461,0.118316650390625,-0.533966064453125,-0.81719970703125,0.0154348826035857,-0.0058957058936357,0.0044016726315021
1770453402471,0.1197662353515625,-0.53564453125,-0.815155029296875,-0.0011832424206659,0.0017326525412499,0.0076826871372759
1770453402481,0.12359619140625,-0.539031982421875,-0.809234619140625,-0.0152990613132715,-0.0035792884882539,0.0127666611224412
1770453402491,0.123779296875,-0.5408782958984375,-0.816162109375,-0.0257881879806518,0.0066917249932885,0.0144591005519032
1770453402501,0.12347412109375,-0.53753662109375,-0.822967529296875,-0.0290729310363531,0.0122681176289916,0.0120047312229871
1770453402512,0.1194915771484375,-0.5360565185546875,-0.83331298828125,-0.0220749415457248,0.0036450685001909,0.0039553269743919
1770453402522,0.119537353515625,-0.5373077392578125,-0.8357696533203125,-0.0197734385728836,-0.0065151574090123,8.57537888805382e-05
1770453402532,0.119476318359375,-0.5386962890625,-0.8350067138671875,-0.0192559864372015,-0.014845791272819,-0.0041300300508737
1770453402542,0.1223907470703125,-0.5357666015625,-0.8311767578125,-0.0199508052319288,-0.0122984778136014,-0.0053558833897113
1770453402552,0.1251678466796875,-0.5303955078125,-0.823028564453125,-0.0269003231078386,-0.0036338833160698,-0.0035071168094873
1770453402562,0.1226348876953125,-0.52685546875,-0.8199920654296875,-0.0333164110779762,-6.924218723725062e-06,-0.0022346584592014
1770453402572,0.1187744140625,-0.530426025390625,-0.8321380615234375,-0.0296300631016492,0.0048703891225159,-0.0031726236920803
1770453402582,0.1185150146484375,-0.5325469970703125,-0.8455047607421875,-0.0159451439976692,0.0035963326226919,-0.0042272354476153
1770453402592,0.118560791015625,-0.53271484375,-0.8465423583984375,-0.0028615666087716,-0.0085053378716111,-0.0064222128130495
1770453402602,0.12371826171875,-0.5336151123046875,-0.8419342041015625,0.0040661143139004,-0.0217590909451246,-0.0055076833814382
1770453402612,0.123626708984375,-0.539398193359375,-0.8388519287109375,0.00604351144284,-0.0187840741127729,-0.0054142065346241
1770453402622,0.131683349609375,-0.5531463623046875,-0.836456298828125,0.0030314761679619,-0.0024242755025625,0.003738012863323
1770453402632,0.144134521484375,-0.5543670654296875,-0.8335113525390625,0.0045947516337037,-0.0014887070283293,0.017110276967287
1770453402642,0.13525390625,-0.5260162353515625,-0.8309326171875,0.0140630882233381,-0.0236845575273036,0.0194647777825593
1770453402652,0.1053009033203125,-0.5025482177734375,-0.834442138671875,0.0328365080058574,0.00341736827977,-0.0160277020186185
1770453402662,0.0856170654296875,-0.4955596923828125,-0.8460693359375,0.0541407316923141,0.0274262987077236,-0.0435661189258098
1770453402672,0.105499267578125,-0.5477294921875,-0.8291778564453125,0.0341830030083656,-0.0282028764486312,-0.0454617589712142
1770453402682,0.1484527587890625,-0.58709716796875,-0.8448333740234375,0.0353958085179328,0.0022583606187254,-0.0059958407655358
1770453402692,0.1556854248046875,-0.5747528076171875,-0.83526611328125,0.0408539548516273,0.0195148456841707,0.0206815768033266
1770453402702,0.1358489990234375,-0.533905029296875,-0.8148956298828125,0.0454409830272197,0.0026778085157275,0.0149451270699501
1770453402712,0.095367431640625,-0.4997711181640625,-0.8022613525390625,0.0359625294804573,-0.0205390974879264,-0.0182146895676851
1770453402723,0.0852203369140625,-0.50640869140625,-0.8137054443359375,0.0184724833816289,-0.0310817528516054,-0.0451821237802505
1770453402733,0.1080169677734375,-0.5209197998046875,-0.8354339599609375,0.0160548668354749,-0.0301187541335821,-0.0568323880434036
1770453402743,0.1284027099609375,-0.5370330810546875,-0.840972900390625,0.025457689538598,-0.0325792469084262,-0.055873118340969
1770453402753,0.132965087890625,-0.5501708984375,-0.8343963623046875,0.0272489320486783,-0.0332247987389564,-0.0437120608985424
1770453402763,0.1361846923828125,-0.5529327392578125,-0.8271331787109375,0.0203007441014051,-0.0275575909763574,-0.0250097457319498
1770453402773,0.141082763671875,-0.5513763427734375,-0.825714111328125,0.0044504082761704,-0.0103431846946477,-0.0097674094140529
1770453402783,0.141387939453125,-0.5527191162109375,-0.8264617919921875,-0.0062235412187874,0.003163835266605,0.0037729002069681
1770453402793,0.14007568359375,-0.547760009765625,-0.826934814453125,-0.0080720409750938,0.0074600465595722,0.0081876227632164
1770453402803,0.1316680908203125,-0.5382080078125,-0.8274078369140625,-0.0003339604008942,0.005967877805233,0.0097399791702628
1770453402813,0.12445068359375,-0.53363037109375,-0.8285675048828125,0.0085535403341054,-0.004301537759602,0.0013281183782964
1770453402823,0.118377685546875,-0.5337982177734375,-0.83221435546875,0.0145720187574625,-0.0164199862629175,-0.0042101913131773
1770453402833,0.1186370849609375,-0.5379486083984375,-0.8354034423828125,0.0183592997491359,-0.0122587969526648,-0.0073721623048186
1770453402843,0.1195220947265625,-0.5459747314453125,-0.8348236083984375,0.0178889855742454,-0.0060283313505351,-0.0075412732549011
1770453402853,0.1209716796875,-0.546966552734375,-0.82733154296875,0.0113344136625528,-0.0007976167253218,-0.0032810145057737
1770453402863,0.1190338134765625,-0.5460662841796875,-0.8177032470703125,0.0026477146893739,0.0029992519412189,0.0005771070136688
1770453402873,0.1169281005859375,-0.540435791015625,-0.815643310546875,-0.0065665561705827,-0.0013579458463937,0.0026549051981419
1770453402883,0.114837646484375,-0.5454254150390625,-0.8199462890625,-0.015876967459917,-0.0059817261062562,0.0036783581599593
1770453402893,0.1141510009765625,-0.543426513671875,-0.824066162109375,-0.0186586398631334,0.0192980635911226,-0.0001342233153991
1770453402903,0.1162109375,-0.5331878662109375,-0.8267669677734375,-0.0173052214086055,0.0140782687813043,-0.0081748394295573
1770453402913,0.117279052734375,-0.54058837890625,-0.831573486328125,-0.0098166782408952,6.97748182574287e-05,-0.0131818484514951
1770453402924,0.118865966796875,-0.5379180908203125,-0.8376312255859375,-0.0010109359864145,-0.0050179283134639,-0.0193534586578607
1770453402933,0.11920166015625,-0.5343780517578125,-0.834381103515625,0.0056986319832503,-0.0075737638399004,-0.0262233484536409
1770453402944,0.12274169921875,-0.542877197265625,-0.8303070068359375,0.0051122037693858,-0.0097114834934473,-0.0301816035062074
1770453402954,0.125274658203125,-0.5440521240234375,-0.8264007568359375,0.0006370281334966,-0.0168053451925516,-0.028993833810091
1770453402964,0.1233673095703125,-0.5455322265625,-0.8276824951171875,-0.0001504685933468,-0.0035758262965828,-0.028323782607913
1770453402973,0.126220703125,-0.5407257080078125,-0.827239990234375,-0.0017110810149461,0.0032173648942261,-0.0262004453688859
1770453402984,0.1263580322265625,-0.538238525390625,-0.821533203125,-0.0077077206224203,-0.002633333671838,-0.0284047424793243
1770453402994,0.1255035400390625,-0.5403594970703125,-0.82916259765625,-0.0060522998683154,0.0006910903030075,-0.0272798240184783
1770453403004,0.12933349609375,-0.54498291015625,-0.8404541015625,0.0007395598222501,-0.0014104101574048,-0.0232960022985935
1770453403014,0.130126953125,-0.5447998046875,-0.8389892578125,0.0057327207177877,-0.0047260457649827,-0.0236992035061121
1770453403024,0.1318206787109375,-0.54345703125,-0.829071044921875,0.0032565132714807,-0.0023686154745519,-0.022459503263235
1770453403034,0.1317138671875,-0.544952392578125,-0.8227386474609375,-0.0032466596458107,0.0010676612146198,-0.0166162606328725
1770453403044,0.1324310302734375,-0.5431671142578125,-0.8202056884765625,-0.0081000039353966,0.0086635295301675,-0.0110585102811455
1770453403055,0.1320343017578125,-0.5418701171875,-0.824493408203125,-0.0094984304159879,0.0146865341812372,-0.0073447320610284
1770453403064,0.1279449462890625,-0.536712646484375,-0.8268585205078125,-0.0110702281817793,0.01539440266788,-0.0068158279173076
1770453403074,0.1244354248046875,-0.532073974609375,-0.8318939208984375,-0.0051036817021667,0.0097575560212135,-0.0085040060803294
1770453403084,0.1214599609375,-0.53314208984375,-0.831390380859375,-0.0057327207177877,-0.0032900692895054,-0.0088193239644169
1770453403094,0.119659423828125,-0.5393829345703125,-0.8363800048828125,-0.0018623485229909,-0.0024093617685139,-0.0103929862380027
1770453403104,0.124359130859375,-0.5453033447265625,-0.834075927734375,0.0008298410102725,0.0031667647417634,-0.0095559544861316
1770453403114,0.12908935546875,-0.542877197265625,-0.821746826171875,-0.002470081904903,0.002012550830841,-0.0062158177606761
1770453403124,0.1268157958984375,-0.541107177734375,-0.816314697265625,-0.011741611175239,0.0013289173366501,-0.004220045171678
1770453403135,0.1259765625,-0.541168212890625,-0.8153533935546875,-0.0233167745172977,0.0015174691798165,-0.0051215249113738
1770453403144,0.1219940185546875,-0.5401153564453125,-0.8185882568359375,-0.0312748327851295,0.0007331682136282,-0.0100084254518151
1770453403156,0.120086669921875,-0.5381317138671875,-0.82159423828125,-0.0385604426264762,0.00072864087997,-0.0122516062110662
1770453403165,0.122955322265625,-0.53277587890625,-0.825439453125,-0.03930239751935,0.004423776641488,-0.0141637558117508
1770453403175,0.1186370849609375,-0.53289794921875,-0.8332366943359375,-0.0340802073478698,0.0149384690448641,-0.0208594761788845
1770453403185,0.1159820556640625,-0.537933349609375,-0.8484039306640625,-0.0124438861384987,0.0171654038131237,-0.019671706482768
1770453403195,0.1213836669921875,-0.53338623046875,-0.85394287109375,0.0102901877835392,0.0009606021922081,-0.0230243597179651
1770453403205,0.1221923828125,-0.5305633544921875,-0.8530426025390625,0.0362064726650714,-0.0035681033041328,-0.0273144450038671
1770453403215,0.12640380859375,-0.5381927490234375,-0.84857177734375,0.0480197221040725,-0.0177931115031242,-0.02168745175004
1770453403225,0.133880615234375,-0.54833984375,-0.8329925537109375,0.0446987599134445,-0.0179947130382061,-0.0161571316421031
1770453403235,0.13836669921875,-0.562408447265625,-0.82318115234375,0.0355638526380062,0.0070613715797662,-0.0043412190861999
1770453403245,0.1451873779296875,-0.5596771240234375,-0.824371337890625,0.0299845300614833,0.0252640768885612,0.0147286122664809
1770453403255,0.1416778564453125,-0.529296875,-0.822845458984375,0.0322426259517669,-0.0048506814055144,0.0198535993695259
1770453403265,0.110504150390625,-0.519439697265625,-0.827789306640625,0.0466924048960208,0.0013683321885764,-0.0046887611970305
1770453403275,0.0904083251953125,-0.507476806640625,-0.836761474609375,0.0653382614254951,0.0271232295781373,-0.0261165555566549
1770453403285,0.100494384765625,-0.5357818603515625,-0.82049560546875,0.0397066660225391,-0.0143560357391834,-0.0280617289245128
1770453403295,0.1421966552734375,-0.58636474609375,-0.8302764892578125,0.0297640208154916,0.0041742385365068,-0.0065431203693151
1770453403305,0.152008056640625,-0.5696563720703125,-0.8186187744140625,0.0175744667649269,0.0231676362454891,0.0135866487398743
1770453403315,0.143218994140625,-0.541534423828125,-0.7956695556640625,0.0105863315984606,0.0099570266902446,0.0118015315383672
1770453403325,0.107696533203125,-0.5088348388671875,-0.790679931640625,-0.0048347027041018,-0.0088968221098184,-0.0152047853916883
1770453403335,0.0921630859375,-0.51910400390625,-0.798095703125,-0.0270649064332246,-0.0232991967350244,-0.0386533848941326
1770453403345,0.1075592041015625,-0.532196044921875,-0.8203277587890625,-0.0407082810997962,-0.0187830086797475,-0.0459810756146907
1770453403356,0.1258544921875,-0.5431365966796875,-0.8280792236328125,-0.0470498017966747,-0.0109365368261933,-0.0430348180234432
1770453403365,0.133544921875,-0.55029296875,-0.8155517578125,-0.062808521091938,-0.0168897677212953,-0.0333547592163085
1770453403375,0.1342620849609375,-0.5500640869140625,-0.8050689697265625,-0.0865010693669319,-0.0147256832569837,-0.0235450062900781
1770453403386,0.142822265625,-0.553314208984375,-0.803619384765625,-0.1185514107346534,-0.0046919570304453,-0.001603755634278
1770453403396,0.1545562744140625,-0.5516204833984375,-0.80780029296875,-0.1385879665613174,-0.0006029396899975,0.0214589536190032
1770453403406,0.1404266357421875,-0.547943115234375,-0.823028564453125,-0.1355583667755127,0.0135949049144983,0.0233585853129625
1770453403416,0.131622314453125,-0.5395660400390625,-0.8374786376953125,-0.1230082139372825,0.0291416402906179,0.017828531563282
1770453403426,0.12347412109375,-0.531768798828125,-0.8353424072265625,-0.1117928475141525,0.0106542417779564,0.0054347128607332
1770453403436,0.12188720703125,-0.52862548828125,-0.850799560546875,-0.0926670879125595,0.0001235706731677,-0.0033923345617949
1770453403446,0.1219635009765625,-0.537017822265625,-0.8600006103515625,-0.0738774165511131,0.0022221414837986,-0.0096949711441993
1770453403456,0.1260528564453125,-0.5396728515625,-0.8633270263671875,-0.058531753718853,0.0039747678674757,-0.0105354655534029
1770453403466,0.1293182373046875,-0.5397491455078125,-0.860565185546875,-0.0434087254106998,0.0030911311041563,-0.0041382857598364
1770453403476,0.12884521484375,-0.5373687744140625,-0.8561859130859375,-0.0328215956687927,0.0102092279121279,0.0032860743813216
1770453403486,0.12738037109375,-0.5305938720703125,-0.848846435546875,-0.0265194922685623,0.0141006391495466,0.0077732345089316
1770453403496,0.1240997314453125,-0.5343475341796875,-0.8459014892578125,-0.0171941667795181,0.0174825880676507,0.0123397568240761
1770453403506,0.1236572265625,-0.5463714599609375,-0.8537445068359375,-0.0034376082476228,0.0351995341479778,0.0154111804440617
1770453403516,0.1271209716796875,-0.539764404296875,-0.8595428466796875,0.0171036198735237,0.0364368371665477,0.0149022508412599
1770453403526,0.1293792724609375,-0.531280517578125,-0.85577392578125,0.0354088582098484,0.0142061002552509,0.0168990883976221
1770453403536,0.1202239990234375,-0.52630615234375,-0.8509063720703125,0.0547737665474414,0.0034562505315989,0.0028956551104784
1770453403546,0.1148834228515625,-0.5269317626953125,-0.8535003662109375,0.0717189311981201,0.007506385911256,-0.009631055407226
1770453403556,0.12298583984375,-0.53521728515625,-0.8526458740234375,0.0835992917418479,0.0023917849175632,-0.0169792491942644
1770453403566,0.1288299560546875,-0.53948974609375,-0.846527099609375,0.0963363870978355,0.0033214944414794,-0.0185172259807586
1770453403576,0.1305084228515625,-0.5405731201171875,-0.8373260498046875,0.1038334518671035,0.0027244137600064,-0.0199028681963682
1770453403586,0.1294403076171875,-0.5388946533203125,-0.824005126953125,0.0987931564450264,0.0001688444172032,-0.0160077288746833
1770453403597,0.134002685546875,-0.5411529541015625,-0.816436767578125,0.0859998613595962,-0.001259675133042,-0.0082262381911277
1770453403607,0.1377410888671875,-0.54168701171875,-0.8125762939453125,0.0679138004779815,0.0086467517539858,-0.0015313175972551
1770453403617,0.1360321044921875,-0.545166015625,-0.815521240234375,0.0544549860060215,0.0182935204356908,0.0019933760631829
1770453403627,0.135101318359375,-0.544708251953125,-0.8214111328125,0.0439914278686046,0.0243812389671802,0.0072693643160164
1770453403637,0.1348114013671875,-0.5426177978515625,-0.8193511962890625,0.0296782664954662,0.0190615747123956,0.0080890851095318
1770453403647,0.1290740966796875,-0.5417938232421875,-0.8143463134765625,0.016564330086112,0.0207718573510646,0.0054432349279522
1770453403657,0.12884521484375,-0.538543701171875,-0.817474365234375,0.0058909123763442,0.0313102528452873,0.0001675128296483
1770453403667,0.1332244873046875,-0.5428619384765625,-0.822723388671875,0.0017427726415917,0.0347704961895942,0.0049095372669398
1770453403677,0.138427734375,-0.5426177978515625,-0.82586669921875,0.0012564794160425,0.0330988317728042,0.0112443985417485
1770453403687,0.131591796875,-0.5377655029296875,-0.8242340087890625,0.002291117561981,0.0361899621784687,0.011764514259994
1770453403697,0.1269073486328125,-0.5330657958984375,-0.8220977783203125,0.0034394725225865,0.0318285040557384,0.0107075050473213
1770453403707,0.1215057373046875,-0.5356903076171875,-0.824127197265625,0.0055473647080361,0.0260928533971309,0.0072517874650657
1770453403717,0.1202392578125,-0.5402374267578125,-0.8291168212890625,0.0084371604025363,0.0278342943638563,0.002543851500377
1770453403727,0.124725341796875,-0.54437255859375,-0.8296051025390625,0.0059809270314872,0.0210032854229211,0.003827495034784
1770453403737,0.1295928955078125,-0.5465850830078125,-0.8268585205078125,0.004415254574269,0.0141887897625565,0.0059870523400604
1770453403747,0.1269378662109375,-0.544403076171875,-0.8216705322265625,-0.0026852653827518,0.0183446519076824,0.00683473655954
1770453403757,0.12371826171875,-0.5462799072265625,-0.818084716796875,-0.0141847943887114,0.0253511629998683,0.0041417479515075
1770453403767,0.1260986328125,-0.54376220703125,-0.8186492919921875,-0.0187087059020996,0.0412273295223712,0.0031949942931532
1770453403777,0.1282806396484375,-0.54351806640625,-0.8235626220703125,-0.021442174911499,0.0411461032927036,0.0009813748765736
1770453403787,0.1287689208984375,-0.540496826171875,-0.81915283203125,-0.0242118630558252,0.0431733019649982,0.0013161342358216
1770453403797,0.1204071044921875,-0.537994384765625,-0.821746826171875,-0.0308900047093629,0.0301792081445455,-0.0025465146172791
1770453403808,0.118804931640625,-0.536834716796875,-0.8223724365234375,-0.0343768820166587,0.0298953149467706,-0.0069702914915978
1770453403818,0.1234588623046875,-0.541290283203125,-0.8327178955078125,-0.0314732380211353,0.0332405120134353,-0.0129245873540639
1770453403828,0.129058837890625,-0.5430908203125,-0.8326568603515625,-0.0303421933203935,0.0184557065367698,-0.0097373155876994
1770453403838,0.1344757080078125,-0.5460052490234375,-0.826629638671875,-0.0344024486839771,0.0097466371953487,-0.0059654805809259
1770453403848,0.1372833251953125,-0.5535736083984375,-0.825347900390625,-0.0419320054352283,0.0190549176186323,-0.0007057376787997
1770453403858,0.1410064697265625,-0.5629425048828125,-0.8232879638671875,-0.0540709570050239,0.0323459543287754,0.0121269701048731
1770453403868,0.146820068359375,-0.547027587890625,-0.8208770751953125,-0.0630000010132789,0.0222605653107166,0.0241980142891407
1770453403878,0.1382293701171875,-0.5178375244140625,-0.822418212890625,-0.0647635534405708,0.0159390196204185,0.0112614426761865
1770453403888,0.1101531982421875,-0.5026092529296875,-0.83819580078125,-0.0378472469747066,0.0705021321773529,-0.0189792830497026
1770453403898,0.09271240234375,-0.4994964599609375,-0.838623046875,-0.0291517600417137,0.0401865690946579,-0.050418697297573
1770453403908,0.1324462890625,-0.572784423828125,-0.8508758544921875,-0.0264960564672946,0.0240446161478757,-0.031561654061079
1770453403918,0.1668853759765625,-0.5826416015625,-0.8601226806640625,-0.0007331682136282,0.0578734204173088,0.0032735576387494
1770453403928,0.1655426025390625,-0.549285888671875,-0.8399200439453125,0.0261786077171564,0.0388187691569328,0.0179084260016679
1770453403938,0.130218505859375,-0.498443603515625,-0.8113861083984375,0.0386629737913608,-0.0069127669557929,-0.0025742114521563
1770453403948,0.1004180908203125,-0.5068206787109375,-0.80584716796875,0.025839053094387,-0.0065260762348771,-0.0291261933743953
1770453403958,0.108001708984375,-0.524017333984375,-0.8247222900390625,0.0170607417821884,0.001480983919464,-0.0382123664021492
1770453403968,0.1258544921875,-0.52252197265625,-0.843170166015625,0.0228243563324213,-0.0080885523930192,-0.0433940775692462
1770453403978,0.1374969482421875,-0.5352783203125,-0.845703125,0.0322910957038402,-0.0135291246697306,-0.0428545214235782
1770453403989,0.1393890380859375,-0.546539306640625,-0.8465576171875,0.0390656441450119,-0.0073460633866488,-0.0321984179317951
1770453403998,0.1436614990234375,-0.5530548095703125,-0.8465576171875,0.0386469960212707,-0.0052834451198577,-0.0195526629686355
1770453404009,0.1486968994140625,-0.5473175048828125,-0.83734130859375,0.0405093431472778,-0.0041486723348498,-0.0105261439457535
1770453404018,0.1463623046875,-0.5419921875,-0.825042724609375,0.0373660139739513,0.0010599381057545,-0.0057441722601652
1770453404029,0.14349365234375,-0.5377349853515625,-0.808563232421875,0.0250781886279582,0.012195679359138,-0.0014745922526344
1770453404039,0.1373748779296875,-0.5341796875,-0.7982330322265625,0.0122505407780408,0.0156268961727619,-0.0033057818654924
1770453404049,0.1311492919921875,-0.53997802734375,-0.8047943115234375,0.0025643578264862,0.0205012802034616,-0.004994492046535
1770453404059,0.1311492919921875,-0.546905517578125,-0.8231658935546875,0.0035886096302419,0.017747838050127,-0.003956391941756
1770453404069,0.132110595703125,-0.5438690185546875,-0.8305206298828125,0.0075740301981568,0.0168703272938728,-0.0011318434262648
1770453404079,0.127410888671875,-0.54412841796875,-0.8343658447265625,0.0109921973198652,0.0097455717623233,-0.0027593011036515
1770453404090,0.12725830078125,-0.540771484375,-0.8309478759765625,0.0124066025018692,0.0076195700094103,-0.003025617217645
1770453404099,0.129241943359375,-0.5367889404296875,-0.82415771484375,0.0059231366030871,0.0037582528311759,-0.0058283279649913
1770453404109,0.1352996826171875,-0.5478973388671875,-0.8211669921875,0.001496696495451,0.0085229147225618,-0.0004173173510935
1770453404119,0.139404296875,-0.549957275390625,-0.82421875,0.0026421220973134,0.0274015311151742,0.0026876621413975
1770453404129,0.138824462890625,-0.5382537841796875,-0.8268585205078125,0.0085279745981097,0.0283109992742538,0.0045199170708656
1770453404139,0.137664794921875,-0.5446014404296875,-0.8314971923828125,0.0168064106255769,0.0081404848024249,0.0075375447049736
1770453404149,0.1335601806640625,-0.5362701416015625,-0.8392333984375,0.0310340821743011,0.0031808796338737,-0.0010732539230957
1770453404159,0.1287689208984375,-0.52667236328125,-0.8396759033203125,0.0441256500780582,0.0106616988778114,-0.0137757332995533
1770453404169,0.1343994140625,-0.5386810302734375,-0.832244873046875,0.0464583113789558,0.0044077979400753,-0.0181150883436203
1770453404179,0.1510467529296875,-0.546905517578125,-0.820159912109375,0.0408907085657119,0.0017033577896654,-0.0105631621554493
1770453404190,0.1538238525390625,-0.5484619140625,-0.8205413818359375,0.0397250428795814,0.01487189065665,0.0014117417158558
1770453404199,0.1510467529296875,-0.5487060546875,-0.8282928466796875,0.0468228980898857,0.0192109793424606,0.0131855765357613
1770453404209,0.1455535888671875,-0.5473175048828125,-0.83111572265625,0.0510075241327285,0.0071966601535677,0.0211785212159156
1770453404219,0.1404266357421875,-0.54302978515625,-0.831329345703125,0.0483725927770137,0.0126385632902383,0.0253279935568571
1770453404229,0.1414031982421875,-0.5483245849609375,-0.8341522216796875,0.0480886995792388,0.0245088040828704,0.0265674293041229
1770453404240,0.1419525146484375,-0.550323486328125,-0.8336181640625,0.0539487190544605,0.033479131758213,0.0303690917789936
1770453404249,0.143768310546875,-0.5507354736328125,-0.8322296142578125,0.0614774748682975,0.0309954658150672,0.0322972200810909
1770453404260,0.1401824951171875,-0.5456390380859375,-0.82562255859375,0.0634322389960289,0.0215060915797948,0.0320471487939357
1770453404270,0.1309814453125,-0.5374908447265625,-0.8191375732421875,0.0605227313935756,0.0202432200312614,0.024115988984704
1770453404280,0.1290740966796875,-0.5391998291015625,-0.8162689208984375,0.0540784150362014,0.0276390854269266,0.0165763143450021
1770453404290,0.1278076171875,-0.54547119140625,-0.819305419921875,0.0486365109682083,0.0328330472111702,0.0119107216596603
1770453404300,0.1300201416015625,-0.545989990234375,-0.81817626953125,0.0501957908272743,0.0333411805331707,0.0082081286236643
1770453404310,0.12896728515625,-0.5446624755859375,-0.8193817138671875,0.0482010841369628,0.0222267415374517,0.0077639133669435
1770453404320,0.126800537109375,-0.548583984375,-0.8173980712890625,0.0457624271512031,0.0169217251241207,0.0060624200850725
1770453404330,0.1280975341796875,-0.5477142333984375,-0.818206787109375,0.0406022891402244,0.0121935494244098,0.0031675638165324
1770453404340,0.1279449462890625,-0.552001953125,-0.816558837890625,0.0356852933764457,0.0064863949082791,0.004930842667818
1770453404350,0.13336181640625,-0.5529022216796875,-0.8156890869140625,0.028137095272541,0.0035537220537662,0.0032309470698237
1770453404360,0.136077880859375,-0.555145263671875,-0.8123626708984375,0.020935108885169,0.0030154972337186,0.0063662864267826
1770453404370,0.136199951171875,-0.5531158447265625,-0.8106536865234375,0.0163576677441597,0.0010775149567052,0.0077181071974337
1770453404380,0.13775634765625,-0.549224853515625,-0.812286376953125,0.0147445909678936,0.0029654297977685,0.0061029000207781
1770453404390,0.13629150390625,-0.54638671875,-0.8143463134765625,0.0147328730672597,0.0022623552940785,0.0006037385901436
1770453404400,0.1334381103515625,-0.546600341796875,-0.8156585693359375,0.0175643470138311,0.0031467911321669,-0.0006426207837648
1770453404410,0.133148193359375,-0.548309326171875,-0.816131591796875,0.0156713705509901,-3.1957933970261365e-05,-0.0028607675340026
1770453404421,0.1315155029296875,-0.5498504638671875,-0.8144683837890625,0.0163688529282808,-0.0046301716938614,-0.0023438481148332
1770453404430,0.135406494140625,-0.548828125,-0.813690185546875,0.0148002514615654,-0.0111365402117371,0.0007803061744198
1770453404440,0.1355133056640625,-0.5513916015625,-0.8127593994140625,0.010775682516396,-0.0132303182035684,0.001171258278191
1770453404450,0.136627197265625,-0.5588531494140625,-0.8108673095703125,-0.0023393207229673,-0.0073085129261016,0.0081016020849347
1770453404461,0.1448974609375,-0.5670166015625,-0.8113861083984375,-0.0142306014895439,0.0028913940768688,0.0186636988073587
1770453404471,0.150238037109375,-0.559661865234375,-0.810272216796875,-0.0202256422489881,-0.0064927865751087,0.0307331457734107
1770453404481,0.1420440673828125,-0.5337371826171875,-0.80615234375,-0.0237450096756219,-0.0289887748658657,0.0225162282586097
1770453404491,0.10906982421875,-0.5077362060546875,-0.80615234375,-0.0153179699555039,0.028696360066533,-0.0137019632384181
1770453404501,0.095458984375,-0.510101318359375,-0.8060760498046875,-0.0324463583528995,0.0205521471798419,-0.0438004769384861
1770453404511,0.1422882080078125,-0.5875244140625,-0.814605712890625,-0.0491177439689636,-0.0032423986122012,-0.0185694228857755
1770453404521,0.1739959716796875,-0.5988922119140625,-0.839141845703125,-0.0313494019210338,0.0381511151790618,0.0180711466819047
1770453404531,0.1739349365234375,-0.5836029052734375,-0.8204803466796875,-0.0116635803133249,0.033210951834917,0.0401863008737564
1770453404541,0.1456298828125,-0.5319061279296875,-0.7914886474609375,-0.0073926686309278,1.4114753867033867e-05,0.0311949364840984
1770453404551,0.1044464111328125,-0.509185791015625,-0.78460693359375,-0.0249037519097328,-0.0060877199284732,0.0002311623829882
1770453404561,0.0995635986328125,-0.5143585205078125,-0.8073883056640625,-0.0396675169467926,0.0028064390644431,-0.0246957596391439
1770453404571,0.12091064453125,-0.5303802490234375,-0.837310791015625,-0.0331915095448493,-0.0058954395353794,-0.0347465276718139
1770453404581,0.1320037841796875,-0.5540771484375,-0.8518218994140625,-0.0114334831014275,-0.0250142738223075,-0.0340216159820556
1770453404591,0.1382598876953125,-0.5610504150390625,-0.8475341796875,-0.0004476773901842,-0.0286012850701808,-0.0232557877898216
1770453404601,0.14569091796875,-0.5580902099609375,-0.8316497802734375,-0.006525277160108,-0.0224954560399055,-0.0118342889472842
1770453404611,0.1516876220703125,-0.5565948486328125,-0.815155029296875,-0.0230025202035903,-0.0012631373247131,0.0022264027502387
1770453404621,0.15777587890625,-0.5499114990234375,-0.812225341796875,-0.0271799564361572,0.0237298309803009,0.0134047549217939
1770453404631,0.1489410400390625,-0.5514984130859375,-0.8209075927734375,-0.0101503720507025,0.030571224167943,0.012140286155045
1770453404641,0.1385955810546875,-0.54742431640625,-0.8277435302734375,0.0115890121087431,0.0183590333908796,0.0121426824480295
1770453404651,0.1336822509765625,-0.5465087890625,-0.8320465087890625,0.0324210561811924,-0.0047942227683961,0.0066829365678131
1770453404661,0.1284027099609375,-0.5496826171875,-0.8363037109375,0.049854639917612,-0.0138665474951267,0.0022205437999218
1770453404672,0.13006591796875,-0.550201416015625,-0.8275909423828125,0.053774282336235,-0.0142407212406396,0.0018370485631749
1770453404682,0.1312713623046875,-0.5517425537109375,-0.80963134765625,0.0452305935323238,-0.0118004670366644,0.0001182443520519
1770453404692,0.1239471435546875,-0.5525054931640625,-0.797821044921875,0.0274348203092813,-0.0028583707753568,-0.0025214808993041
1770453404702,0.1224365234375,-0.5511474609375,-0.79364013671875,0.0058150123804807,-0.0045835664495825,-0.0064208814874291
1770453404712,0.128570556640625,-0.5567626953125,-0.7903289794921875,-0.0202200505882501,-0.0170740578323602,-0.0075189024209976
1770453404722,0.1333160400390625,-0.5554046630859375,-0.792266845703125,-0.0444098077714443,-0.0060989051125943,-0.0079077240079641
1770453404732,0.1351318359375,-0.54638671875,-0.7960662841796875,-0.0661124438047409,0.0082528702914714,-0.0095682051032781
1770453404742,0.14312744140625,-0.5549163818359375,-0.800262451171875,-0.0829891562461853,0.0048299087211489,-0.0001153148768935
1770453404752,0.1479034423828125,-0.548004150390625,-0.8109588623046875,-0.0823060572147369,0.0054565505124628,0.0094329165294766
1770453404762,0.1404876708984375,-0.5415191650390625,-0.8264007568359375,-0.0709159821271896,0.0216781310737133,0.0061021009460091
1770453404772,0.1338958740234375,-0.5431365966796875,-0.8343353271484375,-0.0582230910658836,0.0149235557764768,0.000539822736755
1770453404782,0.139801025390625,-0.5491180419921875,-0.842376708984375,-0.0387591123580932,-0.0055612130090594,0.00229750899598
1770453404792,0.144073486328125,-0.5525665283203125,-0.84381103515625,-0.020079968497157,-0.0111570470035076,0.0035955337807536
1770453404802,0.1463165283203125,-0.5511322021484375,-0.8371429443359375,-0.006967095658183,-0.0048565403558313,0.0094528906047344
1770453404813,0.1464996337890625,-0.5482635498046875,-0.828460693359375,-0.0040354877710342,-0.0045252433046698,0.013817811384797
1770453404823,0.1419830322265625,-0.5504608154296875,-0.823272705078125,-0.0038088529836386,0.0023017700295895,0.0168005507439374
1770453404832,0.1412353515625,-0.550079345703125,-0.83135986328125,0.0013784521725028,0.0143179530277848,0.022359101101756
1770453404842,0.1376190185546875,-0.55072021484375,-0.8361358642578125,0.009722402319312,0.0170642044395208,0.0221596304327249
1770453404852,0.13348388671875,-0.5501556396484375,-0.8363494873046875,0.0208831783384084,0.0125866318121552,0.0202876944094896
1770453404862,0.13458251953125,-0.5480499267578125,-0.833251953125,0.0335976406931877,0.0093868440017104,0.0192823521792888
1770453404872,0.1304168701171875,-0.545196533203125,-0.8284454345703125,0.0417431853711605,0.007898136973381,0.015819976106286
1770453404882,0.12762451171875,-0.543060302734375,-0.82421875,0.0440849028527736,0.0089412974193692,0.009909888729453
1770453404893,0.128814697265625,-0.543670654296875,-0.8216094970703125,0.0475259721279144,0.0079721724614501,0.0066882628016173
1770453404903,0.1283416748046875,-0.545745849609375,-0.819610595703125,0.0485909730195999,0.0016623451374471,0.0037734329234808
1770453404913,0.12646484375,-0.548583984375,-0.8136444091796875,0.0417860634624958,-0.009091499261558,0.0006402239087037
1770453404923,0.1278076171875,-0.5526275634765625,-0.807220458984375,0.0303858686238527,-0.0145986499264836,-0.0023901870008558
1770453404933,0.127532958984375,-0.5563201904296875,-0.8019256591796875,0.0157667119055986,-0.0118526648730039,-0.004008057527244
1770453404943,0.134063720703125,-0.556884765625,-0.795440673828125,-0.0037388119380921,-0.0101538337767124,-0.0022940470371395
1770453404953,0.136077880859375,-0.556243896484375,-0.7910003662109375,-0.0255216043442487,-0.0128076737746596,-0.0006293049664236
1770453404963,0.132232666015625,-0.555084228515625,-0.7964019775390625,-0.0451429784297943,-0.0086203860118985,0.0009571401169523
1770453404973,0.130859375,-0.547943115234375,-0.803619384765625,-0.0607269965112209,-0.0055468319915235,-0.0004519384237937
1770453404983,0.1308746337890625,-0.54217529296875,-0.808380126953125,-0.0696781501173973,-0.0047958204522728,-0.0023137542884796
1770453404993,0.132843017578125,-0.5399017333984375,-0.814697265625,-0.0741586461663246,-0.0050882357172667,-0.0002271676348755
1770453405003,0.1332550048828125,-0.544189453125,-0.824493408203125,-0.0698145031929016,-0.0021081583108752,-0.0011992214713245
1770453405013,0.13250732421875,-0.5449066162109375,-0.8326263427734375,-0.0547386109828949,-0.002036252990365,-0.0022234732750803
1770453405023,0.1318206787109375,-0.5433807373046875,-0.8337554931640625,-0.0390462018549442,-0.005192897748202,-0.005354018881917
1770453405033,0.1324005126953125,-0.541412353515625,-0.829803466796875,-0.0299917217344045,-0.0160298328846693,-0.00604351144284
1770453405043,0.134033203125,-0.5478057861328125,-0.8241424560546875,-0.033276729285717,-0.019057847559452,-0.0045739789493381
1770453405053,0.1431884765625,-0.5605926513671875,-0.8219146728515625,-0.0430670417845249,-0.0018378474051132,0.0060981060378253
1770453405063,0.1502227783203125,-0.5673370361328125,-0.8253326416015625,-0.0404752530157566,0.012312326580286,0.0193020589649677
1770453405073,0.141448974609375,-0.5404205322265625,-0.824249267578125,-0.0327017530798912,-0.0091684646904468,0.0167158637195825
1770453405083,0.117584228515625,-0.5136871337890625,-0.8263702392578125,-0.0180378556251525,0.0208086092025041,-0.0126904947683215
1770453405093,0.0930023193359375,-0.5093231201171875,-0.8314666748046875,-0.007570035289973,0.030866302549839,-0.0411626175045967
1770453405104,0.1183624267578125,-0.5530853271484375,-0.8320159912109375,-0.0133661394938826,-0.0095631452277302,-0.037848312407732
1770453405114,0.155792236328125,-0.583221435546875,-0.852874755859375,0.0011052117915824,0.0095239961519837,-0.0077561903744935
1770453405124,0.1627197265625,-0.588714599609375,-0.8449554443359375,0.023640614002943,0.0059007657691836,0.0208581443876028
1770453405134,0.15069580078125,-0.5473480224609375,-0.825897216796875,0.0391029268503189,-0.0117541281506419,0.0180618241429328
1770453405144,0.111175537109375,-0.5175018310546875,-0.799530029296875,0.0308684334158897,-0.0225031785666942,-0.0156580563634634
1770453405156,0.0992279052734375,-0.5181884765625,-0.799072265625,0.0110952612012624,-0.0199164506047964,-0.0446596145629882
1770453405164,0.115234375,-0.52789306640625,-0.81689453125,0.00290257926099,-0.0213233977556228,-0.0555298365652561
1770453405174,0.136260986328125,-0.5452880859375,-0.8280792236328125,0.010407100431621,-0.0287850424647331,-0.0540672279894351
1770453405184,0.146484375,-0.5599517822265625,-0.829620361328125,0.0124737136065959,-0.0356440134346485,-0.0439362972974777
1770453405194,0.141937255859375,-0.5629119873046875,-0.82568359375,0.013814615085721,-0.0271732974797487,-0.0325576774775981
1770453405205,0.1454620361328125,-0.5598602294921875,-0.82537841796875,0.0085386270657181,-0.0177566260099411,-0.0170069467276334
1770453405214,0.1502685546875,-0.557861328125,-0.8229217529296875,-0.0001608549355296,-0.0143778743222355,-0.0042117894627153
1770453405224,0.145660400390625,-0.55096435546875,-0.8165435791015625,-0.0075553879141807,-0.0122220451012253,0.0009432916413061
1770453405234,0.1372222900390625,-0.5442962646484375,-0.811248779296875,-0.0169044155627489,-0.0034189661964774,-0.0012889700010418
1770453405244,0.1327056884765625,-0.5394134521484375,-0.8148040771484375,-0.0191289540380239,0.0006186523241922,-0.0072648371569812
1770453405254,0.1313018798828125,-0.5400238037109375,-0.8203125,-0.0216885171830654,-0.0033481260761618,-0.0117160445079207
1770453405264,0.131256103515625,-0.5458526611328125,-0.8269805908203125,-0.0161297004669904,-0.0066485814750194,-0.0127781126648187
1770453405274,0.1346282958984375,-0.5526580810546875,-0.8290863037109375,-0.0115421405062079,-0.0040408144704997,-0.0087048085406422
1770453405284,0.133758544921875,-0.554840087890625,-0.819183349609375,-0.0138556277379393,-0.001585912425071,-0.0012503541074693
1770453405294,0.131256103515625,-0.5498809814453125,-0.8171844482421875,-0.016547817736864,0.0038248319178819,-0.0005763080553151
1770453405304,0.1284942626953125,-0.5473175048828125,-0.8210601806640625,-0.0161318313330411,-0.0032703618053346,0.0017781927017495
1770453405314,0.126678466796875,-0.5503082275390625,-0.826171875,-0.0080278329551219,-0.0076379459351301,-0.0014346449170261
1770453405325,0.129058837890625,-0.5470428466796875,-0.83294677734375,0.0032083101104944,-0.0087868338450789,-0.0082792351022362
1770453405335,0.1302947998046875,-0.545074462890625,-0.8321075439453125,0.0091415662318468,-0.0237447433173656,-0.0130228577181696
1770453405345,0.133514404296875,-0.5510406494140625,-0.826995849609375,0.0111586451530456,-0.0233015939593315,-0.0079399487003684
1770453405355,0.1349639892578125,-0.5415802001953125,-0.821502685546875,0.011200456880033,-0.0117578562349081,-0.0111626395955681
1770453405365,0.130096435546875,-0.5399322509765625,-0.81842041015625,0.008504538796842,0.0031601069495081,-0.0158234369009733
1770453405375,0.131591796875,-0.54632568359375,-0.82403564453125,0.0077071879059076,-0.0001486043911427,-0.0175449047237634
1770453405385,0.1350860595703125,-0.5500030517578125,-0.8304290771484375,0.0146564403548836,-0.0098917791619896,-0.0151067813858389
1770453405395,0.138153076171875,-0.54888916015625,-0.83197021484375,0.0290407054126262,-0.0177888497710227,-0.0159145183861255
1770453405405,0.1380157470703125,-0.5489501953125,-0.827117919921875,0.0319302342832088,-0.0198671817779541,-0.0128817101940512
1770453405415,0.13958740234375,-0.5539093017578125,-0.821807861328125,0.0277256369590759,-0.0148942610248923,-0.0127432253211736
1770453405425,0.1428985595703125,-0.5577850341796875,-0.8188323974609375,0.0250829830765724,-0.0060230051167309,-0.0051018176600337
1770453405435,0.14434814453125,-0.557281494140625,-0.8188018798828125,0.0195012632757425,0.0049601374194025,-0.001300155185163
1770453405445,0.138824462890625,-0.554779052734375,-0.817474365234375,0.010333064943552,0.0088925613090395,0.0003496730350889
1770453405455,0.133819580078125,-0.550506591796875,-0.8149566650390625,0.0040096552111208,0.016490826383233,-0.000670850276947
1770453405465,0.131317138671875,-0.5457916259765625,-0.8213043212890625,0.000539822736755,0.0174354501068592,-0.0017718010349199
1770453405475,0.12994384765625,-0.5457305908203125,-0.8245849609375,0.0034850125666707,0.0117344204336404,-0.0074605792760849
1770453405485,0.1333465576171875,-0.5460052490234375,-0.8282470703125,0.0070171630941331,0.0037960698828101,-0.0052429651841521
1770453405495,0.1314239501953125,-0.5431976318359375,-0.82391357421875,0.0109913982450962,-0.002445048186928,-0.007588677573949
1770453405505,0.1266632080078125,-0.5384521484375,-0.8175811767578125,0.0073974626138806,0.0017955031944438,-0.0134902419522404
1770453405515,0.127227783203125,-0.541351318359375,-0.820068359375,0.0100763365626335,0.004448277875781,-0.0134755950421094
1770453405525,0.1324920654296875,-0.554351806640625,-0.8306121826171875,0.0187313426285982,-0.0041398839093744,-0.0091402353718876
1770453405536,0.139495849609375,-0.55828857421875,-0.8272857666015625,0.0268316138535738,-0.01265534106642,-0.0050847735255956
1770453405546,0.1412200927734375,-0.5584869384765625,-0.8207855224609375,0.0273549258708953,-0.0133315175771713,0.0002215749991592
1770453405556,0.13702392578125,-0.554168701171875,-0.813201904296875,0.023852601647377,-0.0077258301898837,0.0015853798249736
1770453405566,0.1342926025390625,-0.5532989501953125,-0.80621337890625,0.0073940004222095,-0.0101415840908885,-0.0008279767935164
1770453405576,0.13677978515625,-0.5555877685546875,-0.8060455322265625,-0.0071995896287262,-0.0114976651966571,0.0038131140172481
1770453405586,0.1390838623046875,-0.5539703369140625,-0.8087921142578125,-0.0213676057755947,-0.0041412152349948,0.0080717746168375
1770453405596,0.135589599609375,-0.5492401123046875,-0.8118743896484375,-0.0267269518226385,0.005789179354906,0.0090664653107523
1770453405606,0.1283721923828125,-0.54547119140625,-0.8194122314453125,-0.0241138581186532,0.0095900427550077,0.0073167686350643
1770453405616,0.123046875,-0.542205810546875,-0.829803466796875,-0.0133387083187699,0.0046725161373615,0.0063617592677474
1770453405626,0.120025634765625,-0.5392608642578125,-0.8330078125,0.0030485205352306,-0.0075212996453046,-0.0018919096328318
1770453405637,0.1208648681640625,-0.5371551513671875,-0.8345794677734375,0.017962222918868,-0.0198695790022611,-0.0112435994669795
1770453405646,0.1242218017578125,-0.5475921630859375,-0.8308258056640625,0.0236880183219909,-0.0241090636700391,-0.0140795996412634
1770453405656,0.1352691650390625,-0.5591583251953125,-0.822906494140625,0.0196847543120384,-0.0179739408195018,-0.0089298449456691
1770453405666,0.14373779296875,-0.5725250244140625,-0.8114013671875,0.0075689698569476,-0.0053431000560522,-5.1132694352418184e-05
1770453405676,0.1526641845703125,-0.5682830810546875,-0.805938720703125,-0.0050168628804385,0.0040330910123884,0.017111076042056
1770453405686,0.139190673828125,-0.5372161865234375,-0.804046630859375,-0.0108028464019298,-0.0095168063417077,0.0096771279349923
1770453405696,0.111175537109375,-0.5277862548828125,-0.8190155029296875,0.0036602485924959,0.0280678533017635,-0.0140130212530493
1770453405706,0.102142333984375,-0.5201873779296875,-0.829315185546875,0.0133062181994318,0.0157043952494859,-0.0315344892442226
1770453405716,0.11962890625,-0.5558624267578125,-0.826690673828125,0.0041007352992892,-0.0361412279307842,-0.0246036127209663
1770453405726,0.1480560302734375,-0.585113525390625,-0.833709716796875,0.0064328657463192,0.001948102377355,0.0010338390711694
1770453405736,0.153778076171875,-0.5770416259765625,-0.814178466796875,0.0021944446489214,0.0192378759384155,0.018824553117156
1770453405747,0.144439697265625,-0.537994384765625,-0.7960968017578125,-0.00266635697335,-0.0027766118291765,0.0100582269951701
1770453405756,0.11083984375,-0.51123046875,-0.787139892578125,-0.0168460924178361,-0.0133669376373291,-0.0183174889534711
1770453405767,0.106658935546875,-0.526641845703125,-0.802490234375,-0.0302873309701681,-0.007790545001626,-0.0363257825374603
1770453405777,0.1277618408203125,-0.5392608642578125,-0.828857421875,-0.0225915946066379,-0.0043010050430893,-0.0396813675761222
1770453405787,0.141876220703125,-0.5544891357421875,-0.843475341796875,0.0023968450259417,-0.0101980427280068,-0.0323017463088035
1770453405797,0.143798828125,-0.5619354248046875,-0.842803955078125,0.0222770757973194,-0.0231814850121736,-0.0219447128474712
1770453405807,0.1395111083984375,-0.5630035400390625,-0.8301239013671875,0.0222456511110067,-0.0258198790252208,-0.0115978000685572
