timestamp_ms,acc_x,acc_y,acc_z,gyro_x,gyro_y,gyro_z
1769238014267,-0.161529541015625,-0.969818115234375,0.1744384765625,0.0290204659104347,-0.1157164797186851,-0.0301352646201849
1769238014278,-0.1590423583984375,-0.96063232421875,0.1669921875,0.0213034246116876,-0.1152767911553382,-0.012033493258059
1769238014285,-0.1521759033203125,-0.9589691162109376,0.1620025634765625,0.014078002423048,-0.0961843207478523,2.2370553779182956e-05
1769238014295,-0.1539306640625,-0.964141845703125,0.1565093994140625,0.011152253486216,-0.0714121311902999,0.0100177470594644
1769238014305,-0.1567230224609375,-0.96575927734375,0.1468048095703125,0.0048701227642595,-0.0784785598516464,0.0173643436282873
1769238014315,-0.1611328125,-0.969085693359375,0.1575469970703125,0.0092654032632708,-0.0742055177688598,0.0310535226017236
1769238014325,-0.1529693603515625,-0.9710540771484376,0.1548919677734375,0.0144505780190229,-0.0614098310470581,0.0408022925257682
1769238014335,-0.15155029296875,-0.972747802734375,0.1565093994140625,0.0191417373716831,-0.0470513999462127,0.0542701631784439
1769238014345,-0.1505126953125,-0.9598236083984376,0.1490020751953125,0.0334210731089115,-0.0302511136978864,0.0686613544821739
1769238014355,-0.1547393798828125,-0.94805908203125,0.137298583984375,0.0469773635268211,-0.0088744517415761,0.0738326758146286
1769238014365,-0.1644744873046875,-0.9435882568359376,0.1410675048828125,0.062868446111679,-0.0146106341853737,0.0815244168043136
1769238014375,-0.167999267578125,-0.9455718994140624,0.1461639404296875,0.0825617238879203,-0.0118958074599504,0.0971654281020164
1769238014385,-0.1666259765625,-0.9754638671875,0.1519622802734375,0.0916574820876121,-0.0022394522093236,0.0934228897094726
1769238014395,-0.1675262451171875,-0.9761505126953124,0.154266357421875,0.1106143966317176,-0.0029057750944048,0.0904667824506759
1769238014405,-0.162322998046875,-0.979217529296875,0.1487274169921875,0.125407189130783,-0.0189230907708406,0.0754928961396217
1769238014415,-0.1750030517578125,-0.978179931640625,0.1555938720703125,0.1351309269666671,-0.0197928790003061,0.0623310171067714
1769238014425,-0.18609619140625,-0.9746246337890624,0.1572418212890625,0.1342771202325821,-0.0331544913351535,0.0548467375338077
1769238014436,-0.18878173828125,-0.966644287109375,0.170806884765625,0.1330531239509582,-0.0232161059975624,0.0566584840416908
1769238014445,-0.1802215576171875,-0.9590301513671876,0.173553466796875,0.123237244784832,-0.0182679537683725,0.0588153786957263
1769238014456,-0.172821044921875,-0.9589080810546876,0.185333251953125,0.1060076579451561,-0.0188991222530603,0.0646511614322662
1769238014466,-0.1647796630859375,-0.956512451171875,0.192535400390625,0.0976501256227493,-0.0257996395230293,0.0713008120656013
1769238014476,-0.1658477783203125,-0.9501190185546876,0.186492919921875,0.0687250047922134,-0.0610982403159141,0.0718369036912918
1769238014486,-0.1723175048828125,-0.9605712890625,0.2024688720703125,0.0521372370421886,-0.1208491921424865,0.0672874301671981
1769238014496,-0.1803436279296875,-0.9662017822265624,0.2001495361328125,0.0412148125469684,-0.135146364569664,0.0614021085202693
1769238014506,-0.189666748046875,-0.9553985595703124,0.1934051513671875,0.0313786938786506,-0.132177472114563,0.0665625184774398
1769238014516,-0.1812286376953125,-0.955718994140625,0.18853759765625,0.0095647433772683,-0.1225128695368766,0.0757072791457176
1769238014526,-0.1707000732421875,-0.963104248046875,0.1873321533203125,-0.004946821834892,-0.0932540446519851,0.0761680081486702
1769238014536,-0.167938232421875,-0.969635009765625,0.179107666015625,-0.0264113675802946,-0.0453597567975521,0.069398783147335
1769238014546,-0.174530029296875,-0.97711181640625,0.17657470703125,-0.0391335524618625,-0.0238368902355432,0.054951399564743
1769238014556,-0.1837615966796875,-0.9747772216796876,0.1730804443359375,-0.0531393848359584,-0.0086491480469703,0.043279830366373
1769238014566,-0.1864013671875,-0.9736480712890624,0.179168701171875,-0.0639539510011673,0.0126577382907271,0.0379974506795406
1769238014576,-0.1942138671875,-0.9810638427734376,0.1803436279296875,-0.0678131356835365,0.0242257118225097,0.0238739065825939
1769238014586,-0.202423095703125,-0.9691162109375,0.179290771484375,-0.0631129220128059,-0.0232360810041427,0.0232621785253286
1769238014596,-0.1901702880859375,-0.9602508544921876,0.1818084716796875,-0.0595482811331748,-0.0677952915430069,0.026664899662137
1769238014606,-0.18609619140625,-0.9690093994140624,0.1829833984375,-0.0670272335410118,-0.1184795051813125,0.0159115884453058
1769238014616,-0.1945648193359375,-0.9805908203125,0.195770263671875,-0.0691199451684951,-0.1598138958215713,0.0051593417301774
1769238014626,-0.1970672607421875,-0.9781036376953124,0.18682861328125,-0.0653678178787231,-0.1567661762237548,-0.0108190914615988
1769238014636,-0.198211669921875,-0.9733734130859376,0.1766815185546875,-0.0657164305448532,-0.1237509697675705,-0.0161014720797538
1769238014647,-0.1843414306640625,-0.97412109375,0.17474365234375,-0.0717346370220184,-0.0846078246831893,-0.0220512393862009
1769238014656,-0.18505859375,-0.9682464599609376,0.1707611083984375,-0.0675284415483474,-0.0377204790711402,-0.0241556707769632
1769238014667,-0.18133544921875,-0.9680328369140624,0.162841796875,-0.0664179027080535,-0.0105394599959254,-0.0226965229958295
1769238014677,-0.1746673583984375,-0.972808837890625,0.1690216064453125,-0.0699694976210594,0.0307842772454023,-0.0259421188384294
1769238014687,-0.1740264892578125,-0.9800567626953124,0.1724853515625,-0.0666072592139244,0.067490629851818,-0.0228991899639368
1769238014697,-0.1741180419921875,-0.9691314697265624,0.160186767578125,-0.0584222972393035,0.0995822474360466,-0.023533821105957
1769238014707,-0.179412841796875,-0.9578094482421876,0.151763916015625,-0.0495105609297752,0.0986408218741417,-0.0148678952828049
1769238014717,-0.1788330078125,-0.9456787109375,0.1512603759765625,-0.0314551293849945,0.0733812749385833,-0.0098299933597445
1769238014727,-0.185394287109375,-0.94329833984375,0.1462860107421875,-0.0182466488331556,0.0058080879971385,-0.0116835543885827
1769238014737,-0.1913299560546875,-0.961334228515625,0.1546478271484375,-0.0037561224307864,-0.018818961456418,-0.0219945143908262
1769238014747,-0.197601318359375,-0.972259521484375,0.152313232421875,0.0080816289409995,-0.0416419841349124,-0.0248393025249242
1769238014757,-0.1810760498046875,-0.966278076171875,0.1564788818359375,0.0269141718745231,-0.0522605404257774,-0.0207979567348957
1769238014767,-0.1733551025390625,-0.95440673828125,0.1516876220703125,0.0404065437614917,-0.0094052199274301,-0.0126303080469369
1769238014777,-0.171295166015625,-0.9604339599609376,0.1500244140625,0.0433152504265308,0.0186668951064348,-0.0040227049030363
1769238014787,-0.1714935302734375,-0.9579315185546876,0.15447998046875,0.0361055396497249,0.029790386557579,0.0115852830931544
1769238014797,-0.1703338623046875,-0.9735260009765624,0.171234130859375,0.0361055396497249,0.029790386557579,0.0115852830931544
1769238014807,-0.1689605712890625,-0.9747161865234376,0.1833038330078125,0.0238552652299404,0.0257490389049053,0.0267948620021343
1769238014820,-0.165771484375,-0.9667510986328124,0.1865692138671875,0.0092869754880666,-0.0805667489767074,0.0586217679083347
1769238014827,-0.1654052734375,-0.97308349609375,0.1876068115234375,0.0008570052450522,-0.0589224398136138,0.0711964145302772
1769238014837,-0.1662750244140625,-0.9871368408203124,0.176544189453125,-0.0026658242568373,0.0076986658386886,0.0674647912383079
1769238014847,-0.1732025146484375,-0.9761810302734376,0.15863037109375,-0.0032610406633466,0.0290114115923643,0.06914072483778
1769238014858,-0.1717071533203125,-0.97015380859375,0.154022216796875,0.011952799744904,0.0350988656282424,0.0660455971956253
1769238014867,-0.182769775390625,-0.9720306396484376,0.139892578125,0.0416678190231323,0.0237439442425966,0.0313275642693042
1769238014878,-0.222686767578125,-0.9785003662109376,0.1269378662109375,0.0593171194195747,-0.0793912261724472,-0.0138476388528943
1769238014888,-0.2411651611328125,-0.9560546875,0.14715576171875,0.0760636106133461,-0.1663319915533065,-0.0046283076517283
1769238014898,-0.1963348388671875,-0.9500732421875,0.1707763671875,0.0808778032660484,-0.1937268525362014,0.0098893819376826
1769238014908,-0.1839447021484375,-0.968353271484375,0.1877593994140625,0.0689053013920784,-0.1729339659214019,0.0129791814833879
1769238014918,-0.1766357421875,-0.9837493896484376,0.1938323974609375,0.0454939827322959,-0.1446176320314407,0.0099642174318432
1769238014928,-0.1658935546875,-0.9808807373046876,0.1899261474609375,0.0170836448669433,-0.0953294485807418,0.0005323658697307
1769238014938,-0.1701812744140625,-0.9673919677734376,0.1861114501953125,-0.0023212111555039,-0.0588587895035743,-0.0121594611555337
1769238014948,-0.1776580810546875,-0.9574127197265624,0.186767578125,-0.0178652834147214,-0.0700451284646987,0.0054703992791473
1769238014958,-0.1620941162109375,-0.946136474609375,0.1922607421875,-0.0234059896320104,-0.0019827233627438,0.0006402239087037
1769238014968,-0.1773223876953125,-0.9501953125,0.190032958984375,-0.0464668348431587,-0.0584374777972698,0.0301224831491708
1769238014978,-0.1346588134765625,-0.9497528076171876,0.206634521484375,-0.0365942306816577,-0.0594699829816818,0.0392331555485725
1769238014988,-0.15020751953125,-0.970611572265625,0.1689453125,-0.0415740758180618,-0.017322264611721,0.0119637185707688
1769238014998,-0.194000244140625,-0.9777984619140624,0.165130615234375,-0.0460207536816597,-0.0436385571956634,-0.0328535549342632
1769238015008,-0.2225189208984375,-0.98876953125,0.170135498046875,-0.0495611615478992,-0.1397629529237747,-0.0536025092005729
1769238015018,-0.21112060546875,-0.9661712646484376,0.1875457763671875,-0.0391679070889949,-0.1973689943552017,-0.0413274653255939
1769238015028,-0.19244384765625,-0.9595184326171876,0.188934326171875,-0.0351792909204959,-0.1585243940353393,-0.021491976454854
1769238015038,-0.1874542236328125,-0.96380615234375,0.181488037109375,-0.0512251034379005,-0.087298683822155,-0.0007542071980424
1769238015048,-0.1732330322265625,-0.95849609375,0.17767333984375,-0.0684419050812721,-0.0872683227062225,0.026789803057909
1769238015058,-0.146270751953125,-0.959442138671875,0.1759490966796875,-0.0893221572041511,-0.1144096627831459,0.0338389240205287
1769238015068,-0.15020751953125,-0.973907470703125,0.19000244140625,-0.1145255118608474,-0.0911309719085693,0.0305397994816303
1769238015078,-0.1540069580078125,-0.9741363525390624,0.1944122314453125,-0.1270650029182434,-0.0843641459941864,0.0345683619379997
1769238015089,-0.155853271484375,-0.9660491943359376,0.18255615234375,-0.1248782873153686,-0.0772745460271835,0.0174916423857212
1769238015099,-0.1864471435546875,-0.9705810546875,0.1749267578125,-0.1281076371669769,-0.0762353837490081,0.0097740674391388
1769238015112,-0.1934661865234375,-0.964874267578125,0.1790008544921875,-0.1286141723394394,-0.0589000694453716,0.0116358837112784
1769238015120,-0.1890411376953125,-0.95440673828125,0.1703948974609375,-0.1098961383104324,-0.0339257419109344,0.0193971339613199
1769238015129,-0.1906280517578125,-0.9502410888671876,0.1452178955078125,-0.1055690348148346,-0.0458697527647018,0.0293269958347082
1769238015139,-0.18206787109375,-0.9580535888671876,0.1552886962890625,-0.1114713996648788,-0.029553897678852,0.0522850416600704
1769238015149,-0.1660919189453125,-0.969940185546875,0.1592559814453125,-0.1168286129832267,0.0087117329239845,0.0598095394670963
1769238015161,-0.1773681640625,-0.9748382568359376,0.157135009765625,-0.114915132522583,0.0037135118618607,0.0593069978058338
1769238015169,-0.1807403564453125,-0.971832275390625,0.1569366455078125,-0.1064793020486831,-0.0299773402512073,0.0570347905158996
1769238015179,-0.1803131103515625,-0.9781646728515624,0.1602325439453125,-0.1182304993271827,-0.0648913830518722,0.051556933671236
1769238015189,-0.175537109375,-0.9777374267578124,0.1743316650390625,-0.1252170354127884,-0.0644524917006492,0.037610225379467
1769238015199,-0.1860504150390625,-0.9574737548828124,0.1602783203125,-0.1444202959537506,-0.056943442672491,0.0197420138865709
1769238015212,-0.19293212890625,-0.9532470703125,0.1667938232421875,-0.1504195928573608,-0.0606774613261222,0.0193659737706184
1769238015219,-0.1916046142578125,-0.9581298828125,0.16119384765625,-0.1526848822832107,-0.0281685218214988,0.0146841378882527
1769238015229,-0.2139892578125,-0.962677001953125,0.154754638671875,-0.1562780141830444,-0.0087045421823859,0.0091221258044242
1769238015239,-0.2187957763671875,-0.9854736328125,0.1660003662109375,-0.1576151996850967,-0.0632921531796455,0.0038639802951365
1769238015249,-0.2069549560546875,-0.9790802001953124,0.173431396484375,-0.1460400372743606,-0.074688620865345,0.0080850906670093
1769238015260,-0.1877899169921875,-0.977569580078125,0.165130615234375,-0.1400412619113922,-0.0629786998033523,0.0066246129572391
1769238015269,-0.1786956787109375,-0.97265625,0.151824951171875,-0.1347032189369201,-0.0648642182350158,0.0025169535074383
1769238015279,-0.17486572265625,-0.96893310546875,0.1457977294921875,-0.1552348583936691,-0.0403841733932495,-0.0050709252245724
1769238015289,-0.17529296875,-0.978179931640625,0.15911865234375,-0.1751222759485244,0.0045308358967304,-0.0193076506257057
1769238015300,-0.1759033203125,-0.98248291015625,0.15667724609375,-0.1919910162687301,0.0296742729842662,-0.0507555902004241
1769238015310,-0.194122314453125,-0.987823486328125,0.15179443359375,-0.2044247835874557,0.0600332431495189,-0.0871165245771408
1769238015320,-0.216400146484375,-0.9835662841796876,0.1505279541015625,-0.2066493183374405,0.0655547752976417,-0.1070833131670951
1769238015330,-0.2297210693359375,-0.967193603515625,0.1425018310546875,-0.1809820383787155,-0.0247040148824453,-0.1058380156755447
1769238015340,-0.22027587890625,-0.937957763671875,0.1221160888671875,-0.1659937649965286,-0.1859533637762069,-0.0701029226183891
1769238015350,-0.179168701171875,-0.937896728515625,0.1487274169921875,-0.1789524406194687,-0.2931397259235382,-0.0347928665578365
1769238015360,-0.1594390869140625,-0.9606781005859376,0.1623992919921875,-0.1932783871889114,-0.2885005176067352,-0.0284244511276483
1769238015370,-0.1676025390625,-0.99322509765625,0.148681640625,-0.247272104024887,-0.1913792788982391,-0.0295762680470943
1769238015380,-0.1519775390625,-0.9947357177734376,0.163726806640625,-0.2863854169845581,-0.0646514296531677,-0.0359012745320797
1769238015390,-0.1585235595703125,-0.988128662109375,0.1343231201171875,-0.3023883700370788,0.0515454821288585,-0.0719040185213089
1769238015400,-0.2011566162109375,-0.9907684326171876,0.11334228515625,-0.3003321290016174,0.0937467291951179,-0.0901469364762306
1769238015410,-0.1932220458984375,-0.981781005859375,0.11053466796875,-0.2860424220561981,0.1394785344600677,-0.0829606652259826
1769238015420,-0.17657470703125,-0.967010498046875,0.0930938720703125,-0.2400498837232589,0.1676917970180511,-0.0646413117647171
1769238015430,-0.1556854248046875,-0.9731292724609376,0.0582122802734375,-0.1509751379489898,0.0701745599508285,-0.0474253073334693
1769238015440,-0.1529693603515625,-0.970947265625,0.0355224609375,-0.0869530066847801,-0.0737708956003189,-0.023953802883625
1769238015450,-0.1517791748046875,-0.957489013671875,0.0702667236328125,-0.074703000485897,-0.1374739706516266,-0.0050136670470237
1769238015460,-0.151397705078125,-0.967529296875,0.1199493408203125,-0.0846251398324966,-0.2386911362409591,0.0094126760959625
1769238015470,-0.161376953125,-0.9700775146484376,0.1458587646484375,-0.0803691446781158,-0.3067223727703094,0.0328221283853054
1769238015480,-0.1600189208984375,-0.9773712158203124,0.140869140625,-0.0759070143103599,-0.2593729794025421,0.0474540665745735
1769238015490,-0.1651153564453125,-0.99053955078125,0.11993408203125,-0.0785728394985199,-0.1640017181634903,0.0411237329244613
1769238015500,-0.1771697998046875,-0.9851226806640624,0.1090087890625,-0.071153275668621,-0.182668074965477,0.0230022557079792
1769238015511,-0.1791229248046875,-0.978607177734375,0.10589599609375,-0.0525340475142002,-0.2587860226631164,0.029068935662508
1769238015521,-0.1728363037109375,-0.9658660888671876,0.1082305908203125,-0.0432153828442096,-0.2982990741729736,0.0280960835516452
1769238015531,-0.1790618896484375,-0.9709930419921876,0.1125946044921875,-0.0333302579820156,-0.3467302620410919,0.0267354734241962
1769238015541,-0.179412841796875,-0.9881591796875,0.1122283935546875,-0.0275109857320785,-0.3530342280864715,0.0269155036658048
1769238015551,-0.1685028076171875,-0.975860595703125,0.1085662841796875,-0.0263336021453142,-0.2865561246871948,0.0406707301735878
1769238015561,-0.1531982421875,-0.9630889892578124,0.10064697265625,-0.021580658853054,-0.2113857418298721,0.0527716018259525
1769238015571,-0.1528167724609375,-0.959991455078125,0.09228515625,-0.0204264447093009,-0.1416442096233368,0.0680719912052154
1769238015581,-0.1437835693359375,-0.960662841796875,0.094024658203125,-0.0158852227032184,-0.0388121120631694,0.0872081369161605
1769238015591,-0.1474456787109375,-0.9643096923828124,0.08209228515625,-0.0141829308122396,0.0295730717480182,0.0748742371797561
1769238015601,-0.1847076416015625,-0.9722900390625,0.0856170654296875,-0.0094017572700977,0.0777283534407615,0.0703894793987274
1769238015611,-0.192840576171875,-0.9834442138671876,0.0881195068359375,0.0081854918971657,0.0789137259125709,0.0558198578655719
1769238015621,-0.2059783935546875,-0.9879150390625,0.092437744140625,0.0260592978447675,0.0173789896070957,0.0356970094144344
1769238015631,-0.2060546875,-0.9644775390625,0.102874755859375,0.035044003278017,-0.0335638187825679,0.0184751469641923
1769238015641,-0.1998443603515625,-0.9735107421875,0.1158294677734375,0.0301690883934497,-0.0728936493396759,0.0160380881279706
1769238015652,-0.1781005859375,-0.977691650390625,0.12567138671875,0.0354197770357131,-0.0717064142227172,0.0220043677836656
1769238015661,-0.1650848388671875,-0.9824981689453124,0.114654541015625,0.0412582233548164,-0.0065471152774989,0.0265743527561426
1769238015671,-0.16558837890625,-0.9860687255859376,0.102081298828125,0.0530080907046794,0.0688802674412727,0.0269357431679964
1769238015681,-0.1679840087890625,-0.9812774658203124,0.0863189697265625,0.0702968016266822,0.1580751240253448,0.0335824601352214
1769238015691,-0.168304443359375,-0.9793548583984376,0.0746612548828125,0.0733565017580986,0.2000563889741897,0.0376200787723064
1769238015701,-0.173004150390625,-0.9665985107421876,0.08709716796875,0.0820759609341621,0.2056948393583297,0.0451546944677829
1769238015712,-0.176055908203125,-0.967926025390625,0.0905609130859375,0.0899458676576614,0.2558325827121734,0.04395467415452
1769238015722,-0.184906005859375,-0.9879913330078124,0.094696044921875,0.0968181565403938,0.3614234328269958,0.0382491163909435
1769238015732,-0.1932525634765625,-0.9872283935546876,0.09002685546875,0.0829007402062416,0.4143353998661041,0.0317238420248031
1769238015742,-0.1848602294921875,-0.9741058349609376,0.1206207275390625,0.0745053961873054,0.2392661124467849,0.0468742996454238
1769238015752,-0.17181396484375,-0.9727783203125,0.1486053466796875,0.0915171355009079,0.0555146560072898,0.0462569780647754
1769238015762,-0.1845855712890625,-0.98974609375,0.150726318359375,0.1215005964040756,-0.020265057682991,0.0255927108228206
1769238015772,-0.2041778564453125,-0.9865875244140624,0.132293701171875,0.1458251178264618,-0.0681476294994354,0.008985505439341
1769238015782,-0.198577880859375,-0.971038818359375,0.1177520751953125,0.155036985874176,-0.0928268730640411,0.0099804624915122
1769238015792,-0.189727783203125,-0.9657745361328124,0.11883544921875,0.1627074182033538,-0.0349598489701747,0.0149797480553388
1769238015802,-0.1796417236328125,-0.9640960693359376,0.1035308837890625,0.1652952134609222,0.0656043067574501,0.0198488049209117
1769238015812,-0.1777496337890625,-0.96728515625,0.09259033203125,0.1695773154497146,0.1657133400440216,0.0175052247941494
1769238015822,-0.1827239990234375,-0.9772491455078124,0.09356689453125,0.1811370253562927,0.2653698921203613,0.0098036285489797
1769238015832,-0.19012451171875,-0.9783782958984376,0.0930633544921875,0.1904298663139343,0.4040276408195495,0.0011672634864225
1769238015842,-0.18701171875,-0.97442626953125,0.1010284423828125,0.1671298742294311,0.3559788763523102,0.0020136160310357
1769238015852,-0.184722900390625,-0.9581451416015624,0.152252197265625,0.1868132948875427,0.1634171605110168,0.0073125078342854
1769238015862,-0.1874237060546875,-0.9677276611328124,0.1541900634765625,0.2128813713788986,0.0832999497652053,0.001996838254854
1769238015872,-0.196502685546875,-0.9758148193359376,0.1461639404296875,0.2222437262535095,0.0848970487713813,-0.0075183701701462
1769238015882,-0.1929931640625,-0.9844818115234376,0.1417388916015625,0.2114736288785934,0.131833404302597,0.001242897240445
1769238015892,-0.1735382080078125,-0.971527099609375,0.1423187255859375,0.2030447274446487,0.1929244548082351,0.0018018947448581
1769238015904,-0.1805419921875,-0.9654541015625,0.1318206787109375,0.1961037367582321,0.2420187592506408,-0.0145227499306201
1769238015912,-0.2093658447265625,-0.9636383056640624,0.129425048828125,0.194338321685791,0.2201281040906906,-0.0355164483189582
1769238015923,-0.2259521484375,-0.9735107421875,0.1359710693359375,0.1948938518762588,0.2451330572366714,-0.0363132655620574
1769238015933,-0.207733154296875,-0.9792022705078124,0.1344757080078125,0.1889456808567047,0.3384496867656708,-0.0362874343991279
1769238015943,-0.20025634765625,-0.9680328369140624,0.140960693359375,0.1629891842603683,0.2909998893737793,-0.031894814223051
1769238015953,-0.1896820068359375,-0.951080322265625,0.17974853515625,0.1661221235990524,0.1615803688764572,-0.0219987761229276
1769238015963,-0.17718505859375,-0.96923828125,0.17608642578125,0.1574082672595977,0.1104809716343879,-0.0187947265803813
1769238015973,-0.17608642578125,-0.9830474853515624,0.182159423828125,0.1530124545097351,0.0558755174279212,-0.027597539126873
1769238015983,-0.1811981201171875,-0.9817352294921876,0.1737213134765625,0.1408995985984802,0.0366496220231056,-0.024762338027358
1769238015993,-0.1769866943359375,-0.9706573486328124,0.1739654541015625,0.1355312019586563,0.0662115141749382,-0.0182690192013978
1769238016003,-0.1775054931640625,-0.9609375,0.16046142578125,0.1249904036521911,0.0608795955777168,-0.0214432403445243
1769238016013,-0.1885528564453125,-0.960113525390625,0.1613006591796875,0.1151433661580085,0.0405634045600891,-0.0232302211225032
1769238016023,-0.195098876953125,-0.9675750732421876,0.164642333984375,0.1072164699435234,0.0347558483481407,-0.0318460799753665
1769238016033,-0.2012481689453125,-0.9727783203125,0.1634521484375,0.1008467227220535,0.0452830605208873,-0.0291296560317277
1769238016043,-0.1889190673828125,-0.9709014892578124,0.16650390625,0.0902196392416954,0.0532834604382514,-0.0246720574796199
1769238016053,-0.1787872314453125,-0.9629974365234376,0.1696319580078125,0.0780948027968406,0.0714150592684745,-0.0169672649353742
1769238016063,-0.1738433837890625,-0.96539306640625,0.1774444580078125,0.0618039779365062,0.0567607507109642,-0.0067093018442392
1769238016073,-0.1674041748046875,-0.9590301513671876,0.1781768798828125,0.0530461743474006,0.0562883056700229,0.0023574302904307
1769238016083,-0.1650543212890625,-0.9547882080078124,0.1667327880859375,0.0397961474955081,0.0865061283111572,0.0112318815663456
1769238016093,-0.1694183349609375,-0.9464874267578124,0.163787841796875,0.0415879227221012,0.0684373825788497,0.012449212372303
1769238016103,-0.1869964599609375,-0.96044921875,0.162841796875,0.0386661700904369,0.0443626716732978,0.0072706961072981
1769238016113,-0.19818115234375,-0.981353759765625,0.171295166015625,0.0415533035993576,0.0461933277547359,-0.0023073628544807
1769238016124,-0.1967315673828125,-0.9785614013671876,0.167205810546875,0.0530301965773105,0.0394094586372375,-0.0057244645431637
1769238016134,-0.189300537109375,-0.976348876953125,0.164947509765625,0.0597922280430793,0.0472173132002353,-0.0131882401183247
1769238016144,-0.1837310791015625,-0.970672607421875,0.1612701416015625,0.0656328052282333,0.0880699381232261,-0.0148774832487106
1769238016154,-0.18463134765625,-0.9622802734375,0.1576690673828125,0.0646929740905761,0.1062888875603675,-0.0158458091318607
1769238016164,-0.1903228759765625,-0.9592132568359376,0.1582183837890625,0.0621073134243488,0.1158232688903808,-0.0182501096278429
1769238016174,-0.1914215087890625,-0.9644622802734376,0.158660888671875,0.0528730675578117,0.1037801876664161,-0.0177752692252397
1769238016184,-0.19061279296875,-0.9709625244140624,0.169189453125,0.0325821787118911,0.0967254787683487,-0.0160037335008382
1769238016194,-0.1854248046875,-0.96832275390625,0.18194580078125,0.0129557456821203,0.0901994034647941,-0.0083948159590363
1769238016204,-0.1835479736328125,-0.96435546875,0.181243896484375,0.0015475628897547,0.0788348913192749,-0.004611796233803
1769238016214,-0.188079833984375,-0.9628753662109376,0.175018310546875,-0.0057905111461877,0.0672448202967643,-0.0070954598486423
1769238016224,-0.1913299560546875,-0.9639434814453124,0.1725006103515625,-0.0176572911441326,0.0318420864641666,-0.0107336044311523
1769238016234,-0.1924285888671875,-0.9616546630859376,0.1778411865234375,-0.0245426278561353,0.0197920799255371,-0.0084952171891927
1769238016244,-0.1946868896484375,-0.96282958984375,0.1755828857421875,-0.0346469283103942,0.0022490394767373,-0.0129248537123203
1769238016254,-0.1967620849609375,-0.968780517578125,0.1755828857421875,-0.0456090308725833,0.016357934102416,-0.0131405694410204
1769238016264,-0.1904754638671875,-0.970733642578125,0.17559814453125,-0.0565692707896232,-0.0094036217778921,-0.0133245941251516
1769238016274,-0.18975830078125,-0.9720916748046876,0.1807403564453125,-0.068731389939785,-0.0689284652471542,-0.0170839112251997
1769238016284,-0.179534912109375,-0.976318359375,0.1882171630859375,-0.0677462890744209,-0.077139526605606,-0.0192791558802127
1769238016294,-0.180877685546875,-0.976348876953125,0.17425537109375,-0.0702632442116737,-0.0695029124617576,-0.0202251095324754
1769238016304,-0.1843414306640625,-0.9726715087890624,0.171600341796875,-0.0682858452200889,-0.0404315777122974,-0.0107415942475199
1769238016314,-0.1786346435546875,-0.9626312255859376,0.16229248046875,-0.065065287053585,-0.0279032699763774,-0.0019358517602086
1769238016324,-0.1802825927734375,-0.959808349609375,0.1620025634765625,-0.0529289953410625,-0.0255200080573558,0.0051204599440097
1769238016334,-0.1818695068359375,-0.9650115966796876,0.1584014892578125,-0.03689756244421,-0.0124494787305593,0.0034485273063182
1769238016345,-0.189300537109375,-0.965057373046875,0.1558074951171875,-0.0289664044976234,-0.0293091535568237,-0.0041851578280329
1769238016355,-0.199005126953125,-0.9671478271484376,0.1619873046875,-0.0188618376851081,-0.0605789236724376,-0.003753192955628
1769238016365,-0.1912078857421875,-0.972412109375,0.1641082763671875,-0.012811935506761,-0.0627925470471382,-0.0066174226813018
1769238016375,-0.1857452392578125,-0.9730224609375,0.162628173828125,-0.0106345349922776,-0.076055884361267,-0.0102704809978604
1769238016386,-0.1860809326171875,-0.9712982177734376,0.1605987548828125,-0.0054144728928804,-0.0990424305200576,-0.0064451158978044
1769238016395,-0.1764984130859375,-0.974578857421875,0.1587066650390625,-0.0061947791837155,-0.0804716721177101,-0.0033651704434305
1769238016405,-0.1690826416015625,-0.97698974609375,0.1629791259765625,-0.0166623331606388,-0.0230629742145538,0.0048352354206144
1769238016415,-0.171295166015625,-0.9747314453125,0.1585540771484375,-0.0181526392698287,0.0105317365378141,-0.0065921223722398
1769238016425,-0.1942138671875,-0.9640045166015624,0.147064208984375,-0.0220973119139671,-5.9388490626588464e-05,-0.0047225835733115
1769238016435,-0.1910552978515625,-0.9504241943359376,0.15179443359375,-0.0168689955025911,-0.0315643176436424,0.0044844970107078
1769238016445,-0.1799774169921875,-0.9578704833984376,0.1555328369140625,-0.0099298628047108,-0.0122196478769183,-0.002583266235888
1769238016455,-0.188629150390625,-0.968841552734375,0.1468963623046875,-0.0030652983114123,0.0176330562680959,-0.0135568212717771
1769238016465,-0.1904754638671875,-0.96759033203125,0.1448974609375,0.0024551681708544,0.0368573516607284,-0.0155243650078773
1769238016475,-0.1884765625,-0.966094970703125,0.146636962890625,0.0058637480251491,0.0148087730631232,-0.0219756066799163
1769238016485,-0.1919097900390625,-0.965728759765625,0.15771484375,0.009304285980761,-0.0162093304097652,-0.0199763718992471
1769238016495,-0.1829986572265625,-0.966796875,0.16119384765625,0.0150351421907544,-0.0104065686464309,-0.0128233870491385
1769238016505,-0.175872802734375,-0.9724578857421876,0.15679931640625,0.0125264441594481,0.0374259352684021,-0.006149505265057
1769238016515,-0.1727447509765625,-0.9707794189453124,0.15087890625,0.0104664890095591,0.0858914703130722,0.0003693804319482
1769238016527,-0.1795196533203125,-0.9719390869140624,0.1458587646484375,0.0175971034914255,0.1005870625376701,-0.012369317933917
1769238016535,-0.2016754150390625,-0.96966552734375,0.1402587890625,0.0273687727749347,0.0401719212532043,-0.0193249620497226
1769238016545,-0.1994476318359375,-0.9650115966796876,0.1525421142578125,0.0212405733764171,-0.0473555326461792,-0.0199848935008049
1769238016555,-0.190826416015625,-0.96990966796875,0.183074951171875,0.0230722967535257,-0.1015415415167808,-0.0139160817489027
1769238016566,-0.180145263671875,-0.98388671875,0.1758880615234375,0.0254182741045951,-0.0797222629189491,-0.0144649595022201
1769238016576,-0.1724090576171875,-0.9878387451171876,0.16168212890625,0.0188487879931926,-0.0192330833524465,-0.0160671174526214
1769238016586,-0.165985107421875,-0.9724884033203124,0.15753173828125,0.0058504324406385,0.0421037785708904,-0.0059899818152189
1769238016596,-0.157867431640625,-0.9637298583984376,0.1592864990234375,-0.0044844970107078,0.0988690555095672,0.0026533072814345
1769238016606,-0.1638946533203125,-0.9600372314453124,0.15765380859375,-0.0025363946333527,0.1255549937486648,-0.0058291270397603
1769238016616,-0.1970062255859375,-0.956787109375,0.1517181396484375,-0.0072094434872269,0.1105637922883033,-0.0078451400622725
1769238016626,-0.193389892578125,-0.9535675048828124,0.1660003662109375,-0.0055729309096932,0.0552691146731376,0.0088108023628592
1769238016636,-0.17791748046875,-0.957733154296875,0.173370361328125,0.0002316950121894,0.0343177616596221,0.0134407076984643
1769238016646,-0.1790924072265625,-0.9694061279296876,0.1720733642578125,0.0062307314947247,0.0563671365380287,0.0141083616763353
1769238016656,-0.17767333984375,-0.97039794921875,0.1633453369140625,0.0121336281299591,0.0590726397931575,0.0151552511379122
1769238016666,-0.1749725341796875,-0.96441650390625,0.1634979248046875,0.0158308949321508,0.0422720909118652,0.0168418306857347
1769238016676,-0.1764984130859375,-0.9680938720703124,0.1638641357421875,0.0226866696029901,0.0488913767039775,0.0100078927353024
1769238016686,-0.1870574951171875,-0.970428466796875,0.1604461669921875,0.0292287245392799,0.0720057487487793,0.0098893819376826
1769238016696,-0.1897430419921875,-0.9636688232421876,0.1585235595703125,0.0353321582078933,0.0858017206192016,0.0092014875262975
1769238016706,-0.193206787109375,-0.9579620361328124,0.1569671630859375,0.0394014678895473,0.0383274145424366,0.0124904913827776
1769238016716,-0.192169189453125,-0.9553375244140624,0.1607208251953125,0.0470641814172267,-0.0168743208050727,0.0171821825206279
1769238016726,-0.184844970703125,-0.9637298583984376,0.1642303466796875,0.0504437312483787,-0.0502482578158378,0.0088198566809296
1769238016736,-0.191986083984375,-0.969818115234375,0.1619873046875,0.0459203533828258,-0.0536533743143081,0.0062610916793346
1769238016746,-0.18572998046875,-0.9711761474609376,0.16796875,0.0355105884373188,-0.0327795185148716,0.0184069704264402
1769238016756,-0.1719970703125,-0.9723968505859376,0.17431640625,0.0300314016640186,-0.0052703958936035,0.0219287350773811
1769238016766,-0.1819915771484375,-0.9709625244140624,0.1726531982421875,0.0224544424563646,0.0126430904492735,0.0162956155836582
1769238016777,-0.197479248046875,-0.9667816162109376,0.1735076904296875,0.0115410750731825,0.0069649652577936,0.0218168813735246
1769238016787,-0.1911773681640625,-0.9624786376953124,0.18487548828125,0.0050437608733773,-0.0342146940529346,0.0397711135447025
1769238016797,-0.177093505859375,-0.9580841064453124,0.1838226318359375,0.002723614918068,-0.0375548303127288,0.0479877665638923
1769238016807,-0.180023193359375,-0.96368408203125,0.177520751953125,0.0019896477460861,-0.0096606165170669,0.0588979385793209
1769238016817,-0.1742401123046875,-0.9596099853515624,0.166595458984375,0.0035270904190838,0.0259863268584013,0.06365567445755
1769238016827,-0.1757049560546875,-0.9632568359375,0.1594085693359375,0.006148706190288,0.0532706789672374,0.0671910196542739
1769238016837,-0.1753997802734375,-0.96417236328125,0.1570281982421875,0.0131134055554866,0.0808967128396034,0.058039866387844
1769238016847,-0.1925811767578125,-0.96588134765625,0.1514129638671875,0.0185686238110065,0.0501236207783222,0.0436630584299564
1769238016857,-0.2075958251953125,-0.9577178955078124,0.155120849609375,0.0283368322998285,-0.0376456454396247,0.0356906205415725
1769238016867,-0.2002716064453125,-0.9665679931640624,0.1677398681640625,0.0338695496320724,-0.0660226941108703,0.0340101644396781
1769238016877,-0.1938934326171875,-0.9743499755859376,0.16876220703125,0.0277770366519689,-0.0542419329285621,0.0248321127146482
1769238016887,-0.1972808837890625,-0.983673095703125,0.1735382080078125,0.021491976454854,-0.0226765498518943,0.0167731214314699
1769238016897,-0.1953582763671875,-0.9828948974609376,0.17095947265625,0.0054887747392058,-0.033405628055334,0.0081455446779727
1769238016907,-0.20281982421875,-0.9736785888671876,0.175537109375,0.0039212382398545,-0.0913948938250541,0.0069844061508774
1769238016917,-0.19781494140625,-0.973541259765625,0.1741943359375,-0.0006130596739239,-0.088277667760849,0.0036216326989233
1769238016927,-0.19744873046875,-0.970611572265625,0.1690826416015625,-0.0015598133904859,-0.0545149073004722,0.007855792529881
1769238016937,-0.185821533203125,-0.95562744140625,0.1611785888671875,-0.0071090422570705,0.0107956556603312,0.0102276038378477
1769238016947,-0.1790313720703125,-0.945343017578125,0.15631103515625,0.0011073424248024,0.0683244615793228,0.0120036657899618
1769238016957,-0.190338134765625,-0.94580078125,0.1505279541015625,0.0055537559092044,0.0853425934910774,0.0079340897500514
1769238016968,-0.198822021484375,-0.965118408203125,0.160919189453125,0.012238822877407,0.0827289670705795,0.0036426717415452
1769238016978,-0.2008209228515625,-0.98382568359375,0.1703033447265625,0.0258731432259082,0.0653334632515907,-0.0093423686921596
1769238016988,-0.1935272216796875,-0.9813385009765624,0.1727294921875,0.0498876646161079,0.0596569366753101,-0.0234997328370809
1769238016998,-0.1975860595703125,-0.9798431396484376,0.1613006591796875,0.0613144896924495,0.0372483022511005,-0.0417775399982929
1769238017008,-0.201263427734375,-0.963653564453125,0.1634521484375,0.0715234503149986,0.007651527877897,-0.0423434637486934
1769238017018,-0.1900177001953125,-0.9533843994140624,0.1678314208984375,0.0717516839504242,-0.0040650488808751,-0.0381447225809097
1769238017028,-0.1927642822265625,-0.9607696533203124,0.177154541015625,0.0534547008574008,-0.0068962555378675,-0.0371353849768638
1769238017038,-0.1906585693359375,-0.9640655517578124,0.1890869140625,0.0400430224835872,-0.017109477892518,-0.0321946889162063
1769238017048,-0.18353271484375,-0.9603118896484376,0.1875457763671875,0.0237857569009065,-0.0083801690489053,-0.0244422256946563
1769238017058,-0.1783599853515625,-0.9590911865234376,0.1824798583984375,0.0120934145525097,0.0268744900822639,-0.0140862576663494
1769238017068,-0.1743621826171875,-0.9578704833984376,0.1723175048828125,-0.0014892396284267,0.0779246240854263,0.0012743226252496
1769238017078,-0.1722564697265625,-0.95758056640625,0.1674652099609375,-0.0114273577928543,0.1297337561845779,0.0110281500965356
1769238017088,-0.18121337890625,-0.9580078125,0.163360595703125,-0.0088446242734789,0.1601611822843551,0.0083996104076504
1769238017098,-0.2040252685546875,-0.9557952880859376,0.1575927734375,-0.0040298951789736,0.1300349682569503,0.0124585339799523
1769238017108,-0.2009429931640625,-0.9522552490234376,0.1646881103515625,0.001504952320829,0.0830325707793235,0.0283741168677806
1769238017118,-0.188751220703125,-0.954254150390625,0.1712799072265625,0.0147832073271274,0.0719697996973991,0.0333880521357059
1769238017128,-0.19354248046875,-0.9703826904296876,0.17230224609375,0.0118678444996476,0.0850262120366096,0.0312790945172309
1769238017138,-0.191497802734375,-0.975616455078125,0.1793212890625,0.0179278682917356,0.0767720118165016,0.0316282324492931
1769238017148,-0.1796112060546875,-0.9742431640625,0.17205810546875,0.0240206476300954,0.069192387163639,0.0314940102398395
1769238017158,-0.1808319091796875,-0.977325439453125,0.173492431640625,0.0277831610292196,0.0926242098212242,0.030590932816267
1769238017168,-0.186676025390625,-0.9678192138671876,0.1735076904296875,0.0362940914928913,0.1029247865080833,0.0327054820954799
1769238017179,-0.1987152099609375,-0.9559173583984376,0.169952392578125,0.0348373427987098,0.0165688563138246,0.0284079387784004
1769238017188,-0.2100067138671875,-0.958465576171875,0.189849853515625,0.0449240654706954,-0.055888831615448,0.0362842381000518
1769238017199,-0.200347900390625,-0.9700164794921876,0.1912841796875,0.0416345298290252,-0.0471222400665283,0.0426835492253303
1769238017209,-0.1905364990234375,-0.976654052734375,0.192596435546875,0.0367106087505817,-0.0254531614482402,0.0413929782807827
1769238017219,-0.196624755859375,-0.97418212890625,0.181732177734375,0.0348461307585239,-0.0317139886319637,0.0270899403840303
1769238017229,-0.2094268798828125,-0.962677001953125,0.172882080078125,0.0297163501381874,-0.0760340467095375,0.0257644858211278
1769238017239,-0.1993865966796875,-0.961517333984375,0.1790924072265625,0.0222520418465137,-0.0778873413801193,0.0306511204689741
1769238017249,-0.188323974609375,-0.97125244140625,0.1841278076171875,0.0126031432300806,-0.0464343428611755,0.0365990251302719
1769238017259,-0.180938720703125,-0.9718170166015624,0.1841583251953125,0.0008884305134415,-0.0173398423939943,0.0400752462446689
1769238017269,-0.1746673583984375,-0.970458984375,0.185150146484375,0.0014897723449394,-0.0098254662007093,0.0397183857858181
1769238017279,-0.176666259765625,-0.963104248046875,0.1725311279296875,-0.0031411985401064,-0.0294758658856153,0.0327472947537899
1769238017289,-0.1881103515625,-0.9609222412109376,0.1707611083984375,-0.0048333709128201,-0.032800555229187,0.0217175465077161
1769238017299,-0.199615478515625,-0.961456298828125,0.1717681884765625,-0.0006255765329115,-0.0230099782347679,0.0193654429167509
1769238017309,-0.204925537109375,-0.952606201171875,0.16925048828125,0.0053420346230268,-0.0422204248607158,0.0179592929780483
1769238017319,-0.2040863037109375,-0.9485626220703124,0.174072265625,0.0087636644020676,-0.0647214725613594,0.0129142003133893
1769238017329,-0.2013397216796875,-0.9621124267578124,0.1784820556640625,0.0214930418878793,-0.0539487190544605,0.0092302495613694
1769238017339,-0.1971893310546875,-0.9610443115234376,0.166900634765625,0.0254544932395219,-0.0139174135401844,0.0084984134882688
1769238017349,-0.19647216796875,-0.9635467529296876,0.16876220703125,0.0277815628796815,0.0344423949718475,0.009098956361413
1769238017359,-0.1976318359375,-0.9565582275390624,0.16046142578125,0.0377266071736812,0.0431634485721588,-0.0008295746520161
1769238017369,-0.2114105224609375,-0.957855224609375,0.1581878662109375,0.038254976272583,0.0239913519471883,-0.0146215530112385
1769238017380,-0.213592529296875,-0.9612579345703124,0.1714019775390625,0.0473206453025341,0.0218355245888233,-0.0072813485749065
1769238017389,-0.1914215087890625,-0.9644317626953124,0.1666412353515625,0.0550454072654247,0.0262577030807733,0.0022029669489711
1769238017400,-0.188446044921875,-0.973968505859375,0.1710662841796875,0.0593213811516761,0.0384832099080085,-0.0057130130007863
1769238017410,-0.2040557861328125,-0.974090576171875,0.171539306640625,0.0648237392306327,-0.0030053772497922,-0.0181465130299329
1769238017420,-0.2142181396484375,-0.9682769775390624,0.1749725341796875,0.0725050941109657,-0.0750057995319366,-0.0202275067567825
1769238017430,-0.199951171875,-0.9720001220703124,0.1835784912109375,0.0751828998327255,-0.0963457077741622,-0.017258882522583
1769238017440,-0.1876983642578125,-0.9699859619140624,0.18218994140625,0.0756622701883316,-0.0702083855867385,-0.013203153386712
1769238017450,-0.188873291015625,-0.9637603759765624,0.178802490234375,0.0726931095123291,-0.0011155981337651,-0.005354018881917
1769238017460,-0.1908721923828125,-0.9550933837890624,0.170257568359375,0.0731322690844535,0.0426095128059387,-0.0037177728954702
1769238017470,-0.206268310546875,-0.9561309814453124,0.17010498046875,0.0766279324889183,0.0418598316609859,-0.0205305758863687
1769238017480,-0.225738525390625,-0.955474853515625,0.178009033203125,0.0715594068169593,-0.0157922785729169,-0.0200544018298387
1769238017490,-0.20947265625,-0.943756103515625,0.2018585205078125,0.0751200541853904,-0.1123449206352233,-0.0051446943543851
1769238017500,-0.1912841796875,-0.9552764892578124,0.2119293212890625,0.0747362896800041,-0.1393786668777465,-0.0038535939529538
1769238017510,-0.185150146484375,-0.970855712890625,0.2089996337890625,0.0679433643817901,-0.1046726182103157,-0.00655057746917
1769238017520,-0.18212890625,-0.9668731689453124,0.2005462646484375,0.0613062344491481,-0.0517281740903854,-0.0033806166611611
1769238017530,-0.17108154296875,-0.96112060546875,0.1949615478515625,0.0514757074415683,0.0083764409646391,0.0062357918359339
1769238017540,-0.17156982421875,-0.955413818359375,0.193572998046875,0.0406590141355991,0.0485757924616336,0.0148692270740866
1769238017550,-0.17779541015625,-0.9550323486328124,0.1992034912109375,0.0387428700923919,0.0724339857697486,0.0258590281009674
1769238017560,-0.1872711181640625,-0.9487457275390624,0.1974639892578125,0.0465709641575813,0.0881298556923866,0.0245575401932001
1769238017570,-0.2087249755859375,-0.9495391845703124,0.19012451171875,0.0494988448917865,0.0570971071720123,0.0111724929884076
1769238017580,-0.2277069091796875,-0.943115234375,0.19500732421875,0.0532437786459922,-0.0552776381373405,0.019353725016117
1769238017590,-0.2055816650390625,-0.947296142578125,0.2030029296875,0.0564387738704681,-0.0782071873545646,0.033336117863655
1769238017600,-0.1813201904296875,-0.9684906005859376,0.1967926025390625,0.0456162206828594,-0.032397087663412,0.0294257998466491
1769238017611,-0.1869964599609375,-0.9708709716796876,0.19244384765625,0.0364858396351337,-0.0085655245929956,0.0208821129053831
1769238017621,-0.1932220458984375,-0.9659423828125,0.191497802734375,0.0220690835267305,-0.0506141744554042,0.0187467895448207
1769238017631,-0.196990966796875,-0.95928955078125,0.2080230712890625,0.0180980432778596,-0.1003388538956642,0.0151725616306066
1769238017641,-0.2007598876953125,-0.9638519287109376,0.208160400390625,0.0138758681714534,-0.1068476215004921,0.0187047123908996
1769238017651,-0.1928863525390625,-0.9653472900390624,0.2046051025390625,0.0088131986558437,-0.0696850717067718,0.0262728836387395
1769238017661,-0.1846160888671875,-0.95556640625,0.196319580078125,0.0040543964132666,-0.0146441897377371,0.034080471843481
1769238017671,-0.1851806640625,-0.9524993896484376,0.1887969970703125,0.0019664780702441,0.0438787750899791,0.0365428291261196
1769238017681,-0.1877899169921875,-0.9512481689453124,0.1857452392578125,0.002665557898581,0.0922143459320068,0.0423879362642765
1769238017691,-0.192901611328125,-0.9495391845703124,0.18560791015625,0.0115064540877938,0.11820600181818,0.0381654947996139
1769238017701,-0.205047607421875,-0.949127197265625,0.1850128173828125,0.0196320246905088,0.0952788516879081,0.0280689187347888
1769238017711,-0.22198486328125,-0.9450531005859376,0.1911163330078125,0.0369441695511341,0.0299911890178918,0.0128068756312131
1769238017721,-0.228759765625,-0.9550628662109376,0.189483642578125,0.0400922931730747,-0.0333241336047649,0.0059660132974386
1769238017731,-0.21368408203125,-0.9729461669921876,0.2057037353515625,0.0346189625561237,-0.0268457289785146,0.0068216868676245
1769238017741,-0.19879150390625,-0.9806365966796876,0.2037506103515625,0.0207393672317266,0.0135277928784489,0.0036940707359462
1769238017751,-0.193695068359375,-0.977386474609375,0.2005615234375,0.0101186800748109,0.0551940128207206,-0.0050794472917914
1769238017761,-0.1934967041015625,-0.9738922119140624,0.1971282958984375,-0.0060315271839499,0.0625965371727943,-0.017723336815834
1769238017771,-0.2041778564453125,-0.9596710205078124,0.20281982421875,-0.0107322726398706,0.0273296255618333,-0.0356293655931949
1769238017781,-0.2182159423828125,-0.94561767578125,0.2024383544921875,-0.0112577145919203,-0.0264281444251537,-0.0398933552205562
1769238017791,-0.2130584716796875,-0.935028076171875,0.2032318115234375,-0.0088821751996874,-0.0448015592992305,-0.0381399281322956
1769238017801,-0.202728271484375,-0.9358978271484376,0.203704833984375,-0.0085458178073167,-0.0149105060845613,-0.0239226426929235
1769238017812,-0.1943817138671875,-0.9405670166015624,0.2008209228515625,-0.0091727254912257,0.0417003072798252,-0.0074219633825123
1769238017822,-0.186492919921875,-0.967041015625,0.2007904052734375,-0.0136561570689082,0.0845519006252288,-0.0138497687876224
1769238017832,-0.1922149658203125,-0.971954345703125,0.2040252685546875,-0.0004953479510731,0.075126439332962,-0.0308015886694192
1769238017842,-0.213226318359375,-0.97271728515625,0.1984405517578125,0.0069298115558922,0.0094712655991315,-0.0536381937563419
1769238017852,-0.2266845703125,-0.963592529296875,0.2068634033203125,0.0161217115819454,-0.0482532829046249,-0.0484010875225067
1769238017862,-0.2081451416015625,-0.94854736328125,0.206390380859375,0.0192751605063676,-0.0827135220170021,-0.0284335054457187
1769238017872,-0.1909332275390625,-0.951934814453125,0.2039947509765625,0.0095263933762907,-0.0976570546627044,-0.0219005048274993
1769238017882,-0.1893463134765625,-0.9652557373046876,0.2105255126953125,-0.0050048786215484,-0.0698443278670311,-0.0213268604129552
1769238017892,-0.1844940185546875,-0.9682464599609376,0.2036895751953125,-0.0237948112189769,-0.028275579214096,-0.0180032346397638
1769238017902,-0.1786651611328125,-0.9589080810546876,0.2020263671875,-0.0396653860807418,0.0081024011597037,-0.0122801018878817
1769238017912,-0.1759796142578125,-0.95074462890625,0.198028564453125,-0.0466117113828659,0.044777326285839,-0.0060227387584745
1769238017922,-0.184814453125,-0.948577880859375,0.195556640625,-0.0534448474645614,0.0393641851842403,-0.0070682959631085
1769238017932,-0.2056732177734375,-0.944488525390625,0.19873046875,-0.0496786050498485,0.0004487426485866,-0.0157573912292718
1769238017942,-0.2180328369140625,-0.95513916015625,0.19659423828125,-0.0428774245083332,-0.0265498515218496,-0.0206594727933406
1769238017952,-0.207489013671875,-0.9648895263671876,0.190399169921875,-0.0458641611039638,-0.0255178771913051,-0.0143094304949045
1769238017962,-0.1891937255859375,-0.962371826171875,0.1923980712890625,-0.0416044332087039,-0.0166104026138782,-0.0159763023257255
1769238017973,-0.188629150390625,-0.96929931640625,0.181732177734375,-0.0352456048130989,-0.0144561706110835,-0.0242800395935773
1769238017982,-0.1902313232421875,-0.97613525390625,0.179473876953125,-0.0338855274021625,-0.0116047244518995,-0.0406345129013061
1769238017992,-0.1954498291015625,-0.972625732421875,0.1855621337890625,-0.0331310555338859,-0.0319478139281272,-0.0557825714349746
1769238018002,-0.206787109375,-0.963043212890625,0.1949310302734375,-0.0255045611411333,-0.0801414400339126,-0.0569389164447784
1769238018012,-0.200958251953125,-0.9583587646484376,0.2000274658203125,-0.0147808101028203,-0.0878124088048935,-0.0501342751085758
1769238018022,-0.1929931640625,-0.9593658447265624,0.1978759765625,-0.0158924143761396,-0.061333131045103,-0.0449634790420532
1769238018032,-0.1933746337890625,-0.957427978515625,0.1975250244140625,-0.0168988220393657,-0.0369143411517143,-0.0382552444934845
1769238018043,-0.1905059814453125,-0.9521331787109376,0.1940460205078125,-0.0128500182181596,-0.0669673159718513,-0.0380768105387687
1769238018053,-0.2006378173828125,-0.9484710693359376,0.19183349609375,-0.0029281456954777,-0.1548910439014434,-0.0470511317253112
1769238018063,-0.20819091796875,-0.9544525146484376,0.1950225830078125,-0.002657035831362,-0.2403489500284195,-0.0427799560129642
1769238018073,-0.189239501953125,-0.9691009521484376,0.2152099609375,-0.0128649324178695,-0.2581276893615722,-0.0353007316589355
1769238018083,-0.1820220947265625,-0.9681854248046876,0.219757080078125,-0.0286960937082767,-0.2279279679059982,-0.0317984111607074
1769238018093,-0.185882568359375,-0.96527099609375,0.2176055908203125,-0.0372890494763851,-0.1899592876434326,-0.028588768094778
1769238018103,-0.1862030029296875,-0.9637908935546876,0.208892822265625,-0.0506450682878494,-0.1546484380960464,-0.0186296105384826
1769238018113,-0.1794281005859375,-0.9610137939453124,0.210968017578125,-0.0568795278668403,-0.1117395833134651,-0.0081396857276558
1769238018123,-0.17205810546875,-0.9661712646484376,0.1996917724609375,-0.0662716999650001,-0.0495877936482429,0.0022109562996774
1769238018133,-0.1637115478515625,-0.9614105224609376,0.1942596435546875,-0.0764955729246139,0.0100630205124616,0.0134779922664165
1769238018143,-0.1694183349609375,-0.964385986328125,0.1874542236328125,-0.0738310813903808,0.0415969789028167,0.0006087986403144
1769238018153,-0.1939239501953125,-0.9577789306640624,0.1822662353515625,-0.0574715472757816,0.0311997309327125,-0.0068376660346984
1769238018163,-0.198974609375,-0.949554443359375,0.179595947265625,-0.0356216430664062,-0.0098723378032445,-0.0116952722892165
1769238018173,-0.1938018798828125,-0.9505615234375,0.177764892578125,-0.0153912063688039,-0.0290670711547136,-0.0171116087585687
1769238018183,-0.1974945068359375,-0.9569549560546876,0.17437744140625,0.0084544708952307,-0.0381103679537773,-0.0284489523619413
1769238018193,-0.203826904296875,-0.9537353515625,0.16650390625,0.0158253014087677,-0.1058776974678039,-0.0372621491551399
1769238018203,-0.200225830078125,-0.962615966796875,0.1875762939453125,0.02487632073462,-0.1471220701932907,-0.0344466567039489
1769238018213,-0.182098388671875,-0.967010498046875,0.1918487548828125,0.0265535805374383,-0.1141542717814445,-0.0323430262506008
1769238018223,-0.1749114990234375,-0.9720916748046876,0.184326171875,0.0156529955565929,-0.0680560171604156,-0.0400448888540267
1769238018234,-0.1795196533203125,-0.96954345703125,0.187286376953125,0.0061092916876077,-0.0451997034251689,-0.0395814962685108
1769238018244,-0.1774749755859375,-0.9610748291015624,0.1927032470703125,0.0007848335662856,-0.029659891501069,-0.0269013885408639
1769238018254,-0.1673431396484375,-0.9650726318359376,0.1914520263671875,-0.0028264129068702,0.0002431466127745,-0.0231316853314638
1769238018264,-0.1739044189453125,-0.96502685546875,0.19134521484375,-0.0053769219666719,0.0272947382181882,-0.0182256083935499
1769238018274,-0.1735382080078125,-0.96075439453125,0.1883087158203125,-0.0048448224551975,0.0199755728244781,-0.0116803580895066
1769238018284,-0.170166015625,-0.95904541015625,0.1927032470703125,-0.0035963326226919,0.009490973316133,-0.00576281407848
1769238018294,-0.17254638671875,-0.9593048095703124,0.192840576171875,-0.0032032502349466,0.0214949063956737,0.0020397149492055
1769238018304,-0.173919677734375,-0.9624786376953124,0.1900634765625,-0.0031419973820447,0.0256915148347616,-0.0009803095599636
1769238018314,-0.1864166259765625,-0.9613800048828124,0.1930084228515625,0.0008737831376492,0.0208482909947633,0.0061407168395817
1769238018324,-0.1763916015625,-0.9618377685546876,0.1935272216796875,-0.0024130903184413,0.0274776965379714,0.0114313522353768
1769238018334,-0.1755828857421875,-0.96954345703125,0.2010650634765625,-0.0078962724655866,0.0537015758454799,0.0103732785210013
1769238018344,-0.178192138671875,-0.9647064208984376,0.1990203857421875,-0.0109178954735398,0.0539684258401393,0.0164796411991119
1769238018354,-0.1750335693359375,-0.9587249755859376,0.205322265625,-0.0170929674059152,0.0356812998652458,0.0234227683395147
1769238018364,-0.17559814453125,-0.9565887451171876,0.211181640625,-0.0129445604979991,0.0321382284164428,0.0269858110696077
1769238018374,-0.1798095703125,-0.956634521484375,0.201171875,-0.0086898943409323,0.0311853494495153,0.0260374601930379
1769238018384,-0.1867828369140625,-0.956573486328125,0.1934051513671875,-3.009372085216455e-05,0.0273432079702615,0.0201462805271148
1769238018394,-0.1923828125,-0.9517364501953124,0.184173583984375,0.0076078521087765,0.0023859259672462,0.0086451536044478
1769238018404,-0.202117919921875,-0.9570465087890624,0.1837921142578125,0.0141861261799931,-0.0068097030743956,0.0011579424608498
1769238018414,-0.1978912353515625,-0.961334228515625,0.18670654296875,0.0148833421990275,-0.0189454611390829,-0.0017611484508961
1769238018424,-0.1898345947265625,-0.96185302734375,0.1960296630859375,0.0152106443420052,-0.0409903116524219,-0.0016908409306779
1769238018435,-0.185943603515625,-0.9667816162109376,0.2005615234375,0.0201119258999824,-0.0179012361913919,-0.0001664475712459
1769238018445,-0.1766510009765625,-0.970916748046875,0.19732666015625,0.0188029818236827,0.0105104316025972,-0.0024823325220495
1769238018455,-0.1832733154296875,-0.9622802734375,0.1918487548828125,0.0143341980874538,0.0099682118743658,-0.0119490707293152
1769238018465,-0.194915771484375,-0.956298828125,0.2006378173828125,0.007113036699593,-0.0649172142148017,-0.006957774516195
1769238018475,-0.187896728515625,-0.9547882080078124,0.213531494140625,0.007911984808743,-0.0971939265727996,0.0077444724738597
1769238018485,-0.17974853515625,-0.963592529296875,0.2105865478515625,0.0037832865491509,-0.0646357163786888,0.0173102803528308
1769238018495,-0.177642822265625,-0.9595794677734376,0.2010650634765625,0.0036977990530431,-0.002322010230273,0.0184549074620008
1769238018505,-0.1851959228515625,-0.9559783935546876,0.1836700439453125,-0.0015526228817179,0.0049593383446335,0.01291633117944
1769238018515,-0.1925048828125,-0.9532012939453124,0.1890716552734375,-0.0120910173282027,-0.0515662543475627,0.0187326744198799
1769238018525,-0.18359375,-0.96038818359375,0.20758056640625,-0.0038557245861738,-0.0752643942832946,0.0236576590687036
1769238018535,-0.1784515380859375,-0.974334716796875,0.2001953125,-0.0003829625493381,-0.0427618436515331,0.0190706308931112
1769238018545,-0.17608642578125,-0.97259521484375,0.1955413818359375,0.0051801144145429,0.0179126877337694,0.0187172293663024
1769238018556,-0.17462158203125,-0.9636077880859376,0.185394287109375,0.0094150733202695,0.0729770064353942,0.0128486873582005
1769238018565,-0.1865081787109375,-0.96014404296875,0.1836090087890625,0.0220943838357925,0.0940159782767295,0.0034072482958436
1769238018575,-0.1996612548828125,-0.951507568359375,0.18292236328125,0.0326498225331306,0.047482032328844,0.0002596582053229
1769238018585,-0.2030792236328125,-0.951141357421875,0.1924285888671875,0.039191611111164,0.0281645264476537,0.0077500650659203
1769238018595,-0.1864471435546875,-0.96099853515625,0.1978607177734375,0.0360389612615108,0.0533740073442459,0.0174080189317464
1769238018605,-0.176361083984375,-0.9622650146484376,0.2026824951171875,0.0189127046614885,0.044362936168909,0.0209971610456705
1769238018615,-0.1812896728515625,-0.961700439453125,0.2076263427734375,0.020530842244625,0.0006857639527879,0.010105631314218
1769238018625,-0.193878173828125,-0.972198486328125,0.1996917724609375,0.0159597918391227,-0.0212291218340396,0.0017441042000427
1769238018635,-0.188140869140625,-0.9674835205078124,0.1988525390625,0.0074491277337074,-0.0079343561083078,0.0109668970108032
1769238018645,-0.17864990234375,-0.9651641845703124,0.1980743408203125,-0.0055819856934249,0.0146495159715414,0.0144423227757215
1769238018655,-0.1821136474609375,-0.9550628662109376,0.1965179443359375,-0.0115759624168276,0.0305706914514303,0.0088438251987099
1769238018666,-0.1865386962890625,-0.945343017578125,0.1903228759765625,-0.0137469712644815,0.0394778996706008,0.0015068164793774
1769238018676,-0.185760498046875,-0.9406890869140624,0.192901611328125,-0.0118441423401236,0.0605869144201278,0.0028847360517829
1769238018686,-0.1859130859375,-0.949066162109375,0.194366455078125,-0.0112073803320527,0.05632159486413,-0.0054565505124628
1769238018696,-0.2054595947265625,-0.96063232421875,0.204620361328125,-0.003092196304351,-0.0040882187895476,-0.0172024220228195
1769238018706,-0.21026611328125,-0.97076416015625,0.20758056640625,0.0215092860162258,-0.0306876040995121,-0.0177784636616706
1769238018716,-0.18402099609375,-0.9720611572265624,0.1947021484375,0.0298732109367847,-0.0138492360711097,-0.0185766145586967
1769238018726,-0.1731109619140625,-0.9868927001953124,0.197723388671875,0.0348655730485916,0.0079255672171711,-0.0275642499327659
1769238018736,-0.1836395263671875,-0.9747314453125,0.1900634765625,0.0348503924906253,0.0038589204195886,-0.0317046679556369
1769238018746,-0.183685302734375,-0.9566192626953124,0.1942138671875,0.0347462631762027,-0.0467669740319252,-0.0274726375937461
1769238018756,-0.18365478515625,-0.956390380859375,0.2077484130859375,0.0246030800044536,-0.0561500862240791,-0.0216967724263668
1769238018766,-0.1839752197265625,-0.9579620361328124,0.215911865234375,0.0150633715093135,-0.0283722523599863,-0.0138351218774914
1769238018776,-0.1789093017578125,-0.952545166015625,0.2092132568359375,-0.0029632993973791,-0.0175196044147014,-0.0057108826003968
1769238018786,-0.173614501953125,-0.9459228515625,0.212158203125,-0.0157510004937648,-0.0370709374547004,-0.000171507577761
1769238018796,-0.1739349365234375,-0.9521331787109376,0.206878662109375,-0.0223388615995645,-0.0315153151750564,0.0049313753843307
1769238018806,-0.1731414794921875,-0.9621734619140624,0.203765869140625,-0.0327084101736545,0.0012500877492129,0.0007084008539095
1769238018816,-0.182098388671875,-0.96099853515625,0.196624755859375,-0.036310601979494,0.0260542370378971,-0.0028828717768192
1769238018826,-0.189666748046875,-0.9564971923828124,0.1919403076171875,-0.0436670519411563,-0.0087649952620267,4.021373388241045e-05
1769238018836,-0.1858673095703125,-0.9522857666015624,0.205718994140625,-0.0396041348576545,-0.0362554751336574,0.0067963870242238
1769238018846,-0.1834259033203125,-0.9659271240234376,0.2009735107421875,-0.0414313301444053,-0.0067796092480421,0.0088416943326592
1769238018856,-0.1793365478515625,-0.977020263671875,0.1948699951171875,-0.0414033643901348,0.0346392020583152,0.0031760858837515
1769238018866,-0.185272216796875,-0.9723052978515624,0.188018798828125,-0.0402139984071254,0.0178578272461891,-0.007858189754188
1769238018877,-0.1946868896484375,-0.9675750732421876,0.193145751953125,-0.0348346792161464,-0.0151006560772657,-0.0114981979131698
1769238018887,-0.19183349609375,-0.9636383056640624,0.2017059326171875,-0.025539182126522,-0.0153134427964687,-0.0053982273675501
1769238018897,-0.1849212646484375,-0.964324951171875,0.197845458984375,-0.0153336822986602,0.0173606146126985,0.0013459615875035
1769238018907,-0.18084716796875,-0.96099853515625,0.1908416748046875,-0.0084336986765265,0.058081679046154,0.0080491378903388
1769238018917,-0.177215576171875,-0.957977294921875,0.189208984375,0.0023598270490765,0.0873554125428199,0.0122105935588479
1769238018927,-0.177459716796875,-0.9555816650390624,0.1909637451171875,0.0174168068915605,0.0970485210418701,0.0070200925692915
1769238018937,-0.187744140625,-0.951904296875,0.187042236328125,0.0343380011618137,0.0383106358349323,-0.0108598377555608
1769238018947,-0.207427978515625,-0.9595489501953124,0.1904144287109375,0.041514154523611,-0.0377617590129375,-0.0143547048792243
1769238018957,-0.1961517333984375,-0.967437744140625,0.2084503173828125,0.0511079244315624,-0.0407277233898639,-0.0120164491236209
1769238018967,-0.1810302734375,-0.96697998046875,0.200225830078125,0.0531036965548992,-0.0031694280914962,-0.0088108023628592
1769238018977,-0.1793670654296875,-0.9687347412109376,0.1971282958984375,0.0459608323872089,0.0031806132756173,-0.0154095822945237
1769238018987,-0.18109130859375,-0.963287353515625,0.201080322265625,0.0449951700866222,-0.0289664044976234,-0.0147587060928344
1769238018997,-0.175079345703125,-0.967987060546875,0.206085205078125,0.0370688065886497,-0.0488034933805465,-0.0172945670783519
1769238019007,-0.1796875,-0.9672393798828124,0.2091064453125,0.029814088717103,-0.031769648194313,-0.0243274439126253
1769238019017,-0.195648193359375,-0.9531097412109376,0.1971588134765625,0.0159502048045396,-0.0449136793613433,-0.0222903918474912
1769238019027,-0.1976776123046875,-0.9372100830078124,0.20428466796875,0.0106611661612987,-0.0989726558327674,-0.0180900543928146
1769238019037,-0.193023681640625,-0.940338134765625,0.21148681640625,0.0069082397967576,-0.1700143367052078,-0.0104459831491112
1769238019047,-0.1815185546875,-0.9593963623046876,0.2185821533203125,-0.0022676817607134,-0.1604280173778534,-0.006351372692734
1769238019057,-0.1710052490234375,-0.966064453125,0.2178802490234375,-0.0152316838502883,-0.0923365876078605,-0.0060709421522915
1769238019067,-0.167877197265625,-0.9629364013671876,0.20660400390625,-0.0325025506317615,-0.0264007151126861,-0.0046339002437889
1769238019078,-0.1655731201171875,-0.956878662109375,0.2049713134765625,-0.0437309704720974,0.0107205547392368,-0.0018716695485636
1769238019088,-0.168548583984375,-0.951751708984375,0.196868896484375,-0.0410494320094585,0.0328679345548152,0.0003800330741796
1769238019098,-0.1763458251953125,-0.9509124755859376,0.1928558349609375,-0.0443666651844978,0.0414382554590702,0.0002615224220789
1769238019108,-0.1827850341796875,-0.9571990966796876,0.2015228271484375,-0.0436023399233818,0.0476218461990356,0.0057502975687384
1769238019118,-0.183929443359375,-0.9657135009765624,0.2031402587890625,-0.0437331013381481,0.0663300231099128,0.0090286489576101
1769238019128,-0.1850128173828125,-0.97015380859375,0.1997528076171875,-0.0395173169672489,0.071018248796463,0.0060299295000731
1769238019138,-0.1877288818359375,-0.9685211181640624,0.1967926025390625,-0.0376760065555572,0.0404491573572158,0.0016008261591196
1769238019148,-0.187774658203125,-0.9633636474609376,0.197174072265625,-0.0320109315216541,-0.0174122788012027,-0.0047401604242622
1769238019158,-0.1900634765625,-0.9702301025390624,0.1995849609375,-0.0360078029334545,-0.0546581856906414,-0.0103711485862731
1769238019168,-0.188751220703125,-0.971038818359375,0.2017974853515625,-0.041094172745943,-0.0707322284579277,-0.0170740578323602
1769238019178,-0.188995361328125,-0.966094970703125,0.19720458984375,-0.0497750118374824,-0.0706842914223671,-0.0143733462318778
1769238019188,-0.1855926513671875,-0.964630126953125,0.2015380859375,-0.0576414577662944,-0.0519854351878166,-0.0100925816223025
1769238019198,-0.1818695068359375,-0.96185302734375,0.198822021484375,-0.0568318590521812,-0.0142143554985523,-0.0093317162245512
1769238019208,-0.1797332763671875,-0.963348388671875,0.1937103271484375,-0.0555908232927322,0.0337025709450244,-0.00997353810817
1769238019218,-0.1846466064453125,-0.9603729248046876,0.19097900390625,-0.0579056441783905,0.0535977147519588,-0.0098499674350023
1769238019228,-0.1858673095703125,-0.94989013671875,0.197113037109375,-0.0448287241160869,0.0338796712458133,-0.0032189628109335
1769238019238,-0.1801605224609375,-0.950653076171875,0.1947021484375,-0.035124696791172,0.0304314084351062,-0.0017153420485556
1769238019248,-0.18511962890625,-0.9622955322265624,0.193023681640625,-0.0246323756873607,0.0344269499182701,-0.0071740234270691
1769238019258,-0.1894989013671875,-0.95806884765625,0.1896209716796875,-0.0157717727124691,-0.0084888255223631,-0.0111722266301512
1769238019268,-0.1888427734375,-0.9562225341796876,0.193359375,-0.0046410909853875,-0.0449951700866222,-0.0166080053895711
1769238019279,-0.183013916015625,-0.9672088623046876,0.1936492919921875,0.0001262338337255,-0.0289786551147699,-0.0160772372037172
1769238019288,-0.174957275390625,-0.9705657958984376,0.189849853515625,-0.00341736827977,0.0139453765004873,-0.0220400542020797
1769238019299,-0.171875,-0.969940185546875,0.1898040771484375,-0.0085253110155463,0.046580284833908,-0.0261043049395084
1769238019309,-0.1791534423828125,-0.9629058837890624,0.190460205078125,-0.0270997937768697,-0.0066901268437504,-0.0321131944656372
1769238019319,-0.186187744140625,-0.9552764892578124,0.2200469970703125,-0.0199324283748865,-0.0746239051222801,-0.0239311661571264
1769238019329,-0.1772613525390625,-0.964996337890625,0.2123870849609375,-0.0182743445038795,-0.069799855351448,-0.0204645283520221
1769238019339,-0.1742401123046875,-0.9626007080078124,0.204071044921875,-0.0202962160110473,-0.01552489772439,-0.0102853942662477
1769238019349,-0.1699981689453125,-0.955718994140625,0.189910888671875,-0.0275368187576532,0.0183542389422655,-0.0034538535401225
1769238019359,-0.172027587890625,-0.9563140869140624,0.190582275390625,-0.0299392566084861,0.0075239627622067,-0.0003952131082769
1769238019369,-0.173095703125,-0.9593048095703124,0.1972808837890625,-0.0268926005810499,0.0179430469870567,0.0016713999211788
1769238019379,-0.172943115234375,-0.9654693603515624,0.1905364990234375,-0.0189340095967054,0.029203426092863,4.261057620169595e-05
1769238019389,-0.18255615234375,-0.9586029052734376,0.1863250732421875,-0.0202858299016952,-0.0173297207802534,-0.0006506102508865
1769238019399,-0.18707275390625,-0.960784912109375,0.1974029541015625,-0.0103549025952816,-0.0542049147188663,0.0131403030827641
1769238019409,-0.1654815673828125,-0.9678955078125,0.19171142578125,-0.0032647692132741,-0.0177393164485692,0.0160010699182748
1769238019419,-0.17523193359375,-0.9713287353515624,0.1754608154296875,0.0046845003962516,0.0293624158948659,-0.0055529573000967
1769238019429,-0.203826904296875,-0.970367431640625,0.16387939453125,0.0101120229810476,0.0327877737581729,-0.0191254913806915
1769238019439,-0.200408935546875,-0.9691162109375,0.1728973388671875,0.0119743710383772,0.0052501559257507,-0.0225295443087816
1769238019449,-0.1875457763671875,-0.9629974365234376,0.190704345703125,0.0171073470264673,0.0244619324803352,-0.021181184798479
1769238019459,-0.18243408203125,-0.9588623046875,0.1891632080078125,0.0211742613464593,0.0531729385256767,-0.0210368428379297
1769238019469,-0.1845703125,-0.95538330078125,0.185638427734375,0.0249088127166032,0.0382589735090732,-0.0237556621432304
1769238019479,-0.184783935546875,-0.954193115234375,0.1914825439453125,0.0225356686860322,0.0179718099534511,-0.0199649203568696
1769238019489,-0.1743316650390625,-0.956939697265625,0.1993865966796875,0.0228246226906776,0.0238075945526361,-0.0159741733223199
1769238019499,-0.1692962646484375,-0.962799072265625,0.1987762451171875,0.0109013831242918,0.0472548641264438,-0.0165448877960443
1769238019510,-0.1767120361328125,-0.9626617431640624,0.199493408203125,0.0035958001390099,0.0295869205147027,-0.0205782447010278
1769238019520,-0.1843109130859375,-0.9666595458984376,0.20159912109375,-0.0016793893883004,-0.0050592068582773,-0.0206671953201293
1769238019530,-0.1771697998046875,-0.971466064453125,0.2071685791015625,-0.0115807559341192,-0.0053058159537613,-0.014820490963757
1769238019540,-0.1702117919921875,-0.972412109375,0.207366943359375,-0.0187228210270404,0.0264931265264749,-0.0086257122457027
1769238019550,-0.170318603515625,-0.9700469970703124,0.1977691650390625,-0.0273581203073263,0.0500887334346771,-0.0106465192511677
1769238019560,-0.1810455322265625,-0.9615020751953124,0.194488525390625,-0.0330833829939365,0.0116145778447389,-0.0129818450659513
1769238019570,-0.1834869384765625,-0.9578857421875,0.1989898681640625,-0.0315094552934169,-0.0385282188653945,-0.0109136337414383
1769238019580,-0.1774139404296875,-0.959075927734375,0.1965484619140625,-0.0303131639957427,-0.0330069512128829,-0.0141983767971396
1769238019590,-0.177398681640625,-0.948638916015625,0.18780517578125,-0.0253969691693782,-0.0012535499408841,-0.0098385158926248
1769238019600,-0.17413330078125,-0.9495391845703124,0.182830810546875,-0.0279709137976169,0.0252070855349302,-0.0026128273457288
1769238019610,-0.170074462890625,-0.9597015380859376,0.19720458984375,-0.0254840552806854,0.0453464426100254,0.0054176687262952
1769238019620,-0.163970947265625,-0.9765625,0.1998291015625,-0.0170879065990448,0.0590864904224872,-3.408846168895252e-05
1769238019630,-0.168121337890625,-0.9759979248046876,0.1954345703125,-0.0099160140380263,0.0327006876468658,-0.0160948131233453
1769238019640,-0.1862640380859375,-0.9675445556640624,0.198333740234375,0.0095863146707415,-0.0338043011724948,-0.0251293219625949
1769238019650,-0.1840057373046875,-0.9675750732421876,0.191131591796875,0.0195878166705369,-0.0611214116215705,-0.0235175769776105
1769238019660,-0.1766815185546875,-0.957122802734375,0.195526123046875,0.0228051804006099,-0.0433828942477703,-0.0141784036532044
1769238019670,-0.172698974609375,-0.9543609619140624,0.1891326904296875,0.0258113574236631,0.0179198775440454,-0.0119314938783645
1769238019680,-0.176727294921875,-0.9587554931640624,0.1808929443359375,0.0092728603631258,0.0123722469434142,-0.0141347274184226
1769238019690,-0.184600830078125,-0.9573516845703124,0.202972412109375,-0.0064831990748643,-0.0485960319638252,-0.0041452101431787
1769238019701,-0.167144775390625,-0.95916748046875,0.2174072265625,-0.0142151545733213,-0.0944114550948143,0.0083213131874799
1769238019710,-0.15740966796875,-0.9676361083984376,0.2106781005859375,-0.0213042236864566,-0.0665819570422172,0.0122492089867591
1769238019721,-0.1656646728515625,-0.963653564453125,0.19696044921875,-0.0275967400521039,-0.0089503517374396,0.0227572433650493
1769238019731,-0.162139892578125,-0.952728271484375,0.1835479736328125,-0.0383423306047916,0.0525686703622341,0.031072698533535
1769238019741,-0.1629791259765625,-0.9554595947265624,0.18328857421875,-0.0405591428279876,0.1092271581292152,0.0364421643316745
1769238019751,-0.175506591796875,-0.9609832763671876,0.1773223876953125,-0.0364637337625026,0.1214638501405716,0.0090611390769481
1769238019761,-0.2191009521484375,-0.969329833984375,0.17230224609375,-0.0361545421183109,0.0197614543139934,0.0001067927587428
1769238019771,-0.200286865234375,-0.9528656005859376,0.188629150390625,-0.0275016650557518,-0.0376512371003627,0.0177683439105749
1769238019781,-0.167449951171875,-0.9741363525390624,0.1896820068359375,-0.0333635509014129,0.0146375326439738,0.0105570368468761
1769238019791,-0.171173095703125,-0.9848175048828124,0.18695068359375,-0.0445541515946388,0.0667577236890792,0.0056602824479341
1769238019801,-0.1663818359375,-0.9766845703125,0.1833648681640625,-0.0501398667693138,0.0719884410500526,0.0005941512063145
1769238019811,-0.1678466796875,-0.970062255859375,0.1917572021484375,-0.0552715100347995,0.0704784244298935,-0.0009845705935731
1769238019821,-0.1746673583984375,-0.9673004150390624,0.2027587890625,-0.0504013895988464,0.0790245085954666,0.0078038610517978
1769238019831,-0.1746673583984375,-0.9635009765625,0.2017822265625,-0.047253530472517,0.0869375616312027,0.0161858946084976
1769238019841,-0.1810150146484375,-0.9585113525390624,0.2068939208984375,-0.0446423031389713,0.0454399175941944,0.0181273389607667
1769238019851,-0.1922149658203125,-0.9521331787109376,0.2080230712890625,-0.0180325303226709,-0.0484125390648841,0.0194895453751087
1769238019861,-0.1935577392578125,-0.95025634765625,0.18902587890625,-1.145159239968052e-05,-0.1273736655712127,0.0286138020455837
1769238019871,-0.1776580810546875,-0.96820068359375,0.193603515625,0.0025539714843034,-0.1147814467549324,0.031825840473175
1769238019881,-0.1636962890625,-0.9749603271484376,0.186004638671875,0.0084640588611364,-0.0382400639355182,0.0359441526234149
1769238019891,-0.160888671875,-0.9697265625,0.1708526611328125,0.0143254101276397,0.0124393589794635,0.0381361991167068
1769238019901,-0.1633148193359375,-0.9700775146484376,0.1705474853515625,0.0237234383821487,0.0456170178949832,0.0401125326752662
1769238019912,-0.1674041748046875,-0.9727325439453124,0.1755828857421875,0.0271357465535402,0.0653521120548248,0.0438627935945987
1769238019921,-0.1727142333984375,-0.966339111328125,0.186065673828125,0.0368799865245819,0.0632628574967384,0.0515843629837036
1769238019932,-0.1778411865234375,-0.952850341796875,0.1809234619140625,0.049209889024496,0.0521169975399971,0.0554850958287715
1769238019942,-0.188568115234375,-0.94598388671875,0.1766204833984375,0.0616521798074245,0.0372536294162273,0.0613427199423313
1769238019952,-0.190765380859375,-0.9429473876953124,0.178314208984375,0.0746041983366012,0.0269440002739429,0.0702027902007103
1769238019962,-0.18994140625,-0.9468231201171876,0.1758880615234375,0.0875290483236312,0.0054485611617565,0.0742649063467979
1769238019972,-0.1855621337890625,-0.9542388916015624,0.1790618896484375,0.1003433838486671,0.0089298449456691,0.0758018195629119
1769238019982,-0.1793060302734375,-0.9632568359375,0.177825927734375,0.1032132059335708,0.0364932976663112,0.0725485011935234
1769238019992,-0.1842041015625,-0.9624481201171876,0.18121337890625,0.105321891605854,0.0318402200937271,0.0638884380459785
1769238020002,-0.19146728515625,-0.9605560302734376,0.186676025390625,0.1115840524435043,0.0110531840473413,0.0603533536195755
1769238020012,-0.1887359619140625,-0.96466064453125,0.1890716552734375,0.1134535893797874,0.0104827350005507,0.0578632988035678
1769238020022,-0.1886138916015625,-0.9685516357421876,0.1932373046875,0.1110500916838646,0.0433791652321815,0.0573517046868801
1769238020032,-0.1900482177734375,-0.9644012451171876,0.190765380859375,0.1108799129724502,0.0778527185320854,0.0516807697713375
1769238020042,-0.20025634765625,-0.9608917236328124,0.188385009765625,0.1042755395174026,0.0383037142455577,0.038995336741209
1769238020052,-0.2126007080078125,-0.9508209228515624,0.204254150390625,0.106300875544548,-0.0389966666698455,0.0491718053817749
1769238020062,-0.194915771484375,-0.9643402099609376,0.2110595703125,0.1016989275813102,-0.0264017805457115,0.0523702651262283
1769238020072,-0.1866912841796875,-0.9789276123046876,0.21246337890625,0.0855945274233818,0.0282476171851158,0.0526437684893608
1769238020082,-0.1815032958984375,-0.9730682373046876,0.2044219970703125,0.0759456306695938,0.0664980635046958,0.0503209605813026
1769238020092,-0.1816558837890625,-0.9691314697265624,0.202850341796875,0.058428157120943,0.0834573432803154,0.0360378958284854
1769238020102,-0.197509765625,-0.9630126953125,0.2141571044921875,0.03898361697793,0.0331076197326183,0.0297504384070634
1769238020112,-0.20751953125,-0.954315185546875,0.2262420654296875,0.0484394393861293,-0.0242717843502759,0.0270811524242162
1769238020122,-0.2057952880859375,-0.958465576171875,0.2139892578125,0.0435259044170379,-0.0275866203010082,0.028699554502964
1769238020132,-0.1961212158203125,-0.9589691162109376,0.214508056640625,0.0381090342998504,0.0132990274578332,0.0285829082131385
1769238020142,-0.1890411376953125,-0.9564208984375,0.207305908203125,0.0326495543122291,0.0529572255909442,0.0220320653170347
1769238020153,-0.1909332275390625,-0.959381103515625,0.2020263671875,0.0265290793031454,0.0554669871926307,0.0066512445919215
1769238020163,-0.1987457275390625,-0.953521728515625,0.2099151611328125,0.0266265515238046,0.0194248296320438,0.0008588694618083
1769238020173,-0.194305419921875,-0.95513916015625,0.2157440185546875,0.0306777507066726,0.0195492003113031,-0.0029076393693685
1769238020183,-0.193115234375,-0.9620819091796876,0.21075439453125,0.0314910821616649,0.0463709607720375,-0.0101391868665814
1769238020193,-0.19744873046875,-0.9545745849609376,0.2057342529296875,0.0228374060243368,0.0364280492067337,-0.0154045224189758
1769238020203,-0.1959686279296875,-0.9454498291015624,0.2182769775390625,0.0220397878438234,-0.0113447997719049,-0.0090603400021791
1769238020213,-0.1893768310546875,-0.9518280029296876,0.221527099609375,0.0175142791122198,-0.0138412471860647,-0.0072738919407129
1769238020223,-0.1862945556640625,-0.9584808349609376,0.217742919921875,0.0114582506939768,0.023207850754261,-0.0058400458656251
1769238020233,-0.188079833984375,-0.95428466796875,0.20916748046875,0.007481085602194,0.022300511598587,-0.0065234131179749
1769238020243,-0.1929473876953125,-0.9504852294921876,0.2092437744140625,0.003198190126568,-0.0045630601234734,-0.0079423449933528
1769238020253,-0.1971588134765625,-0.957855224609375,0.2159423828125,0.0003275688213761,-0.0015379755059257,-0.0073045180179178
1769238020263,-0.191619873046875,-0.959930419921875,0.2132568359375,0.0003856257244478,0.0245426278561353,-0.0074238278903067
1769238020273,-0.192718505859375,-0.9608001708984376,0.205810546875,-0.0014546185266226,0.0172916390001773,-0.0129272500053048
1769238020283,-0.2039031982421875,-0.9541015625,0.2073974609375,-0.0025470473337918,-0.0017552895005792,-0.0058301920071244
1769238020293,-0.1934661865234375,-0.9577484130859376,0.2138824462890625,-0.0020229371730238,-0.0036266928073018,0.0017219999572262
1769238020303,-0.191650390625,-0.9632415771484376,0.213165283203125,-0.0003416835679672,0.0149981239810585,0.0046874298714101
1769238020313,-0.193084716796875,-0.9605255126953124,0.2139434814453125,-0.001905491692014,0.0157462060451507,0.0123813021928071
1769238020323,-0.1920166015625,-0.954315185546875,0.2180023193359375,0.0019872507546097,-0.0166676603257656,0.0151568483561277
1769238020333,-0.1985321044921875,-0.9541473388671876,0.2212066650390625,-0.0011643340112641,-0.0424539819359779,0.0185795426368713
1769238020344,-0.1932220458984375,-0.9583740234375,0.224945068359375,-0.003369963960722,-0.0232986640185117,0.0215803924947977
1769238020354,-0.18865966796875,-0.9644775390625,0.2160491943359375,-0.0096084186807274,0.0058717373758554,0.0202938206493854
1769238020364,-0.1913909912109375,-0.9558868408203124,0.211883544921875,-0.0150231579318642,0.0219915844500064,0.0183904580771923
1769238020374,-0.1943817138671875,-0.94793701171875,0.21051025390625,-0.0208195280283689,0.0141576305031776,0.0170804504305124
1769238020384,-0.1996002197265625,-0.9462127685546876,0.214263916015625,-0.0268992576748132,0.0030368026345968,0.018551580607891
1769238020394,-0.200836181640625,-0.9507598876953124,0.213836669921875,-0.0283317733556032,0.0009688580175861,0.0210008900612592
1769238020404,-0.2000274658203125,-0.95306396484375,0.208038330078125,-0.0304487198591232,-0.0162500757724046,0.0176381152123212
1769238020414,-0.20623779296875,-0.955596923828125,0.206695556640625,-0.0342714190483093,-0.0268577132374048,0.019859991967678
1769238020424,-0.1974334716796875,-0.9611663818359376,0.2076263427734375,-0.0350464023649692,-0.0189760886132717,0.0186032447963953
1769238020435,-0.198150634765625,-0.963348388671875,0.201446533203125,-0.036290630698204,-0.0178311951458454,0.0103623596951365
1769238020444,-0.2003936767578125,-0.9627532958984376,0.20050048828125,-0.0346748903393745,-0.0461712218821048,0.0083985449746251
1769238020454,-0.197296142578125,-0.9604949951171876,0.202667236328125,-0.0316580608487129,-0.0516802370548248,0.0021973741240799
1769238020464,-0.199493408203125,-0.9555206298828124,0.2016448974609375,-0.0312079861760139,-0.0456053018569946,-0.006884004920721
1769238020474,-0.2012176513671875,-0.9458770751953124,0.193878173828125,-0.0310450010001659,-0.0209130048751831,-0.0096246637403965
1769238020484,-0.2008819580078125,-0.9366455078125,0.1901702880859375,-0.0189790166914463,-0.0055348477326333,-0.0153459329158067
1769238020494,-0.2083892822265625,-0.9405975341796876,0.1875,-0.0076368805021047,0.0063987770117819,-0.0181603617966175
1769238020504,-0.219757080078125,-0.9620208740234376,0.1952667236328125,0.0026722159236669,-0.025324797257781,-0.0281898267567157
1769238020514,-0.21173095703125,-0.9726409912109376,0.207244873046875,0.0161576643586158,-0.0614207498729229,-0.035446673631668
1769238020524,-0.2015533447265625,-0.9718780517578124,0.209228515625,0.0221907887607812,-0.0929674878716468,-0.0451357848942279
1769238020535,-0.1981353759765625,-0.9711151123046876,0.2083740234375,0.0364232547581195,-0.154647096991539,-0.0617086365818977
1769238020545,-0.2069244384765625,-0.973052978515625,0.2002410888671875,0.0447951667010784,-0.2152883410453796,-0.0822578519582748
1769238020555,-0.210052490234375,-0.9680328369140624,0.2086029052734375,0.0441394969820976,-0.2132643461227417,-0.0779419392347335
1769238020564,-0.195892333984375,-0.957916259765625,0.2138519287109375,0.0408864468336105,-0.1930602639913559,-0.0657491832971572
1769238020575,-0.1830596923828125,-0.9567108154296876,0.2176361083984375,0.0341830030083656,-0.1581036150455474,-0.0553511381149292
1769238020585,-0.171600341796875,-0.95489501953125,0.21875,0.0200751740485429,-0.0965433195233345,-0.0436657220125198
1769238020595,-0.1625518798828125,-0.951141357421875,0.21826171875,0.0024921861477196,-0.0206972882151603,-0.0330913737416267
1769238020605,-0.15911865234375,-0.951995849609375,0.214141845703125,-0.0082326298579573,0.0185228176414966,-0.036629382520914
1769238020615,-0.179779052734375,-0.9541168212890624,0.2123565673828125,-0.0126556074246764,0.0209534857422113,-0.0366152673959732
1769238020625,-0.19140625,-0.948272705078125,0.21514892578125,-0.0158988051116466,0.005576126743108,-0.0319155901670455
1769238020635,-0.196014404296875,-0.9448699951171876,0.215606689453125,-0.0185606349259614,-0.0286268517374992,-0.027418041601777
1769238020645,-0.1954803466796875,-0.9508819580078124,0.2166900634765625,-0.0200682505965232,-0.0467312857508659,-0.0272257626056671
1769238020655,-0.195404052734375,-0.963531494140625,0.211669921875,-0.0282332357019186,-0.0764977037906646,-0.037499438971281
1769238020665,-0.20050048828125,-0.9669342041015624,0.217437744140625,-0.0288401693105697,-0.1142157912254333,-0.0480508841574192
1769238020675,-0.197235107421875,-0.9730072021484376,0.217529296875,-0.02883324585855,-0.1386343091726303,-0.0585370808839798
1769238020685,-0.188995361328125,-0.9688262939453124,0.2207794189453125,-0.0362392291426658,-0.1765292286872863,-0.0645835176110267
1769238020695,-0.1827545166015625,-0.963836669921875,0.2295379638671875,-0.0353422760963439,-0.1973543465137481,-0.0733232125639915
1769238020705,-0.1855926513671875,-0.9591064453125,0.2248992919921875,-0.0459533780813217,-0.1611185818910598,-0.0778905376791954
1769238020715,-0.177520751953125,-0.962615966796875,0.2262725830078125,-0.0527433715760707,-0.1544697284698486,-0.0782609805464744
1769238020725,-0.173980712890625,-0.957733154296875,0.2213897705078125,-0.063071109354496,-0.1837439984083175,-0.0833308398723602
1769238020735,-0.175994873046875,-0.95782470703125,0.227874755859375,-0.0693172886967659,-0.2161160558462143,-0.0878651440143585
1769238020745,-0.1795196533203125,-0.960784912109375,0.2295074462890625,-0.082489013671875,-0.2586555182933807,-0.0872712582349777
1769238020755,-0.175262451171875,-0.9600982666015624,0.2404327392578125,-0.0891080349683761,-0.2698993980884552,-0.0770503133535385
1769238020765,-0.1642608642578125,-0.9596710205078124,0.2326812744140625,-0.0949084013700485,-0.2454781979322433,-0.0657659620046615
1769238020776,-0.16168212890625,-0.9606475830078124,0.22137451171875,-0.1032206639647483,-0.1911481171846389,-0.0593722462654113
1769238020786,-0.158599853515625,-0.9647674560546876,0.217071533203125,-0.1146999523043632,-0.1735382378101349,-0.0524501577019691
1769238020796,-0.1535797119140625,-0.9627685546875,0.213409423828125,-0.1199754029512405,-0.1795785427093505,-0.0525947697460651
1769238020806,-0.1583709716796875,-0.973846435546875,0.2149810791015625,-0.1274160146713256,-0.161815270781517,-0.0591272339224815
1769238020816,-0.1711578369140625,-0.9672393798828124,0.211944580078125,-0.1258223801851272,-0.1343234479427337,-0.0554840303957462
1769238020826,-0.16876220703125,-0.9481048583984376,0.20343017578125,-0.1166874691843986,-0.1075349822640419,-0.0430462695658206
1769238020836,-0.15936279296875,-0.9359283447265624,0.1920166015625,-0.1040105521678924,-0.0819950029253959,-0.0329622104763984
1769238020846,-0.1612701416015625,-0.9448699951171876,0.18939208984375,-0.1075176745653152,-0.0535140894353389,-0.0349473319947719
1769238020856,-0.167022705078125,-0.95831298828125,0.193603515625,-0.1090676337480545,-0.0164721831679344,-0.0313507318496704
1769238020866,-0.1647186279296875,-0.95745849609375,0.188690185546875,-0.1030483543872833,0.0173688698559999,-0.0227109044790267
1769238020876,-0.161529541015625,-0.9559783935546876,0.187408447265625,-0.0968482494354248,0.0557490177452564,-0.0063399211503565
1769238020886,-0.1567230224609375,-0.9508056640625,0.1845855712890625,-0.0922215357422828,0.0506418719887733,0.0094883106648921
1769238020896,-0.1542510986328125,-0.954864501953125,0.191741943359375,-0.0887764766812324,0.0489488989114761,0.0194474682211875
1769238020906,-0.151702880859375,-0.9677886962890624,0.1940155029296875,-0.084026463329792,0.0656599700450897,0.0238448791205883
1769238020916,-0.1618499755859375,-0.9677886962890624,0.19384765625,-0.0747493356466293,0.0787717774510383,0.0252542234957218
1769238020926,-0.16839599609375,-0.963104248046875,0.184661865234375,-0.0546446032822132,0.0778681635856628,0.0258829966187477
1769238020936,-0.1745758056640625,-0.9557342529296876,0.1750030517578125,-0.0378299355506897,0.030891602858901,0.0249618086963892
1769238020946,-0.181304931640625,-0.955474853515625,0.1781463623046875,-0.0196440089493989,-0.0058469702489674,0.031293474137783
1769238020956,-0.1677093505859375,-0.96527099609375,0.1788482666015625,-0.0077436733990907,-0.0016365124611184,0.0299049019813537
1769238020966,-0.169281005859375,-0.9731903076171876,0.178741455078125,-0.0101564973592758,0.0084025394171476,0.0234360843896865
1769238020976,-0.17364501953125,-0.974090576171875,0.1847076416015625,-0.0073537868447601,-0.0122452145442366,0.0200165845453739
1769238020987,-0.173065185546875,-0.9764862060546876,0.19110107421875,-0.0050429617986083,-0.0285674631595611,0.0134577518329024
1769238020997,-0.1779327392578125,-0.9731292724609376,0.19488525390625,-0.0067151607945561,-0.0328096114099025,0.0163235794752836
1769238021007,-0.173553466796875,-0.9683380126953124,0.199127197265625,-0.0052703958936035,-0.0222083665430545,0.0174804572016
1769238021017,-0.1732177734375,-0.9650421142578124,0.1973419189453125,-0.0037372140213847,-0.0097897797822952,0.0174548905342817
1769238021027,-0.17193603515625,-0.963409423828125,0.1974945068359375,-0.0035846147220581,-0.0147368684411048,0.0172066837549209
1769238021037,-0.16802978515625,-0.95947265625,0.201690673828125,0.0009523464250378,-0.033998180180788,0.0165329035371541
1769238021047,-0.166748046875,-0.9616241455078124,0.202667236328125,0.0110241556540131,-0.0501031130552291,0.0079434104263782
1769238021057,-0.1734619140625,-0.966339111328125,0.2001190185546875,0.0184767451137304,-0.0443626716732978,-0.0031614385079592
1769238021067,-0.17822265625,-0.9666290283203124,0.1917877197265625,0.0249495580792427,-0.0461126342415809,-0.0128193916752934
1769238021077,-0.174774169921875,-0.967681884765625,0.19256591796875,0.0305195599794387,-0.0192426703870296,-0.0145318042486906
1769238021087,-0.168670654296875,-0.9639892578125,0.1885528564453125,0.0338186845183372,0.0249548852443695,-0.0177728720009326
1769238021097,-0.1646270751953125,-0.961090087890625,0.184478759765625,0.0334029644727706,0.0420896634459495,-0.0248933658003807
1769238021107,-0.1627349853515625,-0.9580841064453124,0.18896484375,0.0329795219004154,0.042991142719984,-0.0214304570108652
1769238021117,-0.1600341796875,-0.9552154541015624,0.194610595703125,0.0344170965254306,0.0299038365483284,-0.023260848596692
1769238021127,-0.1682586669921875,-0.9567413330078124,0.1999053955078125,0.0338961817324161,0.012771189212799,-0.0175704713910818
1769238021137,-0.15936279296875,-0.95953369140625,0.204925537109375,0.0333267971873283,-0.0086992159485816,-0.0112316152080893
1769238021148,-0.1594390869140625,-0.9599151611328124,0.2072601318359375,0.033186450600624,-0.0012237224727869,-0.0041590584442019
1769238021157,-0.165771484375,-0.9608917236328124,0.201141357421875,0.0378038361668586,0.0294071566313505,0.0029632993973791
1769238021167,-0.167816162109375,-0.9600677490234376,0.1939849853515625,0.0363492183387279,0.0279341619461774,0.0071508539840579
1769238021177,-0.1704864501953125,-0.9576263427734376,0.192047119140625,0.0390850827097892,0.0154111804440617,0.0141128897666931
1769238021188,-0.1660919189453125,-0.9649810791015624,0.19268798828125,0.042320292443037,0.0217556282877922,0.0134580181911587
1769238021198,-0.169403076171875,-0.968414306640625,0.1922607421875,0.0463885366916656,0.038519162684679,0.0067633637227118
1769238021208,-0.1762542724609375,-0.9664154052734376,0.19049072265625,0.0518986172974109,0.0212339162826538,0.0116270948201417
1769238021218,-0.1654052734375,-0.9624481201171876,0.1977691650390625,0.0580707602202892,0.0107887322083115,0.0165464859455823
1769238021228,-0.165557861328125,-0.967376708984375,0.19805908203125,0.0616601668298244,0.0359564013779163,0.0229487251490354
1769238021238,-0.1610870361328125,-0.9676513671875,0.1983642578125,0.0639962926506996,0.0769163519144058,0.0273306909948587
1769238021248,-0.165985107421875,-0.9644317626953124,0.191375732421875,0.066786490380764,0.0687668099999427,0.0165472850203514
1769238021258,-0.1858062744140625,-0.951690673828125,0.1973876953125,0.0681937038898468,-0.0205124653875827,0.029659891501069
1769238021268,-0.171173095703125,-0.9524993896484376,0.214385986328125,0.070103719830513,-0.0358059331774711,0.038777757436037
1769238021278,-0.162567138671875,-0.96734619140625,0.21484375,0.0613616295158863,0.0141752073541283,0.041537057608366
1769238021288,-0.1618804931640625,-0.968170166015625,0.21282958984375,0.0568763315677642,0.0264467876404523,0.0458487160503864
1769238021298,-0.1626129150390625,-0.96600341796875,0.2068939208984375,0.0587890148162841,0.0109581090509891,0.0445000901818275
1769238021308,-0.16650390625,-0.97216796875,0.2116241455078125,0.0576278753578662,0.014944327995181,0.0368083491921424
1769238021318,-0.1714324951171875,-0.9751739501953124,0.21588134765625,0.0568646155297756,0.0397255755960941,0.0315741710364818
1769238021328,-0.1788177490234375,-0.9532318115234376,0.2103424072265625,0.0503979250788688,-0.0180474445223808,0.0163928214460611
1769238021338,-0.2003631591796875,-0.9309539794921876,0.2117462158203125,0.0535838641226291,-0.1887946873903274,0.0108055099844932
1769238021348,-0.1884002685546875,-0.9277191162109376,0.2259979248046875,0.0531356558203697,-0.2712999582290649,0.0161097273230552
1769238021358,-0.18212890625,-0.946136474609375,0.22943115234375,0.056711483746767,-0.2516482174396515,0.0183651596307754
1769238021368,-0.186492919921875,-0.9694976806640624,0.22320556640625,0.0508035272359848,-0.1638563126325607,0.0197145827114582
1769238021378,-0.1797027587890625,-0.97259521484375,0.2211456298828125,0.0272060539573431,-0.1178131848573684,0.0111479926854372
1769238021388,-0.1691741943359375,-0.9652557373046876,0.2285614013671875,0.0253098830580711,-0.091070257127285,0.0023973775096237
1769238021398,-0.1627655029296875,-0.976776123046875,0.2156982421875,0.0165728516876697,-0.0348333492875099,-0.0075804218649864
1769238021409,-0.1651458740234375,-0.9694366455078124,0.2132720947265625,0.0073745595291256,0.0223606992512941,-0.0085082668811082
1769238021419,-0.1694183349609375,-0.95941162109375,0.2106475830078125,0.0106683569028973,0.0647374540567398,-0.018656775355339
1769238021429,-0.1925048828125,-0.9531402587890624,0.2062225341796875,0.0033073797821998,0.0302977189421653,-0.0349145755171775
1769238021439,-0.2043609619140625,-0.9454803466796876,0.2210540771484375,0.0031427964568138,-0.0455373898148536,-0.0194679740816354
1769238021449,-0.1683197021484375,-0.9524993896484376,0.22454833984375,-0.0094345146790146,-0.0493153519928455,-0.0133064845576882
1769238021459,-0.1589813232421875,-0.968994140625,0.2227783203125,-0.0278494749218225,0.0184679571539163,-0.0140335271134972
1769238021469,-0.1582489013671875,-0.967529296875,0.212127685546875,-0.0462926626205444,0.0546786896884441,-0.0124633274972438
1769238021479,-0.15771484375,-0.96331787109375,0.2137451171875,-0.0605248622596263,0.0576081685721874,-0.0158343575894832
1769238021489,-0.1676177978515625,-0.9629058837890624,0.2176971435546875,-0.0677404329180717,0.0439389608800411,-0.0187720898538827
1769238021499,-0.17333984375,-0.961273193359375,0.2220916748046875,-0.072618544101715,0.0475680530071258,-0.0136838546022772
1769238021509,-0.170501708984375,-0.9618682861328124,0.215728759765625,-0.073514699935913,0.0763208717107772,-0.009891246445477
1769238021519,-0.1716461181640625,-0.96112060546875,0.2051239013671875,-0.0855119749903678,0.074995681643486,-0.009237440302968
1769238021529,-0.17559814453125,-0.956024169921875,0.21142578125,-0.0872265174984932,0.0267530512064695,-0.0047955540940165
1769238021539,-0.174591064453125,-0.96063232421875,0.2115478515625,-0.0812391936779022,-0.0129339080303907,-0.0051907673478126
1769238021549,-0.1722564697265625,-0.9725341796875,0.20684814453125,-0.0755405649542808,-0.0032360069453716,-0.007849933579564
1769238021560,-0.16864013671875,-0.971038818359375,0.2017974853515625,-0.0703676417469978,0.028430575504899,-0.013570936396718
1769238021569,-0.1751251220703125,-0.9671173095703124,0.196502685546875,-0.0703367441892623,0.0197859555482864,-0.014469220302999
1769238021579,-0.1750946044921875,-0.9569854736328124,0.205780029296875,-0.0631270408630371,-0.0109117701649665,-0.0093152048066258
1769238021589,-0.168182373046875,-0.96282958984375,0.2107086181640625,-0.0551085248589515,-0.0258864574134349,-0.0077263629063963
1769238021599,-0.1728057861328125,-0.96575927734375,0.210235595703125,-0.0458391271531581,-0.0264696907252073,-0.0071007865481078
1769238021610,-0.17724609375,-0.95977783203125,0.2049407958984375,-0.0369159393012523,-0.0791060030460357,-0.0104201501235365
1769238021620,-0.1736907958984375,-0.95806884765625,0.2099761962890625,-0.0214190054684877,-0.131052553653717,-0.0103748766705393
1769238021630,-0.1654815673828125,-0.9630584716796876,0.2120208740234375,-0.0134319188073277,-0.1287965923547744,-0.0116276275366544
1769238021640,-0.170196533203125,-0.9587860107421876,0.2047576904296875,-0.0054669370874762,-0.1604618430137634,-0.0139738721773028
1769238021650,-0.1754608154296875,-0.9529266357421876,0.207855224609375,-0.0019808590877801,-0.2319397628307342,-0.0113858124241232
1769238021660,-0.16583251953125,-0.9659423828125,0.215667724609375,-0.0040512005798518,-0.2474848926067352,-0.0154383443295955
1769238021670,-0.1667938232421875,-0.97625732421875,0.2098236083984375,-0.0159632544964551,-0.2328247278928756,-0.0216674786061048
1769238021680,-0.1690826416015625,-0.973052978515625,0.2108154296875,-0.0279906224459409,-0.1924003362655639,-0.0121506722643971
1769238021690,-0.1585845947265625,-0.96185302734375,0.2104949951171875,-0.0392528623342514,-0.1152693331241607,-0.001415736391209
1769238021700,-0.158935546875,-0.9529876708984376,0.201385498046875,-0.0453091599047184,-0.0789544731378555,0.0042858249507844
1769238021710,-0.1507415771484375,-0.9539031982421876,0.198272705078125,-0.0493347942829132,-0.0625589862465858,0.0009041432058438
1769238021720,-0.1591949462890625,-0.9623565673828124,0.19915771484375,-0.046033538877964,-0.0393053293228149,-0.0136210033670067
1769238021730,-0.1793670654296875,-0.962066650390625,0.1963348388671875,-0.0375250056385993,-0.0628492683172226,-0.0142007740214467
1769238021740,-0.17401123046875,-0.9568634033203124,0.1977081298828125,-0.0266220234334468,-0.079605609178543,-0.0082275699824094
1769238021750,-0.1695098876953125,-0.9564056396484376,0.1946563720703125,-0.0186626333743333,-0.0798522233963012,-0.0109788812696933
1769238021760,-0.17388916015625,-0.96295166015625,0.191314697265625,-0.0179310627281665,-0.0767344608902931,-0.0166431590914726
1769238021770,-0.1706085205078125,-0.96142578125,0.1903839111328125,-0.0153089147061109,-0.0489539615809917,-0.015270565636456
1769238021780,-0.1634979248046875,-0.966522216796875,0.1867828369140625,-0.0142186172306537,-0.0028698223177343,-0.0202181860804557
1769238021790,-0.15728759765625,-0.9727783203125,0.1910400390625,-0.0171627420932054,0.0774724185466766,-0.02251329831779
1769238021800,-0.1560821533203125,-0.9667816162109376,0.1855316162109375,-0.0202988795936107,0.2037680447101593,-0.0127248503267765
1769238021811,-0.150665283203125,-0.965911865234375,0.1788330078125,-0.0279011391103267,0.3416334986686706,3.51537273672875e-05
1769238021821,-0.1385345458984375,-0.964630126953125,0.1825103759765625,-0.0394520685076713,0.4608176648616791,0.0154284909367561
1769238021831,-0.1353912353515625,-0.9611968994140624,0.18109130859375,-0.0449597500264644,0.5151986479759216,0.0254816580563783
1769238021841,-0.139495849609375,-0.959564208984375,0.1939849853515625,-0.0467286221683025,0.4451556205749511,0.014428474009037
1769238021851,-0.1714324951171875,-0.969940185546875,0.2083587646484375,-0.0321672558784484,0.3325704932212829,-0.0005888249143026
1769238021861,-0.1895294189453125,-0.9618072509765624,0.2115631103515625,-0.0050637344829738,0.2085667848587036,0.010122675448656
1769238021871,-0.179656982421875,-0.95098876953125,0.2098541259765625,0.0170261207967996,0.1252447366714477,0.02418096922338
1769238021881,-0.176361083984375,-0.957244873046875,0.207550048828125,0.023403326049447,0.087729588150978,0.0262505132704973
1769238021891,-0.1806793212890625,-0.97528076171875,0.2064208984375,0.0230432674288749,0.0858312845230102,0.0169416982680559
1769238021901,-0.1848907470703125,-0.9742279052734376,0.195770263671875,0.0202978141605854,0.070819579064846,0.0101487739011645
1769238021911,-0.186370849609375,-0.968170166015625,0.197845458984375,0.0208743885159492,0.0642439648509025,0.0037585191894322
1769238021921,-0.1836700439453125,-0.9613494873046876,0.19781494140625,0.0190602429211139,0.0678014159202575,0.0088432924821972
1769238021931,-0.17822265625,-0.955230712890625,0.2038116455078125,0.0212927721440792,0.0575485154986381,0.0154386106878519
1769238021941,-0.1695098876953125,-0.95574951171875,0.2038726806640625,0.0237047970294952,0.0584571845829486,0.0154383443295955
1769238021951,-0.16876220703125,-0.961456298828125,0.2016143798828125,0.0215870514512062,0.0450742691755294,0.0107743507251143
1769238021961,-0.16851806640625,-0.9654388427734376,0.2102508544921875,0.0180258713662624,0.0156695079058408,0.0065878615714609
1769238021971,-0.170074462890625,-0.9645233154296876,0.2109222412109375,0.0141376564279198,0.0121133876964449,0.0014399711508303
1769238021981,-0.174468994140625,-0.9616241455078124,0.2089080810546875,0.0112750250846147,0.0020370518323034,0.0025486452504992
1769238021991,-0.17120361328125,-0.9583892822265624,0.2085723876953125,0.0077687073498964,0.0111711621284484,0.0073428675532341
1769238022001,-0.16571044921875,-0.9581451416015624,0.2044677734375,0.0015664712991565,0.0224230177700519,0.0069524482823908
1769238022011,-0.1681671142578125,-0.96148681640625,0.20556640625,-0.0040227049030363,0.0290457662194967,0.0065364623442292
1769238022022,-0.170989990234375,-0.9651947021484376,0.2055206298828125,-0.0066214175894856,0.0563085451722145,0.0099216066300868
1769238022031,-0.172210693359375,-0.96051025390625,0.2000885009765625,-0.0112353442236781,0.0736798122525215,0.0105197522789239
1769238022042,-0.176055908203125,-0.9571380615234376,0.2015533447265625,-0.0097066890448331,0.0692571029067039,0.0129064777866005
1769238022052,-0.174896240234375,-0.9591064453125,0.2012939453125,-0.0093069486320018,0.0572169497609138,0.0200096610933542
1769238022062,-0.1723480224609375,-0.96221923828125,0.2017669677734375,-0.0048203216865658,0.0569892488420009,0.0229724273085594
1769238022072,-0.1771392822265625,-0.965240478515625,0.1985321044921875,-0.0065010422840714,0.0394153147935867,0.0274031292647123
1769238022082,-0.1715850830078125,-0.96282958984375,0.1973114013671875,-0.0033726270776242,0.0270808860659599,0.031927041709423
1769238022092,-0.163726806640625,-0.9632720947265624,0.1924285888671875,-0.0049169943667948,0.0308159701526165,0.0331449024379253
1769238022102,-0.165771484375,-0.965362548828125,0.195159912109375,-0.0069023808464407,0.0480847060680389,0.0327254571020603
1769238022112,-0.1718292236328125,-0.960357666015625,0.1922607421875,-0.0052762548439204,0.0389170385897159,0.0339806042611599
1769238022122,-0.1764373779296875,-0.9592742919921876,0.19293212890625,-0.0065063689835369,0.0618420615792274,0.0428673066198825
1769238022132,-0.1700592041015625,-0.9593505859375,0.19573974609375,-0.0107567738741636,0.0828623920679092,0.0479925610125064
1769238022142,-0.1746063232421875,-0.9570159912109376,0.19635009765625,-0.0054413708858191,0.0930622965097427,0.0524464286863803
1769238022152,-0.1787567138671875,-0.9581451416015624,0.1933135986328125,0.0019283948931843,0.1109078750014305,0.0601608082652092
1769238022162,-0.1696014404296875,-0.959014892578125,0.189971923828125,0.0066504459828138,0.1301223188638687,0.0669481381773948
1769238022172,-0.171722412109375,-0.9673004150390624,0.19134521484375,0.0098635498434305,0.1277499794960022,0.0658360049128532
1769238022182,-0.17718505859375,-0.967987060546875,0.194366455078125,0.0121858259662985,0.0585815533995628,0.0660402700304985
1769238022192,-0.1818084716796875,-0.9612884521484376,0.2014312744140625,0.027122963219881,-0.0072501897811889,0.068884789943695
1769238022202,-0.17779541015625,-0.963897705078125,0.1969757080078125,0.0404997542500495,-0.0129645345732569,0.0660309493541717
1769238022212,-0.1783447265625,-0.964141845703125,0.186737060546875,0.0409274585545063,0.0216344557702541,0.063719592988491
1769238022222,-0.1803436279296875,-0.9507293701171876,0.1812744140625,0.0441269800066947,0.0634170547127723,0.0533194132149219
1769238022232,-0.1970062255859375,-0.9404296875,0.1725311279296875,0.0484634079039096,0.0226235538721084,0.0320040062069892
1769238022242,-0.2165069580078125,-0.9404449462890624,0.191192626953125,0.0551540665328502,-0.0811925902962684,0.0488487668335437
1769238022253,-0.1917266845703125,-0.9522705078125,0.2191009521484375,0.0716965571045875,-0.0988501459360122,0.0574531741440296
1769238022263,-0.182647705078125,-0.9791107177734376,0.2126007080078125,0.0782047882676124,-0.0554486103355884,0.0464191623032093
1769238022273,-0.1729583740234375,-0.98382568359375,0.202545166015625,0.0809995085000991,-0.0281229801476001,0.0350136421620845
1769238022283,-0.1688079833984375,-0.9786224365234376,0.1985015869140625,0.0843119546771049,-0.0216570924967527,0.0179004371166229
1769238022293,-0.1836700439453125,-0.967041015625,0.199676513671875,0.0870667248964309,-0.0010804444318637,0.0153270242735743
1769238022303,-0.1893768310546875,-0.957244873046875,0.2012176513671875,0.0880347862839698,0.0243255794048309,0.0161211788654327
1769238022313,-0.1971893310546875,-0.94586181640625,0.204803466796875,0.0931366011500358,0.0279181841760873,0.0183630287647247
1769238022323,-0.2021484375,-0.9405670166015624,0.208984375,0.0910010114312172,0.0240126587450504,0.0273924749344587
1769238022333,-0.1899871826171875,-0.9499664306640624,0.2169342041015625,0.0844440460205078,0.0305171627551317,0.0260630249977111
1769238022343,-0.1896514892578125,-0.95654296875,0.2156829833984375,0.0721407756209373,0.0015880429418757,0.0260973814874887
1769238022353,-0.1823883056640625,-0.9566650390625,0.22052001953125,0.0554060004651546,-0.0271557215601205,0.0235681757330894
1769238022363,-0.1835784912109375,-0.9683380126953124,0.224151611328125,0.0355742387473583,-0.0341409258544445,0.0118406806141138
1769238022373,-0.196746826171875,-0.9676666259765624,0.2217864990234375,0.0196962058544158,-0.0460788123309612,0.0100851245224475
1769238022383,-0.1945648193359375,-0.96063232421875,0.222900390625,0.0031430625822395,-0.0401365011930465,0.0192458666861057
1769238022393,-0.194427490234375,-0.9570465087890624,0.2204742431640625,-0.0072259549051523,-0.0184727497398853,0.0205233842134475
1769238022403,-0.191131591796875,-0.960723876953125,0.2144927978515625,-0.0170069467276334,0.0387207642197608,0.0244507472962141
1769238022414,-0.182281494140625,-0.9590606689453124,0.20648193359375,-0.0238925497978925,0.0809094980359077,0.0234552584588527
1769238022423,-0.18450927734375,-0.962432861328125,0.20452880859375,-0.0280681196600198,0.1090764179825782,0.009239837527275
1769238022433,-0.19970703125,-0.9621429443359376,0.204132080078125,-0.0298431161791086,0.0987524092197418,0.0068861357867717
1769238022443,-0.198272705078125,-0.951690673828125,0.2098541259765625,-0.0295637510716915,0.0496439859271049,0.0127794444561004
1769238022454,-0.190155029296875,-0.9556884765625,0.2141876220703125,-0.0197183117270469,0.0482865720987319,0.0057380469515919
1769238022464,-0.19390869140625,-0.9698486328125,0.205780029296875,-0.0224693566560745,0.0543836131691932,-0.0044453484006226
1769238022474,-0.1946563720703125,-0.966064453125,0.2098388671875,-0.0255197416990995,0.0262635610997676,-0.0080323601141572
1769238022484,-0.1956939697265625,-0.9567413330078124,0.2204132080078125,-0.0203926227986812,-0.0139203425496816,-0.0122172515839338
1769238022494,-0.1971893310546875,-0.9573211669921876,0.222412109375,-0.0117293605580925,-0.0222493782639503,-0.0081250378862023
1769238022504,-0.1884918212890625,-0.96160888671875,0.220062255859375,-0.0095181372016668,0.0025419872254133,-0.0064818677492439
1769238022514,-0.1855621337890625,-0.95703125,0.214324951171875,-0.0081902854144573,0.0309424698352813,-0.0068501830101013
1769238022524,-0.1912994384765625,-0.9516448974609376,0.2079925537109375,-0.0029981867410242,0.0315051972866058,-0.0141818653792142
1769238022534,-0.19927978515625,-0.949920654296875,0.208526611328125,-0.0075005269609391,-0.0092150699347257,-0.0042743734084069
1769238022544,-0.1879730224609375,-0.952880859375,0.2273101806640625,-0.0074592479504644,-0.0475542023777961,0.000132359098643
1769238022554,-0.18426513671875,-0.9626922607421876,0.2238616943359375,-0.0109466575086116,-0.0221186187118291,-0.0031052457634359
1769238022564,-0.1816253662109375,-0.9698028564453124,0.2090301513671875,-0.0146628320217132,-0.001023452845402,-0.0128960907459259
1769238022574,-0.19122314453125,-0.9582061767578124,0.2003173828125,-0.0184482485055923,-0.0045137917622923,-0.0123189846053719
1769238022584,-0.193572998046875,-0.94757080078125,0.20477294921875,-0.0265820752829313,-0.0109972571954131,-0.0068168933503329
1769238022594,-0.18804931640625,-0.9494171142578124,0.212188720703125,-0.0329078808426857,0.0009089368977583,0.0026298714801669
1769238022604,-0.1839599609375,-0.9510498046875,0.214263916015625,-0.0364701263606548,0.0113690346479415,0.0024663533549755
1769238022614,-0.18243408203125,-0.9532012939453124,0.212677001953125,-0.0396640561521053,0.0316093266010284,0.0115448031574487
1769238022624,-0.17767333984375,-0.95330810546875,0.2138824462890625,-0.0362429581582546,0.0418076328933239,0.0123011413961648
1769238022634,-0.18719482421875,-0.94329833984375,0.2045440673828125,-0.0300567019730806,0.0374525673687458,0.0145882638171315
1769238022645,-0.186553955078125,-0.9530029296875,0.1996307373046875,-0.0293725356459617,0.0356432162225246,0.0165526121854782
1769238022654,-0.1817779541015625,-0.96160888671875,0.2025909423828125,-0.0365902334451675,0.0421061739325523,0.0210730601102113
1769238022665,-0.179473876953125,-0.9625701904296876,0.2054595947265625,-0.0372650809586048,0.0623967982828617,0.0184221509844064
1769238022675,-0.186431884765625,-0.96282958984375,0.1975250244140625,-0.038286667317152,0.0661846101284027,0.0104915229603648
1769238022685,-0.19775390625,-0.961700439453125,0.19818115234375,-0.0373729392886161,0.0223415251821279,0.0080230394378304
1769238022695,-0.196807861328125,-0.96014404296875,0.2024383544921875,-0.0305270161479711,-0.0076653766445815,0.002036785474047
1769238022705,-0.1958465576171875,-0.965789794921875,0.2022247314453125,-0.0295525658875703,-0.001945971744135,0.0045002093538641
1769238022715,-0.1911773681640625,-0.9686431884765624,0.2055816650390625,-0.0354131162166595,0.0030557110439985,0.0049444246105849
1769238022725,-0.1883392333984375,-0.9630584716796876,0.202667236328125,-0.0363398976624012,-0.0122638568282127,0.0021331920288503
1769238022735,-0.191680908203125,-0.9615325927734376,0.2010650634765625,-0.0328974947333335,-0.0038304245099425,0.0006061354652047
1769238022745,-0.194549560546875,-0.961029052734375,0.1957550048828125,-0.0312809571623802,-0.0017198694404214,-0.0047854343429207
1769238022755,-0.2001953125,-0.9529876708984376,0.1979827880859375,-0.0282888952642679,-0.0251207984983921,0.0017640779260545
1769238022765,-0.194488525390625,-0.9515380859375,0.2022552490234375,-0.0234288927167654,-0.0213050227612257,0.0051870387978851
1769238022775,-0.191741943359375,-0.9610748291015624,0.2001190185546875,-0.0267850086092948,-0.0177315920591354,0.0066477828659117
1769238022785,-0.1923370361328125,-0.962738037109375,0.20135498046875,-0.0286881029605865,-0.0185222849249839,0.0084313014522194
1769238022795,-0.1874847412109375,-0.9612579345703124,0.20135498046875,-0.0242422223091125,-0.0270537212491035,0.000517185893841
1769238022805,-0.19482421875,-0.961517333984375,0.2000274658203125,-0.0233601834625005,-0.0312548577785491,-0.0051867724396288
1769238022815,-0.1969757080078125,-0.96044921875,0.2015380859375,-0.0206384323537349,-0.0432558618485927,-0.0127104688435792
1769238022825,-0.199127197265625,-0.9564666748046876,0.206512451171875,-0.0181188154965639,-0.0612369924783706,-0.0119035309180617
1769238022835,-0.1934356689453125,-0.9551544189453124,0.2091522216796875,-0.0135152759030461,-0.0432039275765419,-0.006247776094824
1769238022845,-0.186981201171875,-0.9551544189453124,0.2041778564453125,-0.00734952557832,-0.0226022470742464,-0.0020847225096076
1769238022855,-0.18896484375,-0.9566802978515624,0.196990966796875,-0.0046086004003882,-0.0162468813359737,-0.0045081991702318
1769238022865,-0.1855010986328125,-0.957366943359375,0.196533203125,-0.0001427454262739,-0.0329182669520378,0.0009938917355611
1769238022876,-0.1779022216796875,-0.9606781005859376,0.1979522705078125,0.0018644790397956,-0.0160263702273368,0.0035973980557173
1769238022886,-0.1830291748046875,-0.95904541015625,0.198822021484375,0.0030069751664996,0.0001877528557088,-0.0038306908681988
1769238022896,-0.1907958984375,-0.96075439453125,0.1971893310546875,0.0069886674173176,0.0060775997117161,0.0011491540353745
1769238022906,-0.182708740234375,-0.962738037109375,0.1975555419921875,0.0084584662690758,0.0165358334779739,0.0065993131138384
1769238022916,-0.1788177490234375,-0.9598846435546876,0.2001800537109375,0.012518455274403,0.0436702482402324,0.0146239502355456
1769238022926,-0.1785430908203125,-0.9608154296875,0.1997222900390625,0.0143262082710862,0.048430647701025,0.0208512190729379
1769238022936,-0.181396484375,-0.961090087890625,0.2007598876953125,0.0186389312148094,0.0509968698024749,0.0186546444892883
1769238022946,-0.19036865234375,-0.9612274169921876,0.1974945068359375,0.0259812660515308,0.0462026484310627,0.0121746407821774
1769238022956,-0.2057647705078125,-0.956451416015625,0.1946563720703125,0.0359217822551727,0.0111658349633216,0.0065644257701933
1769238022966,-0.2110137939453125,-0.95526123046875,0.19415283203125,0.0408406406641006,-0.0156897474080324,0.0085601983591914
1769238022976,-0.2024078369140625,-0.9571380615234376,0.2001800537109375,0.0426715649664402,-0.0104244109243154,0.0166207887232303
1769238022986,-0.190521240234375,-0.960845947265625,0.2020263671875,0.0402054749429225,0.0023880566004663,0.0153214316815137
1769238022996,-0.18756103515625,-0.9636688232421876,0.20196533203125,0.0350035242736339,0.0102289356291294,0.0138255339115858
1769238023006,-0.1827239990234375,-0.9609832763671876,0.2061920166015625,0.0310910735279321,0.0190176330506801,0.0144188869744539
1769238023016,-0.183258056640625,-0.9602508544921876,0.209686279296875,0.0244116000831127,0.0255277305841445,0.0191238932311534
1769238023026,-0.181549072265625,-0.954498291015625,0.210174560546875,0.0222978480160236,0.0344373360276222,0.022814767435193
1769238023036,-0.1851348876953125,-0.9533843994140624,0.209197998046875,0.0131221935153007,0.0466021224856376,0.0306138359010219
1769238023046,-0.181854248046875,-0.952789306640625,0.21337890625,0.0071271518245339,0.0529244691133499,0.0359452180564403
1769238023056,-0.1864166259765625,-0.960479736328125,0.2133026123046875,0.0040176445618271,0.0561349093914032,0.0332628823816776
1769238023066,-0.2010955810546875,-0.9620513916015624,0.20751953125,0.0101343933492898,0.0409998968243598,0.0206296443939209
1769238023077,-0.2102813720703125,-0.9636993408203124,0.201873779296875,0.0086640622466802,0.0011347729014232,0.0145424576476216
1769238023087,-0.203094482421875,-0.967041015625,0.2085113525390625,0.0110627710819244,-0.0060903830453753,0.008689627982676
1769238023096,-0.2020416259765625,-0.963836669921875,0.2025146484375,0.0059234029613435,-0.0032866070978343,-0.001954493811354
1769238023107,-0.2026214599609375,-0.95135498046875,0.200836181640625,0.0008165251929312,-0.0207526832818985,-0.0128209898248314
1769238023117,-0.2044830322265625,-0.9431915283203124,0.2036895751953125,-0.0015262576052919,-0.0246233213692903,-0.0140753388404846
1769238023127,-0.199462890625,-0.942962646484375,0.2075042724609375,-0.0013861752813681,-0.0006197175825946,-0.0067551080137491
1769238023137,-0.191375732421875,-0.9521026611328124,0.2121429443359375,0.0017164073651656,0.0258973781019449,0.0018714033067226
1769238023147,-0.1845550537109375,-0.9668426513671876,0.21600341796875,0.0040701092220842,0.0466745607554912,0.0015835155500099
1769238023157,-0.17913818359375,-0.9709625244140624,0.214202880859375,0.0131019530817866,0.0540736205875873,-0.0060424460098147
1769238023167,-0.1790771484375,-0.969970703125,0.209503173828125,0.0216813273727893,0.0580792836844921,-0.0132590802386403
1769238023177,-0.181396484375,-0.9600372314453124,0.2057037353515625,0.0251197349280118,0.1113592833280563,-0.0038466698024421
1769238023187,-0.183685302734375,-0.9507293701171876,0.1990814208984375,0.0285592060536146,0.1516057699918747,-0.01278583612293
1769238023197,-0.215423583984375,-0.942901611328125,0.1955718994140625,0.0355745069682598,0.0780753567814827,-0.021041102707386
1769238023207,-0.2238922119140625,-0.9417572021484376,0.210205078125,0.0306255538016557,-0.0080115878954529,-0.007366569712758
1769238023217,-0.2030487060546875,-0.955352783203125,0.2331085205078125,0.0185140296816825,-0.0375300645828247,-0.0019435749854892
1769238023227,-0.1932525634765625,-0.96380615234375,0.2298736572265625,-0.0017931063193827,-0.0405450277030468,-0.0009843043517321
1769238023237,-0.1837615966796875,-0.9647369384765624,0.2194976806640625,-0.0158873535692691,-0.0248715281486511,-0.001890045357868
1769238023247,-0.1819610595703125,-0.958526611328125,0.20892333984375,-0.0322042740881443,0.0034778220579028,0.0039872848428785
1769238023257,-0.1831207275390625,-0.9545135498046876,0.2079315185546875,-0.0434350930154323,0.0282833036035299,0.0028274781070649
1769238023267,-0.19952392578125,-0.9546051025390624,0.2034759521484375,-0.051558531820774,0.0141986431553959,0.0003901530872099
1769238023277,-0.203826904296875,-0.9489288330078124,0.2089385986328125,-0.0543753579258918,-0.000263386638835,0.0092241242527961
1769238023288,-0.1928558349609375,-0.9562225341796876,0.206787109375,-0.0568757988512516,0.0208325777202844,0.0145842693746089
1769238023297,-0.188720703125,-0.9635772705078124,0.2052001953125,-0.0592366904020309,0.0630556643009185,0.01361168269068
1769238023308,-0.1906585693359375,-0.960906982421875,0.201629638671875,-0.0618620365858078,0.0604971647262573,0.005225921049714
1769238023318,-0.201568603515625,-0.9601287841796876,0.2055511474609375,-0.0551492720842361,0.0211532227694988,0.0008631304954178
1769238023328,-0.20111083984375,-0.960845947265625,0.2068023681640625,-0.0455523058772087,5.592638444795739e-06,0.0017965685110539
1769238023338,-0.197601318359375,-0.9647674560546876,0.2075958251953125,-0.0398590005934238,0.0210733264684677,0.0057862498797476
1769238023348,-0.1903839111328125,-0.96392822265625,0.1988372802734375,-0.0320218503475189,0.0607275292277336,0.0058608185499906
1769238023358,-0.19573974609375,-0.9615478515625,0.191986083984375,-0.0254909787327051,0.0845313966274261,-0.0094286557286977
1769238023368,-0.208984375,-0.9576416015625,0.19482421875,-0.0227678958326578,0.0258787348866462,-0.0108925951644778
1769238023378,-0.20452880859375,-0.95135498046875,0.211212158203125,-0.0112928682938218,-0.038538072258234,-0.0026005767285823
1769238023388,-0.19354248046875,-0.9581756591796876,0.213348388671875,-0.008381500840187,-0.0268377400934696,0.0039630499668419
1769238023398,-0.1866607666015625,-0.965057373046875,0.2077178955078125,-0.0031854070257395,0.0009456885163672,0.0054922369308769
1769238023408,-0.182830810546875,-0.9610748291015624,0.1980438232421875,0.0028224179986864,0.0252278577536344,0.0078802937641739
1769238023418,-0.18292236328125,-0.9617919921875,0.1932220458984375,0.0067140953615307,0.0575692877173423,0.011068363673985
1769238023428,-0.18377685546875,-0.9622039794921876,0.19476318359375,0.0161363594233989,0.0990562736988067,0.0055170045234262
1769238023438,-0.1993255615234375,-0.962127685546875,0.185577392578125,0.0223026424646377,0.106892891228199,-0.0051484229043126
1769238023448,-0.2129364013671875,-0.9554901123046876,0.19354248046875,0.0243223831057548,-0.0069143651053309,-0.000851945253089
1769238023458,-0.2028045654296875,-0.9479827880859376,0.207855224609375,0.0420334711670875,-0.0476343631744384,0.0046235141344368
1769238023468,-0.197052001953125,-0.9668121337890624,0.19696044921875,0.0430894121527671,-0.0098592890426516,0.0016018913593143
1769238023478,-0.1917266845703125,-0.9600677490234376,0.1930389404296875,0.047962199896574,0.0231058523058891,0.0016916398890316
1769238023488,-0.19024658203125,-0.9549102783203124,0.1854400634765625,0.0518786422908306,0.022251509130001,-0.0089460909366607
1769238023498,-0.1990814208984375,-0.9527435302734376,0.1892547607421875,0.052527654916048,-0.0112153701484203,-0.0143706835806369
1769238023508,-0.199737548828125,-0.94818115234375,0.2014312744140625,0.0590087249875068,-0.0481123998761177,-0.0083324983716011
1769238023518,-0.1883087158203125,-0.9526519775390624,0.2051544189453125,0.0628260970115661,-0.0278763715177774,-0.0023369237314909
1769238023528,-0.1858062744140625,-0.95751953125,0.2002410888671875,0.0685004964470863,0.0227194279432296,0.0036985981278121
1769238023538,-0.18450927734375,-0.9518890380859376,0.1923828125,0.0745256319642067,0.0683835819363594,0.0008689894457347
1769238023549,-0.1965179443359375,-0.9553070068359376,0.18817138671875,0.078283354640007,0.0680632069706916,-0.0099256010726094
1769238023559,-0.21185302734375,-0.9542999267578124,0.1988677978515625,0.0781837478280067,0.0324905663728714,-0.0013467605458572
1769238023569,-0.2006683349609375,-0.9482879638671876,0.2156829833984375,0.073454774916172,-0.0187310762703418,0.0163358300924301
1769238023579,-0.1885223388671875,-0.9557647705078124,0.2245330810546875,0.0717546120285987,-0.016651414334774,0.0230922698974609
1769238023589,-0.1817626953125,-0.9694366455078124,0.2159576416015625,0.058853730559349,0.0059292619116604,0.0218877214938402
1769238023599,-0.180145263671875,-0.96783447265625,0.214752197265625,0.0477659255266189,0.0281991474330425,0.0220485776662826
1769238023609,-0.1856231689453125,-0.963958740234375,0.2146148681640625,0.0388821512460708,0.0500953905284404,0.0223913248628377
1769238023619,-0.1912689208984375,-0.9571685791015624,0.2103118896484375,0.0304101034998893,0.0669827610254287,0.0182993784546852
1769238023629,-0.2021942138671875,-0.9501495361328124,0.21240234375,0.0253540929406881,0.0417668893933296,0.0200661197304725
1769238023639,-0.2087554931640625,-0.949066162109375,0.2172393798828125,0.0274579897522926,0.0182160213589668,0.0275679789483547
1769238023649,-0.2060394287109375,-0.9565582275390624,0.2191162109375,0.0293549597263336,0.0322721861302852,0.0311400759965181
