timestamp_ms,acc_x,acc_y,acc_z,gyro_x,gyro_y,gyro_z
1770453632355,0.0712890625,-0.1453094482421875,-0.9794464111328124,-0.0391194410622119,-0.0081820301711559,-0.004897819366306
1770453632364,0.07037353515625,-0.14410400390625,-0.9860687255859376,-0.0396480783820152,-0.0082696480676531,-0.0077258301898837
1770453632373,0.0732879638671875,-0.14996337890625,-0.9907379150390624,-0.0414651520550251,-0.0039814258925616,-0.0065918564796447
1770453632383,0.0814208984375,-0.1601715087890625,-0.995758056640625,-0.0370965003967285,-0.0013158678775653,0.0021337247453629
1770453632393,0.0899658203125,-0.142791748046875,-0.9937286376953124,-0.0244025457650423,-0.0039260322228074,0.0062278020195662
1770453632403,0.0789337158203125,-0.123504638671875,-0.9912872314453124,-0.0208911672234535,0.0135459024459123,-0.0075865467078983
1770453632414,0.0646820068359375,-0.139862060546875,-0.998687744140625,-0.0047958204522728,0.0404619388282299,-0.0137986363843083
1770453632424,0.0658111572265625,-0.1496734619140625,-1.004150390625,0.0295943766832351,0.0160551331937313,-0.0087692569941282
1770453632434,0.0735626220703125,-0.1247100830078125,-0.999359130859375,0.0405721925199031,0.0160588603466749,-0.0177142824977636
1770453632444,0.0683441162109375,-0.147186279296875,-0.997802734375,0.0382909290492534,0.0273083206266164,-0.0123088639229536
1770453632454,0.0821990966796875,-0.182830810546875,-0.9933929443359376,0.0403689928352832,0.0117293605580925,0.0162942837923765
1770453632464,0.1035614013671875,-0.17327880859375,-0.9882965087890624,0.0561913661658763,-0.002420014468953,0.0284806434065103
1770453632474,0.0906524658203125,-0.1273193359375,-0.979156494140625,0.0657076388597488,-0.0026013758033514,0.0057945060543715
1770453632484,0.055023193359375,-0.1166534423828125,-0.966705322265625,0.0566172078251838,-0.0044251084327697,-0.0296404492110013
1770453632494,0.0386810302734375,-0.1248321533203125,-0.964813232421875,0.0435352250933647,-0.0136151444166898,-0.051539622247219
1770453632504,0.046112060546875,-0.1300506591796875,-0.977081298828125,0.0357587970793247,-0.0155030591413378,-0.0625392794609069
1770453632514,0.063140869140625,-0.1404266357421875,-0.9843597412109376,0.0299677532166242,-0.007120493799448,-0.0653758123517036
1770453632524,0.0760345458984375,-0.1557159423828125,-0.9849395751953124,0.0198498703539371,-0.0049026133492589,-0.0551340915262699
1770453632534,0.0862579345703125,-0.1665191650390625,-0.976348876953125,0.0008367652189917,-0.0027387947775423,-0.0325552783906459
1770453632544,0.0899505615234375,-0.1655426025390625,-0.9675140380859376,-0.0165012124925851,0.0067705544643104,-0.0144508443772792
1770453632554,0.085357666015625,-0.1581268310546875,-0.963104248046875,-0.0308439321815967,0.0105935223400592,-0.0039888825267553
1770453632564,0.0818634033203125,-0.148712158203125,-0.9617462158203124,-0.0449898466467857,0.012894227169454,-0.0049702576361596
1770453632575,0.0796051025390625,-0.1453399658203125,-0.961669921875,-0.0556310378015041,0.0059694754891097,-0.0108960568904876
1770453632585,0.078460693359375,-0.1449127197265625,-0.962860107421875,-0.0637661963701248,-0.0059044943191111,-0.0145323369652032
1770453632595,0.078125,-0.14886474609375,-0.965728759765625,-0.0778708308935165,-0.0085644600912928,-0.0124137923121452
1770453632605,0.08203125,-0.15625,-0.9677276611328124,-0.0910151302814483,-0.0043044672347605,-0.0001419464824721
1770453632615,0.08642578125,-0.1618499755859375,-0.9716949462890624,-0.1000759974122047,-0.0002854908525478,0.0070701600052416
1770453632625,0.0860748291015625,-0.1577911376953125,-0.9818572998046876,-0.0974991247057914,0.0008546083699911,0.0113855460658669
1770453632635,0.07989501953125,-0.1474456787109375,-0.9916839599609376,-0.0894971266388893,-0.0059905145317316,0.0094699347391724
1770453632645,0.07171630859375,-0.151336669921875,-1.0010833740234375,-0.0826408192515373,-0.0053289853967726,0.0068089039996266
1770453632655,0.07659912109375,-0.1534576416015625,-1.0042572021484375,-0.0649142861366272,-0.0063569652847945,0.0124268420040607
1770453632665,0.0808258056640625,-0.1448822021484375,-1.0115509033203125,-0.0349284224212169,-0.0184873975813388,0.0124920895323157
1770453632675,0.077728271484375,-0.1434478759765625,-1.015899658203125,-0.0010817759903147,-0.027948809787631,0.0061076935380697
1770453632685,0.071014404296875,-0.14288330078125,-1.0181884765625,0.0315680466592311,-0.0358485430479049,-0.0026695525739341
1770453632696,0.066864013671875,-0.1400299072265625,-1.0106964111328125,0.054593738168478,-0.0419013760983943,-0.0129189947620034
1770453632705,0.0707855224609375,-0.140960693359375,-1.0016632080078125,0.0713263750076294,-0.0443735904991626,-0.0231186356395483
1770453632715,0.075439453125,-0.144683837890625,-0.9962921142578124,0.0868376940488815,-0.0440169908106327,-0.0243309065699577
1770453632725,0.0797882080078125,-0.145660400390625,-0.994049072265625,0.1023745760321617,-0.0454646870493888,-0.0263865999877452
1770453632735,0.0771026611328125,-0.1475677490234375,-0.990631103515625,0.1150850430130958,-0.0498170927166938,-0.0262667573988437
1770453632745,0.0734405517578125,-0.149993896484375,-0.9841766357421876,0.1197330579161644,-0.0572286695241928,-0.0317424833774566
1770453632755,0.0671234130859375,-0.152923583984375,-0.975555419921875,0.1170113086700439,-0.0663723647594451,-0.037554033100605
1770453632765,0.064300537109375,-0.15045166015625,-0.9634246826171876,0.1015442013740539,-0.067010723054409,-0.040700290352106
1770453632775,0.064544677734375,-0.1471405029296875,-0.9513092041015624,0.0717468932271003,-0.0604002252221107,-0.0476849637925624
1770453632786,0.0609283447265625,-0.1483001708984375,-0.9378814697265624,0.0276691783219575,-0.0325883030891418,-0.0531870536506176
1770453632796,0.0601959228515625,-0.14471435546875,-0.933807373046875,-0.0144798727706074,-0.0163779072463512,-0.0598849058151245
1770453632806,0.0580291748046875,-0.14337158203125,-0.938232421875,-0.0518184565007686,-0.0066810720600187,-0.0708147808909416
1770453632816,0.053985595703125,-0.141815185546875,-0.94622802734375,-0.0785446092486381,-0.0115884793922305,-0.0747634544968605
1770453632826,0.06304931640625,-0.14105224609375,-0.9563140869140624,-0.0976519882678985,-0.0177041627466678,-0.078654333949089
1770453632836,0.0658416748046875,-0.146942138671875,-0.963348388671875,-0.1082353964447975,-0.0180064309388399,-0.0791688561439514
1770453632846,0.071533203125,-0.14349365234375,-0.9705963134765624,-0.1166677623987197,-0.014846590347588,-0.0800871104001998
1770453632856,0.0744781494140625,-0.145965576171875,-0.9778594970703124,-0.1229003593325614,-0.0100734066218137,-0.0817380025982856
1770453632866,0.0775299072265625,-0.1471099853515625,-0.9815826416015624,-0.1279457211494445,0.0024245418608188,-0.0780718997120857
1770453632876,0.0782623291015625,-0.1486358642578125,-0.9842529296875,-0.125189870595932,0.012089685536921,-0.0742193683981895
1770453632886,0.0764007568359375,-0.1504364013671875,-0.9958648681640624,-0.1120346561074256,0.0027912592049688,-0.0698794797062873
1770453632896,0.0810699462890625,-0.1550445556640625,-1.0089111328125,-0.092175468802452,-0.0101801995187997,-0.0649792626500129
1770453632906,0.0803680419921875,-0.1519622802734375,-1.012237548828125,-0.0738097727298736,-0.0186479855328798,-0.0566278584301471
1770453632916,0.082427978515625,-0.1495513916015625,-1.0084991455078125,-0.0582430660724639,-0.0147102363407611,-0.0512994080781936
1770453632926,0.0811920166015625,-0.14642333984375,-1.003326416015625,-0.0493315979838371,-0.0089258505031466,-0.0481661967933177
1770453632936,0.0797119140625,-0.1453094482421875,-0.998565673828125,-0.0375332608819007,-0.0038075214251875,-0.0405431650578975
1770453632946,0.081085205078125,-0.1419677734375,-0.9994964599609376,-0.0201217792928218,0.0016088156262412,-0.0385503210127353
1770453632956,0.0834808349609375,-0.1422882080078125,-1.0035858154296875,-0.0038706383202224,-0.0042376220226287,-0.0351225659251213
1770453632966,0.0787200927734375,-0.1457672119140625,-1.00384521484375,0.0167539454996585,-0.0052751894108951,-0.0332980342209339
1770453632976,0.07794189453125,-0.1445465087890625,-1.0028228759765625,0.0308641716837883,-0.0102659529075026,-0.0320570021867752
1770453632986,0.0781097412109375,-0.139739990234375,-0.997406005859375,0.0380515120923519,-0.0132731944322586,-0.0311568547040224
1770453632996,0.0779571533203125,-0.141571044921875,-0.992431640625,0.0408134758472442,-0.0117964716628193,-0.0281099323183298
1770453633007,0.0731353759765625,-0.147552490234375,-0.98846435546875,0.0373148806393146,-0.00476785749197,-0.0223654936999082
1770453633017,0.0796661376953125,-0.1568756103515625,-0.9907684326171876,0.0362706556916236,-0.0046613309532403,-0.0141009055078029
1770453633027,0.0798187255859375,-0.1448516845703125,-0.9911651611328124,0.0446364432573318,-0.018875952810049,-0.0174458362162113
1770453633037,0.0668182373046875,-0.126373291015625,-0.988433837890625,0.0443355068564415,-0.0361902266740798,-0.031880434602499
1770453633047,0.0589599609375,-0.131988525390625,-0.988067626953125,0.0496812686324119,-0.0175084192305803,-0.0409362465143203
1770453633057,0.0630950927734375,-0.139129638671875,-0.9825439453125,0.0615816041827201,-0.0136534944176673,-0.0397458150982856
1770453633067,0.066741943359375,-0.120513916015625,-0.9683074951171876,0.0493928492069244,-0.0200416184961795,-0.0487547554075717
1770453633077,0.067169189453125,-0.129180908203125,-0.963836669921875,0.0183177553117275,0.0091178650036454,-0.045495580881834
1770453633087,0.0731353759765625,-0.1682891845703125,-0.96136474609375,-0.0140194129198789,0.0126345688477158,-0.018900454044342
1770453633097,0.0959014892578125,-0.18115234375,-0.964019775390625,-0.0223415251821279,0.0103572998195886,0.0077604511752724
1770453633107,0.09814453125,-0.138031005859375,-0.970855712890625,-0.0110145676881074,0.0135317873209714,0.0055564190261065
1770453633117,0.0742950439453125,-0.1100006103515625,-0.974945068359375,-0.0047457530163228,0.0001195759323309,-0.0203500129282474
1770453633128,0.0465087890625,-0.1164398193359375,-0.980499267578125,-0.0003390203928574,-0.0128359040245413,-0.0463073104619979
1770453633137,0.041961669921875,-0.130889892578125,-0.9901885986328124,0.0046512107364833,-0.0185228176414966,-0.0577410608530044
1770453633147,0.0552215576171875,-0.1383514404296875,-0.994537353515625,0.0078379493206739,-0.0173877794295549,-0.057251039892435
1770453633157,0.0677337646484375,-0.146148681640625,-0.99884033203125,0.0129035478457808,-0.0318388901650905,-0.0465821474790573
1770453633167,0.0772552490234375,-0.1538238525390625,-0.994140625,0.0127144632861018,-0.0296601578593254,-0.0309805534780025
1770453633177,0.0877227783203125,-0.1567230224609375,-0.987884521484375,0.0091711273416876,-0.0064192833378911,-0.0129038142040371
1770453633187,0.09136962890625,-0.1585845947265625,-0.9880218505859376,0.0147166280075907,0.0052107409574091,0.0061364555731415
1770453633198,0.0913848876953125,-0.1574249267578125,-0.992919921875,0.0290026236325502,0.0004865595255978,0.0139006357640028
1770453633207,0.0787353515625,-0.150848388671875,-0.9927978515625,0.0383945256471633,-0.0037489319220185,0.0104246772825717
1770453633218,0.0702667236328125,-0.137451171875,-0.9894561767578124,0.0395668521523475,-0.0025457157753407,0.0050879693590104
1770453633228,0.06439208984375,-0.131317138671875,-0.97979736328125,0.031411450356245,0.0021667478140443,-0.0019449065439403
1770453633238,0.0662994384765625,-0.13629150390625,-0.974639892578125,0.021336980164051,0.0073801521211862,-0.0045319013297557
1770453633248,0.0725860595703125,-0.144622802734375,-0.977325439453125,0.0161771047860384,0.0093815177679061,0.0005376922199502
1770453633258,0.0783538818359375,-0.150726318359375,-0.9832305908203124,0.0163696520030498,0.0056221992708742,0.0100723411887884
1770453633268,0.081878662109375,-0.150543212890625,-0.9827880859375,0.0181949827820062,0.0020005665719509,0.0162093304097652
1770453633278,0.077392578125,-0.1502838134765625,-0.9850006103515624,0.0181222781538963,0.008585232309997,0.0231338143348693
1770453633288,0.0764007568359375,-0.1527862548828125,-0.9877166748046876,0.020583838224411,0.017355553805828,0.03206392750144
1770453633298,0.0751495361328125,-0.1436614990234375,-0.9854278564453124,0.0211715977638959,0.0167483538389205,0.0341084338724613
1770453633308,0.0648956298828125,-0.1388397216796875,-0.9843597412109376,0.018368886783719,0.0253032259643077,0.0334809944033622
1770453633318,0.06268310546875,-0.1351470947265625,-0.9879150390625,0.0192956663668155,0.0289901066571474,0.0315067917108535
1770453633328,0.063812255859375,-0.1350555419921875,-0.99005126953125,0.0221063680946826,0.0286596082150936,0.0232994630932807
1770453633338,0.0679779052734375,-0.14227294921875,-0.990142822265625,0.0223255455493927,0.0275416132062673,0.0216373838484287
1770453633348,0.073211669921875,-0.146331787109375,-0.9884185791015624,0.0207454916089773,0.0341766141355037,0.0222594998776912
1770453633358,0.0774993896484375,-0.147552490234375,-0.98394775390625,0.0196293611079454,0.0400914922356605,0.0257074944674968
1770453633368,0.0767059326171875,-0.15142822265625,-0.980133056640625,0.0203159246593713,0.0380642935633659,0.0291568208485841
1770453633379,0.0787506103515625,-0.1512451171875,-0.9791107177734376,0.0202770419418811,0.025458488613367,0.0365409664809703
1770453633388,0.077362060546875,-0.15289306640625,-0.9778289794921876,0.0175981689244508,0.0234581883996725,0.0407295860350132
1770453633398,0.0746002197265625,-0.155364990234375,-0.9786529541015624,0.0110036488622426,0.0236707087606191,0.043634295463562
1770453633408,0.0755157470703125,-0.1560516357421875,-0.9770050048828124,0.0055289887823164,0.0223974511027336,0.0463328771293163
1770453633418,0.0733795166015625,-0.1528472900390625,-0.9758758544921876,0.0060174125246703,0.0220033023506402,0.0521390996873378
1770453633429,0.0694580078125,-0.1451873779296875,-0.9800872802734376,0.0070011839270591,0.0333374515175819,0.0508290939033031
1770453633438,0.0629730224609375,-0.1402740478515625,-0.98651123046875,0.0096872486174106,0.0344210900366306,0.0419884622097015
1770453633449,0.059844970703125,-0.141326904296875,-0.9909820556640624,0.0200381558388471,0.0254704728722572,0.0325550138950347
1770453633459,0.058807373046875,-0.144775390625,-0.9940338134765624,0.0298686828464269,0.0165440887212753,0.0293477680534124
1770453633469,0.06292724609375,-0.14715576171875,-0.993682861328125,0.0381769463419914,0.0117200389504432,0.0241697840392589
1770453633479,0.0665283203125,-0.1482696533203125,-0.98602294921875,0.0384019836783409,0.0047276434488594,0.0196828916668891
1770453633489,0.0695343017578125,-0.15045166015625,-0.9788665771484376,0.0365873053669929,0.001333444728516,0.0172932371497154
1770453633499,0.070953369140625,-0.1485748291015625,-0.9694976806640624,0.0285078082233667,0.0032325449865311,0.0140907848253846
1770453633509,0.074066162109375,-0.1498260498046875,-0.96575927734375,0.0195832885801792,0.0087857684120535,0.0140614900738
1770453633519,0.0708160400390625,-0.1519012451171875,-0.96929931640625,0.0142268724739551,0.0108033791184425,0.0133517580106854
1770453633529,0.07293701171875,-0.15533447265625,-0.973907470703125,0.0100582269951701,0.0047393613494932,0.0157882831990718
1770453633539,0.075958251953125,-0.15380859375,-0.9756927490234376,0.0059092883020639,0.0040599890053272,0.0170298498123884
1770453633549,0.0762176513671875,-0.151092529296875,-0.976348876953125,-0.0020072245970368,0.0087700560688972,0.0174815226346254
1770453633559,0.0784759521484375,-0.15069580078125,-0.9745330810546876,-0.0067852018401026,0.0068951901048421,0.0175068210810422
1770453633569,0.0812835693359375,-0.1507720947265625,-0.97381591796875,-0.0098473047837615,0.0117179090157151,0.021845644339919
1770453633579,0.08209228515625,-0.1514129638671875,-0.9798431396484376,-0.0057146111503243,0.0100097572430968,0.0257636867463588
1770453633589,0.08587646484375,-0.1517486572265625,-0.985504150390625,0.0010322412708774,0.0012303803814575,0.0300239454954862
1770453633599,0.0839385986328125,-0.1531982421875,-0.99078369140625,0.009165002964437,-0.0014817827614024,0.032733179628849
1770453633610,0.0819244384765625,-0.150543212890625,-0.992156982421875,0.0142492428421974,-0.0081063956022262,0.0352924764156341
1770453633619,0.081146240234375,-0.1501007080078125,-0.9872894287109376,0.0132489595562219,-0.0143464487046003,0.0415519699454307
1770453633630,0.08245849609375,-0.1524658203125,-0.9795379638671876,0.0033531861845403,-0.0060797305777668,0.0490037612617015
1770453633640,0.083343505859375,-0.1629486083984375,-0.9770965576171876,-0.0062296665273606,0.007766842842102,0.0598287135362625
1770453633650,0.0872802734375,-0.1729888916015625,-0.97998046875,-0.0033499903511255,0.0099719399586319,0.0766521692276001
1770453633660,0.0887908935546875,-0.1536865234375,-0.9841766357421876,0.0058403122238814,-0.0095144091174006,0.0736001878976821
1770453633670,0.0733642578125,-0.1395111083984375,-0.9853668212890624,0.0081402184441685,-0.0143411224707961,0.0600470900535583
1770453633680,0.0575714111328125,-0.150787353515625,-0.9897613525390624,0.0173670053482055,-0.0005667206714861,0.0501459911465644
1770453633690,0.059112548828125,-0.149749755859375,-0.989715576171875,0.0428044535219669,-0.008035821840167,0.0487558208405971
1770453633700,0.0583038330078125,-0.1312713623046875,-0.9825439453125,0.0449597500264644,-0.0158503353595733,0.0279275048524141
1770453633710,0.0510406494140625,-0.148193359375,-0.9819183349609376,0.0339654237031936,-0.0043851612135767,0.0232203677296638
1770453633720,0.060882568359375,-0.180328369140625,-0.975372314453125,0.0156724359840154,-0.01446842122823,0.0487196035683155
1770453633730,0.0865631103515625,-0.1826019287109375,-0.9677581787109376,0.0023800670169293,-0.0190405361354351,0.0634825676679611
1770453633740,0.0826416015625,-0.1446990966796875,-0.96392822265625,0.0028738172259181,-0.0100190779194235,0.0400563403964042
1770453633750,0.0493927001953125,-0.1259765625,-0.9622802734375,-0.003459446132183,-0.0163528751581907,0.0033838124945759
1770453633762,0.031463623046875,-0.13336181640625,-0.968353271484375,-0.0113866114988923,-0.0352581217885017,-0.0227231550961732
1770453633770,0.03485107421875,-0.1400604248046875,-0.9774932861328124,-0.0131554827094078,-0.0494503751397132,-0.034532144665718
1770453633780,0.049713134765625,-0.1498565673828125,-0.9859466552734376,-0.0130193950608372,-0.0548925437033176,-0.0392755009233951
1770453633790,0.064849853515625,-0.1634521484375,-0.984832763671875,-0.0159704443067312,-0.056849967688322,-0.0305113028734922
1770453633800,0.0755462646484375,-0.168853759765625,-0.9760894775390624,-0.0258142873644828,-0.0544800199568271,-0.0175113491714
1770453633810,0.0760040283203125,-0.171600341796875,-0.9667205810546876,-0.0420744828879833,-0.0462335422635078,-0.0042629218660295
1770453633820,0.073883056640625,-0.1695098876953125,-0.9609527587890624,-0.0637483522295951,-0.0432502701878547,0.0044085970148444
1770453633830,0.071624755859375,-0.167816162109375,-0.961334228515625,-0.0892577096819877,-0.0411341190338134,0.0043148533441126
1770453633840,0.0706024169921875,-0.1610260009765625,-0.9537353515625,-0.115102618932724,-0.0189731586724519,0.0002255697472719
1770453633851,0.063079833984375,-0.15631103515625,-0.953369140625,-0.1324166357517242,-0.0212485641241073,-0.0174434389919042
1770453633863,0.0494537353515625,-0.150360107421875,-0.9594879150390624,-0.1478669643402099,-0.0280998107045888,-0.0344812795519828
1770453633870,0.047882080078125,-0.14031982421875,-0.9616851806640624,-0.1600916683673858,-0.0399460829794406,-0.0429762303829193
1770453633880,0.052520751953125,-0.1409912109375,-0.969329833984375,-0.16970194876194,-0.025906965136528,-0.0548336878418922
1770453633891,0.05517578125,-0.1502685546875,-0.9801025390625,-0.1745534241199493,-0.0206578746438026,-0.0576124303042888
1770453633901,0.059539794921875,-0.1434173583984375,-0.989410400390625,-0.1661759316921234,-0.0169310458004474,-0.0639829784631729
1770453633911,0.058013916015625,-0.1459197998046875,-0.9981842041015624,-0.1476696133613586,0.0038994003552943,-0.0625629797577858
1770453633921,0.0622100830078125,-0.1485443115234375,-1.0198211669921875,-0.1077746674418449,0.0027276095934212,-0.0613001100718975
1770453633931,0.06695556640625,-0.1463470458984375,-1.0406036376953125,-0.055865928530693,-0.0251828506588935,-0.0521364361047744
1770453633941,0.069915771484375,-0.139373779296875,-1.04779052734375,-0.0003888215287588,-0.0453373864293098,-0.0547471344470977
1770453633951,0.0619049072265625,-0.135833740234375,-1.04937744140625,0.0500490516424179,-0.0592119246721267,-0.0620742887258529
1770453633962,0.0582427978515625,-0.1324310302734375,-1.0394134521484375,0.0899970009922981,-0.0540856048464775,-0.066411517560482
1770453633971,0.0618133544921875,-0.1357421875,-1.0263824462890625,0.1153018251061439,-0.0490058921277523,-0.0727383866906166
1770453633981,0.0640411376953125,-0.141998291015625,-1.014373779296875,0.1290959268808365,-0.0398922897875309,-0.07180867344141
1770453633991,0.0720062255859375,-0.1432037353515625,-0.99969482421875,0.1283374726772308,-0.0184093676507473,-0.0695604383945465
1770453634001,0.0767059326171875,-0.144866943359375,-0.9855804443359376,0.1237525641918182,0.0052035502158105,-0.0674594640731811
1770453634011,0.075439453125,-0.152435302734375,-0.978240966796875,0.116710640490055,0.0134950364008545,-0.0591711774468421
1770453634021,0.0775604248046875,-0.1536407470703125,-0.977081298828125,0.1043386533856391,0.0215284619480371,-0.0567684732377529
1770453634031,0.0712738037109375,-0.1523895263671875,-0.97735595703125,0.0938303545117378,0.0317701809108257,-0.0546986646950244
1770453634041,0.0651397705078125,-0.14990234375,-0.9786376953125,0.086207590997219,0.035684760659933,-0.055419847369194
1770453634051,0.06292724609375,-0.1515960693359375,-0.982574462890625,0.085623025894165,0.0262848678976297,-0.0637369006872177
1770453634061,0.060821533203125,-0.155853271484375,-0.9820709228515624,0.0873492881655693,0.0150916008278727,-0.0704299584031105
1770453634072,0.0582275390625,-0.1556854248046875,-0.9806365966796876,0.0889264121651649,0.0030509172938764,-0.0814924612641334
1770453634082,0.053863525390625,-0.1556396484375,-0.9760284423828124,0.0848866626620292,-0.0098536955192685,-0.0922098234295845
1770453634091,0.0516510009765625,-0.1562957763671875,-0.9693756103515624,0.074031613767147,-0.0118888840079307,-0.1053988635540008
1770453634102,0.049560546875,-0.1535186767578125,-0.964569091796875,0.0565679371356964,-0.0078155789524316,-0.1177964061498642
1770453634112,0.053436279296875,-0.1503448486328125,-0.958404541015625,0.0368711985647678,0.0025995115283876,-0.1235581561923027
1770453634122,0.0562744140625,-0.1492156982421875,-0.959869384765625,0.0210948996245861,0.0147935934364795,-0.1297324299812317
1770453634132,0.056121826171875,-0.147918701171875,-0.96832275390625,0.0089407647028565,0.0278366915881633,-0.1320680230855941
1770453634142,0.05908203125,-0.148834228515625,-0.9749603271484376,0.0031894017010927,0.0386134386062622,-0.138932853937149
1770453634152,0.056488037109375,-0.1493682861328125,-0.9837493896484376,0.0027148264925926,0.052052017301321,-0.1396122276782989
1770453634162,0.0616912841796875,-0.1512908935546875,-0.9934234619140624,0.0108891334384679,0.0502703599631786,-0.1361868679523468
1770453634172,0.070770263671875,-0.1539764404296875,-0.999786376953125,0.0266747530549764,0.0383066423237323,-0.1284349411725998
1770453634182,0.0758819580078125,-0.1583709716796875,-1.005950927734375,0.0510035306215286,0.0217851903289556,-0.1217946112155914
1770453634192,0.0822906494140625,-0.160308837890625,-1.00775146484375,0.0720076113939285,0.0097152115777134,-0.1075206026434898
1770453634202,0.086212158203125,-0.1574554443359375,-1.0026092529296875,0.0904574617743492,0.0010412959381937,-0.0918894410133361
1770453634212,0.0907745361328125,-0.1591339111328125,-0.9986724853515624,0.1047162935137748,-0.0023313311394304,-0.0768867880105972
1770453634222,0.0933380126953125,-0.1602935791015625,-0.9930419921875,0.114491157233715,0.0014274542918428,-0.0650213435292244
1770453634232,0.0928802490234375,-0.1607666015625,-0.98748779296875,0.1161079630255699,0.0011078750248998,-0.0477728471159935
1770453634242,0.0911712646484375,-0.162139892578125,-0.9809722900390624,0.1107028126716613,0.0083151878789067,-0.0351595841348171
1770453634252,0.0872802734375,-0.1616973876953125,-0.9761199951171876,0.1009037122130394,0.008715727366507,-0.0265890005975961
1770453634262,0.0825958251953125,-0.1594085693359375,-0.9705352783203124,0.0882457047700882,0.0095277251675724,-0.0210592132061719
1770453634273,0.078155517578125,-0.1640777587890625,-0.9686126708984376,0.0715833753347396,0.0101905856281518,-0.0103764748200774
1770453634283,0.0791168212890625,-0.1757049560546875,-0.9692230224609376,0.0554731115698814,0.0072073126211762,0.002828809665516
1770453634293,0.0867156982421875,-0.1710662841796875,-0.969757080078125,0.0448779910802841,-0.0066200857982039,0.0105351991951465
1770453634303,0.0825042724609375,-0.153045654296875,-0.9643707275390624,0.0308665689080953,-0.0119421472772955,0.0035585158038884
1770453634313,0.067779541015625,-0.156646728515625,-0.962738037109375,0.0172394402325153,0.0066975839436054,-0.0004002731002401
1770453634323,0.06719970703125,-0.16546630859375,-0.967742919921875,0.0137304598465561,0.0198325607925653,0.0025803367607295
1770453634333,0.0699462890625,-0.1508941650390625,-0.9656982421875,0.0048152613453567,0.0071455272845923,-0.0056901099160313
1770453634343,0.067779541015625,-0.14324951171875,-0.9666900634765624,-0.012475311756134,0.0181347951292991,-0.0164612643420696
1770453634353,0.0659637451171875,-0.1741943359375,-0.9682159423828124,-0.0308527201414108,0.0181257408112287,0.0080744381994009
1770453634363,0.090484619140625,-0.195556640625,-0.965728759765625,-0.0486439689993858,0.0127818416804075,0.0396046675741672
1770453634373,0.0998077392578125,-0.17559814453125,-0.9707794189453124,-0.0481736548244953,0.0236733704805374,0.0430313572287559
1770453634383,0.0827178955078125,-0.1436767578125,-0.9725341796875,-0.0417264066636562,0.0251924376934766,0.0194474682211875
1770453634393,0.057159423828125,-0.1388397216796875,-0.9724273681640624,-0.0396515391767025,0.0164479482918977,0.0002141181466868
1770453634403,0.0487518310546875,-0.144622802734375,-0.9797210693359376,-0.0374397821724414,0.0137360524386167,-0.0082677835598587
1770453634413,0.0561981201171875,-0.1536865234375,-0.9888458251953124,-0.029927272349596,0.0105418572202324,-0.0106276106089353
1770453634423,0.0680694580078125,-0.1673583984375,-0.9990692138671876,-0.0152295529842376,0.0091548822820186,-0.0032194955274462
1770453634433,0.08233642578125,-0.1767120361328125,-0.99969482421875,-0.0071758874692022,0.0019262643763795,0.0138500351458787
1770453634443,0.088409423828125,-0.1800079345703125,-0.9935760498046876,-0.010758638381958,0.0102507732808589,0.0331949703395366
1770453634453,0.0877838134765625,-0.1796417236328125,-0.981781005859375,-0.0237940121442079,0.0226366035640239,0.0520168617367744
1770453634463,0.0858001708984375,-0.176483154296875,-0.97198486328125,-0.0353681109845638,0.0303033106029033,0.0606167428195476
1770453634473,0.0797271728515625,-0.1681671142578125,-0.9707794189453124,-0.0399258434772491,0.0322010777890682,0.0616223514080047
1770453634484,0.07354736328125,-0.16241455078125,-0.97357177734375,-0.0408480986952781,0.0349281579256057,0.0521345734596252
1770453634493,0.0668487548828125,-0.1563568115234375,-0.977569580078125,-0.036811277270317,0.036483708769083,0.038457378745079
1770453634504,0.0621490478515625,-0.156036376953125,-0.9828338623046876,-0.0271791573613882,0.0209867749363183,0.0293211378157138
1770453634514,0.0638580322265625,-0.1585693359375,-0.986175537109375,-0.0193372126668691,0.0080051962286233,0.0250302515923976
1770453634523,0.066680908203125,-0.1632537841796875,-0.987030029296875,-0.0132391061633825,0.0068640313111245,0.030016753822565
1770453634534,0.0697021484375,-0.165679931640625,-0.9871063232421876,-0.0096765961498022,0.0092302495613694,0.0320428870618343
1770453634544,0.070831298828125,-0.1662750244140625,-0.991485595703125,-0.0021646174136549,0.0101343933492898,0.0354839563369751
1770453634554,0.071563720703125,-0.1723785400390625,-0.997222900390625,0.0056341835297644,0.0141733428463339,0.0406094789505004
1770453634564,0.0707550048828125,-0.16619873046875,-0.9986724853515624,0.0140377879142761,0.0140103576704859,0.0436825007200241
1770453634576,0.0682220458984375,-0.15472412109375,-0.9970703125,0.0223151594400405,0.0023832628503441,0.0377095602452755
1770453634584,0.061920166015625,-0.149322509765625,-0.9942474365234376,0.0280524063855409,-0.0040570595301687,0.0201553348451852
1770453634594,0.057403564453125,-0.1509246826171875,-0.985992431640625,0.0259181503206491,-0.0042908852919936,0.010416954755783
1770453634604,0.0648193359375,-0.1562957763671875,-0.97625732421875,0.0136028937995433,-0.0037683728151023,0.0090297134593129
1770453634614,0.07696533203125,-0.162872314453125,-0.97003173828125,0.0026272083632647,0.0075260931625962,0.0157051943242549
1770453634624,0.082366943359375,-0.167938232421875,-0.9687042236328124,-0.0032983249984681,0.0179513040930032,0.0236448757350444
1770453634634,0.0853729248046875,-0.1684112548828125,-0.972259521484375,0.0004157194343861,0.0164423566311597,0.0323238521814346
1770453634645,0.079833984375,-0.1646270751953125,-0.974273681640625,0.003532683243975,0.0096100168302655,0.0362509489059448
1770453634654,0.075714111328125,-0.1658782958984375,-0.9757843017578124,0.007064567413181,0.002518817782402,0.0407977625727653
1770453634664,0.0750579833984375,-0.1634368896484375,-0.97723388671875,0.0051556136459112,0.0006213154993019,0.0409160070121288
1770453634674,0.0710296630859375,-0.16290283203125,-0.9742279052734376,-0.0024999093730002,0.0041782334446907,0.0393098555505275
1770453634685,0.071197509765625,-0.1610260009765625,-0.97186279296875,-0.012909673154354,0.0089402319863438,0.0364504195749759
1770453634695,0.070281982421875,-0.160980224609375,-0.9689483642578124,-0.0258190799504518,0.0164114646613597,0.0314993374049663
1770453634704,0.069122314453125,-0.162322998046875,-0.969390869140625,-0.0329960323870182,0.0187742207199335,0.0280705168843269
1770453634715,0.0693511962890625,-0.1622314453125,-0.97259521484375,-0.0374296642839908,0.020339360460639,0.0298724118620157
1770453634724,0.07171630859375,-0.1595611572265625,-0.9793243408203124,-0.0363313741981983,0.0160415507853031,0.0289807859808206
1770453634735,0.0707550048828125,-0.1608734130859375,-0.986602783203125,-0.028530977666378,0.0164468847215175,0.0256307944655418
1770453634745,0.06915283203125,-0.1582489013671875,-0.9934539794921876,-0.0143163548782467,0.0224302075803279,0.0269557181745767
1770453634755,0.0658416748046875,-0.1571807861328125,-1.0015106201171875,0.0059481700882315,0.0189401358366012,0.0225183591246604
1770453634765,0.0661163330078125,-0.1566314697265625,-1.0049896240234375,0.0219657532870769,0.0122111262753605,0.0200264379382133
1770453634775,0.06689453125,-0.1565704345703125,-1.0019378662109375,0.036847498267889,0.0037667751312255,0.0223934557288885
1770453634785,0.066986083984375,-0.1601715087890625,-0.9969329833984376,0.0450878478586673,0.004333761986345,0.0225796103477478
1770453634795,0.0711669921875,-0.1629791259765625,-0.990325927734375,0.0480777807533741,0.0043694484047591,0.0223902612924575
1770453634805,0.075469970703125,-0.1664581298828125,-0.98468017578125,0.0455499067902565,0.0050402986817061,0.0268097762018442
1770453634815,0.0789031982421875,-0.170196533203125,-0.976776123046875,0.042509377002716,0.0072986590676009,0.0301991812884807
1770453634825,0.0809173583984375,-0.1715850830078125,-0.9727630615234376,0.0339020416140556,0.0112302843481302,0.0403551459312438
1770453634835,0.0805511474609375,-0.168304443359375,-0.967193603515625,0.02399268373847,0.0180280022323131,0.041831336915493
1770453634846,0.0747528076171875,-0.1669158935546875,-0.9661407470703124,0.0128902317956089,0.0240901559591293,0.0424419976770877
1770453634855,0.07244873046875,-0.1635284423828125,-0.9699249267578124,0.0070235547609627,0.0302252806723117,0.0441869013011455
1770453634865,0.0672454833984375,-0.1636505126953125,-0.9732666015625,0.004407531581819,0.0285445600748062,0.0393772348761558
1770453634875,0.0658721923828125,-0.162811279296875,-0.9761962890625,0.0048914281651377,0.0264382660388946,0.0368727967143058
1770453634885,0.065338134765625,-0.1640625,-0.9764556884765624,0.0045524076558649,0.0230672359466552,0.0328479595482349
1770453634896,0.0656280517578125,-0.1615447998046875,-0.9756622314453124,0.0009187905816361,0.0228491239249706,0.0316838920116424
1770453634905,0.065032958984375,-0.1640777587890625,-0.975921630859375,-0.0030834078788757,0.0243988167494535,0.031000792980194
1770453634915,0.06744384765625,-0.1766510009765625,-0.9776763916015624,-0.006107959896326,0.0230137072503566,0.0337193459272384
1770453634925,0.0708160400390625,-0.17242431640625,-0.97821044921875,-0.0001816275907913,0.0093029541894793,0.0284569412469863
1770453634936,0.0655364990234375,-0.148834228515625,-0.9755401611328124,-0.001726527349092,-0.0074952007271349,0.009720005095005
1770453634946,0.0524444580078125,-0.146575927734375,-0.972442626953125,-0.0108385328203439,0.0030352047178894,-0.0098875183612108
1770453634956,0.0503082275390625,-0.1661834716796875,-0.9730224609375,-0.0048011466860771,0.017913220450282,-0.0140734743326902
1770453634966,0.0619354248046875,-0.1537933349609375,-0.973541259765625,-0.001120125525631,0.0088811097666621,-0.0285341721028089
1770453634976,0.0648956298828125,-0.1487274169921875,-0.9726715087890624,-0.0130252540111541,0.0223348662257194,-0.0382451228797435
1770453634986,0.0684356689453125,-0.1863555908203125,-0.977020263671875,-0.0280974153429269,0.0220112930983304,-0.0151672344654798
1770453634996,0.0930328369140625,-0.1998291015625,-0.9779052734375,-0.0287658683955669,0.0099485041573643,0.0116023272275924
1770453635006,0.1003875732421875,-0.169677734375,-0.9783477783203124,-0.0187294799834489,0.0115946047008037,0.0087130637839436
1770453635016,0.0749664306640625,-0.1351470947265625,-0.9775238037109376,-0.0078400801867246,0.0141445808112621,-0.019246932119131
1770453635026,0.048553466796875,-0.139495849609375,-0.9774322509765624,-0.0025220136158168,0.000548078562133,-0.0410233326256275
1770453635036,0.0484161376953125,-0.1498260498046875,-0.984710693359375,-0.0011078750248998,-0.008593488484621,-0.0486048199236393
1770453635046,0.0609283447265625,-0.1580810546875,-0.991455078125,0.0069029135629534,-0.0128628015518188,-0.0522264540195465
1770453635056,0.0780792236328125,-0.1673431396484375,-0.9905242919921876,0.0144654922187328,-0.0138479052111506,-0.0451791957020759
1770453635066,0.0877685546875,-0.17645263671875,-0.981201171875,0.0064549697563052,-0.0132982283830642,-0.0288825146853923
1770453635076,0.089752197265625,-0.18035888671875,-0.9685821533203124,-0.0160865578800439,-0.0021097562275826,-0.0091194622218608
1770453635086,0.0902862548828125,-0.177001953125,-0.9601593017578124,-0.0427732951939106,0.0183952525258064,0.0080640520900487
1770453635096,0.0882720947265625,-0.1732025146484375,-0.96343994140625,-0.0548035949468612,0.0305587071925401,0.0136241996660828
1770453635106,0.084320068359375,-0.1680450439453125,-0.9716949462890624,-0.0582902058959007,0.0279413536190986,0.0123594645410776
1770453635116,0.0801849365234375,-0.1612548828125,-0.980377197265625,-0.0490120165050029,0.0192322842776775,0.0077556576579809
1770453635126,0.07476806640625,-0.158172607421875,-0.9866943359375,-0.0331028252840042,0.0170578137040138,0.0003704456903506
1770453635136,0.0710296630859375,-0.1602630615234375,-0.98785400390625,-0.0188615713268518,0.0122952824458479,-0.0036706349346786
1770453635146,0.072784423828125,-0.1626434326171875,-0.986175537109375,-0.0078099863603711,0.0105724828317761,-0.0034189661964774
1770453635157,0.074859619140625,-0.1661224365234375,-0.987945556640625,0.0029137644451111,0.0060147494077682,-0.0014458301011472
1770453635167,0.07452392578125,-0.1673431396484375,-0.9881134033203124,0.0073300846852362,0.0017867147689685,-0.0007664577569812
1770453635177,0.0720977783203125,-0.1715087890625,-0.990234375,0.0119746373966336,0.0034354778472334,0.0025254755746573
1770453635187,0.0736846923828125,-0.178985595703125,-0.9896087646484376,0.012558402493596,0.0045196507126092,0.0046884948387742
1770453635197,0.0771331787109375,-0.1679534912109375,-0.9862060546875,0.0148814776912331,0.0029656961560249,0.0028184233233332
1770453635207,0.071502685546875,-0.1604766845703125,-0.9835205078125,0.0135727999731898,0.0047521446831524,-0.0081751057878136
1770453635217,0.063232421875,-0.15826416015625,-0.9807586669921876,0.014231932349503,0.0048847701400518,-0.0214328542351722
1770453635227,0.06097412109375,-0.1585845947265625,-0.9773712158203124,0.0102691492065787,0.0002924150903709,-0.0298290010541677
1770453635237,0.0687103271484375,-0.1619110107421875,-0.974945068359375,0.0046855653636157,0.001994707621634,-0.0338977798819541
1770453635247,0.0782470703125,-0.1634063720703125,-0.9751739501953124,-0.0011518171522766,0.0037744981236755,-0.0335257351398468
1770453635257,0.082763671875,-0.168792724609375,-0.9741668701171876,-0.0062427157536149,0.0120526682585477,-0.0288606770336627
1770453635267,0.0844573974609375,-0.1697845458984375,-0.9732666015625,-0.0068054418079555,0.0097636813297867,-0.0243127960711717
1770453635277,0.0835723876953125,-0.1702117919921875,-0.9772186279296876,-0.0049779806286096,0.0056086173281073,-0.0160063970834016
1770453635287,0.0838775634765625,-0.1735992431640625,-0.9787750244140624,-0.0060930461622774,0.0024591628462076,-0.0111961951479315
1770453635297,0.0830230712890625,-0.1755828857421875,-0.979522705078125,-0.0088366344571113,0.0002894856152124,-0.0042951460927724
1770453635307,0.0843963623046875,-0.1749725341796875,-0.9769287109375,-0.0153155727311968,0.0073202308267354,0.0014117417158558
1770453635317,0.08551025390625,-0.174102783203125,-0.971435546875,-0.0208818465471267,0.0156809594482183,0.0046837013214826
1770453635327,0.084259033203125,-0.170501708984375,-0.973907470703125,-0.0269141718745231,0.0190554503351449,0.0069588399492204
1770453635337,0.079986572265625,-0.1692047119140625,-0.97686767578125,-0.0287616066634655,0.0223098322749137,0.004169178660959
1770453635347,0.0757598876953125,-0.1680755615234375,-0.9795379638671876,-0.024735439568758,0.0195523966103792,0.0005339637864381
1770453635358,0.0738372802734375,-0.1670684814453125,-0.986968994140625,-0.0182911232113838,0.0153864128515124,-0.0044770399108529
1770453635368,0.073760986328125,-0.166259765625,-0.9900054931640624,-0.0096510294824838,0.0048256479203701,-0.0077671092003583
1770453635378,0.0736541748046875,-0.166717529296875,-0.9857940673828124,-0.0026908579748123,0.0013680658303201,-0.01140658557415
1770453635388,0.0736236572265625,-0.166534423828125,-0.9837799072265624,0.0024162861518561,0.0005134574603289,-0.0148633681237697
1770453635398,0.0726776123046875,-0.1646270751953125,-0.9814910888671876,0.0008367652189917,0.0032256206031888,-0.0201406888663768
1770453635408,0.07098388671875,-0.1642303466796875,-0.9775543212890624,-0.001054611755535,0.002836799249053,-0.0235793609172105
1770453635418,0.072540283203125,-0.1654052734375,-0.9776153564453124,-0.0043995422311127,0.0018138790037482,-0.0267072450369596
1770453635428,0.0744781494140625,-0.166839599609375,-0.976898193359375,-0.0064142234623432,0.0026282735634595,-0.0248060133308172
1770453635438,0.0765838623046875,-0.1707305908203125,-0.97894287109375,-0.0058147460222244,-0.0005012069013901,-0.0246201250702142
1770453635448,0.0788726806640625,-0.171173095703125,-0.9775390625,-0.0058522964827716,-0.0027108315844088,-0.0221745446324348
1770453635458,0.082122802734375,-0.1692352294921875,-0.9789276123046876,-0.0039145806804299,-0.0010623349808156,-0.0190107095986604
1770453635468,0.0822296142578125,-0.168426513671875,-0.9777984619140624,-0.0029814087320119,-0.0079015986993908,-0.0160394199192523
1770453635478,0.084259033203125,-0.1677703857421875,-0.9768524169921876,-0.0066384617239236,-0.0080677801743149,-0.0144710848107934
1770453635488,0.0833587646484375,-0.1675567626953125,-0.9743194580078124,-0.009746104478836,-0.0023169501218944,-0.0141906533390283
1770453635498,0.08056640625,-0.162811279296875,-0.976715087890625,-0.0049958238378167,0.0082387551665306,-0.010113620199263
1770453635508,0.0766754150390625,-0.1595001220703125,-0.98052978515625,0.0097373155876994,0.0165672581642866,-0.0122561333701014
1770453635518,0.0697021484375,-0.1557769775390625,-0.9846954345703124,0.029527798295021,0.0160159841179847,-0.0219902526587247
1770453635528,0.0653839111328125,-0.1538238525390625,-0.98968505859375,0.0550384856760501,0.016995495185256,-0.031851939857006
1770453635538,0.0645904541015625,-0.1563568115234375,-0.9903411865234376,0.0708803012967109,0.0252315867692232,-0.0323427580296993
1770453635548,0.074310302734375,-0.168212890625,-0.981597900390625,0.0858659073710441,0.040504015982151,-0.0239812321960926
1770453635558,0.09014892578125,-0.1635894775390625,-0.974700927734375,0.092453233897686,0.0261607635766267,-0.0149653675034642
1770453635569,0.091705322265625,-0.15704345703125,-0.9653778076171876,0.0791936218738555,0.0071495221927762,-0.0098044276237487
1770453635579,0.0847015380859375,-0.175872802734375,-0.959503173828125,0.0518589355051517,0.002192314248532,-0.0023028354626148
1770453635589,0.0894622802734375,-0.2097930908203125,-0.9513397216796876,0.0202762428671121,-0.0018759306985884,0.0222049038857221
1770453635599,0.1052398681640625,-0.208465576171875,-0.93603515625,-0.0373729392886161,-0.0246203914284706,0.0369668044149875
1770453635609,0.115142822265625,-0.2087249755859375,-0.9210052490234376,-0.1240284740924835,-0.0247471574693918,0.0516528077423572
1770453635619,0.107330322265625,-0.24072265625,-0.91326904296875,-0.2203885614871978,-0.0251615457236766,0.0851628333330154
1770453635629,0.1077423095703125,-0.2411956787109375,-0.915557861328125,-0.2978886663913727,-0.0291972998529672,0.1029591411352157
1770453635639,0.087554931640625,-0.1822967529296875,-0.93292236328125,-0.3348227441310882,-0.0139930471777915,0.0693471133708953
1770453635649,0.03570556640625,-0.12371826171875,-0.9535369873046876,-0.3344794511795044,0.0121711790561676,0.0036602485924959
1770453635659,-0.0041656494140625,-0.11328125,-0.984649658203125,-0.3160993754863739,0.0161227770149707,-0.0625225007534027
1770453635669,-0.0063934326171875,-0.1096649169921875,-1.017242431640625,-0.2695401310920715,0.0143083650618791,-0.1135827526450157
1770453635680,0.00433349609375,-0.11871337890625,-1.0526275634765625,-0.1839458644390106,0.0111655695363879,-0.1506414413452148
1770453635689,0.02716064453125,-0.129608154296875,-1.0826416015625,-0.0811031088232994,-0.0121509386226534,-0.1632112860679626
1770453635699,0.0494232177734375,-0.1335906982421875,-1.088043212890625,0.0181923191994428,-0.0363873019814491,-0.1648350208997726
1770453635709,0.057037353515625,-0.142547607421875,-1.0735321044921875,0.0966493114829063,-0.0466282218694686,-0.16420279443264
1770453635719,0.05902099609375,-0.1435394287109375,-1.0465850830078125,0.1484898775815963,-0.057819090783596,-0.1586628854274749
1770453635729,0.0621337890625,-0.143218994140625,-1.0106964111328125,0.1643929332494735,-0.0663904771208763,-0.1584618091583252
1770453635739,0.070037841796875,-0.14892578125,-0.97265625,0.1427915096282959,-0.067217119038105,-0.1608674526214599
1770453635749,0.079925537109375,-0.154144287109375,-0.9362335205078124,0.0942676439881324,-0.0670291036367416,-0.1593646258115768
1770453635759,0.085601806640625,-0.1615753173828125,-0.910614013671875,0.0292143449187278,-0.063052199780941,-0.1527450680732727
1770453635770,0.085479736328125,-0.1684417724609375,-0.8995513916015625,-0.0347899384796619,-0.0515105947852134,-0.1476517766714096
1770453635780,0.0787353515625,-0.170806884765625,-0.91070556640625,-0.0876536890864372,-0.0399575345218181,-0.1458227187395095
1770453635789,0.071136474609375,-0.16912841796875,-0.931549072265625,-0.1162554994225502,-0.0459517799317836,-0.1499066799879074
1770453635800,0.071533203125,-0.164398193359375,-0.9581146240234376,-0.1339117288589477,-0.057155430316925,-0.1560431271791458
1770453635810,0.0697021484375,-0.1628570556640625,-0.982208251953125,-0.1411707103252411,-0.0622378066182136,-0.1612125933170318
1770453635820,0.073883056640625,-0.16802978515625,-0.997833251953125,-0.1415012031793594,-0.067718856036663,-0.1619582772254943
1770453635830,0.0751800537109375,-0.1540069580078125,-1.0089569091796875,-0.1310957074165344,-0.0692405924201011,-0.1663250625133514
1770453635840,0.069854736328125,-0.1439056396484375,-1.0185546875,-0.1050896644592285,-0.0631826967000961,-0.1768442839384079
1770453635850,0.0613861083984375,-0.13763427734375,-1.0276947021484375,-0.0665326863527298,-0.0565303862094879,-0.1926277726888656
1770453635860,0.0553741455078125,-0.1345672607421875,-1.0332489013671875,-0.0201151221990585,-0.0557500794529914,-0.2097963690757751
1770453635870,0.0552520751953125,-0.138397216796875,-1.0384674072265625,0.0215545613318681,-0.0696581751108169,-0.2227720916271209
1770453635880,0.0639801025390625,-0.1466827392578125,-1.0373077392578125,0.0612023696303367,-0.0793446227908134,-0.2262784093618393
1770453635890,0.0696258544921875,-0.1554718017578125,-1.02593994140625,0.0967901945114135,-0.0861580520868301,-0.2222216129302978
1770453635900,0.073150634765625,-0.1611328125,-1.0122222900390625,0.1291902065277099,-0.0856078416109085,-0.2143746167421341
1770453635910,0.0687713623046875,-0.15802001953125,-0.9995269775390624,0.1590154767036438,-0.0763509646058082,-0.2132161408662796
1770453635920,0.0592803955078125,-0.1570892333984375,-0.99273681640625,0.1764298975467682,-0.0824586600065231,-0.2184567004442215
1770453635930,0.0523223876953125,-0.1573028564453125,-0.986480712890625,0.1873664259910583,-0.0966274738311767,-0.231210321187973
1770453635940,0.0451202392578125,-0.156951904296875,-0.980224609375,0.1884215772151947,-0.111641839146614,-0.2455021739006042
1770453635950,0.0385589599609375,-0.159942626953125,-0.966796875,0.1728492677211761,-0.1323513835668563,-0.2616086900234222
1770453635961,0.03411865234375,-0.162628173828125,-0.9460601806640624,0.1357149481773376,-0.1493825614452362,-0.2788923382759094
1770453635970,0.031036376953125,-0.1623077392578125,-0.922943115234375,0.0741075202822685,-0.160690352320671,-0.2938262820243835
1770453635981,0.02838134765625,-0.1629180908203125,-0.9005279541015625,-0.0085327681154012,-0.1493482142686844,-0.3059852123260498
1770453635990,0.0285797119140625,-0.15606689453125,-0.8831939697265625,-0.1048952564597129,-0.1309960931539535,-0.3145816326141357
1770453636001,0.0297088623046875,-0.1508636474609375,-0.8777923583984375,-0.1934141963720321,-0.1017428711056709,-0.32195645570755
1770453636011,0.0295867919921875,-0.1461334228515625,-0.8928070068359375,-0.260164201259613,-0.0804295912384986,-0.3315846025943756
1770453636021,0.0321197509765625,-0.1415252685546875,-0.9262237548828124,-0.292999118566513,-0.0670711770653724,-0.3410473465919494
1770453636031,0.0331573486328125,-0.135589599609375,-0.9698944091796876,-0.2866754531860351,-0.060105413198471,-0.3542510271072387
1770453636041,0.0338134765625,-0.1324005126953125,-1.01287841796875,-0.2483152747154235,-0.0770380571484565,-0.3634693026542663
1770453636051,0.0404815673828125,-0.1253204345703125,-1.0401611328125,-0.1915081739425659,-0.0904792994260788,-0.3698195815086365
1770453636061,0.0493927001953125,-0.116180419921875,-1.0525360107421875,-0.1273299902677536,-0.0932428613305091,-0.3756809532642364
1770453636071,0.059783935546875,-0.12066650390625,-1.0502777099609375,-0.0696954578161239,-0.0996264591813087,-0.3693152070045471
1770453636081,0.076629638671875,-0.1254425048828125,-1.0420074462890625,-0.0213564205914735,-0.1044342666864395,-0.3525836169719696
1770453636092,0.091156005859375,-0.1353607177734375,-1.0382080078125,0.0198498703539371,-0.1136466711759567,-0.3283403217792511
1770453636101,0.1021881103515625,-0.1470794677734375,-1.0319671630859375,0.0514661185443401,-0.1282330751419067,-0.300515353679657
1770453636111,0.1056060791015625,-0.1568145751953125,-1.015655517578125,0.062973640859127,-0.1404346078634262,-0.2757825851440429
1770453636121,0.1013031005859375,-0.161529541015625,-0.996551513671875,0.0521918311715126,-0.142928659915924,-0.2525891065597534
1770453636131,0.0976715087890625,-0.1622161865234375,-0.978271484375,0.0204818397760391,-0.1400436609983444,-0.23026143014431
1770453636141,0.090789794921875,-0.1602935791015625,-0.9676971435546876,-0.0189135037362575,-0.1325298100709915,-0.2102989107370376
1770453636151,0.078948974609375,-0.1523590087890625,-0.96990966796875,-0.0543841458857059,-0.1186696588993072,-0.2024505734443664
1770453636161,0.06268310546875,-0.149261474609375,-0.9842529296875,-0.0817984566092491,-0.1090612411499023,-0.2028873264789581
1770453636171,0.0547637939453125,-0.15460205078125,-1.0035858154296875,-0.0937632396817207,-0.1033365055918693,-0.2021102160215377
1770453636181,0.047943115234375,-0.1363372802734375,-1.02264404296875,-0.0692730769515037,-0.0972503870725631,-0.211053654551506
1770453636191,0.03118896484375,-0.09613037109375,-1.0360260009765625,-0.0210086125880479,-0.0905229747295379,-0.2337914556264877
1770453636202,0.0086669921875,-0.0785369873046875,-1.051239013671875,0.0414526350796222,-0.084554299712181,-0.2677867114543915
1770453636211,0.0037689208984375,-0.0847015380859375,-1.063995361328125,0.1351551562547683,-0.0716824457049369,-0.2784428000450134
1770453636222,0.0086822509765625,-0.0787200927734375,-1.070953369140625,0.239805668592453,-0.0733282789587974,-0.2955043613910675
1770453636232,0.0135650634765625,-0.072784423828125,-1.0729827880859375,0.3315497040748596,-0.0823510661721229,-0.3115054368972778
1770453636242,0.02752685546875,-0.1059722900390625,-1.0644989013671875,0.396485835313797,-0.1045999154448509,-0.2982751131057739
1770453636252,0.05108642578125,-0.1387939453125,-1.0306854248046875,0.432505339384079,-0.1316775977611541,-0.2716485559940338
1770453636262,0.0706939697265625,-0.1327667236328125,-0.985565185546875,0.4385454058647156,-0.1400524377822876,-0.2599844336509704
1770453636272,0.0657501220703125,-0.108184814453125,-0.9383544921875,0.4109268188476562,-0.1391150057315826,-0.2688900530338287
1770453636282,0.04718017578125,-0.1140594482421875,-0.898406982421875,0.3412316143512726,-0.1412559300661087,-0.2813424468040466
1770453636292,0.0465240478515625,-0.1379241943359375,-0.87847900390625,0.2395545393228531,-0.1404519230127334,-0.2750771045684814
1770453636302,0.0594940185546875,-0.161956787109375,-0.873992919921875,0.1236961111426353,-0.1274919062852859,-0.2580153048038482
1770453636312,0.07708740234375,-0.1842193603515625,-0.87823486328125,0.0114191016182303,-0.1068609356880188,-0.2311679720878601
1770453636322,0.088653564453125,-0.1917572021484375,-0.88446044921875,-0.0873823091387748,-0.0991750508546829,-0.2038833498954773
1770453636332,0.0847625732421875,-0.1898345947265625,-0.8895721435546875,-0.1713938564062118,-0.0800082832574844,-0.1715203523635864
1770453636342,0.0733795166015625,-0.17608642578125,-0.9025421142578124,-0.2328572124242782,-0.0520075410604476,-0.1509085595607757
1770453636352,0.0610504150390625,-0.1591033935546875,-0.925750732421875,-0.2692328095436096,-0.0401476845145225,-0.1362510472536087
1770453636362,0.0534210205078125,-0.1402435302734375,-0.9592437744140624,-0.2706876993179321,-0.0377460457384586,-0.134708285331726
1770453636372,0.045562744140625,-0.12652587890625,-0.99560546875,-0.2431332916021347,-0.0369284562766552,-0.1421749889850616
1770453636382,0.0384674072265625,-0.116912841796875,-1.0262603759765625,-0.1931715905666351,-0.0423834100365638,-0.1502851098775863
1770453636392,0.037200927734375,-0.1140899658203125,-1.0482330322265625,-0.1329908072948455,-0.0419538430869579,-0.1517626345157623
1770453636402,0.0360870361328125,-0.1170196533203125,-1.0647735595703125,-0.0670277699828147,-0.0516352318227291,-0.1520521193742752
1770453636414,0.0421142578125,-0.126861572265625,-1.07208251953125,-0.0005411543534137,-0.0710459500551223,-0.1451481431722641
1770453636422,0.054443359375,-0.1399078369140625,-1.066131591796875,0.0543266199529171,-0.0847612246870994,-0.1293143182992935
1770453636433,0.065765380859375,-0.1528472900390625,-1.048797607421875,0.0871040076017379,-0.0865588635206222,-0.1070191264152526
1770453636443,0.073394775390625,-0.16973876953125,-1.025421142578125,0.1024976149201393,-0.0788681805133819,-0.0811545103788375
1770453636453,0.0801239013671875,-0.1680908203125,-1.00537109375,0.1018978655338287,-0.072142906486988,-0.0601147376000881
1770453636463,0.0756683349609375,-0.15509033203125,-0.9879913330078124,0.0913315117359161,-0.0623067840933799,-0.051746018230915
1770453636473,0.0611724853515625,-0.1457061767578125,-0.981719970703125,0.0815166980028152,-0.0474660508334636,-0.0525082163512706
1770453636483,0.04705810546875,-0.1367340087890625,-0.982452392578125,0.0803403779864311,-0.0366845093667507,-0.0541335418820381
1770453636493,0.039886474609375,-0.1312713623046875,-0.989898681640625,0.0862224996089935,-0.0316870883107185,-0.0533737428486347
1770453636503,0.0371551513671875,-0.1270599365234375,-0.997406005859375,0.0979745015501976,-0.0278875567018985,-0.0532768033444881
1770453636513,0.034149169921875,-0.1271514892578125,-1.000152587890625,0.1144541427493095,-0.0172277223318815,-0.051026165485382
1770453636523,0.0319061279296875,-0.1277923583984375,-1.0013885498046875,0.1323111653327942,-0.0147536462172865,-0.0436995439231395
1770453636533,0.034576416015625,-0.1285552978515625,-0.9960174560546876,0.146257609128952,-0.0191017892211675,-0.0336730070412159
1770453636543,0.0410003662109375,-0.1298370361328125,-0.9852447509765624,0.145601138472557,-0.017993913963437,-0.0238752383738756
1770453636553,0.0425567626953125,-0.1352691650390625,-0.9713592529296876,0.135214552283287,-0.0088028125464916,-0.0160902868956327
1770453636563,0.04522705078125,-0.13946533203125,-0.95416259765625,0.1129784807562828,-0.004923119675368,-0.0079183764755725
1770453636573,0.051422119140625,-0.148590087890625,-0.940582275390625,0.0783464685082435,-0.0043995422311127,0.0072943982668221
1770453636583,0.0623931884765625,-0.1529388427734375,-0.9271392822265624,0.0325004197657108,0.0011603393359109,0.0238957460969686
1770453636593,0.06597900390625,-0.1584625244140625,-0.922027587890625,-0.0184834022074937,0.0175228007137775,0.0443054139614105
1770453636603,0.0689697265625,-0.164947509765625,-0.923431396484375,-0.0668128505349159,0.0291048884391784,0.0635978877544403
1770453636613,0.070068359375,-0.1693572998046875,-0.9340667724609376,-0.1085581704974174,0.0235729701817035,0.0801401063799858
1770453636623,0.06536865234375,-0.1735382080078125,-0.9438934326171876,-0.1434509009122848,0.0077242325060069,0.1040105521678924
1770453636634,0.063873291015625,-0.175811767578125,-0.952911376953125,-0.1777585446834564,0.0067396615631878,0.1199458464980125
1770453636643,0.0554351806640625,-0.1737823486328125,-0.96368408203125,-0.2013245970010757,0.0074842814356088,0.1301880925893783
1770453636654,0.04779052734375,-0.1686859130859375,-0.97265625,-0.2179195433855056,0.013319001533091,0.1365112364292144
1770453636664,0.0448150634765625,-0.1600341796875,-0.9852142333984376,-0.2249556183815002,0.0225503165274858,0.1443417370319366
1770453636674,0.042144775390625,-0.153289794921875,-1.0029754638671875,-0.2211401015520095,0.0334157459437847,0.1475074291229248
1770453636684,0.035400390625,-0.1502227783203125,-1.02362060546875,-0.1960334181785583,0.0376182161271572,0.1439710259437561
1770453636694,0.0311737060546875,-0.1464996337890625,-1.0445709228515625,-0.1527884751558303,0.0387047864496707,0.1457992792129516
1770453636704,0.0290679931640625,-0.137237548828125,-1.0599822998046875,-0.0907799676060676,0.0395913496613502,0.1389416456222534
1770453636715,0.0228424072265625,-0.132965087890625,-1.066375732421875,-0.0222294051200151,0.0378235466778278,0.1309359073638916
1770453636724,0.018707275390625,-0.131134033203125,-1.069580078125,0.0558009482920169,0.0339539721608161,0.1164062395691871
1770453636734,0.021728515625,-0.129150390625,-1.0664215087890625,0.1306688040494918,0.0266190934926271,0.1077874526381492
1770453636744,0.0261993408203125,-0.1342315673828125,-1.0542144775390625,0.1957527250051498,0.0210413690656423,0.1032033488154411
1770453636754,0.0348358154296875,-0.14361572265625,-1.0392303466796875,0.2437460869550705,0.0172572843730449,0.1076279282569885
1770453636764,0.0394287109375,-0.1481170654296875,-1.0203094482421875,0.2755735218524933,0.0169957615435123,0.1142333671450614
1770453636774,0.03826904296875,-0.149139404296875,-0.9985504150390624,0.289077877998352,0.0212131440639495,0.1149843782186508
1770453636784,0.0339202880859375,-0.158477783203125,-0.9777374267578124,0.2827984094619751,0.0231428705155849,0.1210531890392303
1770453636794,0.0358734130859375,-0.1712646484375,-0.9567718505859376,0.2638691961765289,0.0229953303933143,0.1281236112117767
1770453636804,0.0382537841796875,-0.1571502685546875,-0.9345550537109376,0.2338109016418457,0.0055327173322439,0.1317186206579208
1770453636814,0.03125,-0.138214111328125,-0.9138336181640624,0.182848110795021,0.0011973571963608,0.1194576844573021
1770453636824,0.0159912109375,-0.150054931640625,-0.9057769775390624,0.1209549158811569,0.0270806197077035,0.1173298209905624
1770453636834,0.0133514404296875,-0.1709747314453125,-0.9069366455078124,0.0651795342564582,0.0415897890925407,0.1186310425400734
1770453636844,0.0195159912109375,-0.1632537841796875,-0.907867431640625,0.0054043526761233,0.0323241166770458,0.1093587130308151
1770453636854,0.01947021484375,-0.1696014404296875,-0.912506103515625,-0.059485163539648,0.0384720265865325,0.1104623302817344
1770453636865,0.0235595703125,-0.2030792236328125,-0.91259765625,-0.1333916187286377,0.0235250331461429,0.1360699534416198
1770453636874,0.0474090576171875,-0.2081146240234375,-0.910064697265625,-0.1962392777204513,0.019940685480833,0.1554311364889145
1770453636885,0.0496826171875,-0.1743927001953125,-0.913787841796875,-0.2402530759572982,0.0366381704807281,0.1389514952898025
1770453636895,0.0239105224609375,-0.1430816650390625,-0.9202728271484376,-0.2696509063243866,0.0402845740318298,0.1088860034942627
1770453636905,0.000946044921875,-0.1432342529296875,-0.9356231689453124,-0.2889716327190399,0.0336370542645454,0.0812322720885276
1770453636915,-0.003204345703125,-0.152557373046875,-0.965118408203125,-0.2899737656116485,0.0232944041490554,0.0678022131323814
1770453636925,0.0099334716796875,-0.1575927734375,-0.9926910400390624,-0.2755516767501831,0.0125498799607157,0.0673843696713447
1770453636935,0.026824951171875,-0.162200927734375,-1.00604248046875,-0.2589205205440521,0.0028027107473462,0.074729099869728
1770453636945,0.03948974609375,-0.165435791015625,-1.007843017578125,-0.2470036596059799,0.0058749332092702,0.0922550931572914
1770453636955,0.0431060791015625,-0.1636505126953125,-1.0034942626953125,-0.2413226068019867,0.0272444039583206,0.1151662692427635
1770453636965,0.0458526611328125,-0.159027099609375,-1.00848388671875,-0.2284534126520156,0.048702023923397,0.1332920044660568
1770453636975,0.0453643798828125,-0.1535797119140625,-1.0238037109375,-0.2020465731620788,0.0506964661180973,0.1398369967937469
1770453636985,0.0462493896484375,-0.1501312255859375,-1.0374755859375,-0.1641931980848312,0.0414981730282306,0.1400444507598877
1770453636995,0.04583740234375,-0.1468963623046875,-1.045501708984375,-0.1204531788825988,0.0297107566148042,0.1384894400835037
1770453637005,0.0496673583984375,-0.1479339599609375,-1.0439453125,-0.0808202773332595,0.0236288961023092,0.1424639374017715
1770453637015,0.0547027587890625,-0.153778076171875,-1.03692626953125,-0.0473584607243537,0.0289533548057079,0.1502643376588821
1770453637025,0.0571746826171875,-0.1589508056640625,-1.0273590087890625,-0.0181688833981752,0.0363076739013195,0.1635002493858337
1770453637035,0.054656982421875,-0.1604461669921875,-1.021240234375,0.0079023977741599,0.040029440075159,0.1704809218645095
1770453637045,0.0496978759765625,-0.160369873046875,-1.0183258056640625,0.0310849491506814,0.031951542943716,0.179448053240776
1770453637055,0.0464324951171875,-0.165069580078125,-1.012725830078125,0.0489185415208339,0.038792934268713,0.1858159452676773
1770453637066,0.0381927490234375,-0.1624603271484375,-1.00732421875,0.0617432594299316,0.0344668962061405,0.1850244402885437
1770453637075,0.02984619140625,-0.150665283203125,-0.99737548828125,0.0737184286117553,0.0275663807988166,0.1782288551330566
1770453637086,0.0173492431640625,-0.142303466796875,-0.9914093017578124,0.0779986605048179,0.0316647179424762,0.1643255650997162
1770453637096,0.00250244140625,-0.136077880859375,-0.9882354736328124,0.0785693749785423,0.0347822159528732,0.1454599946737289
1770453637106,-0.003143310546875,-0.1368408203125,-0.982574462890625,0.0724750012159347,0.0284090042114257,0.1239365935325622
1770453637116,-0.0028228759765625,-0.1368865966796875,-0.9794464111328124,0.0638591423630714,0.0292457696050405,0.0971883311867713
1770453637126,-0.0020599365234375,-0.1389923095703125,-0.974761962890625,0.052404087036848,0.0226611029356718,0.0734758153557777
1770453637136,0.00469970703125,-0.146759033203125,-0.9630889892578124,0.0334242694079875,0.0122516062110662,0.0596963539719581
1770453637146,0.017608642578125,-0.1480560302734375,-0.953826904296875,0.0091309137642383,0.015622635371983,0.0572012364864349
1770453637156,0.02508544921875,-0.1481475830078125,-0.946990966796875,-0.0190051160752773,0.027146665379405,0.0554360933601856
1770453637166,0.0284881591796875,-0.1511383056640625,-0.94537353515625,-0.0430563911795616,0.0383889339864254,0.0572723448276519
1770453637176,0.0345611572265625,-0.153411865234375,-0.9530487060546876,-0.0564755275845527,0.0426121763885021,0.0584550537168979
1770453637186,0.037933349609375,-0.15289306640625,-0.9627227783203124,-0.0600548163056373,0.0463512539863586,0.0629166439175605
1770453637196,0.039337158203125,-0.15093994140625,-0.97418212890625,-0.0586731657385826,0.0355100557208061,0.0666370838880539
1770453637206,0.039886474609375,-0.1504669189453125,-0.97802734375,-0.0560209229588508,0.0274404119700193,0.0670498758554458
1770453637216,0.04083251953125,-0.14862060546875,-0.97650146484375,-0.0593046024441719,0.0288518872112035,0.073203906416893
1770453637226,0.0423431396484375,-0.1463623046875,-0.9758453369140624,-0.0656019151210784,0.0334048271179199,0.0736302807927131
1770453637236,0.0435333251953125,-0.1456756591796875,-0.9749908447265624,-0.0705785602331161,0.0387093126773834,0.0797219946980476
1770453637246,0.0477294921875,-0.14312744140625,-0.977386474609375,-0.0707476735115051,0.0494224093854427,0.0846562981605529
1770453637256,0.044891357421875,-0.1405029296875,-0.990234375,-0.0602633394300937,0.0546968020498752,0.0880986973643302
1770453637267,0.04193115234375,-0.1389007568359375,-1.002197265625,-0.0408441014587879,0.0503888726234436,0.0884640887379646
1770453637276,0.0416107177734375,-0.1361846923828125,-1.0110931396484375,-0.0171515569090843,0.0434747710824012,0.0876254588365554
1770453637287,0.0400543212890625,-0.134735107421875,-1.015380859375,0.0037124464288353,0.0369263254106044,0.0877106785774231
1770453637297,0.046234130859375,-0.1351318359375,-1.0127105712890625,0.0191065836697816,0.0336250700056552,0.0946213155984878
1770453637307,0.0478057861328125,-0.138671875,-1.006866455078125,0.0255120173096656,0.037117276340723,0.0957773923873901
1770453637317,0.0497894287109375,-0.1412506103515625,-0.9964752197265624,0.0285621359944343,0.0448297895491123,0.1043016389012336
1770453637327,0.0526275634765625,-0.14306640625,-0.9868621826171876,0.0245610028505325,0.0475238412618637,0.1126450523734092
1770453637337,0.0549468994140625,-0.143524169921875,-0.9784088134765624,0.0149320773780345,0.0539095699787139,0.1206976547837257
1770453637347,0.0553741455078125,-0.1452789306640625,-0.970703125,0.0011592740193009,0.0614641606807708,0.1283667534589767
1770453637357,0.0572357177734375,-0.145751953125,-0.9673309326171876,-0.0136377811431884,0.0709021389484405,0.1376979500055313
1770453637367,0.055206298828125,-0.1452484130859375,-0.9692840576171876,-0.021123394370079,0.0811854004859924,0.1449428051710128
1770453637377,0.0518646240234375,-0.1475677490234375,-0.9781646728515624,-0.0239761732518672,0.0788439512252807,0.1482467204332351
1770453637387,0.0464019775390625,-0.148681640625,-0.984130859375,-0.0242169220000505,0.0681500285863876,0.1491460800170898
1770453637397,0.0439453125,-0.157379150390625,-0.985076904296875,-0.0294316578656435,0.0645502284169197,0.1532151252031326
1770453637407,0.0464630126953125,-0.1699371337890625,-0.9838714599609376,-0.043328832834959,0.0497936569154262,0.1634435206651687
1770453637417,0.0488128662109375,-0.1462554931640625,-0.968780517578125,-0.0580481216311454,0.0510551929473876,0.1587044298648834
1770453637427,0.0455169677734375,-0.1277923583984375,-0.96075439453125,-0.0860467329621315,0.0554488785564899,0.1513857990503311
1770453637437,0.0302886962890625,-0.1244964599609375,-0.9589385986328124,-0.1130357384681701,0.085439532995224,0.1342787146568298
1770453637447,0.01519775390625,-0.141143798828125,-0.9700927734375,-0.1228180676698684,0.1179207786917686,0.1145092695951461
1770453637457,0.0198822021484375,-0.1213531494140625,-0.983642578125,-0.1250921338796615,0.107297696173191,0.0904822275042533
1770453637467,0.025726318359375,-0.1123046875,-0.9953765869140624,-0.1289995312690735,0.1007303372025489,0.0806152150034904
1770453637477,0.0364532470703125,-0.149200439453125,-1.0043182373046875,-0.1368244290351867,0.1055240258574485,0.097697265446186
1770453637488,0.0633392333984375,-0.1664581298828125,-1.01300048828125,-0.1280439794063568,0.1036643460392952,0.1189120039343833
1770453637498,0.074554443359375,-0.1367340087890625,-1.0189208984375,-0.0939555242657661,0.0962429121136665,0.1154352501034736
1770453637508,0.0533294677734375,-0.1056671142578125,-1.018585205078125,-0.0526677370071411,0.083093024790287,0.0941762998700141
1770453637518,0.032470703125,-0.1075286865234375,-1.01470947265625,-0.0238017365336418,0.0795968249440193,0.0763576179742813
1770453637528,0.0312957763671875,-0.1226654052734375,-1.017791748046875,0.0030077740084379,0.0718257203698158,0.072183646261692
1770453637538,0.044097900390625,-0.132171630859375,-1.0200347900390625,0.0229702964425086,0.0701945349574089,0.076993316411972
1770453637548,0.0623626708984375,-0.1446990966796875,-1.017547607421875,0.0380192883312702,0.0723809897899627,0.0913693308830261
1770453637558,0.069976806640625,-0.1522216796875,-1.0073394775390625,0.0421882010996341,0.0731533095240593,0.111496701836586
1770453637568,0.0701446533203125,-0.1552581787109375,-0.9923248291015624,0.0330162718892097,0.0708089247345924,0.1322365999221801
1770453637578,0.0655975341796875,-0.156768798828125,-0.977447509765625,0.0160596594214439,0.0767621546983718,0.1487122476100921
1770453637588,0.0616607666015625,-0.1488800048828125,-0.9689178466796876,-0.0036546560004353,0.0836288481950759,0.1532369554042816
1770453637598,0.0583343505859375,-0.1371002197265625,-0.9649200439453124,-0.0186711568385362,0.085623025894165,0.1499892324209213
1770453637608,0.050506591796875,-0.125946044921875,-0.9655303955078124,-0.0295184776186943,0.082215242087841,0.1342488825321197
1770453637618,0.041961669921875,-0.119720458984375,-0.9660186767578124,-0.0399364978075027,0.0809760764241218,0.1144232451915741
1770453637628,0.0368804931640625,-0.120147705078125,-0.9688262939453124,-0.0480530112981796,0.0820525288581848,0.1026515439152717
1770453637638,0.0376434326171875,-0.1193389892578125,-0.977874755859375,-0.0499041751027107,0.0751919522881507,0.0944607257843017
1770453637648,0.0416107177734375,-0.1172637939453125,-0.982208251953125,-0.0498796738684177,0.068529263138771,0.0900156423449516
1770453637658,0.040679931640625,-0.1193389892578125,-0.987640380859375,-0.0486833825707435,0.0772393941879272,0.0866707116365432
1770453637668,0.044952392578125,-0.128997802734375,-0.99859619140625,-0.0320964157581329,0.0863849520683288,0.0873298421502113
1770453637678,0.051177978515625,-0.1298675537109375,-1.0107879638671875,-0.0041593248024582,0.0782950744032859,0.0858499258756637
1770453637688,0.0505523681640625,-0.1223602294921875,-1.0187530517578125,0.0228118393570184,0.0617461875081062,0.0824248343706131
1770453637699,0.0468597412109375,-0.120513916015625,-1.0206451416015625,0.0535862632095813,0.0521718561649322,0.07219909876585
1770453637708,0.0430450439453125,-0.119232177734375,-1.0175628662109375,0.0746553316712379,0.0359372273087501,0.0622687004506588
1770453637718,0.0514068603515625,-0.1239776611328125,-1.0030059814453125,0.0796359702944755,0.0264433249831199,0.062448464334011
1770453637729,0.063262939453125,-0.12884521484375,-0.989990234375,0.0719378367066383,0.0356466770172119,0.0645960345864296
1770453637739,0.0682220458984375,-0.1363677978515625,-0.97906494140625,0.0567530281841754,0.0399436876177787,0.0747184455394744
1770453637749,0.076263427734375,-0.14056396484375,-0.9707183837890624,0.0425386726856231,0.0458918586373329,0.0891972556710243
1770453637759,0.0754241943359375,-0.1411590576171875,-0.9745635986328124,0.0318974778056144,0.0481819100677967,0.1036590188741684
1770453637769,0.0704498291015625,-0.1421051025390625,-0.9777069091796876,0.0268987249583005,0.0459634959697723,0.1102711111307144
1770453637779,0.06939697265625,-0.1444091796875,-0.9793548583984376,0.0253868494182825,0.0353084541857242,0.1169684305787086
1770453637789,0.0663604736328125,-0.144500732421875,-0.97613525390625,0.0146194230765104,0.0317411497235298,0.1212169751524925
1770453637799,0.0621795654296875,-0.1439361572265625,-0.9676361083984376,-0.000429834210081,0.0383718907833099,0.1204984486103057
1770453637809,0.0605010986328125,-0.14080810546875,-0.96197509765625,-0.0201026052236557,0.0453847907483577,0.1224433556199073
1770453637819,0.055511474609375,-0.1374359130859375,-0.9599456787109376,-0.0351747646927833,0.0508634485304355,0.116519421339035
1770453637829,0.051605224609375,-0.132568359375,-0.962921142578125,-0.0470873527228832,0.0563008226454257,0.1069259196519851
1770453637839,0.048309326171875,-0.1331024169921875,-0.9728240966796876,-0.0518778450787067,0.0581684969365596,0.0961473062634468
1770453637849,0.0464935302734375,-0.12847900390625,-0.9849090576171876,-0.0470585897564888,0.0546869486570358,0.0825422778725624
1770453637859,0.0459442138671875,-0.129852294921875,-0.9978790283203124,-0.031130488961935,0.0475235767662525,0.0711681842803955
1770453637869,0.047882080078125,-0.133575439453125,-1.0029144287109375,-0.0177446417510509,0.0324860364198684,0.061953380703926
1770453637879,0.0495758056640625,-0.1370849609375,-1.0022735595703125,-0.005273325368762,0.0128998197615146,0.0503542497754097
1770453637889,0.05377197265625,-0.1375579833984375,-0.99261474609375,-0.0059889163821935,0.0085956184193491,0.0484482273459434
1770453637899,0.0583038330078125,-0.1356048583984375,-0.97613525390625,-0.0211660061031579,0.0180386546999216,0.046505182981491
1770453637909,0.060028076171875,-0.1355743408203125,-0.967803955078125,-0.0336724743247032,0.0342083051800727,0.0440734513103961
1770453637920,0.0612945556640625,-0.13165283203125,-0.968292236328125,-0.0419628955423831,0.0443365722894668,0.0438936874270439
1770453637930,0.062255859375,-0.1312103271484375,-0.9781036376953124,-0.0377622917294502,0.0458987802267074,0.0426244251430034
1770453637940,0.06268310546875,-0.1277923583984375,-0.9854583740234376,-0.029390113428235,0.0478500798344612,0.0403066761791706
1770453637950,0.0619659423828125,-0.1272125244140625,-0.9918975830078124,-0.0177758019417524,0.0416228100657463,0.0371913090348243
1770453637960,0.061859130859375,-0.1309814453125,-0.9969482421875,-0.0060216733254492,0.0341475829482078,0.035437885671854
1770453637970,0.0650177001953125,-0.135406494140625,-0.9979248046875,0.0066504459828138,0.0246259849518537,0.0352871492505073
1770453637980,0.069427490234375,-0.1367340087890625,-0.9920501708984376,0.0092278532683849,0.0214680079370737,0.0385921336710453
1770453637990,0.0701904296875,-0.1370391845703125,-0.981353759765625,0.0008064051507972,0.0289237927645444,0.0394267663359642
1770453638000,0.07098388671875,-0.1412811279296875,-0.9749755859375,-0.0166311748325824,0.0456923879683017,0.0479326397180557
1770453638010,0.073211669921875,-0.1490936279296875,-0.9781951904296876,-0.024115988984704,0.0492679476737976,0.056505087763071
1770453638020,0.0731048583984375,-0.1416473388671875,-0.985107421875,-0.0209638718515634,0.0377449803054332,0.056429985910654
1770453638030,0.0631256103515625,-0.1232147216796875,-0.9882659912109376,-0.0171555504202842,0.0270457323640584,0.0453054308891296
1770453638040,0.0460205078125,-0.1197662353515625,-0.9929656982421876,-0.016997892409563,0.0345052480697631,0.0267703607678413
1770453638050,0.04327392578125,-0.138885498046875,-1.0005035400390625,0.001620533526875,0.0377883911132812,0.0148966573178768
1770453638060,0.053985595703125,-0.11334228515625,-0.9972686767578124,0.0156362168490886,0.0226621683686971,-0.0036189695820212
1770453638070,0.052459716796875,-0.125457763671875,-0.988311767578125,0.0035808864049613,0.0421908646821975,-0.006811034400016
1770453638080,0.068878173828125,-0.17742919921875,-0.9881744384765624,-0.01130645070225,0.0374107547104358,0.0284129995852708
1770453638090,0.0975341796875,-0.1801605224609375,-0.9840087890625,-0.0172442346811294,0.0224645622074604,0.0559852384030818
1770453638101,0.097869873046875,-0.14312744140625,-0.9820556640625,-0.0049590724520385,0.0313182398676872,0.0518458858132362
1770453638110,0.062591552734375,-0.1118316650390625,-0.975433349609375,-0.0007659250986762,0.0236435439437627,0.0245887003839015
1770453638120,0.038818359375,-0.1204071044921875,-0.973876953125,0.0001371527905575,0.0091607412323355,8.495483780279756e-05
1770453638130,0.04205322265625,-0.132568359375,-0.9853515625,-0.0010871023405343,0.0037087181117385,-0.0108158960938453
1770453638141,0.0590667724609375,-0.1384429931640625,-0.9939422607421876,0.005396363325417,0.0047374973073601,-0.0130516197532415
1770453638151,0.074981689453125,-0.148895263671875,-1.0008087158203125,0.0127253821119666,0.0033758229110389,-0.0047388286329805
1770453638161,0.084716796875,-0.1611785888671875,-1.0008087158203125,0.0178961753845214,0.0019627497531473,0.0137147465720772
1770453638171,0.0825958251953125,-0.161041259765625,-0.998138427734375,0.019882895052433,0.0069050439633429,0.0278308317065238
1770453638181,0.0806732177734375,-0.1539306640625,-0.9997406005859376,0.0233085174113512,0.0095735313370823,0.0337768718600273
1770453638191,0.07666015625,-0.1489410400390625,-1.00201416015625,0.0288204625248909,0.0068299430422484,0.0289397723972797
1770453638201,0.07147216796875,-0.143310546875,-0.9963531494140624,0.0346226915717124,-0.0041808965615928,0.0194264277815818
1770453638211,0.0689239501953125,-0.140350341796875,-0.9865570068359376,0.0341225489974021,-0.0058498997241258,0.0122960805892944
1770453638221,0.069915771484375,-0.1378173828125,-0.9777069091796876,0.027760524302721,-0.001046355930157,0.0044450820423662
1770453638231,0.070556640625,-0.141448974609375,-0.9719390869140624,0.0236957427114248,-0.0009912285022437,0.0051492219790816
1770453638241,0.0733642578125,-0.1432647705078125,-0.9699554443359376,0.0186935272067785,0.0052205948159098,0.0065652248449623
1770453638251,0.0730438232421875,-0.1444854736328125,-0.9770050048828124,0.0228794831782579,0.0037223002873361,0.006891462020576
1770453638261,0.06488037109375,-0.145416259765625,-0.988677978515625,0.0279003400355577,-0.0010197244118899,0.0061380537226796
1770453638271,0.0648651123046875,-0.153289794921875,-0.9957275390625,0.0372618846595287,-0.0073684342205524,0.0104640927165746
1770453638281,0.0727081298828125,-0.151092529296875,-0.9972381591796876,0.0496234782040119,-0.0174343846738338,0.014150439761579
1770453638291,0.06988525390625,-0.140869140625,-0.993682861328125,0.0578843392431736,-0.0149624375626444,0.0094417044892907
1770453638302,0.063323974609375,-0.1366729736328125,-0.987548828125,0.0597818419337272,-0.0120247052982449,0.0045801042579114
1770453638311,0.0579071044921875,-0.134246826171875,-0.9823150634765624,0.0607371181249618,-0.0069876019842922,-0.0076110479421913
1770453638321,0.05523681640625,-0.1400146484375,-0.980987548828125,0.0593051351606845,-0.017035974189639,-0.0171148050576448
1770453638331,0.0597381591796875,-0.137298583984375,-0.9763641357421876,0.0586816892027854,-0.024661935865879,-0.0222030393779277
1770453638342,0.0667266845703125,-0.1347503662109375,-0.9695281982421876,0.0478343665599823,-0.0205995514988899,-0.022521287202835
1770453638351,0.071746826171875,-0.140106201171875,-0.9626617431640624,0.0346261523663997,-0.01258210465312,-0.0225609689950943
1770453638361,0.0750732421875,-0.1475830078125,-0.9626617431640624,0.0215926431119442,-0.004661064594984,-0.0157978720963001
1770453638372,0.0801544189453125,-0.1474151611328125,-0.965301513671875,0.0102070970460772,0.004375307355076,-0.006712763570249
1770453638382,0.0802764892578125,-0.14947509765625,-0.9754791259765624,0.008428905159235,0.0029571740888059,0.0024405207950621
1770453638391,0.0827484130859375,-0.1525421142578125,-0.981048583984375,0.0070411316119134,-0.005192897748202,0.0111895371228456
1770453638402,0.08221435546875,-0.1526031494140625,-0.9832305908203124,0.0027100327424705,-0.0084379594773054,0.0214621480554342
1770453638412,0.0844879150390625,-0.1504058837890625,-0.9793243408203124,-0.0036706349346786,-0.0050418963655829,0.0283099357038736
1770453638422,0.083953857421875,-0.1486663818359375,-0.9745025634765624,-0.0109812784940004,0.0023379891645163,0.0351667739450931
1770453638432,0.0836029052734375,-0.147796630859375,-0.96990966796875,-0.016063654795289,0.0123400231823325,0.043468914926052
1770453638442,0.082672119140625,-0.1471405029296875,-0.975494384765625,-0.0156857520341873,0.0163012091070413,0.0483233220875263
1770453638452,0.0805816650390625,-0.148712158203125,-0.98394775390625,-0.0070877368561923,0.0109850065782666,0.0511372201144695
1770453638462,0.0785064697265625,-0.1484375,-0.9907379150390624,0.0049942261539399,-0.0019339876016601,0.0555620603263378
1770453638472,0.0741119384765625,-0.149993896484375,-0.990997314453125,0.0144668240100145,-0.0146628320217132,0.0581650361418724
1770453638482,0.0694122314453125,-0.1478729248046875,-0.9862060546875,0.0186200235038995,-0.0166924279183149,0.0600846409797668
1770453638492,0.0654144287109375,-0.145416259765625,-0.9813079833984376,0.0162074659019708,-0.0171214621514081,0.0598406977951526
1770453638502,0.0599517822265625,-0.1429901123046875,-0.98101806640625,0.0166404955089092,-0.0144585678353905,0.0491446442902088
1770453638512,0.0503387451171875,-0.1422882080078125,-0.983123779296875,0.0175201371312141,-0.0243178568780422,0.0399727150797843
1770453638522,0.05108642578125,-0.1393280029296875,-0.985321044921875,0.017502561211586,-0.0221772082149982,0.0307973269373178
1770453638532,0.0524444580078125,-0.1404571533203125,-0.9857177734375,0.010170878842473,-0.0178274661302566,0.0263562407344579
1770453638542,0.0558319091796875,-0.1426239013671875,-0.978271484375,-0.0012490225490182,-0.0043081957846879,0.0195286944508552
1770453638553,0.0550537109375,-0.142669677734375,-0.97784423828125,-0.0041103227995336,0.0169643368571996,0.0167861711233854
1770453638562,0.0580596923828125,-0.145233154296875,-0.9870147705078124,0.000356597272912,0.0248134713619947,0.0170325133949518
1770453638573,0.062744140625,-0.1452789306640625,-0.9981842041015624,0.0169105399399995,0.0158615205436944,0.0132838478311896
1770453638583,0.0596771240234375,-0.1488800048828125,-1.00653076171875,0.0337579622864723,0.0051132692024111,0.0119796972721815
1770453638593,0.0639190673828125,-0.16107177734375,-1.00592041015625,0.0474135875701904,-0.0039436090737581,0.0178634189069271
1770453638603,0.0726776123046875,-0.15777587890625,-0.9975738525390624,0.0622173026204109,-0.0152575159445405,0.0205801092088222
1770453638613,0.067901611328125,-0.1388702392578125,-0.985015869140625,0.063223972916603,-0.0213995650410652,0.0117783620953559
1770453638623,0.0537261962890625,-0.1334381103515625,-0.9736785888671876,0.0527580194175243,-0.0085372952744364,-0.0023190807551145
1770453638633,0.0484161376953125,-0.145904541015625,-0.973114013671875,0.0469517968595027,0.0233713686466217,-0.0058517637662589
1770453638643,0.05267333984375,-0.142059326171875,-0.9741058349609376,0.0563895069062709,0.0194285586476326,-0.0143922548741102
1770453638653,0.0533905029296875,-0.1216278076171875,-0.9705963134765624,0.0404475592076778,0.0194519944489002,-0.0265868697315454
1770453638663,0.0537567138671875,-0.17657470703125,-0.9755096435546876,0.0134076848626136,0.029438316822052,-0.002780872862786
1770453638673,0.0783233642578125,-0.1952362060546875,-0.980865478515625,0.0037340181879699,0.0093410378322005,0.0279786381870508
1770453638683,0.094024658203125,-0.174652099609375,-0.9741363525390624,0.0110132358968257,0.0029505160637199,0.0298018380999565
1770453638693,0.0725860595703125,-0.1278839111328125,-0.9644622802734376,0.0156964045017957,-0.0025880599860101,-0.0021542310714721
1770453638703,0.0398712158203125,-0.1149444580078125,-0.951141357421875,-0.0010615360224619,-0.0062586949206888,-0.0382216870784759
1770453638713,0.0255126953125,-0.12579345703125,-0.959625244140625,-0.0183675549924373,-5.566006802837365e-05,-0.0631105229258537
1770453638723,0.038818359375,-0.135711669921875,-0.9757537841796876,-0.0299499090760946,0.0035526568535715,-0.0715002790093422
1770453638734,0.06396484375,-0.1502227783203125,-0.9843597412109376,-0.0344903320074081,0.0041119204834103,-0.0628988072276115
1770453638743,0.07781982421875,-0.161834716796875,-0.9901885986328124,-0.0350674390792846,0.0013377057621255,-0.0437418892979621
1770453638753,0.081146240234375,-0.1674652099609375,-0.9877471923828124,-0.0380144938826561,0.0017699368763715,-0.0219657532870769
1770453638763,0.082305908203125,-0.160919189453125,-0.9828033447265624,-0.0480423606932163,0.0104590328410267,-0.005919674411416
1770453638773,0.082855224609375,-0.156341552734375,-0.98187255859375,-0.0565234646201133,0.0183787401765584,0.0057710702531039
1770453638784,0.0860595703125,-0.1561431884765625,-0.9845428466796876,-0.0570888519287109,0.0283155273646116,0.0145435221493244
1770453638793,0.0821380615234375,-0.153411865234375,-0.9901275634765624,-0.0451799966394901,0.024354875087738,0.0172074828296899
1770453638804,0.075775146484375,-0.150390625,-0.9921722412109376,-0.024468058720231,0.0243151932954788,0.0140034332871437
1770453638814,0.070465087890625,-0.1493377685546875,-0.9953460693359376,-0.0124103305861353,0.0101061640307307,0.0113706327974796
1770453638824,0.0720977783203125,-0.1508941650390625,-0.9903564453125,-0.0029798108153045,0.0073633738793432,0.0094962995499372
1770453638834,0.0709686279296875,-0.152801513671875,-0.9864654541015624,0.0012351741315796,0.0061644189991056,0.0140122221782803
1770453638844,0.0713348388671875,-0.1501007080078125,-0.984222412109375,0.0019206717843189,0.0089128008112311,0.0181611608713865
1770453638854,0.0659942626953125,-0.1473846435546875,-0.987457275390625,0.0019694075454026,0.0172940362244844,0.0186679605394601
1770453638864,0.05902099609375,-0.1569366455078125,-0.997833251953125,0.0076009281910955,0.0221196822822093,0.0169563461095094
1770453638874,0.0622711181640625,-0.151092529296875,-1.0025482177734375,0.0222552381455898,0.0106092346832156,0.0160194467753171
1770453638884,0.0600128173828125,-0.136199951171875,-1.0016326904296875,0.0336660854518413,-0.0009012137306854,0.0068533788435161
1770453638894,0.0518951416015625,-0.1339263916015625,-0.99456787109375,0.0421088375151157,-0.0048200553283095,-0.0035260252188891
1770453638904,0.0492401123046875,-0.1353607177734375,-0.987823486328125,0.043120838701725,-0.0019742012955248,-0.0147123672068119
1770453638915,0.0522918701171875,-0.1405487060546875,-0.982696533203125,0.0397298373281955,0.0027198863681405,-0.026069950312376
1770453638924,0.062286376953125,-0.14337158203125,-0.973785400390625,0.0309709645807743,0.0032988577149808,-0.0318066664040088
1770453638934,0.068450927734375,-0.1460723876953125,-0.9682769775390624,0.0197665132582187,0.0042789010331034,-0.0291525591164827
1770453638944,0.0706329345703125,-0.15008544921875,-0.9684906005859376,0.0096020270138978,0.0096097504720091,-0.028324581682682
1770453638955,0.0722198486328125,-0.1533966064453125,-0.9734954833984376,0.0050996872596442,0.0103059010580182,-0.0214248653501272
1770453638965,0.074005126953125,-0.154052734375,-0.97900390625,0.0038187066093087,0.0057553574442863,-0.0147919952869415
1770453638974,0.0726165771484375,-0.1575469970703125,-0.9821319580078124,0.0010301107540726,0.0016591493040323,-0.0084179854020476
1770453638984,0.074859619140625,-0.1575775146484375,-0.977294921875,-0.0102031026035547,-0.0034003241453319,0.0025398568250238
1770453638994,0.0825042724609375,-0.1571197509765625,-0.9703369140625,-0.0217236708849668,0.0032293491531163,0.010513094253838
1770453639005,0.0771942138671875,-0.1558380126953125,-0.968292236328125,-0.0308700315654277,0.0166325066238641,0.0141464453190565
1770453639015,0.07330322265625,-0.1537017822265625,-0.97381591796875,-0.0389284901320934,0.0214075539261102,0.0213889125734567
1770453639025,0.073516845703125,-0.1470184326171875,-0.981109619140625,-0.0349065847694873,0.0231468640267848,0.0203976836055517
1770453639035,0.0641937255859375,-0.1470794677734375,-0.9945831298828124,-0.0226352717727422,0.0126042086631059,0.0148953264579176
1770453639045,0.06072998046875,-0.14642333984375,-1.00250244140625,-0.0069215558469295,-0.0091263866052031,0.0087990844622254
1770453639055,0.0621490478515625,-0.148590087890625,-0.9987640380859376,-0.0003121224872302,-0.0168471578508615,0.0066073024645447
1770453639065,0.0681304931640625,-0.1507415771484375,-0.9878082275390624,-0.0046078013256192,-0.0118247019127011,0.0094041544944047
1770453639075,0.074066162109375,-0.1517333984375,-0.9800262451171876,-0.0114766266196966,0.0047414917498826,0.0168253183364868
1770453639085,0.0741119384765625,-0.148834228515625,-0.9822235107421876,-0.0084731131792068,0.0128801120445132,0.0174793917685747
1770453639095,0.0695343017578125,-0.149810791015625,-0.9935302734375,0.0085479477420449,0.0156529955565929,0.0126883648335933
1770453639105,0.062408447265625,-0.1450958251953125,-1.0054473876953125,0.0335244052112102,0.007758320774883,0.0035044536925852
1770453639115,0.05810546875,-0.1442108154296875,-1.0130157470703125,0.0591006055474281,-0.0084046702831983,-0.0059798620641231
1770453639125,0.0561676025390625,-0.144805908203125,-1.0093231201171875,0.0774090364575386,-0.018532671034336,-0.0152404718101024
1770453639135,0.058258056640625,-0.1470947265625,-0.996978759765625,0.0801939070224762,-0.0191446654498577,-0.0158687122166156
1770453639145,0.0649871826171875,-0.14984130859375,-0.97857666015625,0.0670820996165275,-0.0070459251292049,-0.0154495304450392
1770453639155,0.065887451171875,-0.150787353515625,-0.964752197265625,0.0496005751192569,0.0078496672213077,-0.0159326270222663
1770453639165,0.0698394775390625,-0.158233642578125,-0.960784912109375,0.0256558284163475,0.0191880762577056,-0.0097194723784923
1770453639176,0.075408935546875,-0.1732330322265625,-0.9636993408203124,0.0105855325236916,0.0204378962516784,0.0047151264734566
1770453639186,0.080291748046875,-0.1650390625,-0.969573974609375,0.0102885905653238,0.0056839846074581,0.0080004017800092
1770453639195,0.0732879638671875,-0.1440582275390625,-0.9701080322265624,0.0030293457675725,-0.003761715022847,-0.0030197582673281
1770453639205,0.0583648681640625,-0.1411590576171875,-0.972137451171875,-0.0043129893019795,0.0113823506981134,-0.0160269029438495
1770453639216,0.0542755126953125,-0.1534271240234375,-0.977691650390625,0.0063071642071008,0.0235537961125373,-0.0129219237715005
1770453639226,0.061920166015625,-0.1313018798828125,-0.9765472412109376,0.0092323804274201,0.0156276952475309,-0.0254747327417135
1770453639236,0.059417724609375,-0.136199951171875,-0.9773712158203124,-0.0043097934685647,0.0353673100471496,-0.0321741811931133
1770453639246,0.06396484375,-0.176055908203125,-0.985198974609375,-0.0150359412655234,0.0269442666321992,-0.00574736809358
1770453639256,0.0886688232421875,-0.1918487548828125,-0.9842529296875,-0.0168218575417995,0.0122004738077521,0.022250710055232
1770453639266,0.0993804931640625,-0.1619873046875,-0.983856201171875,-0.0040440103039145,0.0097993677482008,0.0177366528660058
1770453639276,0.07403564453125,-0.1271514892578125,-0.974578857421875,-0.0003542004269547,0.0069428607821464,-0.0136423092335462
1770453639286,0.0469512939453125,-0.1260528564453125,-0.9675445556640624,-0.0087884319946169,0.008372445590794,-0.0411426424980163
1770453639296,0.044036865234375,-0.138458251953125,-0.97509765625,-0.0145744150504469,0.0084382258355617,-0.0495555698871612
1770453639306,0.061492919921875,-0.148223876953125,-0.9849700927734376,-0.0116409435868263,0.0116606503725051,-0.0405399687588214
1770453639316,0.0804443359375,-0.1610260009765625,-0.9925079345703124,-0.0037944719661027,0.0100952442735433,-0.0240560676902532
1770453639326,0.0890350341796875,-0.1690521240234375,-0.990814208984375,0.0016959009226411,0.0112619753926992,-0.0026373283471912
1770453639336,0.0873260498046875,-0.168365478515625,-0.98785400390625,0.0022322617005556,0.0158521998673677,0.0164700541645288
1770453639346,0.078399658203125,-0.163818359375,-0.9861297607421876,-0.0030895331874489,0.0181049685925245,0.0255871191620826
1770453639356,0.075103759765625,-0.159393310546875,-0.9835205078125,-0.0066725499927997,0.0159994736313819,0.0274590551853179
1770453639366,0.076751708984375,-0.156707763671875,-0.978607177734375,-0.0126851685345172,0.0166181251406669,0.0278215110301971
1770453639376,0.075714111328125,-0.155731201171875,-0.975311279296875,-0.0186863355338573,0.0184794086962938,0.0220112930983304
1770453639386,0.06988525390625,-0.1548004150390625,-0.97467041015625,-0.0213846508413553,0.0200176499783992,0.016356335952878
1770453639396,0.0709686279296875,-0.1541900634765625,-0.9731903076171876,-0.0278739761561155,0.0198445450514554,0.0104582337662577
1770453639407,0.0703582763671875,-0.1557769775390625,-0.9755401611328124,-0.0326000191271305,0.0245402306318283,0.0134990308433771
1770453639417,0.0742340087890625,-0.154998779296875,-0.97991943359375,-0.0288998242467641,0.0315720401704311,0.0168506186455488
1770453639427,0.07110595703125,-0.1551971435546875,-0.9897918701171876,-0.0206879675388336,0.0263485163450241,0.0195148456841707
1770453639437,0.0671234130859375,-0.157806396484375,-0.9993896484375,-0.0070182285271584,0.0171781871467828,0.0220656208693981
1770453639446,0.0687255859375,-0.1645965576171875,-1.0020904541015625,0.002757170703262,0.0114806210622191,0.0281591992825269
1770453639457,0.0732879638671875,-0.1571197509765625,-0.9966278076171876,0.0124617293477058,0.0054964981973171,0.0328487604856491
1770453639467,0.0716400146484375,-0.1457672119140625,-0.9905242919921876,0.0183694195002317,0.0111519871279597,0.02668540738523
1770453639477,0.06201171875,-0.1466522216796875,-0.98822021484375,0.0201364271342754,0.0164556726813316,0.0155507298186421
1770453639487,0.060333251953125,-0.147491455078125,-0.9853057861328124,0.0226693600416183,0.0170381050556898,0.0087668597698211
1770453639497,0.0648651123046875,-0.1465606689453125,-0.98358154296875,0.023991085588932,0.0137815922498703,0.0029129656031727
1770453639507,0.06817626953125,-0.1533966064453125,-0.9848480224609376,0.0277251042425632,0.0074768248014152,-0.0007582019316032
1770453639517,0.0755462646484375,-0.1608734130859375,-0.9832763671875,0.0272585190832614,0.0010436928132548,0.0078318240121006
1770453639527,0.0821533203125,-0.1644439697265625,-0.97833251953125,0.0264995172619819,0.0012756541837006,0.0170399695634841
1770453639537,0.081573486328125,-0.1589813232421875,-0.975921630859375,0.0252499636262655,0.0078696412965655,0.0211076810956001
1770453639547,0.07647705078125,-0.157073974609375,-0.9754791259765624,0.0201587975025177,0.0089546125382184,0.0240771062672138
1770453639557,0.0706329345703125,-0.1591033935546875,-0.978515625,0.0173342488706111,0.0045995456166565,0.0231465976685285
1770453639567,0.07293701171875,-0.1583709716796875,-0.9794158935546876,0.0118175111711025,0.0015518239233642,0.0249381065368652
1770453639577,0.0739898681640625,-0.1599884033203125,-0.97772216796875,0.0029169602785259,0.0032107068691402,0.0288441646844148
1770453639587,0.0724334716796875,-0.162994384765625,-0.9731292724609376,-0.0036077843979001,0.002241582609713,0.0341246798634529
1770453639597,0.076690673828125,-0.1595458984375,-0.969818115234375,-0.0131091438233852,0.00720358453691,0.0368094146251678
1770453639607,0.0721282958984375,-0.1558380126953125,-0.971466064453125,-0.0187816768884658,0.0103676859289407,0.0348597131669521
1770453639617,0.067413330078125,-0.154144287109375,-0.9752044677734376,-0.020346550270915,0.0081074610352516,0.0314639173448085
1770453639627,0.0640869140625,-0.1532135009765625,-0.980499267578125,-0.0194490645080804,0.0036882117856293,0.0278294999152421
1770453639638,0.06353759765625,-0.1563568115234375,-0.9839630126953124,-0.0144849326461553,0.0007102650706656,0.0281663909554481
1770453639647,0.065277099609375,-0.157196044921875,-0.987701416015625,-0.0075194351375103,-0.0011249192757532,0.0245817750692367
1770453639657,0.0613250732421875,-0.15484619140625,-0.990020751953125,0.0028581044171005,-0.0093492930755019,0.0170341115444898
1770453639668,0.0596466064453125,-0.152984619140625,-0.9892730712890624,0.0089306440204381,-0.0124803716316819,0.0094571514055132
1770453639678,0.0614166259765625,-0.151458740234375,-0.986846923828125,0.0133815854787826,-0.008330101147294,0.0041571944020688
1770453639688,0.0592498779296875,-0.1527862548828125,-0.9888916015625,0.0188818126916885,-0.0060139503329992,-0.0074278223328292
1770453639698,0.058990478515625,-0.15289306640625,-0.99163818359375,0.0203827694058418,-0.0096803242340683,-0.0130897033959627
1770453639708,0.0643768310546875,-0.1548919677734375,-0.9883270263671876,0.0218246057629585,-0.0126068722456693,-0.0171859115362167
1770453639718,0.0677032470703125,-0.1584930419921875,-0.982391357421875,0.0194203034043312,-0.01385775860399,-0.0178088247776031
1770453639728,0.0724334716796875,-0.159149169921875,-0.9757232666015624,0.0155179733410477,-0.0091343764215707,-0.0153264915570616
1770453639738,0.07269287109375,-0.1599273681640625,-0.97393798828125,0.0109509183093905,-0.0052416333928704,-0.0135179394856095
1770453639749,0.0741424560546875,-0.168731689453125,-0.97442626953125,0.002536660991609,0.0016000272007659,-0.0057385796681046
1770453639758,0.081085205078125,-0.1783599853515625,-0.9755401611328124,-0.000213319202885,0.0038772961124777,0.0124476151540875
1770453639768,0.086029052734375,-0.1585845947265625,-0.97735595703125,0.0063769393600523,-0.004668787587434,0.0125924907624721
1770453639778,0.0700836181640625,-0.141876220703125,-0.980255126953125,0.0067881313152611,-0.006221676710993,-0.0045944852754473
1770453639788,0.0553741455078125,-0.1499481201171875,-0.984771728515625,0.0101578291505575,-0.000434361572843,-0.0108427936211228
1770453639798,0.0625152587890625,-0.1536407470703125,-0.98394775390625,0.0276484061032533,-0.0038735677953809,-0.0146263465285301
1770453639808,0.0668182373046875,-0.130706787109375,-0.9793701171875,0.0276934131979942,-0.0013369068037718,-0.0359558686614036
1770453639818,0.05950927734375,-0.146087646484375,-0.981170654296875,0.0163203831762075,0.0148143656551837,-0.0365918315947055
1770453639828,0.069854736328125,-0.1869659423828125,-0.9806365966796876,0.0005131911602802,0.0060517671518027,-0.0019297265680506
1770453639838,0.0978546142578125,-0.1924591064453125,-0.980438232421875,-0.0032940639648586,0.0036394759081304,0.022113824263215
1770453639849,0.0962371826171875,-0.1555938720703125,-0.98101806640625,0.0059737367555499,0.0017840516520664,0.0050834417343139
1770453639858,0.06475830078125,-0.130340576171875,-0.969268798828125,0.0069417958147823,-0.0074483286589384,-0.0262222830206155
1770453639869,0.041839599609375,-0.1335906982421875,-0.96502685546875,0.0003312972257845,-0.0138630848377943,-0.0454433821141719
1770453639879,0.047027587890625,-0.140838623046875,-0.9748992919921876,-0.0036211002152413,-0.0091250548139214,-0.0475645884871482
1770453639889,0.0678253173828125,-0.151763916015625,-0.988739013671875,0.0038836877793073,0.0020644825417548,-0.042181808501482
1770453639899,0.0807342529296875,-0.1661834716796875,-0.99810791015625,0.0168258510529994,0.002494316548109,-0.0275788977742195
1770453639909,0.0861053466796875,-0.1707305908203125,-0.9964599609375,0.0267045814543962,0.0007086671539582,-0.0090691288933157
1770453639919,0.083892822265625,-0.1715545654296875,-0.992919921875,0.0272209681570529,0.0034554514568299,0.0045039379037916
1770453639929,0.081878662109375,-0.1713409423828125,-0.98541259765625,0.0181350614875555,-0.004186222795397,0.015712384134531
1770453639939,0.083587646484375,-0.1735076904296875,-0.9757232666015624,0.0018322548130527,-0.0091471597552299,0.0254915114492177
1770453639949,0.081512451171875,-0.1711883544921875,-0.9654998779296876,-0.0218815971165895,-0.0047457530163228,0.0270449332892894
1770453639959,0.080230712890625,-0.1638946533203125,-0.9550323486328124,-0.0437269732356071,0.0029435919132083,0.0271932706236839
1770453639969,0.0780181884765625,-0.1586761474609375,-0.950897216796875,-0.0630948096513748,0.0209452286362648,0.0232483316212892
1770453639979,0.0719451904296875,-0.1567535400390625,-0.9607696533203124,-0.0725660771131515,0.031511053442955,0.0214959699660539
1770453639989,0.0689239501953125,-0.1616058349609375,-0.9769134521484376,-0.0668112561106681,0.0287626720964908,0.0247809793800115
1770453639999,0.069244384765625,-0.1617279052734375,-0.996856689453125,-0.0477294400334358,0.019433619454503,0.0258438475430011
1770453640009,0.0694580078125,-0.1555938720703125,-1.0103607177734375,-0.023790018633008,0.002362756524235,0.0274673104286193
1770453640019,0.064208984375,-0.1557464599609375,-1.0139312744140625,0.0010434264549985,-0.0049593383446335,0.0254148133099079
1770453640029,0.06317138671875,-0.1661529541015625,-1.0133209228515625,0.0231178365647792,-0.0043049999512732,0.032238095998764
1770453640039,0.0695343017578125,-0.16009521484375,-1.006805419921875,0.0424752868711948,-0.0082217110320925,0.0334322601556777
1770453640050,0.069732666015625,-0.1542816162109375,-0.99945068359375,0.0581794157624244,-0.0054506915621459,0.0308239590376615
1770453640059,0.0626373291015625,-0.15533447265625,-0.99652099609375,0.0673838332295417,-0.0048035434447228,0.0250741932541131
1770453640070,0.058380126953125,-0.1529693603515625,-0.993011474609375,0.0790902897715568,-0.0092747248709201,0.0150394029915332
1770453640080,0.0577392578125,-0.1531219482421875,-0.9888916015625,0.0798247903585434,-0.0145472511649131,0.0062941149808466
1770453640090,0.062652587890625,-0.160186767578125,-0.983367919921875,0.0743381455540657,-0.019283415749669,-0.0010719223646447
1770453640100,0.0697784423828125,-0.1656494140625,-0.97442626953125,0.0664195045828819,-0.021123394370079,0.0006684534018859
1770453640110,0.07611083984375,-0.1673583984375,-0.9673919677734376,0.0565439686179161,-0.0197425447404384,0.0089761847630143
1770453640120,0.0767974853515625,-0.1687774658203125,-0.962890625,0.046812780201435,-0.0152796199545264,0.0123062012717127
1770453640130,0.0730133056640625,-0.165374755859375,-0.9613800048828124,0.0369835831224918,-0.0115472003817558,0.0154383443295955
1770453640140,0.069793701171875,-0.1633453369140625,-0.963134765625,0.0268609095364809,-0.011444135569036,0.0182767417281866
1770453640150,0.068511962890625,-0.158935546875,-0.9675445556640624,0.0220214128494262,-0.0059396480210125,0.0165962874889373
1770453640160,0.0647735595703125,-0.1608734130859375,-0.973236083984375,0.0196650475263595,-0.0071340757422149,0.0142902564257383
1770453640170,0.06793212890625,-0.163421630859375,-0.9763946533203124,0.0156061239540576,-0.0167374350130558,0.0143565684556961
1770453640180,0.0673675537109375,-0.163055419921875,-0.97296142578125,0.0086723174899816,-0.0161137226969003,0.018580874428153
1770453640190,0.0689544677734375,-0.164154052734375,-0.9665374755859376,-0.0051303133368492,-0.0128132672980427,0.0174719337373971
1770453640200,0.0684814453125,-0.16571044921875,-0.9612274169921876,-0.0169422309845685,-0.011526427231729,0.0159771014004945
1770453640210,0.070343017578125,-0.16461181640625,-0.9601898193359376,-0.0315736383199691,-0.0073436666280031,0.0177323911339044
1770453640220,0.0728607177734375,-0.164215087890625,-0.9632415771484376,-0.0418297387659549,0.001275121467188,0.0188764855265617
1770453640230,0.0706634521484375,-0.1621246337890625,-0.973785400390625,-0.0427613109350204,0.0046592000871896,0.0172751266509294
1770453640240,0.0654296875,-0.158447265625,-0.9827728271484376,-0.0355806313455104,0.0043566650710999,0.0127994185313582
1770453640250,0.0610198974609375,-0.154815673828125,-0.9905548095703124,-0.0231322161853313,0.001015463261865,0.0038581213448196
1770453640260,0.056854248046875,-0.152557373046875,-0.9927520751953124,-0.0121820978820323,-0.0052903695032,-0.0043859598226845
1770453640271,0.0601654052734375,-0.151153564453125,-0.9887237548828124,-0.0054850466549396,-0.0061329938471317,-0.0084600634872913
1770453640280,0.0641021728515625,-0.153076171875,-0.9827728271484376,-0.0041550640016794,0.0004743089957628,-0.0085641937330365
1770453640290,0.067718505859375,-0.158721923828125,-0.9810638427734376,-0.006140983197838,0.0094329165294766,-0.00684245955199
1770453640301,0.073394775390625,-0.1624603271484375,-0.9817962646484376,-0.0072477930225431,0.0164053384214639,-0.0056088836863636
1770453640311,0.0720062255859375,-0.163726806640625,-0.9850006103515624,-0.0060871872119605,0.0142649561166763,-0.004724713973701
1770453640321,0.07220458984375,-0.16534423828125,-0.9874114990234376,-0.0068475198931992,0.0110965929925441,-0.0029049760196357
1770453640331,0.0751953125,-0.1683502197265625,-0.98370361328125,-0.0118974056094884,0.0169118717312812,0.0061013018712401
1770453640341,0.0810546875,-0.1853179931640625,-0.9786834716796876,-0.0265061762183904,0.0250361114740371,0.0232235640287399
1770453640351,0.092864990234375,-0.185272216796875,-0.9750213623046876,-0.0365167334675788,0.0181824658066034,0.041596446186304
1770453640361,0.0914459228515625,-0.162445068359375,-0.97271728515625,-0.0406997576355934,0.0112153701484203,0.0398744456470012
1770453640371,0.0758819580078125,-0.1590728759765625,-0.971893310546875,-0.0471611209213733,0.0241255760192871,0.0329552851617336
1770453640381,0.0658416748046875,-0.17010498046875,-0.977325439453125,-0.040129043161869,0.0392792299389839,0.0321882963180542
1770453640391,0.064422607421875,-0.143768310546875,-0.9836273193359376,-0.0263605006039142,0.0218730736523866,0.0115866148844361
1770453640401,0.0541229248046875,-0.1320953369140625,-0.991363525390625,-0.017731325700879,0.0280936863273382,-0.0120830284431576
1770453640411,0.0492706298828125,-0.16168212890625,-0.998016357421875,-0.0212666727602481,0.0323363691568374,-0.0037872814573347
1770453640421,0.0679931640625,-0.1880035400390625,-0.99627685546875,-0.026821494102478,0.0272457357496023,0.0188154987990856
1770453640431,0.0892486572265625,-0.17755126953125,-0.9964447021484376,-0.0169102735817432,0.0224693566560745,0.0229359418153762
1770453640441,0.0836181640625,-0.143096923828125,-0.990020751953125,0.0006506102508865,0.0206208564341068,-0.0026061693206429
1770453640451,0.0530548095703125,-0.1319732666015625,-0.985504150390625,0.0162458159029483,0.0165121313184499,-0.0332101508975029
1770453640462,0.0380859375,-0.1390533447265625,-0.9860992431640624,0.0199555978178977,0.0127192568033933,-0.0500352047383785
1770453640471,0.048248291015625,-0.14935302734375,-0.99285888671875,0.0241218470036983,0.0137424441054463,-0.0576060377061367
1770453640482,0.0653076171875,-0.1663818359375,-0.997650146484375,0.028187695890665,0.0142806684598326,-0.0515180528163909
1770453640491,0.0844268798828125,-0.180450439453125,-0.988861083984375,0.0184735488146543,0.0141400536522269,-0.033587522804737
1770453640502,0.094757080078125,-0.1862030029296875,-0.973236083984375,0.0003856257244478,0.0264523793011903,-0.0082920184358954
1770453640511,0.0911407470703125,-0.1868133544921875,-0.963165283203125,-0.0220360606908798,0.036423522979021,0.0083996104076504
1770453640522,0.086669921875,-0.181884765625,-0.9584503173828124,-0.0430486686527729,0.0384640358388423,0.0205268468707799
1770453640533,0.0839080810546875,-0.1750030517578125,-0.9586334228515624,-0.0634194537997245,0.0349827520549297,0.0264156274497509
1770453640542,0.0765838623046875,-0.1693572998046875,-0.9613800048828124,-0.0773967877030372,0.0295746698975563,0.0234342198818922
1770453640552,0.0683135986328125,-0.1609344482421875,-0.9680633544921876,-0.0793568715453147,0.0245887003839015,0.0110923321917653
1770453640562,0.0598907470703125,-0.150909423828125,-0.9746551513671876,-0.0765219405293464,0.024360466748476,-0.0036610474344342
1770453640572,0.0511322021484375,-0.14910888671875,-0.9811553955078124,-0.0700179636478424,0.0209998246282339,-0.0218355245888233
1770453640582,0.047332763671875,-0.1484527587890625,-0.9873199462890624,-0.0593962147831916,0.0076810889877378,-0.0363508164882659
1770453640592,0.041412353515625,-0.1450958251953125,-0.99224853515625,-0.0459967851638793,-0.0445530861616134,-0.0540872029960155
1770453640602,0.04083251953125,-0.1436920166015625,-0.98992919921875,-0.0458319373428821,-0.038770031183958,-0.0634833648800849
1770453640612,0.0614776611328125,-0.1562957763671875,-0.9810638427734376,-0.0558379665017128,-0.0053537525236606,-0.0553412847220897
1770453640622,0.0819244384765625,-0.166900634765625,-0.976898193359375,-0.0562776550650596,0.0114840827882289,-0.0452654808759689
1770453640632,0.0885467529296875,-0.1598663330078125,-0.980560302734375,-0.043480098247528,0.0284268483519554,-0.0421130992472171
1770453640642,0.0748291015625,-0.1533203125,-0.9902801513671876,-0.0288529526442289,0.0257703438401222,-0.0467786900699138
1770453640652,0.06744384765625,-0.1482696533203125,-0.9989471435546876,-0.013480388559401,0.0070688282139599,-0.05325922742486
1770453640662,0.0701751708984375,-0.15045166015625,-1.00152587890625,-0.0123107284307479,-0.0053454968146979,-0.0563783198595047
1770453640672,0.08056640625,-0.1553802490234375,-0.9969635009765624,-0.0169851090759038,-0.0064824004657566,-0.0545042529702186
1770453640682,0.0948944091796875,-0.1617431640625,-0.9891357421875,-0.021819544956088,-0.0029949909076094,-0.0386525876820087
1770453640692,0.1038818359375,-0.1659393310546875,-0.9831390380859376,-0.0227266177535057,0.0044456147588789,-0.0206389650702476
1770453640703,0.106353759765625,-0.1648101806640625,-0.9786834716796876,-0.0218283329159021,0.0191100444644689,-0.0017694041598588
1770453640712,0.099853515625,-0.161834716796875,-0.981689453125,-0.0149429971352219,0.0283203218132257,0.0122374910861253
1770453640723,0.0920257568359375,-0.161773681640625,-0.9904022216796876,-0.003237604862079,0.0289698652923107,0.0209731925278902
1770453640733,0.0879058837890625,-0.156036376953125,-0.995880126953125,0.0080504696816205,0.0231388751417398,0.0313912108540535
1770453640743,0.0821075439453125,-0.1535797119140625,-0.996917724609375,0.0174642112106084,0.0226781480014324,0.035462386906147
1770453640753,0.077117919921875,-0.1531219482421875,-0.9957275390625,0.0203145928680896,0.0215308591723442,0.0357063338160514
1770453640763,0.07568359375,-0.15277099609375,-0.989410400390625,0.0230667032301425,0.0188216250389814,0.0372759997844696
1770453640773,0.0776824951171875,-0.153167724609375,-0.982025146484375,0.0164865646511316,0.0235418118536472,0.0385343432426452
1770453640783,0.079315185546875,-0.1561737060546875,-0.976593017578125,0.0092100100591778,0.0271977987140417,0.0403032153844833
1770453640793,0.0801849365234375,-0.1589813232421875,-0.97418212890625,0.0058014299720525,0.0231130421161651,0.0410763286054134
1770453640803,0.078216552734375,-0.1587982177734375,-0.976287841796875,0.0032919333316385,0.021764151751995,0.0382046438753604
1770453640813,0.0720062255859375,-0.15704345703125,-0.9795989990234376,0.0037595843896269,0.0156495328992605,0.0337073616683483
1770453640823,0.069000244140625,-0.154449462890625,-0.9783477783203124,-0.0010767159983515,0.0098411794751882,0.030409837141633
1770453640833,0.068267822265625,-0.1522216796875,-0.9758758544921876,-0.0098550273105502,0.0122540034353733,0.0261338651180267
1770453640843,0.0666961669921875,-0.1511077880859375,-0.9719085693359376,-0.0219889227300882,0.0193784907460212,0.0189875401556491
1770453640853,0.065338134765625,-0.1502227783203125,-0.9707489013671876,-0.0332492999732494,0.0253077540546655,0.0158111881464719
1770453640863,0.0681304931640625,-0.1488494873046875,-0.9728240966796876,-0.0380477830767631,0.0301065035164356,0.0091295829042792
1770453640873,0.07177734375,-0.1504974365234375,-0.977447509765625,-0.0398938879370689,0.0278156530112028,0.0080672474578022
1770453640883,0.0725250244140625,-0.15203857421875,-0.9810028076171876,-0.0361659936606884,0.0260702166706323,0.0039148465730249
1770453640893,0.072998046875,-0.1519012451171875,-0.982574462890625,-0.0292526930570602,0.0272465348243713,0.0028594359755516
1770453640903,0.0720977783203125,-0.150726318359375,-0.9845123291015624,-0.0217164810746908,0.0228379368782043,-0.0028096348978579
1770453640913,0.068939208984375,-0.1507110595703125,-0.9856719970703124,-0.0166159942746162,0.024875521659851,-0.007171360310167
1770453640923,0.069671630859375,-0.1591949462890625,-0.9848785400390624,-0.0204685237258672,0.0255423784255981,-0.0040139164775609
1770453640934,0.082550048828125,-0.1714935302734375,-0.982208251953125,-0.0276486724615097,0.0301200859248638,0.0082856267690658
1770453640944,0.092437744140625,-0.160186767578125,-0.9791717529296876,-0.0305824093520641,0.0247165318578481,0.016432236880064
1770453640954,0.0849456787109375,-0.1424407958984375,-0.9793701171875,-0.0337230749428272,0.0226789470762014,0.0073431339114904
1770453640964,0.068756103515625,-0.145782470703125,-0.9877777099609376,-0.028888639062643,0.0464106425642967,0.0013374395202845
1770453640974,0.0657501220703125,-0.150482177734375,-0.9998016357421876,0.0038581213448196,0.0416928529739379,-0.0048056743107736
1770453640984,0.06793212890625,-0.119964599609375,-1.0034637451171875,0.0324351713061332,0.0200048666447401,-0.0248321127146482
1770453640994,0.0612640380859375,-0.13250732421875,-1.00537109375,0.0437637269496917,0.0315376855432987,-0.0300252772867679
1770453641004,0.0712890625,-0.179443359375,-1.0050506591796875,0.0437591969966888,0.0217527002096176,0.0007752461824566
1770453641014,0.104339599609375,-0.187103271484375,-0.9971923828125,0.0544544532895088,0.0053425673395395,0.0285906326025724
1770453641024,0.1062469482421875,-0.1458892822265625,-0.9874114990234376,0.0711721777915954,0.0095277251675724,0.0136071555316448
1770453641034,0.069244384765625,-0.1188507080078125,-0.9706878662109376,0.0739836767315864,0.0090470248833298,-0.0197870209813117
1770453641044,0.0469207763671875,-0.128936767578125,-0.9637908935546876,0.0592289678752422,0.0048088701441884,-0.0428651757538318
1770453641054,0.0537872314453125,-0.13946533203125,-0.9691925048828124,0.053322609513998,0.0192432031035423,-0.05599882081151
1770453641064,0.0697479248046875,-0.147003173828125,-0.98345947265625,0.0580622367560863,0.0150303486734628,-0.0510746352374553
1770453641074,0.0901641845703125,-0.1531829833984375,-0.983154296875,0.0627211704850196,0.0021315941121429,-0.0390555225312709
1770453641084,0.0904541015625,-0.165374755859375,-0.97991943359375,0.0605307221412658,0.011021758429706,-0.027975708246231
1770453641094,0.0912322998046875,-0.1666412353515625,-0.9723968505859376,0.0428822189569473,-7.190534688561456e-06,-0.0098057594150304
1770453641104,0.0916595458984375,-0.1614990234375,-0.9618377685546876,0.0219284687191247,0.0178160145878791,0.0010128001449629
1770453641115,0.0917510986328125,-0.16204833984375,-0.9649505615234376,-0.0073135728016495,0.0186216216534376,0.0117674432694911
1770453641124,0.0963592529296875,-0.1544342041015625,-0.95709228515625,-0.0292457696050405,0.0309272892773151,0.0147632332518696
1770453641134,0.0895538330078125,-0.1546783447265625,-0.9629058837890624,-0.0354967415332794,0.0423024483025074,0.0137158120051026
1770453641144,0.0841522216796875,-0.152130126953125,-0.972625732421875,-0.0363955572247505,0.0365558788180351,0.0078768311068415
1770453641155,0.083038330078125,-0.15155029296875,-0.97747802734375,-0.0369012914597988,0.0313395485281944,0.0086384955793619
1770453641165,0.0862274169921875,-0.15679931640625,-0.981536865234375,-0.0368629433214664,0.0281229801476001,0.0102859269827604
1770453641175,0.0899505615234375,-0.1571044921875,-0.9853363037109376,-0.037010483443737,0.0292007625102996,0.022039521485567
1770453641185,0.0940704345703125,-0.158233642578125,-0.989837646484375,-0.0366488248109817,0.0355486720800399,0.0333592891693115
1770453641195,0.0943603515625,-0.16748046875,-1.0001983642578125,-0.0265021808445453,0.0489712692797184,0.0393753685057163
1770453641205,0.094390869140625,-0.1729736328125,-1.0130615234375,-0.0074813519604504,0.0463286153972148,0.0518847703933715
1770453641215,0.097564697265625,-0.158599853515625,-1.017852783203125,0.0203372295945882,0.0333568900823593,0.0569197423756122
1770453641225,0.087890625,-0.153411865234375,-1.0149078369140625,0.0391830876469612,0.0258307978510856,0.0509169772267341
1770453641235,0.082733154296875,-0.149261474609375,-1.005096435546875,0.0475262403488159,0.0191665031015872,0.0463832095265388
1770453641246,0.0829925537109375,-0.1484527587890625,-0.9880828857421876,0.0419202856719493,0.0212698690593242,0.0428348146378994
1770453641255,0.0858917236328125,-0.1519927978515625,-0.9781951904296876,0.0383404642343521,0.0287315137684345,0.0390733666718006
1770453641265,0.0886077880859375,-0.158660888671875,-0.976043701171875,0.0347443968057632,0.029767483472824,0.0367106087505817
1770453641275,0.0940399169921875,-0.1627655029296875,-0.9714508056640624,0.0268129725009202,0.0320908240973949,0.0408632755279541
1770453641285,0.096221923828125,-0.162261962890625,-0.968902587890625,0.0184415914118289,0.0385284833610057,0.0441746525466442
1770453641295,0.09344482421875,-0.162841796875,-0.9702911376953124,0.0093098785728216,0.0455131568014621,0.043756004422903
1770453641305,0.090301513671875,-0.163482666015625,-0.9712371826171876,0.0019329222850501,0.0479760468006134,0.0457552373409271
1770453641315,0.09149169921875,-0.16156005859375,-0.9722900390625,-0.0068901302292943,0.0491547621786594,0.0454460456967353
1770453641325,0.0912322998046875,-0.1616058349609375,-0.972137451171875,-0.0113557185977697,0.0551990717649459,0.0430968701839447
1770453641335,0.0884246826171875,-0.1590118408203125,-0.9747772216796876,-0.0118574583902955,0.0520187243819236,0.0403881706297397
1770453641345,0.0859527587890625,-0.156036376953125,-0.9726715087890624,-0.0091088097542524,0.0533215440809726,0.0344333425164222
1770453641356,0.085113525390625,-0.1552886962890625,-0.9710540771484376,-0.0118334898725152,0.0587951391935348,0.0337784700095653
1770453641366,0.0906219482421875,-0.150665283203125,-0.972381591796875,-0.0081021348014473,0.0670330971479415,0.0380858667194843
1770453641376,0.091552734375,-0.14813232421875,-0.983001708984375,0.0089796464890241,0.0537926591932773,0.0322090685367584
1770453641386,0.079132080078125,-0.1496429443359375,-1.0055694580078125,0.035032819956541,0.0589980706572532,0.0324918963015079
1770453641396,0.0935821533203125,-0.1476287841796875,-1.017059326171875,0.0683351159095764,0.0663012564182281,0.0333571583032608
1770453641406,0.0983428955078125,-0.1586456298828125,-1.0237884521484375,0.1035913750529289,0.0548344850540161,0.0337523706257343
1770453641416,0.10076904296875,-0.1629791259765625,-1.015228271484375,0.1268903017044067,0.0455930493772029,0.0400305055081844
1770453641426,0.0991363525390625,-0.1608428955078125,-0.9969482421875,0.1312584280967712,0.0455887913703918,0.0422273464500904
1770453641436,0.0986785888671875,-0.1617431640625,-0.9808807373046876,0.1232588142156601,0.0457850657403469,0.0431432090699672
1770453641446,0.1009979248046875,-0.165252685546875,-0.9671783447265624,0.1060601249337196,0.0481217242777347,0.0431567914783954
1770453641456,0.1054229736328125,-0.1710662841796875,-0.9565582275390624,0.0851926580071449,0.0556850992143154,0.0480926930904388
1770453641466,0.108612060546875,-0.1728973388671875,-0.9512481689453124,0.0655507817864418,0.0586380138993263,0.0520240515470504
1770453641476,0.1069183349609375,-0.1729888916015625,-0.948760986328125,0.0434148535132408,0.0580151006579399,0.0545061193406581
1770453641486,0.104278564453125,-0.17108154296875,-0.9461822509765624,0.0212949030101299,0.0597626641392707,0.0567743331193923
1770453641496,0.1005706787109375,-0.1708526611328125,-0.9461212158203124,-0.0036298886407166,0.0667145848274231,0.0606926418840885
1770453641506,0.1016693115234375,-0.17730712890625,-0.94830322265625,-0.0309523232281208,0.0728297308087349,0.0706169083714485
1770453641516,0.108306884765625,-0.178192138671875,-0.9535064697265624,-0.0458050370216369,0.0672674551606178,0.0792154595255851
1770453641527,0.1049957275390625,-0.1606597900390625,-0.9535369873046876,-0.0554680526256561,0.05172710865736,0.0780031904578208
1770453641536,0.0947265625,-0.148956298828125,-0.9573822021484376,-0.0687247365713119,0.0523383058607578,0.0621054470539093
1770453641546,0.0825653076171875,-0.1625823974609375,-0.9672393798828124,-0.0715407654643058,0.0780593827366828,0.055720254778862
1770453641556,0.08746337890625,-0.1640472412109375,-0.976898193359375,-0.050668504089117,0.0617895983159542,0.0427626445889472
1770453641567,0.0896148681640625,-0.136749267578125,-0.9751739501953124,-0.0506245605647563,0.0501127019524574,0.023927703499794
1770453641576,0.0897979736328125,-0.18499755859375,-0.98236083984375,-0.0583280213177204,0.0581799484789371,0.0401602014899253
1770453641587,0.114013671875,-0.2047271728515625,-0.983154296875,-0.0601983591914176,0.0424691624939441,0.0709290355443954
1770453641597,0.1319122314453125,-0.1874542236328125,-0.9770965576171876,-0.043759997934103,0.0420385301113128,0.0732262730598449
1770453641607,0.1118621826171875,-0.1434783935546875,-0.970458984375,-0.031990423798561,0.0465070493519306,0.0466119758784771
1770453641617,0.0813751220703125,-0.131134033203125,-0.9644012451171876,-0.0316543318331241,0.0400566048920154,0.0114790229126811
1770453641627,0.0690460205078125,-0.146514892578125,-0.974761962890625,-0.0297914519906044,0.0356690473854541,-0.0063817328773438
1770453641637,0.0828704833984375,-0.156158447265625,-0.989990234375,-0.018712168559432,0.030221551656723,-0.0121053988113999
1770453641647,0.1050872802734375,-0.1628570556640625,-0.999267578125,-0.0033731597941368,0.0267360061407089,-0.004711132030934
1770453641657,0.1173248291015625,-0.1700592041015625,-0.99737548828125,0.0123394904658198,0.0258747395128011,0.0090467585250735
1770453641667,0.1199798583984375,-0.176300048828125,-0.987762451171875,0.0212102141231298,0.0290124770253896,0.0240251757204532
1770453641677,0.1203460693359375,-0.1735687255859375,-0.984344482421875,0.0223178230226039,0.0245380997657775,0.0340365283191204
1770453641687,0.1193084716796875,-0.1725006103515625,-0.97515869140625,0.0176738016307353,0.0335385203361511,0.0389327518641948
1770453641697,0.115814208984375,-0.1704254150390625,-0.9666595458984376,0.0096347844228148,0.0302828047424554,0.0384376682341098
1770453641707,0.1150665283203125,-0.1680755615234375,-0.9552764892578124,-0.0071495221927762,0.0278342943638563,0.0352828912436962
1770453641717,0.113433837890625,-0.169830322265625,-0.9429473876953124,-0.0306484568864107,0.0269735604524612,0.0370637439191341
1770453641727,0.117889404296875,-0.1712646484375,-0.934295654296875,-0.0566382445394992,0.0337955132126808,0.0406417027115821
1770453641737,0.117828369140625,-0.1726226806640625,-0.933135986328125,-0.0824392139911651,0.0467781573534011,0.0455104932188987
1770453641747,0.1157684326171875,-0.17364501953125,-0.9408416748046876,-0.0973265543580055,0.0571788661181926,0.050880491733551
