timestamp_ms,acc_x,acc_y,acc_z,gyro_x,gyro_y,gyro_z
1769159362234,0.0718536376953125,-0.411895751953125,-0.887664794921875,-0.0484112091362476,0.0381732173264026,-0.0241271741688251
1769159362242,0.082733154296875,-0.4092864990234375,-0.8977508544921875,-0.0455360598862171,0.0418766103684902,-0.01606285572052
1769159362252,0.0868072509765625,-0.4067230224609375,-0.91278076171875,-0.0322801768779754,0.0425815470516681,-0.0057215350680053
1769159362262,0.0952606201171875,-0.405181884765625,-0.9262542724609376,-0.0097551587969064,0.0351361483335495,0.0082542011514306
1769159362275,0.099273681640625,-0.4037322998046875,-0.9377593994140624,0.0213130116462707,0.0265258830040693,0.0243756473064422
1769159362282,0.0977020263671875,-0.4019622802734375,-0.946441650390625,0.0508674420416355,0.0297517701983451,0.0354927480220794
1769159362292,0.088043212890625,-0.4066619873046875,-0.94140625,0.068258948624134,0.0277181807905435,0.0390573889017105
1769159362302,0.0754547119140625,-0.40863037109375,-0.9293212890625,0.0784010663628578,0.0151709634810686,0.0371484346687793
1769159362312,0.0753021240234375,-0.411376953125,-0.9165802001953124,0.0768566951155662,0.014160294085741,0.0375859923660755
1769159362322,0.0752410888671875,-0.4116058349609375,-0.902587890625,0.0633755102753639,0.008486695587635,0.0338426530361175
1769159362332,0.0685272216796875,-0.4146881103515625,-0.8868255615234375,0.0455227419734001,-0.0007680556736886,0.0267943292856216
1769159362342,0.0673370361328125,-0.41571044921875,-0.8800506591796875,0.027524834498763,0.001375256339088,0.0270712990313768
1769159362352,0.0689849853515625,-0.41070556640625,-0.880462646484375,0.0058549595996737,-0.0031995216850191,0.0202490780502557
1769159362362,0.069976806640625,-0.4143524169921875,-0.8725433349609375,-0.0124476151540875,0.0026650251820683,0.0156865511089563
1769159362372,0.0625762939453125,-0.415435791015625,-0.873992919921875,-0.0242435541003942,0.0049904976040124,0.0097074881196022
1769159362382,0.067047119140625,-0.4132232666015625,-0.8827362060546875,-0.0329251922667026,-0.0007057376787997,0.0092691322788596
1769159362393,0.075897216796875,-0.413726806640625,-0.8917694091796875,-0.03633963316679,-0.0019425096688792,0.0073029203340411
1769159362402,0.075714111328125,-0.4105072021484375,-0.9090728759765624,-0.0247974917292594,0.0052557485178112,0.007040066178888
1769159362413,0.072509765625,-0.4079132080078125,-0.923736572265625,-0.0041998052038252,0.0107469204813241,0.0112846121191978
1769159362423,0.075927734375,-0.4111328125,-0.92779541015625,0.0170564819127321,0.0187284145504236,0.0184541083872318
1769159362433,0.0777435302734375,-0.4171600341796875,-0.927490234375,0.0336820632219314,0.0159624554216861,0.0169792491942644
1769159362443,0.0731048583984375,-0.4193878173828125,-0.925506591796875,0.0421682260930538,0.0065409899689257,0.0125370966270565
1769159362453,0.07025146484375,-0.4216156005859375,-0.918701171875,0.0493867248296737,0.0037936728913336,0.0064733456820249
1769159362463,0.067474365234375,-0.4236297607421875,-0.9146575927734376,0.0601096749305725,0.0009627327090129,0.0100600905716419
1769159362473,0.0777435302734375,-0.4187164306640625,-0.916351318359375,0.0674413591623306,0.0016948357224464,0.0220656208693981
1769159362483,0.08367919921875,-0.4166259765625,-0.911468505859375,0.0715559422969818,0.0028189560398459,0.0120936809107661
1769159362493,0.0699005126953125,-0.4158935546875,-0.90814208984375,0.077803187072277,0.0048669269308447,0.0021254688035696
1769159362503,0.0690155029296875,-0.412139892578125,-0.914642333984375,0.0918955653905868,-0.0049422942101955,0.0047580036334693
1769159362513,0.079498291015625,-0.4131622314453125,-0.921417236328125,0.1062899529933929,-0.0041286987252533,0.0084787057712674
1769159362523,0.081207275390625,-0.4147796630859375,-0.9231719970703124,0.1212792918086052,-0.0002106560423271,0.0101815313100814
1769159362533,0.074920654296875,-0.4186248779296875,-0.9145660400390624,0.1249025240540504,0.0007150587625801,0.0103437174111604
1769159362543,0.0772705078125,-0.421966552734375,-0.9051361083984376,0.1215732991695404,-0.001079379231669,0.0052586779929697
1769159362553,0.0805816650390625,-0.4224090576171875,-0.898223876953125,0.1170382052659988,-0.0010082727530971,0.0043545346707105
1769159362563,0.081298828125,-0.4287872314453125,-0.8914031982421875,0.1068335026502609,-0.0030405309516936,0.0081862909719347
1769159362573,0.083648681640625,-0.432647705078125,-0.880950927734375,0.0920995697379112,-0.0108720883727073,0.0197851564735174
1769159362583,0.0850677490234375,-0.4318084716796875,-0.8760528564453125,0.0799747258424758,-0.0130079435184597,0.0159110557287931
1769159362593,0.0646514892578125,-0.425811767578125,-0.8791351318359375,0.0647403821349144,-0.0037995318416506,0.0091303810477256
1769159362604,0.0601806640625,-0.43359375,-0.867767333984375,0.0500162951648235,0.0053271208889782,0.0056150089949369
1769159362613,0.0606536865234375,-0.431793212890625,-0.867706298828125,0.0280990116298198,0.00669651851058,0.0013044163351878
1769159362624,0.0575103759765625,-0.4324951171875,-0.8628997802734375,0.005616073962301,0.0057827881537377,-0.0229356754571199
1769159362634,0.045318603515625,-0.4199981689453125,-0.8693695068359375,-0.0049177934415638,0.0091037498787045,-0.0394773669540882
1769159362644,0.0601959228515625,-0.425201416015625,-0.87786865234375,-0.0190184321254491,0.0025076323654502,-0.0340847335755825
1769159362654,0.086639404296875,-0.429962158203125,-0.8795013427734375,-0.0311733651906251,-0.012835637666285,-0.0253887139260768
1769159362664,0.0904083251953125,-0.4260406494140625,-0.8863067626953125,-0.0342067070305347,-0.0118878185749053,-0.0185611676424741
1769159362674,0.0828704833984375,-0.4190826416015625,-0.89898681640625,-0.0265509169548749,-0.005038434639573,-0.0109445266425609
1769159362684,0.0746612548828125,-0.4209747314453125,-0.896942138671875,-0.0299491100013256,-0.0050624026916921,-0.0149810798466205
1769159362694,0.0653076171875,-0.424774169921875,-0.8904876708984375,-0.0361188538372516,0.0013930995482951,-0.018951853737235
1769159362704,0.0675201416015625,-0.4246368408203125,-0.890960693359375,-0.0403908342123031,0.0033302828669548,-0.0187696926295757
1769159362714,0.081268310546875,-0.4262542724609375,-0.8974761962890625,-0.0369883775711059,0.0073449984192848,-0.0079378178343176
1769159362724,0.096954345703125,-0.4255218505859375,-0.9052581787109376,-0.0279472116380929,0.0072302161715924,0.0052727926522493
1769159362734,0.098663330078125,-0.4262847900390625,-0.907989501953125,-0.0225071739405393,0.0066110310144722,0.0066294069401919
1769159362744,0.0801849365234375,-0.4295806884765625,-0.904754638671875,-0.0199486743658781,0.0034490597900003,0.0031260184478014
1769159362754,0.0697174072265625,-0.4275054931640625,-0.908294677734375,-0.010285660624504,0.0007973504252731,0.0038884815294295
1769159362764,0.0810089111328125,-0.4256591796875,-0.9131317138671876,0.0013456953456625,0.0020429107826203,0.0134713342413306
1769159362775,0.08709716796875,-0.4263153076171875,-0.9195098876953124,0.0229111742228269,0.0052450955845415,0.0266534481197595
1769159362784,0.0886993408203125,-0.4230194091796875,-0.92547607421875,0.0456705503165721,0.0116707710549235,0.0335845910012722
1769159362794,0.081573486328125,-0.4251556396484375,-0.9250946044921876,0.0635430216789245,0.0092278532683849,0.0278502739965915
1769159362805,0.0700225830078125,-0.42730712890625,-0.917633056640625,0.0738939344882965,0.011330684646964,0.0239980109035968
1769159362814,0.07135009765625,-0.430145263671875,-0.9145050048828124,0.0841289907693862,0.0047319047152996,0.0200093947350978
1769159362825,0.07373046875,-0.43170166015625,-0.9061431884765624,0.083602488040924,0.0034567830152809,0.0109208244830369
1769159362835,0.0727081298828125,-0.432098388671875,-0.8966522216796875,0.0734947249293327,-0.0093543529510498,0.0048882323317229
1769159362845,0.0749053955078125,-0.4346160888671875,-0.8790283203125,0.0506820864975452,-0.0086214514449238,-0.0047023436054587
1769159362855,0.0686492919921875,-0.437896728515625,-0.8646392822265625,0.0212357807904481,-0.0105314701795578,-0.0062914518639445
1769159362865,0.0656585693359375,-0.4381866455078125,-0.85772705078125,-0.004840828012675,-0.0034426683560013,-0.0153893427923321
1769159362875,0.063812255859375,-0.4323883056640625,-0.86456298828125,-0.0189334768801927,0.001299888943322,-0.0265748854726552
1769159362885,0.0623931884765625,-0.4215545654296875,-0.885223388671875,-0.0160410180687904,0.0072685657069087,-0.0287786517292261
1769159362895,0.0781097412109375,-0.4241943359375,-0.90203857421875,0.0019486349774524,0.0132726617157459,-0.0268779527395963
1769159362905,0.08612060546875,-0.425689697265625,-0.9158782958984376,0.0198882203549146,0.0163358300924301,-0.0258933827280998
1769159362915,0.0821990966796875,-0.4272003173828125,-0.9179534912109376,0.0314221046864986,0.0176058914512395,-0.0189398694783449
1769159362925,0.087158203125,-0.42913818359375,-0.9117279052734376,0.038187600672245,0.0232121124863624,-0.0133136743679642
1769159362935,0.0861968994140625,-0.4325408935546875,-0.90301513671875,0.0376262031495571,0.0171933677047491,-0.0128180608153343
1769159362945,0.082427978515625,-0.4308013916015625,-0.89178466796875,0.0347971282899379,0.0099149486050009,-0.0150359412655234
1769159362955,0.085113525390625,-0.4314727783203125,-0.88983154296875,0.0272726342082023,0.001668204087764,-0.0069540459662675
1769159362965,0.082275390625,-0.4301605224609375,-0.8878326416015625,0.0245418287813663,0.0061947791837155,-0.0062600262463092
1769159362975,0.0789947509765625,-0.431243896484375,-0.889678955078125,0.022277608513832,0.0222547054290771,-1.1984225238848012e-05
1769159362985,0.0789642333984375,-0.4324493408203125,-0.89337158203125,0.0219029020518064,0.0257082935422658,0.0048264469951391
1769159362995,0.0837249755859375,-0.4312591552734375,-0.8985748291015625,0.0305600389838218,0.0211321823298931,0.0072906697168946
1769159363005,0.091705322265625,-0.428924560546875,-0.912109375,0.0432489365339279,0.0127805098891258,0.0160165168344974
1769159363015,0.098876953125,-0.42974853515625,-0.9137420654296876,0.0518149957060813,0.0028660940006375,0.0287360399961471
1769159363026,0.0912933349609375,-0.4293212890625,-0.9084625244140624,0.0607110187411308,0.0031004520133137,0.0467802882194519
1769159363036,0.083740234375,-0.4334564208984375,-0.9015960693359376,0.061728611588478,0.0030192257836461,0.0480876341462135
1769159363046,0.07611083984375,-0.437408447265625,-0.898529052734375,0.0613664202392101,0.0055873119272291,0.0456122271716594
1769159363056,0.071929931640625,-0.438385009765625,-0.893707275390625,0.0572124235332012,0.0063420515507459,0.0413397178053855
1769159363066,0.0657806396484375,-0.4432220458984375,-0.88446044921875,0.0439560078084468,0.004463457968086,0.0320119932293891
1769159363076,0.065185546875,-0.444366455078125,-0.876556396484375,0.032090026885271,0.0072579127736389,0.0282609332352876
1769159363086,0.0619049072265625,-0.4426422119140625,-0.8727874755859375,0.0175909772515296,0.0164562053978443,0.0198237728327512
1769159363096,0.0626678466796875,-0.4401092529296875,-0.8774261474609375,0.0148401986807584,0.0202568024396896,0.0179270692169666
1769159363106,0.0664520263671875,-0.4373626708984375,-0.8854217529296875,0.0135935731232166,0.0166610013693571,0.0124068688601255
1769159363116,0.069580078125,-0.4345245361328125,-0.8910675048828125,0.0191036537289619,0.0053446977399289,0.0090741887688636
1769159363126,0.0715484619140625,-0.43609619140625,-0.89501953125,0.0212839841842651,-0.0032237565610557,0.0058443071320652
1769159363136,0.0746612548828125,-0.4379425048828125,-0.895965576171875,0.0190384052693843,-0.0091554149985313,-9.214537567459048e-05
1769159363146,0.0665130615234375,-0.4413299560546875,-0.8863372802734375,0.0141967786476016,-0.0143272737041115,-0.0091684646904468
1769159363156,0.05767822265625,-0.4438629150390625,-0.881195068359375,0.0057233995757997,-0.007611580658704,-0.0164695214480161
1769159363166,0.06024169921875,-0.4437713623046875,-0.8782806396484375,-0.0065553709864616,0.0013339773286134,-0.0140258036553859
1769159363176,0.0653533935546875,-0.4406585693359375,-0.876251220703125,-0.0170583464205265,0.0018375811632722,-0.0148631017655134
1769159363186,0.06939697265625,-0.4422760009765625,-0.876953125,-0.0265735536813735,-0.0013765880139544,-0.0120422821491956
1769159363196,0.073333740234375,-0.438507080078125,-0.8810272216796875,-0.0299746766686439,-0.0047324374318122,-0.0048272456042468
1769159363206,0.0784759521484375,-0.4337005615234375,-0.887115478515625,-0.036133237183094,-0.0038362834602594,-0.0069082397967576
1769159363216,0.0689239501953125,-0.4389495849609375,-0.8856964111328125,-0.0429847501218318,-0.0038988678716123,-0.0110649019479751
1769159363227,0.068511962890625,-0.4384002685546875,-0.886138916015625,-0.0440444238483905,0.0043851612135767,-0.0104872621595859
1769159363237,0.0736846923828125,-0.4350738525390625,-0.8977508544921875,-0.0381822735071182,0.0112135056406259,-0.006604905705899
1769159363246,0.076751708984375,-0.431365966796875,-0.9025421142578124,-0.0323342382907867,0.0146258138120174,-0.0078699076548218
1769159363257,0.07965087890625,-0.4328460693359375,-0.904266357421875,-0.0228858739137649,0.0091642038896679,-0.004457599017769
1769159363267,0.0861053466796875,-0.43206787109375,-0.904083251953125,-0.018930546939373,-0.0055758603848516,-0.0033329459838569
1769159363277,0.0876312255859375,-0.4327545166015625,-0.9004364013671875,-0.0142585644498467,-0.0091919004917144,0.0013169331941753
1769159363287,0.084259033203125,-0.4315338134765625,-0.9015045166015624,-0.0037742317654192,-0.0068954564630985,0.0097610177472233
1769159363297,0.081512451171875,-0.433135986328125,-0.898651123046875,-0.0001081243390217,-0.0028107000980526,0.0108643658459186
1769159363307,0.0780792236328125,-0.43695068359375,-0.8915557861328125,-0.007940481416881,-0.0012538161827251,0.0082965455949306
1769159363317,0.0655975341796875,-0.438568115234375,-0.8787994384765625,-0.0218080934137105,0.0044437507167458,-0.0035441347863525
1769159363327,0.0623321533203125,-0.444549560546875,-0.8747406005859375,-0.0392288938164711,0.0038530614692717,-0.0074440678581595
1769159363337,0.07342529296875,-0.445770263671875,-0.8759307861328125,-0.0536645613610744,-6.258428766159341e-05,-0.001121457084082
1769159363347,0.08453369140625,-0.4399261474609375,-0.880126953125,-0.0572600923478603,0.0041518681682646,0.0039939428679645
1769159363357,0.075469970703125,-0.4328155517578125,-0.8931427001953125,-0.0467499271035194,0.0072547169402241,0.0026389262638986
1769159363367,0.07806396484375,-0.429840087890625,-0.900054931640625,-0.0309925377368927,0.0057992995716631,0.0065164887346327
1769159363377,0.0798492431640625,-0.4269561767578125,-0.9064483642578124,-0.0251170713454484,0.0012042814632877,0.0163398254662752
1769159363387,0.080841064453125,-0.428680419921875,-0.9015045166015624,-0.0106808738783001,0.0016562198288738,0.0043673180043697
1769159363397,0.0618438720703125,-0.416900634765625,-0.9172515869140624,0.0173824522644281,0.0050610713660717,-0.0033846113365143
1769159363407,0.0658111572265625,-0.4234619140625,-0.913665771484375,0.019694609567523,0.0002644518972374,-0.0015257250051945
1769159363417,0.0806121826171875,-0.4392547607421875,-0.8951873779296875,0.0154489977285265,-0.0058419099077582,-0.0024112260434776
1769159363427,0.0780029296875,-0.4369964599609375,-0.8886260986328125,0.0075407405383884,-0.0027811392210423,-0.0004519384237937
1769159363437,0.0729827880859375,-0.43524169921875,-0.88104248046875,-0.0067223510704934,-0.004153998568654,-0.0041872882284224
1769159363447,0.0658111572265625,-0.4385833740234375,-0.8692626953125,-0.036785177886486,-0.0110097741708159,-0.0039369510486721
1769159363457,0.061187744140625,-0.4347686767578125,-0.8643951416015625,-0.0525305867195129,-0.0011137339752167,-0.0023680827580392
1769159363467,0.069427490234375,-0.4356536865234375,-0.8780059814453125,-0.0574917867779731,0.0042413501068949,7.217166421469301e-05
1769159363478,0.0777435302734375,-0.4364776611328125,-0.89129638671875,-0.0572763383388519,0.0030096382834017,-0.0009462211164645
1769159363488,0.0837860107421875,-0.438385009765625,-0.8955535888671875,-0.0568821914494037,0.006844856776297,0.0024690167047083
1769159363498,0.0846099853515625,-0.4335784912109375,-0.905242919921875,-0.0424510538578033,0.0068874671123921,0.005150553304702
1769159363508,0.0853729248046875,-0.4269866943359375,-0.9217681884765624,-0.0188618376851081,0.0042424155399203,0.0100984405726194
1769159363518,0.083770751953125,-0.4246673583984375,-0.9295196533203124,0.0107312072068452,0.0005779059720225,0.0175454374402761
1769159363528,0.0806732177734375,-0.426483154296875,-0.9271087646484376,0.0330341160297393,0.005036836490035,0.0201673191040754
1769159363538,0.06878662109375,-0.4302520751953125,-0.9183349609375,0.0455294027924537,0.0125613315030932,0.0140686808153986
1769159363548,0.058319091796875,-0.4305267333984375,-0.91058349609375,0.0533058308064937,0.0108364019542932,0.0096488986164331
1769159363558,0.0653076171875,-0.433868408203125,-0.8979034423828125,0.0447437688708305,-0.0037721013650298,0.0046770432963967
1769159363568,0.07513427734375,-0.438201904296875,-0.885498046875,0.0311017259955406,-0.0063788034021854,0.0049558766186237
1769159363578,0.078460693359375,-0.4388427734375,-0.8748931884765625,0.0113453324884176,-0.0041745048947632,0.002919623395428
1769159363588,0.0678558349609375,-0.441375732421875,-0.869293212890625,-0.0088768480345606,0.0011004181578755,-0.0025758093688637
1769159363598,0.063262939453125,-0.4407806396484375,-0.8756866455078125,-0.019563315436244,0.0097700729966163,-0.0009270463488064
1769159363608,0.0693817138671875,-0.4415740966796875,-0.8809051513671875,-0.0249615423381328,0.0126297753304243,0.0046815709210932
1769159363618,0.0783233642578125,-0.440673828125,-0.8908233642578125,-0.0217074267566204,0.0094382427632808,0.010350908152759
1769159363628,0.090576171875,-0.435638427734375,-0.9044952392578124,-0.0140146184712648,0.0063407202251255,0.0145296743139624
1769159363638,0.0910186767578125,-0.430328369140625,-0.9121856689453124,0.0030695593450218,0.0160226430743932,0.0127560086548328
1769159363648,0.08294677734375,-0.4272613525390625,-0.920745849609375,0.0213540252298116,0.0182234793901443,0.0253554247319698
1769159363658,0.0873260498046875,-0.4298858642578125,-0.9176177978515624,0.0435964800417423,0.0154050551354885,0.0286609400063753
1769159363668,0.0858917236328125,-0.427978515625,-0.9192352294921876,0.0597605369985103,0.0146417934447526,0.0290377773344516
1769159363679,0.081695556640625,-0.423583984375,-0.912811279296875,0.0658384039998054,0.0166319739073514,0.0268140379339456
1769159363689,0.0713653564453125,-0.4304046630859375,-0.895111083984375,0.0545468665659427,0.009140501730144,0.019495403394103
1769159363699,0.0723114013671875,-0.43768310546875,-0.87420654296875,0.0292305890470743,-0.0022951122373342,0.0171800516545772
1769159363709,0.076385498046875,-0.43804931640625,-0.869476318359375,0.0167568754404783,-0.0010958907660096,0.0245894994586706
1769159363719,0.0841064453125,-0.4331207275390625,-0.8734893798828125,0.0072312811389565,0.0095205344259738,0.0296415146440267
1769159363729,0.08270263671875,-0.434967041015625,-0.875885009765625,-0.0073380740359425,0.0113562513142824,0.025906965136528
1769159363739,0.072113037109375,-0.437408447265625,-0.8783111572265625,-0.0173885766416788,0.0115029914304614,0.01887515373528
1769159363749,0.0706329345703125,-0.4370269775390625,-0.8858489990234375,-0.0175126809626817,0.0138271320611238,0.010765828192234
1769159363759,0.06976318359375,-0.4359893798828125,-0.895843505859375,-0.0103578325361013,0.0124619957059621,0.0067505808547139
1769159363769,0.074462890625,-0.4328765869140625,-0.9076080322265624,0.0110672982409596,0.0113605121150612,0.0111045828089118
1769159363779,0.0821685791015625,-0.4345550537109375,-0.918487548828125,0.031105188652873,0.0159163828939199,0.0188653003424406
1769159363789,0.0861358642578125,-0.4394073486328125,-0.9212493896484376,0.049101497977972,0.0185864679515361,0.0276028662919998
1769159363799,0.08935546875,-0.4403228759765625,-0.9172210693359376,0.0562137365341186,0.0142729450017213,0.0323696583509445
1769159363809,0.084869384765625,-0.4430999755859375,-0.9041290283203124,0.0570611543953418,0.0165448877960443,0.0322860330343246
1769159363819,0.0828399658203125,-0.44073486328125,-0.8952789306640625,0.0570984408259391,0.0237932130694389,0.0387178361415863
1769159363829,0.0823211669921875,-0.438568115234375,-0.8894805908203125,0.0556749813258647,0.0217953100800514,0.037956703454256
1769159363839,0.0800323486328125,-0.437103271484375,-0.88311767578125,0.0450937077403068,0.0130782509222626,0.0304686930030584
1769159363849,0.071502685546875,-0.43609619140625,-0.8755340576171875,0.0300196837633848,0.0094164051115512,0.0210136715322732
1769159363859,0.0661773681640625,-0.4371337890625,-0.8737335205078125,0.0199729092419147,0.0081000039353966,0.0208448283374309
1769159363870,0.0700836181640625,-0.4345550537109375,-0.8780975341796875,0.0153059856966137,0.0068903965875506,0.0212693363428115
1769159363880,0.0726470947265625,-0.4335174560546875,-0.883636474609375,0.012607404962182,0.0061242054216563,0.0210008900612592
1769159363890,0.07073974609375,-0.4366607666015625,-0.883148193359375,0.008502141572535,0.0104052368551492,0.0187017824500799
1769159363900,0.0702056884765625,-0.439208984375,-0.885284423828125,0.0090339751914143,0.0088076060637831,0.0135743981227278
1769159363910,0.0738525390625,-0.4382476806640625,-0.8892974853515625,0.0100433127954602,0.0090259853750467,0.020962806418538
1769159363920,0.0837860107421875,-0.4385223388671875,-0.891357421875,0.0127136642113327,0.0073109096847474,0.0273583866655826
1769159363930,0.082794189453125,-0.4389495849609375,-0.8913421630859375,0.0083697829395532,0.0002463423879817,0.0273165758699178
1769159363940,0.0767669677734375,-0.4407501220703125,-0.8887481689453125,0.0090012177824974,0.0054538873955607,0.029370404779911
1769159363950,0.077911376953125,-0.441131591796875,-0.8928070068359375,0.0104859303683042,0.0185233503580093,0.033015739172697
1769159363960,0.0804595947265625,-0.4443817138671875,-0.893035888671875,0.0089673958718776,0.0212778579443693,0.0349609144032001
1769159363970,0.0754241943359375,-0.446624755859375,-0.893524169921875,0.0108814099803566,0.0244230516254901,0.0284729208797216
1769159363980,0.074493408203125,-0.44561767578125,-0.8972320556640625,0.0111027183011174,0.0261125601828098,0.0283994171768426
1769159363990,0.07586669921875,-0.439727783203125,-0.900909423828125,0.0261418558657169,0.0241213142871856,0.0321193188428878
1769159364000,0.0847930908203125,-0.438934326171875,-0.908966064453125,0.0443924963474273,0.0254403781145811,0.0360400266945362
1769159364010,0.0874786376953125,-0.436309814453125,-0.9119415283203124,0.0603640079498291,0.0262553058564662,0.0446375086903572
1769159364020,0.0865631103515625,-0.4356689453125,-0.9045257568359376,0.0654996484518051,0.0235652476549148,0.0491848550736904
1769159364030,0.0871429443359375,-0.440185546875,-0.8916168212890625,0.0607592202723026,0.0156543273478746,0.0524445660412311
1769159364040,0.0828399658203125,-0.4429779052734375,-0.8762664794921875,0.048700425773859,0.0219697467982769,0.0522855743765831
1769159364050,0.08148193359375,-0.446563720703125,-0.86767578125,0.0319539383053779,0.025756761431694,0.0547162406146526
1769159364060,0.0810089111328125,-0.4475860595703125,-0.858001708984375,0.0100454436615109,0.0300567019730806,0.0559961572289466
1769159364070,0.0780029296875,-0.4453887939453125,-0.8568878173828125,-0.0108739528805017,0.041244376450777,0.0519604012370109
1769159364080,0.0737152099609375,-0.44281005859375,-0.862518310546875,-0.0219385884702205,0.0467448681592941,0.048569668084383
1769159364091,0.0736846923828125,-0.4479217529296875,-0.8728485107421875,-0.030899591743946,0.0418238788843154,0.0431772992014884
1769159364100,0.08380126953125,-0.4517974853515625,-0.881591796875,-0.0323110669851303,0.0419333353638649,0.0414771363139152
1769159364111,0.0825042724609375,-0.4471435546875,-0.898651123046875,-0.0136654786765575,0.0476159900426864,0.0345449261367321
1769159364121,0.0753021240234375,-0.4508514404296875,-0.90887451171875,0.0070802802219986,0.0480588711798191,0.0329725965857505
1769159364131,0.0801849365234375,-0.4479827880859375,-0.914031982421875,0.0242121294140815,0.044342964887619,0.0347454622387886
1769159364141,0.0823974609375,-0.4472198486328125,-0.9071044921875,0.040153544396162,0.0313494019210338,0.0258177481591701
1769159364151,0.067840576171875,-0.4345855712890625,-0.9074249267578124,0.072209745645523,0.0357457473874092,0.0158854890614748
1769159364161,0.0673828125,-0.43133544921875,-0.911651611328125,0.0878848508000373,0.0392432771623134,0.0286343079060316
1769159364171,0.0885467529296875,-0.443328857421875,-0.89178466796875,0.0864001363515853,0.025808960199356,0.0336831286549568
1769159364181,0.0843963623046875,-0.4510650634765625,-0.871490478515625,0.0698134377598762,0.0219878572970628,0.0277171153575181
1769159364191,0.0757904052734375,-0.4490203857421875,-0.8635101318359375,0.0526773259043693,0.0254933759570121,0.0287304483354091
1769159364201,0.0753326416015625,-0.44805908203125,-0.855682373046875,0.0279906224459409,0.0224155597388744,0.0298372581601142
1769159364211,0.0703582763671875,-0.4512481689453125,-0.8482513427734375,-0.0003121224872302,0.0238531343638896,0.0196951422840356
1769159364221,0.07208251953125,-0.45733642578125,-0.8487396240234375,-0.0292186047881841,0.0264068394899368,0.0122697157785296
1769159364231,0.077484130859375,-0.4594573974609375,-0.8509063720703125,-0.0513508059084415,0.0281338989734649,0.008716526441276
1769159364241,0.088775634765625,-0.4599151611328125,-0.86163330078125,-0.0584766268730163,0.0328508913516998,0.0132428351789712
1769159364251,0.0977630615234375,-0.456207275390625,-0.87774658203125,-0.0573538355529308,0.0353915467858314,0.0222416557371616
1769159364261,0.098876953125,-0.452239990234375,-0.888275146484375,-0.0460308752954006,0.0454987734556198,0.0334785990417003
1769159364271,0.0949249267578125,-0.450469970703125,-0.89776611328125,-0.0289144720882177,0.0481291785836219,0.0380328707396984
1769159364281,0.0919647216796875,-0.4459228515625,-0.9064483642578124,-0.0096619483083486,0.0414323955774307,0.0394342243671417
1769159364291,0.0887908935546875,-0.445343017578125,-0.907318115234375,9.05474735191092e-06,0.0356075279414653,0.0361169911921024
1769159364302,0.0809783935546875,-0.4482879638671875,-0.9036712646484376,0.0099700763821601,0.031219171360135,0.0330253280699253
1769159364312,0.0779266357421875,-0.4514312744140625,-0.8958282470703125,0.0151395378634333,0.0290164705365896,0.0295626856386661
1769159364322,0.0759735107421875,-0.4543304443359375,-0.8907470703125,0.0160695146769285,0.028325380757451,0.0288132727146148
1769159364332,0.0839080810546875,-0.45953369140625,-0.885833740234375,0.0115919411182403,0.0259730108082294,0.0342024452984333
1769159364342,0.089508056640625,-0.460845947265625,-0.88104248046875,0.0070480559952557,0.0236150473356246,0.0370267257094383
1769159364352,0.0915069580078125,-0.457489013671875,-0.8814239501953125,0.0032722260802984,0.0227812118828296,0.0361098013818264
1769159364362,0.0885467529296875,-0.4571685791015625,-0.8811492919921875,-0.0039784964174032,0.0249144043773412,0.0390877462923526
1769159364372,0.082977294921875,-0.4593505859375,-0.878387451171875,-0.0025553030427545,0.0324684605002403,0.0463256873190403
1769159364382,0.084320068359375,-0.45709228515625,-0.8823089599609375,-0.0043710460886359,0.0349713005125522,0.0513545349240303
1769159364392,0.0811309814453125,-0.453277587890625,-0.886016845703125,0.0030394657514989,0.0379148907959461,0.0464670993387699
1769159364402,0.06939697265625,-0.442138671875,-0.894500732421875,0.014086790382862,0.0413272008299827,0.0450622849166393
1769159364412,0.0758056640625,-0.4514923095703125,-0.8898468017578125,0.0150109073147177,0.0344565100967884,0.0547740310430526
1769159364422,0.081024169921875,-0.4512481689453125,-0.881591796875,0.0122952824458479,0.0283030103892087,0.0537945218384265
1769159364432,0.0712432861328125,-0.447479248046875,-0.876678466796875,0.0053417682647705,0.0238182470202446,0.0515705160796642
1769159364442,0.063018798828125,-0.4463043212890625,-0.87738037109375,0.0052229915745556,0.0189529191702604,0.0413857884705066
1769159364452,0.0555877685546875,-0.444915771484375,-0.8813018798828125,-0.0007134608458727,0.0123892920091748,0.0365348421037197
1769159364462,0.058349609375,-0.4580841064453125,-0.8732757568359375,-0.0154442032799124,0.011418835259974,0.0279410872608423
1769159364472,0.0604095458984375,-0.46368408203125,-0.8712921142578125,-0.0202307030558586,0.0099495695903897,0.0258843284100294
1769159364482,0.0660400390625,-0.45721435546875,-0.8834228515625,-0.0145871983841061,0.0118899485096335,0.0300191510468721
1769159364492,0.08184814453125,-0.457275390625,-0.8950958251953125,-0.0097543597221374,0.0121823642402887,0.0369447022676467
1769159364502,0.0840911865234375,-0.458953857421875,-0.8968658447265625,-0.0042954124510288,0.00726909795776,0.0397966802120208
1769159364512,0.0704345703125,-0.458221435546875,-0.894561767578125,0.0011163970921188,0.0133256586268544,0.0323592722415924
1769159364523,0.05657958984375,-0.45477294921875,-0.89599609375,0.0079785641282796,0.0127488179132342,0.022938072681427
1769159364533,0.05316162109375,-0.449249267578125,-0.8936614990234375,0.0185758154839277,0.0152575159445405,0.0211532227694988
1769159364543,0.066802978515625,-0.4467315673828125,-0.8980255126953125,0.0248494241386652,0.0150625724345445,0.026959178969264
1769159364553,0.0664520263671875,-0.4492645263671875,-0.8895416259765625,0.0190700981765985,0.0065822689794003,0.0180863253772258
1769159364563,0.0591278076171875,-0.4501953125,-0.8759307861328125,0.0053188651800155,0.001735049416311,0.0079617863520979
1769159364573,0.0553131103515625,-0.4529266357421875,-0.8727569580078125,-0.0085253110155463,-0.0026554379146546,-0.0009302421822212
1769159364583,0.057830810546875,-0.4527740478515625,-0.871673583984375,-0.0167614035308361,-0.0042773028835654,-0.0052437642589211
1769159364593,0.06982421875,-0.453125,-0.8773193359375,-0.0223015770316123,-0.0082587292417883,-0.0028759476263076
1769159364603,0.0763397216796875,-0.4538726806640625,-0.880889892578125,-0.0282393619418144,-0.0157512668520212,0.0002021339314524
1769159364613,0.0719757080078125,-0.4501190185546875,-0.8839569091796875,-0.0301903933286666,-0.005984921939671,0.0025270734913647
1769159364623,0.070159912109375,-0.45050048828125,-0.88861083984375,-0.0260760746896266,0.0068254154175519,0.002715625334531
1769159364633,0.066864013671875,-0.4517364501953125,-0.893585205078125,-0.020984910428524,0.0143123604357242,0.0057620154693722
1769159364643,0.074249267578125,-0.4491119384765625,-0.904510498046875,-0.0053071472793817,0.0154548566788434,0.0164817720651626
1769159364653,0.084381103515625,-0.448516845703125,-0.9117279052734376,0.0119573269039392,0.0215492341667413,0.0271695684641599
1769159364663,0.0895538330078125,-0.4517822265625,-0.9092864990234376,0.0237415488809347,0.0096851177513599,0.0332005620002746
1769159364673,0.0843505859375,-0.449493408203125,-0.9060211181640624,0.0374871864914894,0.005550826434046,0.0436316318809986
1769159364683,0.0748138427734375,-0.4462127685546875,-0.9006500244140625,0.0490058921277523,0.0166343711316585,0.0489022955298423
1769159364693,0.063690185546875,-0.449737548828125,-0.888031005859375,0.0461688265204429,0.0178953763097524,0.0436332300305366
1769159364703,0.0542755126953125,-0.4517364501953125,-0.8716888427734375,0.0307957287877798,0.012035890482366,0.0341411940753459
1769159364714,0.04962158203125,-0.4474029541015625,-0.863739013671875,0.0179659500718116,0.0045683863572776,0.0214834548532962
1769159364724,0.0539093017578125,-0.451171875,-0.8642425537109375,0.004611796233803,0.0059572248719632,0.0194802246987819
1769159364734,0.062164306640625,-0.4564361572265625,-0.864593505859375,-0.0025459819007664,0.0011289139511063,0.0205598697066307
1769159364744,0.0676116943359375,-0.4561920166015625,-0.8678741455078125,-0.0116763636469841,-0.0101274689659476,0.0221689511090517
1769159364754,0.067108154296875,-0.451751708984375,-0.8779754638671875,-0.013562680222094,-0.0081415493041276,0.0185710210353136
1769159364764,0.0618438720703125,-0.44970703125,-0.8859405517578125,-0.011666509322822,-0.0041004689410328,0.014650048688054
1769159364774,0.0535736083984375,-0.447052001953125,-0.8871917724609375,-0.0037574539892375,-0.0026242788881063,0.0119469407945871
1769159364784,0.0508270263671875,-0.4408111572265625,-0.8975982666015625,0.0053343116305768,-0.0064507089555263,0.0033063145820051
1769159364794,0.0566253662109375,-0.4433746337890625,-0.8970794677734375,0.0089631350710988,-0.0123160546645522,-0.0021955100819468
1769159364804,0.06256103515625,-0.450408935546875,-0.8871307373046875,0.0042400187812745,-0.0221042372286319,0.0041998052038252
1769159364814,0.065673828125,-0.4522705078125,-0.8815155029296875,0.004700212739408,-0.0225029122084379,0.0077537936158478
1769159364824,0.0701751708984375,-0.4553985595703125,-0.881317138671875,-0.002772883279249,-0.0175243988633155,0.0121751734986901
1769159364834,0.0716705322265625,-0.4556884765625,-0.8769989013671875,-0.0189497228711843,-0.0159608572721481,0.0066600330173969
1769159364845,0.0661468505859375,-0.4578704833984375,-0.867340087890625,-0.0380725488066673,-0.015607189387083,0.001767007401213
1769159364854,0.0644989013671875,-0.4593963623046875,-0.8666534423828125,-0.043898481875658,-0.0144383274018764,0.0043654534965753
1769159364864,0.08489990234375,-0.46392822265625,-0.87725830078125,-0.043448407202959,-0.0131147364154458,0.0200991425663232
1769159364874,0.0888671875,-0.454833984375,-0.8834381103515625,-0.047826912254095,-0.0189731586724519,0.0180847272276878
1769159364884,0.070220947265625,-0.4505767822265625,-0.8867034912109375,-0.0584459975361824,-0.0250108111649751,0.0148737542331218
1769159364894,0.062469482421875,-0.4459381103515625,-0.8822784423828125,-0.0542856082320213,-0.0113498596474528,0.0156026612967252
1769159364904,0.0562896728515625,-0.4443511962890625,-0.891448974609375,-0.0451445765793323,-0.0074206320568919,0.0080371536314487
1769159364914,0.056243896484375,-0.4384613037109375,-0.8966522216796875,-0.0241285059601068,-0.0031840754672884,-0.0061564296483993
1769159364925,0.0499420166015625,-0.4311065673828125,-0.9109344482421876,-0.0077002639882266,-0.003573429537937,0.000422111043008
1769159364935,0.0690155029296875,-0.447509765625,-0.899200439453125,-0.0025784724857658,-0.0060861217789351,0.0029878003988415
1769159364944,0.0750274658203125,-0.452423095703125,-0.8914947509765625,-0.0020122844725847,-0.0110502541065216,0.0028602350503206
1769159364955,0.0692291259765625,-0.4497833251953125,-0.8850250244140625,-0.0064211478456854,-0.020052270963788,0.0021933794487267
1769159364965,0.0631103515625,-0.4492340087890625,-0.8782958984375,-0.0177193414419889,-0.0203132610768079,-0.0021108214277774
1769159364975,0.05902099609375,-0.4529571533203125,-0.867156982421875,-0.0405223928391933,-0.019437612965703,-0.010889665223658
1769159364985,0.0535125732421875,-0.4540557861328125,-0.855560302734375,-0.0660714283585548,-0.0171720627695322,-0.0250393059104681
1769159364995,0.05364990234375,-0.45281982421875,-0.8562469482421875,-0.0833612009882927,-0.0171150714159011,-0.0277914181351661
1769159365005,0.06854248046875,-0.4491424560546875,-0.8682403564453125,-0.087002009153366,-0.0148037131875753,-0.0242845676839351
1769159365015,0.084228515625,-0.448516845703125,-0.88250732421875,-0.082672506570816,-0.0185686238110065,-0.0130686638876795
1769159365025,0.0834808349609375,-0.44720458984375,-0.8900909423828125,-0.0787597894668579,-0.0151850776746869,-0.0076576531864702
1769159365035,0.07745361328125,-0.4456939697265625,-0.89923095703125,-0.0684373825788497,-0.0196051262319087,-0.0094315847381949
1769159365045,0.0736083984375,-0.446075439453125,-0.90753173828125,-0.0523617416620254,-0.0199273694306612,-0.0043638558126986
1769159365055,0.078948974609375,-0.445709228515625,-0.91558837890625,-0.0337571650743484,-0.0215833224356174,0.0080483388155698
1769159365065,0.082977294921875,-0.445526123046875,-0.919525146484375,-0.0115799568593502,-0.0279301684349775,0.0207036808133125
1769159365075,0.0796356201171875,-0.444549560546875,-0.916229248046875,0.0029712887480854,-0.0260752756148576,0.0274196397513151
1769159365085,0.072479248046875,-0.447479248046875,-0.9042816162109376,0.0084414212033152,-0.0248350426554679,0.0225985199213027
1769159365095,0.061309814453125,-0.4513702392578125,-0.8931884765625,0.0067015783861279,-0.0285424292087554,0.0215335208922624
1769159365105,0.0595855712890625,-0.4467926025390625,-0.8866424560546875,0.0054536210373044,-0.0159696452319622,0.0193944703787565
1769159365115,0.0610504150390625,-0.4469757080078125,-0.8858184814453125,0.002944657113403,-0.0060270000249147,0.0197249688208103
1769159365125,0.0688629150390625,-0.4467010498046875,-0.8862457275390625,0.0030210898257791,-0.0049995523877441,0.0217955764383077
1769159365135,0.0734710693359375,-0.4450225830078125,-0.885528564453125,-0.0037270938046276,-0.0046091326512396,0.0250707324594259
1769159365145,0.0753936767578125,-0.4493865966796875,-0.884307861328125,-0.012157330289483,-0.0111232250928878,0.0249604769051074
1769159365155,0.0786590576171875,-0.4485015869140625,-0.878753662109375,-0.02468803524971,-0.0166423600167036,0.0192176364362239
1769159365166,0.0722808837890625,-0.4418792724609375,-0.8822479248046875,-0.0245375670492649,-0.0174343846738338,0.0079727051779627
1769159365176,0.06634521484375,-0.44110107421875,-0.8909912109375,-0.0242872294038534,-0.0279378909617662,0.0080605894327163
1769159365186,0.0733489990234375,-0.442962646484375,-0.88873291015625,-0.0188927315175533,-0.0319869630038738,0.0089301113039255
1769159365196,0.067657470703125,-0.4334716796875,-0.8984832763671875,-0.0077388798817992,-0.0181968472898006,0.0101272026076912
1769159365206,0.0589599609375,-0.437347412109375,-0.9018707275390624,-0.001005609636195,-0.0185654293745756,0.0066781425848603
1769159365216,0.0561676025390625,-0.4471435546875,-0.892974853515625,-0.0026703516487032,-0.0130683975294232,-0.0032613070216029
1769159365226,0.0595550537109375,-0.4510498046875,-0.891082763671875,-0.0026711504906415,-0.0090683298185467,-0.0064163538627326
1769159365236,0.0654144287109375,-0.4511566162109375,-0.892730712890625,0.0029800771735608,-0.0083950823172926,-0.0026285399217158
1769159365246,0.0812835693359375,-0.4504852294921875,-0.9004669189453125,0.0140156839042902,-0.0074315508827567,0.0085708508267998
1769159365256,0.0902557373046875,-0.447052001953125,-0.90545654296875,0.0243647284805774,-0.0054301852360367,0.0187414642423391
1769159365266,0.08819580078125,-0.4480743408203125,-0.9022369384765624,0.0242768432945013,0.0003613909648265,0.0282827708870172
1769159365276,0.0830841064453125,-0.447906494140625,-0.8942413330078125,0.0203420240432024,0.0036458675749599,0.0315701775252819
1769159365286,0.0756378173828125,-0.4455413818359375,-0.8864593505859375,0.0154260946437716,0.0040482711046934,0.0307451300323009
1769159365296,0.07232666015625,-0.4464874267578125,-0.87908935546875,0.0039598541334271,0.0056959688663482,0.0292191375046968
1769159365306,0.0731201171875,-0.4471282958984375,-0.872833251953125,-0.001929193851538,0.0007896272582001,0.0354586578905582
1769159365316,0.07781982421875,-0.4420928955078125,-0.8827056884765625,-0.0019734024535864,0.0056427055969834,0.0415642224252224
1769159365326,0.0767364501953125,-0.4423980712890625,-0.8844757080078125,-0.0082435486838221,0.0141078298911452,0.0417429208755493
1769159365336,0.06805419921875,-0.44677734375,-0.87744140625,-0.0260875262320041,0.0204584039747715,0.0354472063481807
1769159365346,0.0534820556640625,-0.446441650390625,-0.8746795654296875,-0.040065661072731,0.0163837671279907,0.0134460339322686
1769159365357,0.0484771728515625,-0.447357177734375,-0.877471923828125,-0.0518674589693546,0.0084560690447688,0.0046027414500713
1769159365367,0.06060791015625,-0.4539031982421875,-0.8846893310546875,-0.0524317808449268,0.0142377912998199,0.0086797745898365
1769159365377,0.066864013671875,-0.4553985595703125,-0.896148681640625,-0.043302733451128,0.0251791235059499,0.0106292087584733
1769159365387,0.069000244140625,-0.4521942138671875,-0.90399169921875,-0.0378927886486053,0.0269365422427654,0.0079335570335388
1769159365397,0.068328857421875,-0.4511871337890625,-0.9033203125,-0.030253242701292,0.0281088668853044,0.0118108531460165
1769159365407,0.0679473876953125,-0.443817138671875,-0.9090423583984376,-0.0071572451852262,0.0307991914451122,0.0155467353761196
1769159365417,0.0732879638671875,-0.4391632080078125,-0.9142303466796876,0.0099636847153306,0.0258736759424209,0.0179571621119976
1769159365427,0.0704803466796875,-0.4364013671875,-0.9051666259765624,0.0163837671279907,0.0167286470532417,0.0095357149839401
1769159365437,0.062103271484375,-0.4372406005859375,-0.8897857666015625,0.0140380542725324,0.0121551994234323,0.0092667350545525
1769159365447,0.0538787841796875,-0.4366607666015625,-0.88067626953125,0.0091911014169454,0.0009970874525606,0.0016972325975075
1769159365457,0.0518798828125,-0.44134521484375,-0.867523193359375,-0.0097855189815163,0.0004207794554531,-0.0050735883414745
1769159365467,0.056396484375,-0.4436798095703125,-0.8545379638671875,-0.0367628075182437,0.0028980518691241,-0.0155315557494759
1769159365477,0.05548095703125,-0.4452972412109375,-0.8480987548828125,-0.064225859940052,0.0035276231355965,-0.0151533866301178
1769159365487,0.0561370849609375,-0.4386749267578125,-0.8517303466796875,-0.0812727510929107,0.0170958954840898,-0.0152955995872616
1769159365497,0.061279296875,-0.4338836669921875,-0.8666839599609375,-0.0991755872964859,0.0183571688830852,-0.0231481958180665
1769159365507,0.0607757568359375,-0.436187744140625,-0.8715362548828125,-0.1125140264630317,0.0165576711297035,-0.0310641750693321
1769159365517,0.0572967529296875,-0.438018798828125,-0.8834991455078125,-0.1132778227329254,0.0280875600874423,-0.040147952735424
1769159365527,0.0598602294921875,-0.4346466064453125,-0.9029083251953124,-0.1054718345403671,0.030003173276782,-0.0477866977453231
1769159365537,0.0703887939453125,-0.43511962890625,-0.915802001953125,-0.0875002890825271,0.0308854784816503,-0.0380363315343856
1769159365547,0.0839385986328125,-0.4330902099609375,-0.929107666015625,-0.0557125322520732,0.0354229733347892,-0.0272212345153093
1769159365558,0.09210205078125,-0.4334869384765625,-0.9384002685546876,-0.0275258999317884,0.0275959409773349,-0.0083649884909391
1769159365567,0.0941314697265625,-0.4333953857421875,-0.931365966796875,-0.0073452647775411,0.0269139055162668,0.0068477862514555
1769159365578,0.0925140380859375,-0.4354705810546875,-0.920562744140625,0.0064746770076453,0.0233023930341005,0.0202914234250783
1769159365588,0.08380126953125,-0.435577392578125,-0.9061431884765624,0.0082211783155798,0.027648139744997,0.0389862805604934
1769159365598,0.0850677490234375,-0.4317626953125,-0.8970947265625,0.0125653268769383,0.0298950485885143,0.0585860796272754
1769159365608,0.084625244140625,-0.4355010986328125,-0.8876800537109375,0.0019848539959639,0.025511484593153,0.0652884617447853
1769159365618,0.073822021484375,-0.4399566650390625,-0.8767852783203125,-0.0161901544779539,0.0165584702044725,0.0646253302693367
1769159365628,0.061859130859375,-0.4407806396484375,-0.8695220947265625,-0.0312394127249717,0.0239061322063207,0.0514054000377655
1769159365638,0.0430755615234375,-0.4345703125,-0.8745880126953125,-0.0454023703932762,0.0291171390563249,0.034919898957014
1769159365648,0.04901123046875,-0.4429931640625,-0.876007080078125,-0.0471075922250747,0.0272782258689403,0.0330839157104492
1769159365658,0.0637054443359375,-0.433624267578125,-0.892547607421875,-0.0436079315841198,0.02510641887784,0.0413034968078136
1769159365668,0.067047119140625,-0.4349365234375,-0.9011383056640624,-0.0286838430911302,0.0144793400540947,0.0300833340734243
1769159365678,0.0516815185546875,-0.42041015625,-0.9177703857421876,-0.0033129723742604,0.0133778573945164,0.015263108536601
1769159365688,0.052642822265625,-0.425384521484375,-0.929046630859375,0.0137594882398843,0.0155872153118252,0.018633073195815
1769159365698,0.0634765625,-0.4383087158203125,-0.9159088134765624,0.0286305788904428,0.0162852294743061,0.0231252927333116
1769159365708,0.0659637451171875,-0.4338836669921875,-0.9115142822265624,0.0424582436680793,0.0235711056739091,0.0235284958034753
1769159365718,0.0618438720703125,-0.428985595703125,-0.9088287353515624,0.0452276654541492,0.0193438697606325,0.0201137904077768
1769159365728,0.0563812255859375,-0.43011474609375,-0.896881103515625,0.0436902232468128,0.0116513296961784,0.0167803112417459
1769159365738,0.0593719482421875,-0.431365966796875,-0.88555908203125,0.0323877669870853,0.0170737914741039,0.015819976106286
1769159365748,0.061859130859375,-0.4369049072265625,-0.8751220703125,0.0149374045431613,0.0268952641636133,0.0140159502625465
1769159365758,0.058868408203125,-0.438751220703125,-0.86572265625,-0.0046956855803728,0.0269858110696077,0.0093285208567976
1769159365768,0.066558837890625,-0.4394989013671875,-0.8647918701171875,-0.0217985063791275,0.0186138972640037,0.0093503585085272
1769159365778,0.073699951171875,-0.4380035400390625,-0.8737640380859375,-0.0294337887316942,0.023529827594757,0.0074227624572813
1769159365789,0.0760498046875,-0.44061279296875,-0.8853302001953125,-0.0245410297065973,0.0127996848896145,0.0132755916565656
1769159365799,0.07574462890625,-0.4381103515625,-0.8998260498046875,-0.0142015730962157,0.0055079497396945,0.0138633511960506
1769159365809,0.0802764892578125,-0.43792724609375,-0.9143829345703124,0.0049476204439997,0.0026615632232278,0.0195470694452524
1769159365819,0.075653076171875,-0.43963623046875,-0.9231414794921876,0.0273083206266164,0.0044192494824528,0.0269882082939147
1769159365829,0.0687255859375,-0.43585205078125,-0.92431640625,0.0488772615790367,0.0088512822985649,0.0258917845785617
1769159365839,0.0650634765625,-0.4384002685546875,-0.919677734375,0.0614950507879257,0.0170511547476053,0.0261514429003
1769159365849,0.06195068359375,-0.441314697265625,-0.907196044921875,0.0679673328995704,0.0172695349901914,0.0199561305344104
1769159365859,0.0626373291015625,-0.441009521484375,-0.8974456787109375,0.070339411497116,0.0143025061115622,0.0202751774340868
1769159365869,0.0707244873046875,-0.44171142578125,-0.893218994140625,0.0683106109499931,0.0110611729323863,0.0250251926481723
1769159365879,0.0767974853515625,-0.44140625,-0.886383056640625,0.0592079311609268,0.0021718079224228,0.023771908134222
1769159365889,0.0709991455078125,-0.4430084228515625,-0.8756103515625,0.0387356765568256,0.0052922335453331,0.0197236370295286
1769159365899,0.0627593994140625,-0.446197509765625,-0.8674774169921875,0.0155067881569266,0.0029987194575369,0.0089476881548762
1769159365909,0.05426025390625,-0.449310302734375,-0.8623046875,-0.0077974693849682,-0.0004444815858732,-0.0068358019925653
1769159365919,0.0511627197265625,-0.4462890625,-0.8628082275390625,-0.0229138378053903,0.0036466664168983,-0.0189220253378152
1769159365929,0.0540771484375,-0.4369659423828125,-0.8810577392578125,-0.0208080764859914,0.0067377975210547,-0.022378010675311
1769159365939,0.0671234130859375,-0.44281005859375,-0.8943023681640625,-0.0091157341375947,0.0089391665533185,-0.0209271200001239
1769159365949,0.073760986328125,-0.4412384033203125,-0.902923583984375,0.0050248522311449,0.0127482861280441,-0.0197236370295286
1769159365959,0.0753326416015625,-0.4374542236328125,-0.9053192138671876,0.0132050178945064,0.0142761413007974,-0.0176194738596677
1769159365969,0.0702362060546875,-0.4384002685546875,-0.9023284912109376,0.0215612184256315,0.0153382094576954,-0.020640030503273
1769159365979,0.06982421875,-0.4368133544921875,-0.90057373046875,0.0275357533246278,0.0115003287792205,-0.0210163351148366
1769159365989,0.070892333984375,-0.437652587890625,-0.892791748046875,0.028131503611803,0.0039611859247088,-0.0225399304181337
1769159365999,0.068572998046875,-0.439117431640625,-0.88775634765625,0.0276776999235153,0.0149552477523684,-0.0231505930423736
1769159366009,0.0619049072265625,-0.4432220458984375,-0.885223388671875,0.0243817716836929,0.0230166353285312,-0.027008980512619
1769159366019,0.06365966796875,-0.4495086669921875,-0.8815765380859375,0.0169944297522306,0.0148191601037979,-0.0332370474934577
1769159366030,0.0724945068359375,-0.4481201171875,-0.878814697265625,0.009051552042365,0.012559201568365,-0.0358999446034431
1769159366040,0.0771026611328125,-0.4482421875,-0.8837127685546875,0.0065732141956686,0.0086510125547647,-0.0354898162186145
1769159366050,0.0787811279296875,-0.4456024169921875,-0.885284423828125,0.0001565938728163,0.0065953182056546,-0.0340085662901401
1769159366060,0.07879638671875,-0.44708251953125,-0.8845367431640625,0.0059495018795132,0.0057590859942138,-0.0242520757019519
1769159366070,0.083587646484375,-0.4446868896484375,-0.8901824951171875,0.0042815641500055,0.001350222621113,-0.018555574119091
1769159366080,0.08099365234375,-0.4411773681640625,-0.890838623046875,0.0090387687087059,-0.0058640143834054,-0.0179395861923694
1769159366090,0.07476806640625,-0.439697265625,-0.8935699462890625,0.0133794546127319,-0.0098888492211699,-0.0154436714947223
1769159366100,0.075531005859375,-0.44110107421875,-0.8941497802734375,0.016917198896408,-0.0063415192998945,-0.0131421675905585
1769159366110,0.0768890380859375,-0.4447174072265625,-0.8919677734375,0.017993114888668,0.0022133530583232,-0.013260412029922
1769159366120,0.0673675537109375,-0.4468536376953125,-0.89019775390625,0.0227567106485366,-0.0017981663113459,-0.0185121651738882
1769159366130,0.0746612548828125,-0.4467620849609375,-0.893798828125,0.030590932816267,-0.0022439796011894,-0.0114830182865262
1769159366140,0.0875244140625,-0.4443511962890625,-0.9025726318359376,0.0398451499640941,-0.0016133430181071,-0.0002394181792624
1769159366150,0.0887603759765625,-0.446868896484375,-0.9008331298828124,0.0481867045164108,-0.0055058193393051,0.0006697850185446
1769159366160,0.0814971923828125,-0.4482879638671875,-0.900115966796875,0.0522498898208141,-0.0104475812986493,-0.0002202434261562
1769159366170,0.0753326416015625,-0.44757080078125,-0.8992767333984375,0.0550914816558361,-0.0146324718371033,-0.0054810517467558
1769159366180,0.0712127685546875,-0.4480438232421875,-0.894195556640625,0.0561913661658763,-0.0144580351188778,-0.0005723133217543
1769159366190,0.0779571533203125,-0.4466400146484375,-0.8885040283203125,0.0616995841264724,-0.0170498229563236,8.628641808172688e-05
1769159366200,0.0740814208984375,-0.4470367431640625,-0.8868560791015625,0.0583786219358444,-0.0167587399482727,-0.0057708038948476
1769159366211,0.064727783203125,-0.4484405517578125,-0.8772125244140625,0.0473632551729679,-0.0110822124406695,-0.0143014416098594
1769159366221,0.062835693359375,-0.4544219970703125,-0.869140625,0.0351007282733917,0.0031744879670441,-0.0179624892771244
1769159366231,0.0664215087890625,-0.453765869140625,-0.8658905029296875,0.0169765874743461,-0.0020378509070724,-0.0201856959611177
1769159366241,0.067535400390625,-0.455078125,-0.8596038818359375,-0.0029569077305495,-0.0071039823815226,-0.0258060302585363
1769159366251,0.07135009765625,-0.4550018310546875,-0.85821533203125,-0.0180530361831188,-0.0083956150338053,-0.0225487183779478
1769159366261,0.0757904052734375,-0.4525146484375,-0.8614501953125,-0.0311587173491716,0.0075119785033166,-0.0154628455638885
1769159366272,0.0741424560546875,-0.4520263671875,-0.867156982421875,-0.0414081588387489,0.025006016716361,-0.00698067760095
1769159366281,0.0687103271484375,-0.4508819580078125,-0.868438720703125,-0.0498122982680797,0.0120798321440815,-0.0135123468935489
1769159366291,0.0638275146484375,-0.446502685546875,-0.8751983642578125,-0.0504956655204296,-0.011152253486216,-0.0285147316753864
1769159366301,0.07281494140625,-0.44171142578125,-0.8967132568359375,-0.0317677818238735,-0.014576013199985,-0.0293115489184856
1769159366311,0.0762481689453125,-0.4404144287109375,-0.911834716796875,-0.004145476501435,-0.0354264341294765,-0.0371500328183174
1769159366321,0.0591583251953125,-0.444244384765625,-0.9161834716796876,0.0151296844705939,-0.0360413566231727,-0.0515614598989486
1769159366331,0.0602874755859375,-0.449981689453125,-0.91656494140625,0.042003110051155,-0.0299254078418016,-0.0496455840766429
1769159366341,0.0780792236328125,-0.45306396484375,-0.9143829345703124,0.0531854555010795,-0.0123062012717127,-0.0280015412718057
1769159366351,0.106231689453125,-0.453369140625,-0.902923583984375,0.0544437989592552,-0.0038461373187601,-0.0067875985987484
1769159366361,0.0921783447265625,-0.455810546875,-0.8900146484375,0.0505222976207733,0.0067812069319188,-0.0104326670989394
1769159366371,0.0769805908203125,-0.46087646484375,-0.869903564453125,0.0251623447984457,0.0152785554528236,-0.0044381581246852
1769159366381,0.0705108642578125,-0.46685791015625,-0.854522705078125,0.0095865810289978,-0.0155017282813787,-0.0094704674556851
1769159366391,0.07537841796875,-0.45623779296875,-0.858489990234375,-0.0080587258562445,-0.0132092786952853,-0.0056152748875319
1769159366401,0.083984375,-0.4541778564453125,-0.8726806640625,-0.0124140586704015,-0.0109668970108032,-0.0013427657540887
1769159366411,0.0802764892578125,-0.45184326171875,-0.8773193359375,-0.0152774900197982,0.0076163741759955,0.007799866143614
1769159366421,0.0789337158203125,-0.447906494140625,-0.8834075927734375,-0.020316457375884,-0.0048951562494039,0.0129461586475372
1769159366432,0.07232666015625,-0.4484100341796875,-0.87872314453125,-0.0201326981186866,0.00332921766676,-0.0045358957722783
1769159366442,0.0623321533203125,-0.433563232421875,-0.898193359375,-0.0020991035271435,0.022627281025052,-0.00478330347687
1769159366452,0.0666656494140625,-0.4412994384765625,-0.8991546630859375,0.0055470983497798,0.0133397737517952,-0.0164287742227315
1769159366462,0.06915283203125,-0.4541473388671875,-0.8871917724609375,-0.0081327613443136,0.0175726022571325,-0.0153499273583292
1769159366472,0.0742034912109375,-0.4519500732421875,-0.88079833984375,-0.006866960786283,0.0102246738970279,-0.0208429638296365
1769159366482,0.0661468505859375,-0.4495697021484375,-0.8793792724609375,-0.0170871075242757,0.003458913648501,-0.0212712008506059
1769159366492,0.064727783203125,-0.4554290771484375,-0.8690338134765625,-0.0316420830786228,-0.0037289580795913,-0.018500180914998
1769159366502,0.0707550048828125,-0.4536590576171875,-0.866363525390625,-0.0433453433215618,-0.0315741710364818,-0.0304220877587795
1769159366512,0.0768280029296875,-0.4495849609375,-0.87127685546875,-0.0502226911485195,-0.0339678190648555,-0.0242214500904083
1769159366522,0.09161376953125,-0.4536590576171875,-0.882537841796875,-0.0450364500284194,-0.0335869900882244,-0.0152820171788334
1769159366532,0.0896453857421875,-0.45556640625,-0.8931732177734375,-0.0374275334179401,-0.0273703709244728,-0.0007017429452389
1769159366542,0.089569091796875,-0.4532012939453125,-0.904998779296875,-0.021575067192316,-0.0189316123723983,0.0100257359445095
1769159366552,0.0781097412109375,-0.4516448974609375,-0.9052734375,-0.0080643184483051,-0.0119080580770969,0.0139128863811492
1769159366562,0.067626953125,-0.4510040283203125,-0.906280517578125,0.0050333742983639,0.0063889236189424,0.0148939946666359
1769159366572,0.06512451171875,-0.4478759765625,-0.910247802734375,0.0240928195416927,0.006924485322088,0.0121032679453492
1769159366582,0.070343017578125,-0.44580078125,-0.912353515625,0.0410241335630416,0.0001129180309362,0.0090289153158664
1769159366593,0.0705718994140625,-0.44696044921875,-0.90576171875,0.0504035204648971,-0.0123035376891493,0.0070083746686577
1769159366602,0.0702972412109375,-0.4493255615234375,-0.89654541015625,0.055256862193346,-0.0194519944489002,0.0082158520817756
1769159366612,0.0723114013671875,-0.4522705078125,-0.8855743408203125,0.0505284219980239,-0.0233998652547597,0.0090182619169354
1769159366622,0.0648345947265625,-0.452484130859375,-0.8715057373046875,0.0387564487755298,-0.0105208177119493,0.0064397896640002
1769159366633,0.064910888671875,-0.4535980224609375,-0.8662261962890625,0.0227553788572549,-0.0048450888134539,0.005216599907726
1769159366643,0.0689239501953125,-0.454925537109375,-0.86474609375,0.0046067358925938,-0.0004482100193854,0.0034783547744154
1769159366653,0.066619873046875,-0.453338623046875,-0.8682861328125,-0.0061577609740197,-0.0006202502408996,-0.0020591560751199
1769159366663,0.0665130615234375,-0.456512451171875,-0.87213134765625,-0.0216341894119977,-0.0076240976341068,-0.003770237090066
1769159366673,0.0684356689453125,-0.4575653076171875,-0.8746795654296875,-0.0244590044021606,-0.002584597794339,-0.0131187317892909
1769159366683,0.063934326171875,-0.4478302001953125,-0.88775634765625,-0.0194405429065227,0.0024863271974027,-0.0096153430640697
1769159366693,0.0792388916015625,-0.4485321044921875,-0.896820068359375,-0.0038916773628443,0.0017773937433958,0.0048096687532961
1769159366703,0.09185791015625,-0.4446563720703125,-0.9049530029296876,0.0190666355192661,0.0001318264694418,0.0136902453377842
1769159366713,0.08367919921875,-0.4371795654296875,-0.9095916748046876,0.0328258574008941,0.001865011639893,0.0195968709886074
1769159366723,0.071075439453125,-0.4432830810546875,-0.8969268798828125,0.0353148467838764,0.0088374335318803,0.0156330224126577
1769159366733,0.061065673828125,-0.4459381103515625,-0.8842620849609375,0.0288180653005838,0.0086092008277773,0.007022222969681
1769159366743,0.0607452392578125,-0.4490509033203125,-0.8754119873046875,0.0198895521461963,0.0031521173659712,-0.0013464941876009
1769159366753,0.068634033203125,-0.45477294921875,-0.8703765869140625,0.0024186829105019,-0.0063974456861615,-0.0033254891168326
1769159366763,0.07196044921875,-0.4564208984375,-0.8640899658203125,-0.0144207505509257,-0.0147179597988724,-0.0036091159563511
1769159366773,0.0734100341796875,-0.457672119140625,-0.8640594482421875,-0.0289956983178854,-0.0103695504367351,0.0009313074406236
1769159366783,0.068695068359375,-0.4611968994140625,-0.86517333984375,-0.0388826839625835,-0.0025294704828411,0.0006697850185446
1769159366793,0.0659637451171875,-0.4563446044921875,-0.875152587890625,-0.0389332845807075,0.0023260049056261,0.0044408212415874
1769159366803,0.067413330078125,-0.45257568359375,-0.8886566162109375,-0.0279482770711183,0.0017696705181151,0.0094733964651823
1769159366813,0.0722808837890625,-0.4493560791015625,-0.9019012451171876,-0.0118782306089997,0.0088723208755254,0.014935540035367
1769159366823,0.07464599609375,-0.44635009765625,-0.910003662109375,0.003901264630258,0.0061830612830817,0.0178069602698087
1769159366833,0.0750732421875,-0.4450531005859375,-0.912384033203125,0.0223846677690744,0.004031759686768,0.0215795934200286
1769159366844,0.0788726806640625,-0.4495849609375,-0.91021728515625,0.0371761322021484,0.0059138154610991,0.0278790351003408
1769159366854,0.074798583984375,-0.45220947265625,-0.8972015380859375,0.0438899584114551,0.0010908307740464,0.0266478564590215
1769159366864,0.067138671875,-0.4546661376953125,-0.8880462646484375,0.0374634861946105,0.0069812103174626,0.0253519620746374
1769159366874,0.0663909912109375,-0.4569244384765625,-0.8778533935546875,0.0268827471882104,0.001513474388048,0.0278065968304872
1769159366884,0.066741943359375,-0.4571533203125,-0.870880126953125,0.0176674108952283,-0.002329733222723,0.024518659338355
1769159366894,0.0698394775390625,-0.45599365234375,-0.8718109130859375,0.004055461846292,-0.0030341395176947,0.0221417881548404
1769159366904,0.0653228759765625,-0.456756591796875,-0.86761474609375,-0.0101074948906898,0.0009896307019516,0.0150252887979149
1769159366914,0.0544281005859375,-0.45526123046875,-0.86822509765625,-0.0180011037737131,0.0075274249538779,0.0130446953698992
1769159366924,0.059326171875,-0.45562744140625,-0.8742218017578125,-0.024672856554389,0.0058491006493568,0.0067282100208103
1769159366934,0.0594940185546875,-0.4542388916015625,-0.8780059814453125,-0.0280145909637212,6.657902849838138e-05,0.010963968001306
1769159366944,0.0643310546875,-0.45257568359375,-0.884613037109375,-0.0244949571788311,0.0043619913049042,0.0117272296920418
1769159366954,0.06988525390625,-0.457000732421875,-0.8885650634765625,-0.0190354771912097,0.0046693203039467,0.0146971866488456
1769159366964,0.0688629150390625,-0.455413818359375,-0.8917083740234375,-0.014740596525371,0.0010769823566079,0.0113661047071218
1769159366974,0.069793701171875,-0.455322265625,-0.89776611328125,-0.0029028456192463,-0.0014104101574048,0.0113205648958683
1769159366984,0.0747528076171875,-0.456634521484375,-0.8986663818359375,0.0027678234037011,0.0046402919106185,0.014536865055561
1769159366994,0.065032958984375,-0.4597320556640625,-0.8919830322265625,0.0067543089389801,0.0140287335962057,0.0183156244456768
1769159367006,0.058197021484375,-0.459014892578125,-0.883056640625,0.0021052288357168,0.0122196478769183,0.021367073059082
1769159367014,0.0627593994140625,-0.459564208984375,-0.875640869140625,-0.0104795387014746,0.0111027183011174,0.0178050957620143
1769159367024,0.0635986328125,-0.454864501953125,-0.8738250732421875,-0.01640853472054,0.0028858012519776,0.0151880076155066
1769159367034,0.0714569091796875,-0.4493560791015625,-0.8797149658203125,-0.0157888159155845,0.0029827402904629,0.0172120109200477
1769159367044,0.0716400146484375,-0.451385498046875,-0.8883514404296875,-0.0115751633420586,0.0082691153511404,0.016596021130681
1769159367055,0.0608978271484375,-0.4542694091796875,-0.8903045654296875,-0.0073090456426143,0.0073460633866488,0.011142399162054
1769159367065,0.0557708740234375,-0.4525909423828125,-0.8932647705078125,-0.0040269657038152,0.0131805166602134,0.0050799795426428
1769159367075,0.0606536865234375,-0.4542694091796875,-0.895294189453125,0.0050315102562308,0.0229559149593114,0.0022948458790779
1769159367085,0.0634918212890625,-0.45556640625,-0.892730712890625,0.0129477567970752,0.0332016274333,0.0047239148989319
1769159367095,0.067535400390625,-0.4568023681640625,-0.8907623291015625,0.0172607451677322,0.0315936133265495,0.0048751826398074
1769159367105,0.0695037841796875,-0.4545440673828125,-0.8889617919921875,0.0151200974360108,0.0192147064954042,-0.0006870955694466
1769159367115,0.066314697265625,-0.4563751220703125,-0.8827972412109375,0.0120484074577689,0.0242478158324956,-0.0057026268914341
1769159367125,0.0629730224609375,-0.46197509765625,-0.8771514892578125,0.0064879930578172,0.0292694717645645,-0.0086693884804844
1769159367135,0.064300537109375,-0.4674530029296875,-0.8694305419921875,-0.0083524724468588,0.0196144469082355,-0.0135850505903363
1769159367145,0.067474365234375,-0.4665985107421875,-0.8628082275390625,-0.0213380455970764,0.0173385106027126,-0.0215835887938737
1769159367155,0.0590362548828125,-0.4562530517578125,-0.8726959228515625,-0.0288209952414035,0.0176666118204593,-0.0290316510945558
1769159367165,0.0556640625,-0.4593963623046875,-0.871551513671875,-0.0253413096070289,0.024973526597023,-0.0274041928350925
1769159367175,0.057647705078125,-0.451873779296875,-0.88177490234375,-0.0228107739239931,0.0264252163469791,-0.0285775829106569
1769159367185,0.0606231689453125,-0.449554443359375,-0.8896484375,-0.0161083955317735,0.0101280016824603,-0.0425434671342372
1769159367195,0.0605316162109375,-0.4450836181640625,-0.8946075439453125,0.0012263857061043,0.0113280219957232,-0.0453307293355464
1769159367205,0.072021484375,-0.4476318359375,-0.9031829833984376,0.0059415125288069,0.0070592411793768,-0.0342370644211769
1769159367215,0.0824432373046875,-0.45501708984375,-0.890625,0.0089482208713889,0.0082036014646291,-0.0258507709950208
1769159367226,0.0792083740234375,-0.4537353515625,-0.8861846923828125,0.0109266834333539,0.0217202082276344,-0.0176551602780818
1769159367236,0.07525634765625,-0.4465179443359375,-0.884765625,0.0102148205041885,0.0196983367204666,-0.0068789450451731
1769159367245,0.07464599609375,-0.4469146728515625,-0.8786163330078125,-0.0015419702976942,0.0204109996557235,-0.0055257929489016
1769159367255,0.0746002197265625,-0.4474334716796875,-0.8724822998046875,-0.0187150985002517,0.0148199591785669,-0.0078070568852126
1769159367266,0.0701904296875,-0.450653076171875,-0.8663482666015625,-0.0360482819378376,0.0106007130816578,-0.0138854552060365
1769159367276,0.0673675537109375,-0.454010009765625,-0.86480712890625,-0.0445829145610332,0.0096470350399613,-0.0190075132995843
1769159367286,0.0707550048828125,-0.4567108154296875,-0.870819091796875,-0.0473741739988327,0.0073508573696017,-0.0193912740796804
1769159367296,0.07574462890625,-0.45867919921875,-0.878997802734375,-0.0494210794568061,0.0077415429987013,-0.0201649237424135
1769159367306,0.073516845703125,-0.4595489501953125,-0.8848114013671875,-0.0450585559010505,0.0064965151250362,-0.0218320619314908
1769159367316,0.0704345703125,-0.4537353515625,-0.897003173828125,-0.0305789485573768,0.003198190126568,-0.0219979770481586
1769159367326,0.078094482421875,-0.4526519775390625,-0.906982421875,-0.0161757748574018,0.0058554923161864,-0.0114633105695247
1769159367336,0.0847015380859375,-0.4520111083984375,-0.9089202880859376,-0.0018753979820758,0.0066901268437504,-0.0010341054294258
1769159367346,0.0797271728515625,-0.45050048828125,-0.908721923828125,0.0129938293248415,0.0058003650046885,0.0038610508199781
1769159367356,0.08050537109375,-0.4522247314453125,-0.90472412109375,0.0205398965626955,-0.0007848335662856,0.0060722734779119
1769159367366,0.0799102783203125,-0.454010009765625,-0.897613525390625,0.0258105583488941,0.0036935380194336,0.011086206883192
1769159367376,0.082244873046875,-0.4522552490234375,-0.8946990966796875,0.0317837633192539,0.0069708242081105,0.0138564268127083
1769159367386,0.085540771484375,-0.4527435302734375,-0.8887176513671875,0.0337624922394752,0.0099788643419742,0.0199002046138048
1769159367396,0.0779876708984375,-0.4492034912109375,-0.8857269287109375,0.0361529439687728,0.0192456003278493,0.0161078628152608
1769159367406,0.065399169921875,-0.4529266357421875,-0.87646484375,0.0213415082544088,0.022459503263235,0.0081580616533756
1769159367416,0.0697479248046875,-0.4555206298828125,-0.865386962890625,0.0076342173852026,0.0248630046844482,-0.0027060380671173
1769159367426,0.06817626953125,-0.4499053955078125,-0.866180419921875,-0.0021819279063493,0.0230059828609228,-0.0143634928390383
1769159367436,0.06353759765625,-0.4442138671875,-0.8722991943359375,-0.0090321106836199,0.0233852174133062,-0.0160849597305059
1769159367446,0.0694122314453125,-0.4527130126953125,-0.87176513671875,-0.0151137057691812,0.0210706647485494,-0.0166010800749063
1769159367456,0.0759429931640625,-0.4546356201171875,-0.8761138916015625,-0.0180405192077159,0.0118417460471391,-0.0203036740422248
1769159367467,0.073577880859375,-0.451385498046875,-0.8811492919921875,-0.0170474257320165,0.0025928535033017,-0.0216336566954851
1769159367477,0.0727386474609375,-0.4494476318359375,-0.8888092041015625,-0.0081780347973108,0.0142292696982622,-0.0240534041076898
1769159367487,0.0675201416015625,-0.447784423828125,-0.897796630859375,-0.0037404096219688,0.0218403171747922,-0.0220075640827417
1769159367497,0.067657470703125,-0.4526824951171875,-0.892822265625,0.0033638386521488,0.0197545289993286,-0.0209486912935972
1769159367507,0.0805816650390625,-0.4538726806640625,-0.8968658447265625,0.0073561836034059,0.0189316123723983,-0.0164229162037372
1769159367517,0.0897064208984375,-0.455535888671875,-0.8987579345703125,0.0134223317727446,0.022620890289545,-0.0045018075034022
1769159367527,0.091705322265625,-0.456024169921875,-0.8910675048828125,0.0153525909408926,0.014657505787909,0.004790760576725
1769159367537,0.0931549072265625,-0.4557037353515625,-0.890350341796875,0.0161520726978778,0.0150766875594854,0.0147632332518696
1769159367547,0.0907745361328125,-0.4539337158203125,-0.8905181884765625,0.0207904987037181,0.0118484031409025,0.0199678484350442
1769159367560,0.0874786376953125,-0.451324462890625,-0.8911285400390625,0.0248512867838144,0.0058698733337223,0.0243133287876844
1769159367567,0.0843505859375,-0.451507568359375,-0.8925018310546875,0.0278398860245943,0.0015686018159613,0.0270217638462781
1769159367577,0.077880859375,-0.4561309814453125,-0.8849945068359375,0.0231330152601003,0.0025238776579499,0.0249817818403244
1769159367587,0.071380615234375,-0.45635986328125,-0.8790435791015625,0.0180639550089836,0.0105418572202324,0.0212096814066171
1769159367597,0.062286376953125,-0.453582763671875,-0.8756103515625,0.0107538439333438,0.0086475498974323,0.0124473487958312
1769159367607,0.0644073486328125,-0.4562225341796875,-0.872802734375,0.0024037691764533,0.011929896660149,0.0151467286050319
1769159367617,0.069854736328125,-0.4522705078125,-0.8723907470703125,-0.0053335125558078,0.0093423686921596,0.0144689539447426
1769159367627,0.0734405517578125,-0.453125,-0.872283935546875,-0.0146247493103146,0.0081146517768502,0.0113341473042964
1769159367637,0.073577880859375,-0.4534912109375,-0.869964599609375,-0.0207971576601266,0.0013646037550643,0.013636982999742
1769159367647,0.0759429931640625,-0.4550628662109375,-0.8712158203125,-0.0211481619626283,-0.0021419804543256,0.0164740476757287
1769159367657,0.0822296142578125,-0.4553375244140625,-0.8836822509765625,-0.0161283705383539,0.0003885551996063,0.0201699826866388
1769159367667,0.075592041015625,-0.4552001953125,-0.8871002197265625,-0.0110457269474864,-0.0030080403666943,0.0121400197967886
1769159367677,0.0630950927734375,-0.4524383544921875,-0.8899688720703125,-0.0062762717716395,-0.0119719738140702,0.0068363342434167
1769159367687,0.06707763671875,-0.4490203857421875,-0.896728515625,0.0030924626626074,-0.0123690515756607,0.0069718891754746
1769159367698,0.07421875,-0.45361328125,-0.8984375,0.0095841838046908,-0.0063250074163079,0.0121192466467618
1769159367708,0.0723724365234375,-0.4555511474609375,-0.892974853515625,0.0136268623173236,-0.0088512822985649,0.0125024756416678
1769159367718,0.068634033203125,-0.4576263427734375,-0.886199951171875,0.0108316084370017,-0.0119197759777307,0.0094978976994752
1769159367728,0.0683135986328125,-0.4592437744140625,-0.879150390625,0.0053601441904902,-0.0074904067441821,0.0081055974587798
1769159367738,0.068511962890625,-0.45819091796875,-0.8748931884765625,-0.003304183948785,-0.0084094638004899,0.0073212962597608
1769159367748,0.069793701171875,-0.4563751220703125,-0.873565673828125,-0.0086297066882252,-0.0037729002069681,0.0087380977347493
1769159367758,0.0719146728515625,-0.449920654296875,-0.881591796875,-0.0063423179090023,-0.004070907831192,0.0122590633109211
1769159367768,0.0762939453125,-0.4514312744140625,-0.8860321044921875,-0.0086680566892027,-0.0088800443336367,0.0135898450389504
1769159367778,0.0736541748046875,-0.4529876708984375,-0.8807830810546875,-0.013089969754219,-0.0132918367162346,0.0070437947288155
1769159367788,0.069610595703125,-0.449859619140625,-0.8824920654296875,-0.0099708754569292,-0.0096699381247162,0.0066991816274821
1769159367798,0.0704803466796875,-0.4483489990234375,-0.8848876953125,-0.011593272909522,-0.0019891150295734,0.001686047296971
1769159367808,0.066131591796875,-0.4506683349609375,-0.8789825439453125,-0.0131357759237289,-0.0018101505702361,-0.000786431482993
1769159367818,0.0661773681640625,-0.4488983154296875,-0.8750457763671875,-0.0167707242071628,-0.0043460126034915,-0.0032131038606166
1769159367828,0.0730133056640625,-0.4510650634765625,-0.879791259765625,-0.0188072435557842,0.0042365565896034,0.0010825749486684
1769159367838,0.075469970703125,-0.452178955078125,-0.878448486328125,-0.0212490949779748,-0.0017204020405188,0.0017164073651656
1769159367848,0.074127197265625,-0.4506988525390625,-0.8774566650390625,-0.0269450638443231,-0.0051148673519492,0.0018807243322953
1769159367859,0.0694122314453125,-0.4511260986328125,-0.876068115234375,-0.0358506739139556,0.0036511938087642,-0.0034069819375872
1769159367868,0.0648345947265625,-0.4557647705078125,-0.868743896484375,-0.0430409424006938,0.002166481455788,-0.0028069717809557
1769159367882,0.0711822509765625,-0.4573516845703125,-0.87030029296875,-0.0531388521194458,-0.0031108383554965,-0.0022133530583232
1769159367888,0.0697784423828125,-0.4550933837890625,-0.874969482421875,-0.0557974837720394,-0.0030242856591939,-0.0098441084846854
1769159367899,0.061767578125,-0.4511260986328125,-0.884613037109375,-0.0541833452880382,-0.002976348856464,-0.0124904913827776
1769159367908,0.0650482177734375,-0.4503021240234375,-0.8924560546875,-0.0458748154342174,-0.0071074441075325,-0.0134377777576446
1769159367918,0.0687713623046875,-0.449859619140625,-0.8970947265625,-0.0398904234170913,-0.0076470007188618,-0.0137261981144547
1769159367928,0.071044921875,-0.4482269287109375,-0.9014129638671876,-0.0217764023691415,-0.0068397964350879,-0.0243969522416591
1769159367939,0.063568115234375,-0.4369354248046875,-0.9147796630859376,0.0069702914915978,-0.0023124227300286,-0.0250680688768625
1769159367949,0.075775146484375,-0.442291259765625,-0.9167327880859376,0.0210695993155241,-0.0020937772933393,-0.0169054809957742
1769159367959,0.084747314453125,-0.449005126953125,-0.9064788818359376,0.0313693732023239,-0.0052352421917021,-0.0106862001121044
1769159367969,0.0780487060546875,-0.4448394775390625,-0.899505615234375,0.0424409322440624,-0.0009182579233311,-0.0037843519821763
1769159367979,0.0753021240234375,-0.4430389404296875,-0.889678955078125,0.033784594386816,-0.0071500549092888,-0.0015307849971577
1769159367989,0.06915283203125,-0.4453887939453125,-0.8741302490234375,0.0116819562390446,-0.0108150970190763,-0.0053481599316
1769159367999,0.065338134765625,-0.451568603515625,-0.8598785400390625,-0.0169342420995235,-0.018304705619812,-0.0147627005353569
1769159368009,0.059600830078125,-0.455352783203125,-0.8483734130859375,-0.047888696193695,-0.0180905871093273,-0.0223958529531955
1769159368019,0.066192626953125,-0.455352783203125,-0.8516082763671875,-0.065896987915039,-0.0134428385645151,-0.0214078202843666
1769159368029,0.0767974853515625,-0.454315185546875,-0.8615264892578125,-0.0790380910038948,-0.0067796092480421,-0.0180756729096174
1769159368039,0.0739898681640625,-0.4498443603515625,-0.8709716796875,-0.0794159993529319,-0.0021254688035696,-0.0151677671819925
1769159368049,0.07244873046875,-0.443206787109375,-0.890899658203125,-0.064540646970272,-0.0010034791193902,-0.0158119853585958
1769159368059,0.073028564453125,-0.4407501220703125,-0.9100189208984376,-0.0365769192576408,0.0006743124104104,-0.0146873332560062
1769159368069,0.07672119140625,-0.4416046142578125,-0.92230224609375,-0.009989783167839,-0.0034855452831834,-0.0068941251374781
1769159368079,0.0839996337890625,-0.44012451171875,-0.9266510009765624,0.010416155681014,-0.0047872983850538,0.0029891319572925
1769159368089,0.0903472900390625,-0.44281005859375,-0.92144775390625,0.0309435352683067,-0.0042445459403097,0.0140396524220705
1769159368100,0.08587646484375,-0.44482421875,-0.9075775146484376,0.0386794842779636,0.0018769958987832,0.0204746481031179
1769159368110,0.0817413330078125,-0.445037841796875,-0.8930206298828125,0.0314756333827972,-0.0013984258985146,0.0200035348534584
1769159368120,0.074737548828125,-0.447265625,-0.8762969970703125,0.0180546343326568,-0.005977464839816,0.0152423363178968
1769159368130,0.0722808837890625,-0.450897216796875,-0.869140625,-0.0023987090680748,-0.0037598507478833,0.0127954240888357
1769159368140,0.0688629150390625,-0.451873779296875,-0.8660430908203125,-0.0236893501132726,-0.0025869945529848,0.0112617090344429
1769159368150,0.067047119140625,-0.451568603515625,-0.8651275634765625,-0.0403439588844776,0.0035361452028155,0.0093791205435991
1769159368160,0.068267822265625,-0.4529571533203125,-0.8699951171875,-0.0522794499993324,0.0037483992055058,0.0076081184670329
1769159368170,0.0716705322265625,-0.45001220703125,-0.878814697265625,-0.0492178797721862,0.0088414279744029,0.0066136941313743
1769159368180,0.0748291015625,-0.436737060546875,-0.9011077880859376,-0.0337201468646526,0.0105301393195986,0.0079162465408444
1769159368190,0.0791473388671875,-0.4412689208984375,-0.905975341796875,-0.021287178620696,0.0082534020766615,0.0100912498310208
1769159368200,0.08135986328125,-0.4437408447265625,-0.907135009765625,-0.0080270338803529,0.0021576930303126,0.0085064023733139
1769159368210,0.0755462646484375,-0.4395294189453125,-0.912322998046875,0.0059969061985611,0.0085309036076068,0.012596751563251
1769159368220,0.0717926025390625,-0.43890380859375,-0.91094970703125,0.0273163095116615,0.0110795488581061,0.0124364299699664
1769159368230,0.06597900390625,-0.4397125244140625,-0.9088592529296876,0.0397189185023307,0.0158362202346324,0.0110513195395469
1769159368240,0.0665435791015625,-0.4471435546875,-0.8983154296875,0.0340596996247768,0.0079708406701684,0.0055215316824615
1769159368250,0.069488525390625,-0.4524993896484375,-0.8789520263671875,0.0211921036243438,0.002699912758544,-0.0014588796766474
1769159368260,0.0725250244140625,-0.450836181640625,-0.8734588623046875,0.0120390858501195,0.0082395542412996,0.0018266622209921
1769159368270,0.07525634765625,-0.4485321044921875,-0.8726654052734375,0.0050147324800491,0.0144457845017313,0.0058104847557842
1769159368280,0.079437255859375,-0.44891357421875,-0.8738555908203125,-0.0018591526895761,0.0198352243751287,0.0190186984837055
1769159368290,0.0834197998046875,-0.4477081298828125,-0.8769683837890625,-0.0120185799896717,0.0158575270324945,0.0246912315487861
1769159368300,0.075286865234375,-0.448089599609375,-0.8759765625,-0.0228959955275058,0.0140761379152536,0.0185473188757896
1769159368310,0.066741943359375,-0.4481048583984375,-0.880340576171875,-0.024461667984724,0.0115993982180953,0.0141853271052241
1769159368321,0.06500244140625,-0.445159912109375,-0.887054443359375,-0.0223945211619138,0.0072922678664326,0.0114787565544247
1769159368331,0.068939208984375,-0.4454345703125,-0.8936309814453125,-0.0176764652132987,0.0045486791059374,0.0098092211410403
1769159368341,0.0704193115234375,-0.446624755859375,-0.89813232421875,-0.0067258132621645,0.0051545482128858,0.0100049637258052
1769159368351,0.0669708251953125,-0.4475860595703125,-0.89898681640625,-0.0023624901659786,0.0001448759576305,0.0036338833160698
1769159368361,0.0652313232421875,-0.4497833251953125,-0.896270751953125,0.0012535499408841,-0.0041119204834103,0.0013283847365528
1769159368371,0.07623291015625,-0.4482421875,-0.89813232421875,0.0075527247972786,-0.0009592706337571,0.0082608591765165
1769159368381,0.0816650390625,-0.4469451904296875,-0.8968505859375,0.0105477161705493,-0.0006993460701778,0.0138931786641478
1769159368391,0.0767059326171875,-0.4464263916015625,-0.888214111328125,0.0116606503725051,0.0091783180832862,0.0226637665182352
1769159368401,0.0781402587890625,-0.4443817138671875,-0.88458251953125,0.0042530680075287,0.0150117063894867,0.0259194821119308
1769159368411,0.0743865966796875,-0.4470062255859375,-0.8753204345703125,-0.0097141461446881,0.0098110856488347,0.0202006101608276
1769159368421,0.0701751708984375,-0.44647216796875,-0.870330810546875,-0.0209572128951549,0.0058839879930019,0.0186088383197784
1769159368431,0.07366943359375,-0.4431304931640625,-0.8757476806640625,-0.027253458276391,0.0109266834333539,0.0216379165649414
1769159368441,0.07080078125,-0.44293212890625,-0.8810577392578125,-0.0273559913039207,0.0110995229333639,0.0126731842756271
1769159368451,0.0603790283203125,-0.444793701171875,-0.88311767578125,-0.0261517092585563,0.0081876227632164,0.0011142665753141
1769159368461,0.062164306640625,-0.4462127685546875,-0.89141845703125,-0.0213260613381862,0.0097873834893107,0.0025028388481587
1769159368471,0.0705718994140625,-0.4481353759765625,-0.8949127197265625,-0.0139038311317563,0.001994707621634,0.0054142065346241
1769159368481,0.07318115234375,-0.4494171142578125,-0.89959716796875,-0.0068342038430273,-0.0036799560766667,0.009490973316133
1769159368491,0.0746307373046875,-0.44744873046875,-0.900543212890625,-0.0034908715169876,0.0035635759122669,0.0157976057380437
1769159368502,0.0719757080078125,-0.4477691650390625,-0.897186279296875,0.0043366914615035,0.0045276400633156,0.0188961923122406
1769159368511,0.07476806640625,-0.4476318359375,-0.8925323486328125,0.0097769973799586,0.002150768879801,0.0183577015995979
1769159368521,0.0814056396484375,-0.4493255615234375,-0.8910980224609375,0.0051220576278865,-0.0003265035338699,0.0171773880720138
1769159368532,0.074188232421875,-0.4494781494140625,-0.8831329345703125,0.0027033747173845,-0.0010852381819859,0.0196139141917228
1769159368542,0.06951904296875,-0.44049072265625,-0.885833740234375,0.0094606131315231,0.0123408222571015,0.0239468775689601
1769159368552,0.066802978515625,-0.440582275390625,-0.89385986328125,0.0136899799108505,0.0174258612096309,0.0175108164548873
1769159368562,0.062652587890625,-0.445343017578125,-0.890655517578125,0.0145174236968159,0.0145832039415836,0.0104292053729295
1769159368572,0.06414794921875,-0.448822021484375,-0.8833160400390625,0.0036384107079356,0.0089375684037804,0.0034543862566351
1769159368582,0.070037841796875,-0.453277587890625,-0.87493896484375,-0.0120428139343857,0.0001904160162666,0.0051678642630577
1769159368592,0.0755462646484375,-0.4533538818359375,-0.8740692138671875,-0.0199771709740161,-0.0050320429727435,0.0049441587179899
1769159368602,0.0749664306640625,-0.4473419189453125,-0.8820953369140625,-0.0271288231015205,-0.0022993732709437,0.0085439532995224
1769159368612,0.06768798828125,-0.444488525390625,-0.888427734375,-0.0232267584651708,0.0010956244077533,0.0131831802427768
1769159368622,0.0715484619140625,-0.4531707763671875,-0.8910369873046875,-0.0129315108060836,0.0086494144052267,0.0234866831451654
1769159368632,0.0822906494140625,-0.455657958984375,-0.8939361572265625,-0.003785949666053,0.0108686266466975,0.0265376009047031
1769159368642,0.070953369140625,-0.4459686279296875,-0.9038543701171876,0.0086094671860337,0.0108196241781115,0.0146468533203005
1769159368652,0.06719970703125,-0.450927734375,-0.8990325927734375,0.0133637422695755,0.0070595075376331,0.0138047616928815
1769159368662,0.0731201171875,-0.4464111328125,-0.897064208984375,0.0216480381786823,0.0020160130225121,0.0101429149508476
1769159368672,0.0677947998046875,-0.4438629150390625,-0.8941192626953125,0.0262768771499395,-0.0055976980365812,-0.0075002606026828
1769159368682,0.0513458251953125,-0.4300689697265625,-0.8958587646484375,0.0416113585233688,-0.0034402713645249,-0.0141589622944593
1769159368692,0.0558319091796875,-0.4388275146484375,-0.8953094482421875,0.0441602692008018,0.0068536452017724,-0.0028794098179787
1769159368702,0.0757598876953125,-0.45367431640625,-0.8821258544921875,0.0391330197453498,0.0130683975294232,0.0023952471092343
1769159368712,0.078582763671875,-0.45184326171875,-0.875396728515625,0.0252877790480852,0.0136713376268744,0.0033633061684668
1769159368722,0.0746307373046875,-0.4482574462890625,-0.8706512451171875,0.0159243717789649,0.0114222979173064,0.0067330040037631
1769159368733,0.0751190185546875,-0.4462890625,-0.8729705810546875,0.0029680929146707,0.0073660369962453,0.0091540832072496
1769159368743,0.07122802734375,-0.4487762451171875,-0.8664093017578125,-0.012852681800723,-0.0056632119230926,0.0025640914682298
1769159368753,0.0659027099609375,-0.45184326171875,-0.8657379150390625,-0.0234741661697626,-0.0012317119399085,0.001669269404374
1769159368763,0.069549560546875,-0.4538116455078125,-0.8762664794921875,-0.0223042406141757,0.0101493066176772,0.0080504696816205
1769159368773,0.0792083740234375,-0.4558258056640625,-0.8881072998046875,-0.0126803750172257,0.0109362704679369,0.0150681650266051
1769159368783,0.0877532958984375,-0.4541015625,-0.894989013671875,-0.0050770500674843,0.0135949049144983,0.0220768060535192
1769159368793,0.0830230712890625,-0.4547882080078125,-0.8993988037109375,0.0027521105948835,0.0113711655139923,0.0260539706796407
1769159368803,0.07269287109375,-0.45257568359375,-0.8982086181640625,0.0134361805394291,0.0141014382243156,0.0240547358989715
1769159368813,0.0710296630859375,-0.4514312744140625,-0.9010009765625,0.0235609859228134,0.0150553816929459,0.0218405835330486
1769159368823,0.065521240234375,-0.4532928466796875,-0.8971405029296875,0.0352701060473918,0.0161811001598835,0.0200304333120584
1769159368833,0.0646514892578125,-0.455963134765625,-0.8951873779296875,0.0493510365486145,0.0155501971021294,0.0254955068230628
1769159368843,0.0747222900390625,-0.4545135498046875,-0.896484375,0.0576324015855789,0.0162857621908187,0.0318239741027355
1769159368853,0.073486328125,-0.457122802734375,-0.889892578125,0.0565644763410091,0.0162769742310047,0.0319648571312427
1769159368863,0.071014404296875,-0.45782470703125,-0.878143310546875,0.0476753786206245,0.0077993334271013,0.0275179110467433
1769159368873,0.0656280517578125,-0.4571685791015625,-0.8683624267578125,0.0318253077566623,-0.0030229541007429,0.0156458057463169
1769159368883,0.0601806640625,-0.4553985595703125,-0.864471435546875,0.0148937283083796,0.0006892260862514,0.0094976313412189
1769159368893,0.057952880859375,-0.4587554931640625,-0.8610687255859375,-0.0041018007323145,0.0037017939612269,0.0020754013676196
1769159368903,0.0548553466796875,-0.462249755859375,-0.8607025146484375,-0.0183901917189359,0.0066581689752638,-0.0042781019583344
1769159368913,0.057891845703125,-0.46270751953125,-0.8676910400390625,-0.0293336547911167,0.0063716126605868,-0.0114151071757078
1769159368923,0.0648040771484375,-0.4613800048828125,-0.877899169921875,-0.0274273641407489,0.0087154610082507,-0.0209899693727493
1769159368933,0.06903076171875,-0.4576568603515625,-0.8946685791015625,-0.0164940226823091,0.0097977695986628,-0.0118944765999913
1769159368943,0.079833984375,-0.462921142578125,-0.897247314453125,-0.0023606258910149,0.0080398172140121,-0.0027497138362377
1769159368953,0.0874176025390625,-0.4593505859375,-0.9031982421875,0.0113868778571486,0.0123927537351846,0.0011195929255336
1769159368964,0.0818634033203125,-0.4504852294921875,-0.904296875,0.023078953847289,0.0133642749860882,0.0114462664350867
1769159368974,0.07672119140625,-0.451812744140625,-0.897674560546875,0.0220009069889783,0.0102763399481773,0.0148833421990275
1769159368984,0.0692138671875,-0.456756591796875,-0.88018798828125,0.0127986194565892,0.0115908756852149,0.0098041612654924
1769159368994,0.0596160888671875,-0.4567718505859375,-0.8680419921875,0.0009041432058438,0.018982745707035,0.0038466698024421
1769159369004,0.0626220703125,-0.4585723876953125,-0.8606719970703125,-0.0134236635640263,0.0267165657132864,0.0006966829532757
1769159369014,0.06427001953125,-0.4611663818359375,-0.859222412109375,-0.0288992915302515,0.0305698923766613,-0.0011558119440451
1769159369024,0.0697479248046875,-0.4604339599609375,-0.86334228515625,-0.0377652235329151,0.0244701895862817,0.0021142836194485
1769159369034,0.0768585205078125,-0.4593353271484375,-0.871429443359375,-0.041323471814394,0.0191965978592634,0.0077649787999689
1769159369044,0.076568603515625,-0.460906982421875,-0.88055419921875,-0.0399974845349788,0.0206722542643547,0.0074083814397454
1769159369054,0.0717926025390625,-0.4588775634765625,-0.890716552734375,-0.0340125598013401,0.0252622123807668,0.0017478326335549
1769159369064,0.0671539306640625,-0.458282470703125,-0.899932861328125,-0.0221798699349164,0.0268590450286865,-0.0003065298369619
1769159369074,0.0678558349609375,-0.4590301513671875,-0.9011383056640624,-0.0026969832833856,0.0276974085718393,-0.0020202740561217
1769159369084,0.0756378173828125,-0.45745849609375,-0.9082489013671876,0.0210424344986677,0.0217756032943725,0.0056046224199235
1769159369094,0.080047607421875,-0.45538330078125,-0.9106292724609376,0.0345688946545124,0.0128383003175258,0.0088307755067944
1769159369104,0.0695648193359375,-0.4564056396484375,-0.89727783203125,0.0416592955589294,0.0161952152848243,0.0034370757639408
1769159369114,0.0638885498046875,-0.459503173828125,-0.8839569091796875,0.0318583324551582,0.017248760908842,0.0028735508676618
1769159369124,0.0648040771484375,-0.4615020751953125,-0.869964599609375,0.0184429232031106,0.0204762462526559,-0.0014141384745016
1769159369134,0.0647430419921875,-0.4598541259765625,-0.8640594482421875,0.0061385864391922,0.02257108874619,-0.0081239724531769
1769159369144,0.061981201171875,-0.4576568603515625,-0.8593292236328125,-0.0125789083540439,0.0165598019957542,-0.0162641908973455
1769159369154,0.060577392578125,-0.460357666015625,-0.8559112548828125,-0.0309523232281208,0.014804245904088,-0.0250001586973667
1769159369164,0.061370849609375,-0.4613494873046875,-0.856048583984375,-0.0495678186416626,0.0078304922208189,-0.0341332033276557
1769159369174,0.0655975341796875,-0.4578857421875,-0.8609771728515625,-0.0583988614380359,0.0025971147697418,-0.0260704830288887
1769159369184,0.07269287109375,-0.448577880859375,-0.878082275390625,-0.0433107204735279,0.0076267607510089,-0.0130369728431105
1769159369195,0.0803375244140625,-0.4481964111328125,-0.89837646484375,-0.0263826046139001,0.0129189947620034,-0.0088731199502944
1769159369205,0.0763092041015625,-0.4537506103515625,-0.902008056640625,-0.0146809415891766,0.0160812325775623,-0.0109479892998933
1769159369215,0.076019287109375,-0.4561614990234375,-0.9015655517578124,-0.0047175236977636,0.0196653138846158,-0.0086203860118985
1769159369225,0.078948974609375,-0.4550018310546875,-0.9035186767578124,0.0104094976559281,0.0087828384712338,-0.0025696840602904
1769159369235,0.0865478515625,-0.452056884765625,-0.9026031494140624,0.0231226291507482,0.0137123502790927,0.0143054360523819
1769159369245,0.0885162353515625,-0.4520721435546875,-0.8978424072265625,0.029710492119193,0.0165709871798753,0.0228022523224353
1769159369255,0.072174072265625,-0.457305908203125,-0.8800048828125,0.0200573317706584,0.0161680504679679,0.0110137686133384
1769159369265,0.0651092529296875,-0.46124267578125,-0.8684539794921875,0.0071151675656437,0.0072856098413467,0.0057268617674708
1769159369275,0.073272705078125,-0.4608001708984375,-0.8648223876953125,-0.0078110513277351,0.0009717874927446,0.0015771239995956
1769159369285,0.073333740234375,-0.457916259765625,-0.8642425537109375,-0.0224728174507617,0.0020692760590463,-0.0075276908464729
1769159369295,0.06646728515625,-0.4552764892578125,-0.865570068359375,-0.0360839664936065,-0.0008490157779306,-0.0151318153366446
1769159369305,0.0651702880859375,-0.4528045654296875,-0.868865966796875,-0.0382762812077999,0.0059817261062562,-0.0109716905280947
1769159369315,0.073883056640625,-0.451904296875,-0.8828277587890625,-0.0313755013048648,0.0110289491713047,-0.0084105292335152
1769159369325,0.078704833984375,-0.455078125,-0.890380859375,-0.0241897590458393,0.0071503212675452,-0.0007297061383724
1769159369335,0.0894775390625,-0.45758056640625,-0.892333984375,-0.0190607756376266,0.001390436431393,0.0066448533907532
1769159369345,0.08746337890625,-0.4561309814453125,-0.8959808349609375,-0.0117719704285264,-0.0009949569357559,0.012615393847227
1769159369355,0.07489013671875,-0.4536590576171875,-0.89453125,-0.0067223510704934,0.0009278453071601,0.011642275378108
1769159369365,0.077117919921875,-0.4597625732421875,-0.8902435302734375,-0.0079412795603275,-0.0037734329234808,0.015140070579946
1769159369376,0.0824127197265625,-0.4642791748046875,-0.8828277587890625,-0.0093343798071146,-0.0104073667898774,0.0183015093207359
1769159369386,0.0741424560546875,-0.4530181884765625,-0.888946533203125,0.0001813612616388,0.0051015513017773,0.0101154847070574
1769159369396,0.062408447265625,-0.4529266357421875,-0.8929595947265625,0.0018567559309303,0.0100917825475335,0.0084518082439899
1769159369406,0.0690155029296875,-0.4583282470703125,-0.88031005859375,0.0044613275676965,0.0097221359610557,0.0071258200332522
1769159369416,0.0711669921875,-0.452117919921875,-0.882904052734375,-0.0020458402577787,-0.0018540926976129,-0.0030445256270468
1769159369426,0.0627593994140625,-0.4416656494140625,-0.880035400390625,0.0044179176911711,0.0007222492713481,-0.0213697366416454
1769159369436,0.054718017578125,-0.4369049072265625,-0.8926544189453125,0.0118129840120673,0.0049838395789265,-0.0191899389028549
1769159369446,0.078948974609375,-0.4542236328125,-0.8807830810546875,0.007220628671348,-0.0041819619946181,-0.0113602457568049
1769159369456,0.08514404296875,-0.4528961181640625,-0.8755035400390625,0.0025909894611686,-0.0050759851001203,-0.0094869788736104
1769159369466,0.0819854736328125,-0.4475250244140625,-0.881072998046875,0.0021467742044478,-0.0090539483353495,-0.0039545278996229
1769159369476,0.077972412109375,-0.447418212890625,-0.884124755859375,0.001089232857339,-0.0106585035100579,0.0005672533297911
1769159369486,0.075775146484375,-0.45257568359375,-0.87921142578125,-0.0064824004657566,-0.0066395266912877,0.0007227819296531
1769159369496,0.0700531005859375,-0.4556427001953125,-0.875244140625,-0.0145728178322315,-0.0051926313899457,-0.0028839372098445
1769159369506,0.0736846923828125,-0.4561614990234375,-0.8793182373046875,-0.016143549233675,0.000835966260638,0.0007627293234691
1769159369516,0.0865631103515625,-0.4576263427734375,-0.88250732421875,-0.0162980128079652,-0.0006245112745091,0.0047385622747242
1769159369526,0.0915374755859375,-0.4565277099609375,-0.8861236572265625,-0.0164250452071428,-0.0001286306796828,0.0082251727581024
1769159369536,0.08441162109375,-0.4539947509765625,-0.887176513671875,-0.0164657924324274,0.0054895738139748,0.0092510227113962
1769159369546,0.0742950439453125,-0.45458984375,-0.88671875,-0.0129951611161232,0.0056541571393609,0.0073945331387221
1769159369556,0.0737762451171875,-0.4544830322265625,-0.8877105712890625,-0.0087716532871127,-0.0010745854815468,0.00374600244686
1769159369566,0.072601318359375,-0.4530792236328125,-0.8927764892578125,0.0008234494016505,-0.0067825387232005,0.0082203792408108
1769159369576,0.0762176513671875,-0.4518280029296875,-0.8979034423828125,0.0117786284536123,-0.0046008769422769,0.0111394701525568
1769159369586,0.076751708984375,-0.455535888671875,-0.8933868408203125,0.0143357962369918,-0.00272414740175,0.0124441524967551
1769159369597,0.06964111328125,-0.4516448974609375,-0.88836669921875,0.0163576677441597,0.0007555388147011,0.0121498731896281
1769159369607,0.072052001953125,-0.4526214599609375,-0.885223388671875,0.0138268657028675,0.0024748756550252,0.0140846595168113
1769159369617,0.0748443603515625,-0.452606201171875,-0.8788909912109375,0.0079255672171711,-0.0019944412633776,0.0103162871673703
1769159369627,0.073699951171875,-0.4518585205078125,-0.8733367919921875,-0.0047995490022003,-0.0050357710570096,0.0074757593683898
1769159369637,0.0722503662109375,-0.454315185546875,-0.8712310791015625,-0.0111192297190427,-0.0018865832826122,0.0065087657421827
1769159369647,0.0723724365234375,-0.455963134765625,-0.8725128173828125,-0.018492991104722,-0.0028498487081378,0.0062674833461642
1769159369657,0.073760986328125,-0.4549407958984375,-0.8773345947265625,-0.0231111776083707,-0.0056645437143743,0.0035230957437306
1769159369667,0.0772552490234375,-0.4546966552734375,-0.8816070556640625,-0.0216999687254428,-0.0020951088517904,0.0008253136184066
1769159369677,0.071807861328125,-0.4496917724609375,-0.8923797607421875,-0.0117128491401672,0.0074621774256229,0.0059052933938801
1769159369687,0.0763092041015625,-0.4559783935546875,-0.8961181640625,-0.0028589034918695,0.0069444589316844,0.0062312642112374
1769159369697,0.07708740234375,-0.4549102783203125,-0.895599365234375,0.0070778829976916,0.0046000783331692,0.0022554311435669
1769159369707,0.071929931640625,-0.449432373046875,-0.9014739990234376,0.0133919715881347,0.0032024511601775,0.0026751453988254
1769159369717,0.0692138671875,-0.4521026611328125,-0.8962249755859375,0.0116436062380671,0.0018785938154906,-0.0024996430147439
1769159369727,0.0688323974609375,-0.4560394287109375,-0.887725830078125,0.0117354858666658,0.0086925579234957,0.0015172028215602
1769159369737,0.074005126953125,-0.4521942138671875,-0.8849029541015625,0.014241786673665,0.0091287838295102,0.0061641526408493
1769159369747,0.08111572265625,-0.4539337158203125,-0.8849945068359375,0.0146236838772892,0.0039049931801855,0.0119272330775856
1769159369757,0.084381103515625,-0.4533843994140625,-0.88177490234375,0.0121466778218746,-0.0012620720081031,0.0139624206349253
1769159369767,0.0809173583984375,-0.45318603515625,-0.8809356689453125,0.0082563320174813,0.0011558119440451,0.0150854755192995
1769159369777,0.0771331787109375,-0.454345703125,-0.8777313232421875,-0.0008825715631246,0.0022543659433722,0.0130465598776936
1769159369787,0.0693206787109375,-0.4547119140625,-0.8718719482421875,-0.007987885735929,0.0009880327852442,0.0059550944715738
1769159369798,0.0681915283203125,-0.45501708984375,-0.871063232421875,-0.0123309679329395,0.004792624618858,0.0098792621865868
1769159369808,0.07403564453125,-0.4542083740234375,-0.8753814697265625,-0.0167765822261571,0.0062909191474318,0.0088968221098184
1769159369818,0.074371337890625,-0.455413818359375,-0.878662109375,-0.0175134800374507,0.0118105867877602,0.0102944495156407
1769159369828,0.0729217529296875,-0.4549407958984375,-0.8822479248046875,-0.0171134732663631,0.008258462883532,0.0094507597386837
1769159369838,0.0712432861328125,-0.4548797607421875,-0.8858795166015625,-0.0149083752185106,0.0008956210804171,0.0024090954102575
1769159369848,0.069793701171875,-0.45269775390625,-0.893341064453125,-0.0066994479857385,-0.002739327494055,-0.0021121529862284
1769159369858,0.072479248046875,-0.45428466796875,-0.8964385986328125,0.0045665223151445,-0.001048486563377,-0.0005566006875596
1769159369868,0.069915771484375,-0.45556640625,-0.8953094482421875,0.0108542451635003,0.0024261397775262,-0.0017664746847003
1769159369878,0.0722808837890625,-0.45526123046875,-0.8943939208984375,0.0183449182659387,-0.0048924931325018,-0.0002266350056743
1769159369888,0.0794525146484375,-0.4548187255859375,-0.893096923828125,0.0206133984029293,-0.006140184123069,0.0086443545296788
1769159369898,0.0784149169921875,-0.456695556640625,-0.884307861328125,0.0191779546439647,-0.0002021339314524,0.0126015460118651
1769159369908,0.074432373046875,-0.4554443359375,-0.876678466796875,0.0117410784587264,-0.0043518715538084,0.0150378048419952
1769159369918,0.0703125,-0.4546356201171875,-0.8698272705078125,-0.0017968347528949,-0.0115277590230107,0.0125187216326594
1769159369929,0.066009521484375,-0.45269775390625,-0.868896484375,-0.0057510961778461,-0.010072074830532,0.0078406129032373
1769159369938,0.0674591064453125,-0.4510955810546875,-0.877716064453125,-0.0057393782772123,-0.0059007657691836,0.0049116681329905
1769159369948,0.0700225830078125,-0.4504852294921875,-0.8833160400390625,-0.0039097866974771,-0.0019070896087214,0.0034711640328168
1769159369958,0.06951904296875,-0.4520111083984375,-0.888214111328125,-0.0018168084789067,-0.0001374191051581,-0.0016498282784596
1769159369968,0.063934326171875,-0.45660400390625,-0.8834381103515625,-0.0065966499969363,-0.0049878344871103,-0.0094472980126738
1769159369978,0.066070556640625,-0.4609832763671875,-0.879852294921875,-0.0107107013463974,-0.0119141833856701,-0.0088291782885789
1769159369988,0.0744476318359375,-0.4593505859375,-0.8811798095703125,-0.0131120737642049,-0.0117738349363207,-0.0015009575290605
1769159369999,0.083740234375,-0.46075439453125,-0.8854522705078125,-0.0061926483176648,-0.0104587664827704,0.009991381317377
1769159370008,0.08428955078125,-0.4608001708984375,-0.8881072998046875,-0.0060235378332436,-0.0130529515445232,0.0126942237839102
1769159370018,0.072479248046875,-0.4565887451171875,-0.8871307373046875,0.0008711199625395,-0.015272962860763,0.0077556576579809
1769159370029,0.070068359375,-0.451629638671875,-0.8921966552734375,0.0084819020703434,-0.012492355890572,0.0097604850307106
1769159370039,0.0716552734375,-0.4502410888671875,-0.894744873046875,0.017108678817749,-0.0103373257443308,0.0061553642153739
1769159370049,0.0659942626953125,-0.4507904052734375,-0.891815185546875,0.0244880318641662,-0.0093682017177343,0.002927612978965
1769159370059,0.0666046142578125,-0.44952392578125,-0.887939453125,0.0262300055474042,-0.0044381581246852,0.004185423720628
1769159370069,0.067108154296875,-0.455230712890625,-0.8826751708984375,0.0241127926856279,-0.004669586662203,0.0014090784825384
1769159370079,0.065948486328125,-0.457366943359375,-0.875152587890625,0.0157312918454408,-0.0059601543471217,0.0003249056462664
1769159370089,0.0680084228515625,-0.456329345703125,-0.870025634765625,0.0034341462887823,-0.008208661340177,-0.0033499903511255
1769159370099,0.069183349609375,-0.457427978515625,-0.870819091796875,-0.0098523646593093,-0.0118169784545898,-0.0061460430733859
1769159370109,0.0678253173828125,-0.46356201171875,-0.86724853515625,-0.0237724408507347,-0.0074392743408679,-0.0079098548740148
1769159370119,0.0759429931640625,-0.46484375,-0.87103271484375,-0.031366977840662,-0.0098784631118178,0.0063524381257593
1769159370129,0.0805511474609375,-0.463348388671875,-0.8729705810546875,-0.0342064388096332,-0.0052525526843965,0.0084976144134998
1769159370139,0.0687103271484375,-0.455413818359375,-0.8838958740234375,-0.0281679891049861,0.0050381682813167,0.0054368432611227
1769159370149,0.0636138916015625,-0.4603424072265625,-0.887420654296875,-0.0221883933991193,0.0067047742195427,0.0065838666632771
1769159370159,0.0744476318359375,-0.455963134765625,-0.895416259765625,-0.0070062442682683,0.0091607412323355,0.0178740713745355
1769159370169,0.0795135498046875,-0.4512939453125,-0.9024658203125,0.0083082634955644,-0.0031467911321669,0.0127149960026144
1769159370179,0.0613555908203125,-0.4367828369140625,-0.907806396484375,0.026664899662137,-0.0050674630329012,-0.0014205301413312
1769159370189,0.0572357177734375,-0.4430694580078125,-0.906005859375,0.0352618508040905,-0.0075189024209976,-0.0006870955694466
1769159370199,0.0710906982421875,-0.457733154296875,-0.888580322265625,0.032365396618843,-0.0114771593362092,0.0062485747039318
1769159370210,0.0748748779296875,-0.46112060546875,-0.87823486328125,0.0273280274122953,-0.0002367550187045,0.0091498224064707
1769159370219,0.0661468505859375,-0.458648681640625,-0.875579833984375,0.0188921988010406,0.0024719461798667,0.0071151675656437
1769159370230,0.063140869140625,-0.4588623046875,-0.8708648681640625,0.0059263324365019,-0.0044544031843543,0.0055156727321445
1769159370240,0.0665435791015625,-0.460906982421875,-0.8644561767578125,-0.0125482827425003,-0.0061202105134725,0.0022178804501891
1769159370250,0.06201171875,-0.459564208984375,-0.863494873046875,-0.027948010712862,0.0051457597874104,-0.0038780951872467
1769159370260,0.063140869140625,-0.4603729248046875,-0.8688507080078125,-0.0358615927398204,0.0120156500488519,-0.002339054364711
1769159370270,0.0762786865234375,-0.4612579345703125,-0.8740997314453125,-0.0347103103995323,0.0075173047371208,0.0038831550627946
1769159370280,0.0812835693359375,-0.4577789306640625,-0.882659912109375,-0.0286891683936119,0.0022929816041141,0.0072880065999925
1769159370290,0.080718994140625,-0.45599365234375,-0.889678955078125,-0.0219162181019783,0.001440503867343,0.0126388296484947
1769159370300,0.07122802734375,-0.4570770263671875,-0.892578125,-0.0124862305819988,0.0004657868703361,0.0104875285178422
1769159370310,0.064178466796875,-0.4579315185546875,-0.8934326171875,-0.0039625172503292,0.0002881540276575,0.0117376158013939
1769159370320,0.0630340576171875,-0.457489013671875,-0.89300537109375,0.0006138586322776,0.0001472728035878,0.0096297245472669
1769159370330,0.0555877685546875,-0.455718994140625,-0.8895416259765625,0.0052948966622352,0.0041156490333378,0.0053034187294542
1769159370340,0.0579681396484375,-0.459869384765625,-0.8874969482421875,0.0040815607644617,-0.0009704558760859,-0.0016900419723242
1769159370350,0.0620269775390625,-0.4586029052734375,-0.8841705322265625,0.0018357168883085,-0.009695503860712,-0.0049321744590997
1769159370360,0.0623779296875,-0.4570159912109375,-0.8837738037109375,0.0036061864811927,-0.0081969434395432,-0.0018208032706752
1769159370370,0.0690765380859375,-0.4558563232421875,-0.884979248046875,0.0045265750959515,-0.0105578359216451,-0.0014871091116219
1769159370380,0.0702056884765625,-0.4589385986328125,-0.881866455078125,-0.0013187973527237,-0.0094845816493034,-0.0024519723374396
1769159370390,0.0662384033203125,-0.4615325927734375,-0.8776092529296875,-0.0098856538534164,0.0009209210984408,-0.0014106763992458
1769159370400,0.068450927734375,-0.46295166015625,-0.8739471435546875,-0.0165190547704696,0.0060613546520471,0.0018120148451998
1769159370411,0.072509765625,-0.46185302734375,-0.8762054443359375,-0.0189031176269054,0.011068363673985,0.0021475730463862
1769159370420,0.0701904296875,-0.4547576904296875,-0.8831024169921875,-0.0157728381454944,0.011372230015695,0.0010117349447682
1769159370432,0.07208251953125,-0.45501708984375,-0.8890228271484375,-0.0082395542412996,0.0071758874692022,0.0113839479163289
1769159370441,0.07769775390625,-0.4541473388671875,-0.8926849365234375,0.0027662254869937,0.0064033046364784,0.0146923931315541
1769159370451,0.0694122314453125,-0.4523468017578125,-0.893524169921875,0.0052059474401175,0.0082496739923954,0.0125815719366073
1769159370461,0.06280517578125,-0.455322265625,-0.8847503662109375,-0.0001872202265076,0.0094385091215372,0.0123080648481845
1769159370471,0.0608978271484375,-0.45745849609375,-0.8774261474609375,-0.008167115971446,0.0119887525215744,0.004187021870166
1769159370481,0.0560150146484375,-0.460693359375,-0.8719329833984375,-0.020640829578042,0.0092361085116863,-0.0022599585354328
1769159370491,0.065460205078125,-0.45965576171875,-0.873748779296875,-0.0216112863272428,0.0095761949196457,0.0044946167618036
1769159370501,0.07470703125,-0.4579925537109375,-0.881805419921875,-0.01938221976161,0.0104646254330873,0.0100156161934137
1769159370511,0.076141357421875,-0.456695556640625,-0.8856658935546875,-0.016037555411458,0.0148386005312204,0.0099279982969164
1769159370521,0.070220947265625,-0.454437255859375,-0.8890228271484375,-0.0136886481195688,0.012264922261238,0.0056775929406285
1769159370531,0.0661468505859375,-0.4523773193359375,-0.8863525390625,-0.0157496687024831,0.0042919502593576,-0.0024495755787938
1769159370541,0.064666748046875,-0.4532623291015625,-0.8834381103515625,-0.0133882435038685,0.0031723575666546,-0.0047327033244073
1769159370551,0.063629150390625,-0.45306396484375,-0.8831634521484375,-0.0146196894347667,0.0066051720641553,-0.0058933091349899
1769159370561,0.0590667724609375,-0.4541015625,-0.8814544677734375,-0.0148854721337556,0.0154255619272589,-0.0050687943585217
1769159370572,0.06207275390625,-0.453033447265625,-0.8817138671875,-0.0161073300987482,0.0135664092376828,-0.0099775325506925
1769159370581,0.0656585693359375,-0.4566497802734375,-0.8811492919921875,-0.0228475257754325,0.0144662912935018,-0.0140404514968395
1769159370591,0.0680084228515625,-0.4585113525390625,-0.8838348388671875,-0.0238848272711038,0.0068826735951006,-0.0144644267857074
1769159370601,0.069854736328125,-0.45880126953125,-0.88751220703125,-0.0261378604918718,0.0023265376221388,-0.0174791254103183
1769159370611,0.0697174072265625,-0.46044921875,-0.8907012939453125,-0.0204983502626419,0.0018937737913802,-0.015327556990087
1769159370621,0.070343017578125,-0.4600982666015625,-0.8957366943359375,-0.0109506519511342,0.005968942772597,-0.0112723615020513
1769159370632,0.0758056640625,-0.45892333984375,-0.8956146240234375,-0.0010687265312299,0.0074216974899172,-0.0031241541728377
1769159370641,0.0777130126953125,-0.4532928466796875,-0.8935546875,0.001277518342249,0.0051526841707527,-0.0039041941054165
1769159370651,0.0748443603515625,-0.4481201171875,-0.891632080078125,0.0074693677015602,-3.462109361862531e-06,-0.0035846147220581
1769159370662,0.07122802734375,-0.4438629150390625,-0.8863067626953125,0.0066365972161293,0.0019907129462808,-0.0006950850365683
1769159370672,0.0679931640625,-0.4456634521484375,-0.8779296875,-0.0001022653887048,0.0087567400187253,-0.0028687571175396
1769159370682,0.0623321533203125,-0.4482269287109375,-0.8678741455078125,-0.0104182865470647,0.0110997892916202,-0.0076262280344963
1769159370692,0.06146240234375,-0.45172119140625,-0.861297607421875,-0.0244060065597295,0.0118036624044179,-0.0137400468811392
1769159370702,0.0596466064453125,-0.451995849609375,-0.8608551025390625,-0.0370504297316074,0.00560915004462,-0.0186911299824714
1769159370712,0.0589752197265625,-0.45074462890625,-0.86700439453125,-0.0430952720344066,0.0003584614896681,-0.0224038418382406
1769159370722,0.0644073486328125,-0.4494781494140625,-0.8770599365234375,-0.0440785102546215,-0.0020687435753643,-0.0241037383675575
1769159370732,0.06915283203125,-0.4508209228515625,-0.883209228515625,-0.0436697155237197,-0.0063740098848938,-0.0252800565212965
1769159370742,0.0686187744140625,-0.45367431640625,-0.8887939453125,-0.0400558076798915,-0.0148564437404274,-0.0274643804877996
1769159370752,0.07232666015625,-0.45294189453125,-0.89599609375,-0.028750155121088,-0.0180620905011892,-0.023298131301999
1769159370762,0.0730133056640625,-0.4536590576171875,-0.9012908935546876,-0.0176999010145664,-0.0166886989027261,-0.0205939579755067
1769159370772,0.0704803466796875,-0.4509735107421875,-0.9025115966796876,-0.0013238573446869,-0.0100896516814827,-0.0138873197138309
1769159370782,0.07830810546875,-0.4480743408203125,-0.9091949462890624,0.017535850405693,-0.0081375548616051,-0.0081791002303361
1769159370792,0.0783233642578125,-0.447662353515625,-0.907257080078125,0.0273991338908672,-0.0081378212198615,-0.0080957431346178
1769159370802,0.0739593505859375,-0.44970703125,-0.897918701171875,0.0310242287814617,-0.0066307382658123,-0.0097197387367486
1769159370812,0.0692138671875,-0.451751708984375,-0.8883819580078125,0.0257631540298461,-0.003206179710105,-0.0096206692978739
1769159370822,0.072265625,-0.4506072998046875,-0.88128662109375,0.0222291387617588,0.0044032703153789,-0.0040626521222293
1769159370832,0.07952880859375,-0.4536895751953125,-0.88079833984375,0.0108606368303298,-0.0007717840489931,0.00164556724485
1769159370842,0.0798492431640625,-0.4545440673828125,-0.874359130859375,-0.0026370619889348,-0.0019009644165635,0.0039007319137454
1769159370852,0.074493408203125,-0.45404052734375,-0.8730010986328125,-0.0138974394649267,0.0022434468846768,0.0010700580896809
1769159370863,0.0682220458984375,-0.4577178955078125,-0.871734619140625,-0.0273024607449769,0.0031686290167272,-0.001365402713418
1769159370873,0.070526123046875,-0.4615478515625,-0.86737060546875,-0.047004260122776,-0.0033039175905287,-0.004667988512665
1769159370883,0.072906494140625,-0.4564666748046875,-0.8751068115234375,-0.0395042672753334,0.0077561903744935,-0.0068712220527231
1769159370893,0.0709075927734375,-0.4502105712890625,-0.8964691162109375,-0.0302300732582807,0.0108228204771876,-0.0062898537144064
1769159370903,0.0736236572265625,-0.4544677734375,-0.8985443115234375,-0.0096033588051795,0.0162157211452722,-0.0056078182533383
1769159370913,0.068817138671875,-0.4452667236328125,-0.9090118408203124,0.0028802086599171,0.013963752426207,-0.0055375108495354
1769159370923,0.0698699951171875,-0.4471435546875,-0.9053955078125,0.0193228311836719,0.0117365503683686,-0.0144148916006088
1769159370933,0.058197021484375,-0.4355926513671875,-0.9121856689453124,0.0466119758784771,0.0192890092730522,-0.0179987084120512
1769159370943,0.0641326904296875,-0.4425048828125,-0.911895751953125,0.0619083754718303,0.016040751710534,-0.0038421424105763
1769159370953,0.0882110595703125,-0.4544830322265625,-0.8928375244140625,0.0616428591310977,0.0018096179701387,0.0072997245006263
1769159370963,0.0840301513671875,-0.45428466796875,-0.8764801025390625,0.0483464933931827,0.0045406897552311,0.0028194885235279
1769159370973,0.06475830078125,-0.449066162109375,-0.868377685546875,0.0330815203487873,0.0027281423099339,-0.0040535973384976
1769159370983,0.0592193603515625,-0.452667236328125,-0.8600921630859375,0.0123184518888592,-0.0049854377284646,-0.0100238723680377
1769159370993,0.0643310546875,-0.4562225341796875,-0.855926513671875,-0.0097495662048459,-0.0061985072679817,-0.0144252786412835
1769159371003,0.066314697265625,-0.4562835693359375,-0.8587188720703125,-0.0238326285034418,-0.0010985539993271,-0.0129695944488048
1769159371013,0.071502685546875,-0.4566802978515625,-0.8676910400390625,-0.030572822317481,0.0018543590558692,-0.0067234165035188
1769159371023,0.079986572265625,-0.4562835693359375,-0.8758544921875,-0.0307166334241628,0.0043161851353943,-0.0015819176333025
1769159371034,0.08331298828125,-0.455596923828125,-0.886627197265625,-0.0211598798632621,0.0012389025650918,0.0014636733103543
1769159371043,0.0829620361328125,-0.4554290771484375,-0.89715576171875,-0.007129814941436,0.0014594122767448,0.0092443646863102
1769159371053,0.07965087890625,-0.454132080078125,-0.9073028564453124,0.0177081562578678,0.0031012510880827,0.0162162538617849
1769159371064,0.0771942138671875,-0.4520721435546875,-0.91259765625,0.0374685451388359,0.0069055766798555,0.0258592944592237
1769159371073,0.0750274658203125,-0.45263671875,-0.9087371826171876,0.0527465678751468,0.0081556644290685,0.0285624023526906
1769159371084,0.0713348388671875,-0.4508514404296875,-0.9004058837890625,0.0594870299100875,0.0004724447790067,0.0233010612428188
1769159371094,0.0682830810546875,-0.45257568359375,-0.8880462646484375,0.0502607747912406,-0.0055905077606439,0.0167462229728698
1769159371104,0.065185546875,-0.4562835693359375,-0.872039794921875,0.0366821140050888,-0.0016053534345701,0.0168823115527629
1769159371114,0.0643463134765625,-0.4569854736328125,-0.864837646484375,0.0238427482545375,0.0022104235831648,0.0189539827406406
1769159371124,0.0702362060546875,-0.459228515625,-0.8639678955078125,0.0081474082544446,0.004765460267663,0.0178495701402425
1769159371134,0.070709228515625,-0.462249755859375,-0.8634033203125,-0.0091519532725214,0.0066075688228011,0.0154609819874167
1769159371144,0.067718505859375,-0.4607086181640625,-0.8685302734375,-0.0176034942269325,0.0061095575802028,0.0139373866841197
1769159371154,0.071197509765625,-0.4597930908203125,-0.8721466064453125,-0.027409253641963,0.0109005849808454,0.0079351551830768
1769159371164,0.0653839111328125,-0.4563140869140625,-0.8800201416015625,-0.0251085497438907,0.0133072836324572,-0.0043595945462584
1769159371174,0.0645599365234375,-0.455413818359375,-0.89251708984375,-0.0154138440266251,0.0075330175459384,0.0009177253232337
1769159371184,0.0814666748046875,-0.4609832763671875,-0.898590087890625,0.0039603868499398,0.0080488715320825,0.0030445256270468
1769159371194,0.080047607421875,-0.4519500732421875,-0.9107208251953124,0.0245237182825803,0.014283332042396,0.0040011331439018
1769159371204,0.0730743408203125,-0.4498291015625,-0.91204833984375,0.037993986159563,0.0132955657318234,0.012195679359138
1769159371214,0.0744171142578125,-0.456390380859375,-0.897735595703125,0.038076277822256,0.012476110830903,0.0117421438917517
1769159371224,0.0709686279296875,-0.4598388671875,-0.883087158203125,0.0291658751666545,0.0136489672586321,0.0081633878871798
1769159371234,0.0668487548828125,-0.4587249755859375,-0.87274169921875,0.0209691971540451,0.0174841843545436,0.0070270169526338
1769159371245,0.064361572265625,-0.45562744140625,-0.86492919921875,0.0070278155617415,0.0222967825829982,0.0047774445265531
1769159371254,0.0649871826171875,-0.456573486328125,-0.859710693359375,-0.0072632390074431,0.0286460258066654,0.008193215355277
1769159371265,0.07177734375,-0.4575653076171875,-0.8628082275390625,-0.0186905972659587,0.0229042507708072,0.0078280959278345
1769159371274,0.0733642578125,-0.456573486328125,-0.868988037109375,-0.0230006575584411,0.0179664827883243,0.0060714744031429
1769159371285,0.0758056640625,-0.4547882080078125,-0.879852294921875,-0.0227974578738212,0.0138028971850872,0.0093410378322005
1769159371295,0.0779876708984375,-0.4564208984375,-0.883880615234375,-0.0176551602780818,0.0071599087677896,0.0108878016471862
1769159371305,0.0741424560546875,-0.4561309814453125,-0.8873748779296875,-0.0118436096236109,0.0066054384224116,0.0102582303807139
1769159371315,0.0728759765625,-0.4536590576171875,-0.893096923828125,0.0010940266074612,0.0105951195582747,0.0135935731232166
1769159371325,0.0693511962890625,-0.4561309814453125,-0.8963775634765625,0.0088179921731352,0.0160047989338636,0.0110164321959018
1769159371335,0.063568115234375,-0.4539642333984375,-0.8918914794921875,0.0141925178468227,0.018682075664401,0.0081383539363741
1769159371345,0.0627899169921875,-0.4547576904296875,-0.888671875,0.0173227973282337,0.0144069027155637,0.0028362665325403
1769159371355,0.0633392333984375,-0.457275390625,-0.886260986328125,0.018122810870409,0.0167323742061853,0.0019992350134998
1769159371365,0.0652313232421875,-0.4573822021484375,-0.8815765380859375,0.0221883933991193,0.0275796968489885,0.0047343014739453
1769159371377,0.0640411376953125,-0.455718994140625,-0.8856353759765625,0.0211585480719804,0.0172370430082082,0.0129813123494386
1769159371385,0.08013916015625,-0.4613037109375,-0.877227783203125,0.0117274960502982,0.0101567637175321,0.0152220958843827
1769159371395,0.073272705078125,-0.46014404296875,-0.8744659423828125,0.0042205778881907,0.0058863847516477,0.0113357454538345
1769159371405,0.0656585693359375,-0.4593048095703125,-0.8780059814453125,-0.0014761901693418,0.0039864857681095,0.0110917994752526
1769159371415,0.0642547607421875,-0.4592742919921875,-0.8777923583984375,0.0008127967594191,0.0004572647449094,0.0075987973250448
1769159371425,0.066680908203125,-0.459259033203125,-0.8868865966796875,0.0019145464757457,-0.0035622443538159,0.0074446005746722
1769159371435,0.0675201416015625,-0.4605560302734375,-0.88983154296875,0.0096177402883768,-0.0154828196391463,0.0102337291464209
1769159371445,0.0695953369140625,-0.460235595703125,-0.8946075439453125,0.0173917729407548,-0.0128588071092963,0.0101160174235701
1769159371455,0.069732666015625,-0.4604034423828125,-0.8969879150390625,0.0243165250867605,-0.000735831388738,0.0125807728618383
1769159371465,0.0684661865234375,-0.461883544921875,-0.8913116455078125,0.0261200182139873,-7.084008393576369e-05,0.0141853271052241
1769159371475,0.0738372802734375,-0.4614105224609375,-0.889556884765625,0.0303746834397315,0.0034216293133795,0.0167787130922079
1769159371485,0.0746917724609375,-0.4602813720703125,-0.89111328125,0.0363822430372238,0.004718055948615,0.0201097950339317
1769159371496,0.075714111328125,-0.4589691162109375,-0.8853607177734375,0.0353262983262538,0.0077564567327499,0.0221947841346263
1769159371506,0.0727386474609375,-0.459259033203125,-0.876556396484375,0.031048197299242,0.0082312980666756,0.0190844777971506
1769159371516,0.06744384765625,-0.4579925537109375,-0.8733367919921875,0.0268715620040893,0.0115972673520445,0.0138851888477802
1769159371526,0.0626983642578125,-0.45623779296875,-0.87152099609375,0.0189643707126379,0.0034930021502077,0.0027110979426652
1769159371536,0.060333251953125,-0.456787109375,-0.868133544921875,0.0116806244477629,0.0018751317402347,-0.0026290726382285
1769159371546,0.063720703125,-0.4571075439453125,-0.8691558837890625,0.0020058928057551,-0.0041516018100082,-0.0065487129613757
1769159371556,0.065185546875,-0.4598236083984375,-0.8669891357421875,-0.0074187680147588,-0.0030759510118514,-0.0134769268333911
1769159371566,0.0625152587890625,-0.4635772705078125,-0.866119384765625,-0.0159922819584608,-0.0007733819657005,-0.0161187816411256
1769159371576,0.061492919921875,-0.4605255126953125,-0.877655029296875,-0.0102236093953251,0.0026309369131922,-0.0134409740567207
1769159371586,0.073577880859375,-0.4587554931640625,-0.8886871337890625,-0.0077719027176499,0.0021904499735683,-0.0057060890831053
1769159371596,0.078338623046875,-0.4619140625,-0.8898773193359375,-0.0022000374738126,0.0005456816870719,-0.000172839150764
1769159371606,0.0778656005859375,-0.46624755859375,-0.890594482421875,0.0051422975957393,0.0018708707066252,0.0081910844892263
1769159371616,0.0858612060546875,-0.4693603515625,-0.89495849609375,0.0113916713744401,0.0110917994752526,0.0209146030247211
1769159371626,0.086669921875,-0.467498779296875,-0.894012451171875,0.0220909211784601,0.0237961430102586,0.0234233010560274
