timestamp_ms,acc_x,acc_y,acc_z,gyro_x,gyro_y,gyro_z
1769250303926,-0.0741424560546875,-0.0664520263671875,-0.983856201171875,-0.1144434884190559,-0.0547295585274696,-0.0123898237943649
1769250303935,-0.075714111328125,-0.067230224609375,-0.9888763427734376,-0.1164416596293449,-0.0544629767537117,-0.0165965538471937
1769250303945,-0.0786895751953125,-0.0678558349609375,-0.9918365478515624,-0.0994163379073143,-0.0778210312128067,-0.0132082132622599
1769250303955,-0.0748748779296875,-0.075439453125,-1.002044677734375,-0.0723144114017486,-0.1058715730905532,-0.0074653732590377
1769250303965,-0.0701446533203125,-0.0762176513671875,-1.00604248046875,-0.0500407963991165,-0.1112383753061294,-0.0122481444850564
1769250303975,-0.068328857421875,-0.0612640380859375,-1.0033416748046875,-0.0375356562435627,-0.104654774069786,-0.0195944737643003
1769250303985,-0.0697021484375,-0.0613555908203125,-1.0043182373046875,-0.0219479091465473,-0.1027575358748436,-0.0216480381786823
1769250303995,-0.0726318359375,-0.0714874267578125,-1.000152587890625,-0.0091703291982412,-0.1225586757063865,-0.0203436203300952
1769250304005,-0.0731964111328125,-0.0689697265625,-0.9961700439453124,-0.0031313446816056,-0.1275478452444076,-0.0167022813111543
1769250304015,-0.073822021484375,-0.0695648193359375,-0.998779296875,-0.0059052933938801,-0.0909165889024734,-0.01071123406291
1769250304025,-0.075408935546875,-0.0706787109375,-1.006622314453125,-0.0027909928467124,-0.0644916445016861,-0.0048826392740011
1769250304035,-0.074432373046875,-0.0702667236328125,-1.0084991455078125,0.0027105652261525,-0.0597091354429721,0.003670901292935
1769250304045,-0.07537841796875,-0.0673828125,-1.0019378662109375,-0.0034096450544893,-0.0755770504474639,0.0039380164816975
1769250304055,-0.080810546875,-0.0630035400390625,-0.9944000244140624,0.0042181806638836,-0.0654482468962669,0.0012415656819939
1769250304066,-0.085662841796875,-0.070770263671875,-1.0032501220703125,0.0188921988010406,-0.057438526302576,0.0073527214117348
1769250304075,-0.079315185546875,-0.069671630859375,-1.009674072265625,0.0367311164736747,-0.0641275867819786,0.0107314735651016
1769250304085,-0.0743408203125,-0.0686798095703125,-1.010772705078125,0.0511041954159736,-0.0572430491447448,0.0091173322871327
1769250304095,-0.0755615234375,-0.0711822509765625,-1.0072021484375,0.0624442026019096,-0.0482865720987319,0.0118888840079307
1769250304105,-0.077850341796875,-0.068328857421875,-1.005950927734375,0.0674400255084037,-0.0505803525447845,0.0119216404855251
1769250304116,-0.079620361328125,-0.0701904296875,-1.00048828125,0.0687404498457908,-0.0397143885493278,0.0107959220185875
1769250304125,-0.0825347900390625,-0.072540283203125,-0.9908447265625,0.069522351026535,-0.0328370407223701,0.0104507766664028
1769250304136,-0.08197021484375,-0.0709381103515625,-0.9866180419921876,0.0733477175235748,-0.0290180686861276,0.0096417078748345
1769250304146,-0.085723876953125,-0.07403564453125,-0.9910125732421876,0.0791765749454498,-0.025274196639657,0.0115575864911079
1769250304156,-0.0888214111328125,-0.0688934326171875,-0.992919921875,0.0763546898961067,-0.0128052774816751,0.0134303215891122
1769250304166,-0.0938873291015625,-0.0782928466796875,-0.99468994140625,0.0684312582015991,-0.0139246042817831,0.0154812214896082
1769250304176,-0.0946502685546875,-0.0968017578125,-0.990692138671875,0.0578497163951396,0.0072296834550797,0.011632421053946
1769250304186,-0.0909271240234375,-0.0556793212890625,-0.983306884765625,0.0506943352520465,0.040624126791954,-0.013006879016757
1769250304196,-0.105377197265625,-0.0369873046875,-0.986297607421875,0.0693010464310646,0.036410205066204,-0.0392392799258232
1769250304206,-0.1172332763671875,-0.04052734375,-0.990875244140625,0.0919525623321533,-0.0263221506029367,-0.0419138930737972
1769250304216,-0.1187744140625,-0.0815582275390625,-0.993988037109375,0.1005290076136589,-0.0680027529597282,-0.0277591925114393
1769250304226,-0.092987060546875,-0.1205596923828125,-1.0013275146484375,0.085899993777275,-0.0331648774445056,-0.0153547218069434
1769250304236,-0.0667572021484375,-0.09466552734375,-0.996795654296875,0.0548544600605964,0.0273128468543291,-0.0206847712397575
1769250304246,-0.0682373046875,-0.0756378173828125,-0.980804443359375,0.0275663807988166,0.0749573335051536,-0.0297056976705789
1769250304256,-0.0811920166015625,-0.068206787109375,-0.9674530029296876,0.0088025461882352,0.0883865877985954,-0.044035367667675
1769250304266,-0.094879150390625,-0.0588836669921875,-0.9682159423828124,0.0120428139343857,0.0601501576602458,-0.0467299558222293
1769250304276,-0.09881591796875,-0.0699310302734375,-0.9861907958984376,0.0298266056925058,0.0084470147266983,-0.0488932393491268
1769250304286,-0.097686767578125,-0.0875701904296875,-1.0030975341796875,0.0499718189239501,-0.0350072532892227,-0.0450343191623687
1769250304296,-0.0932159423828125,-0.0959320068359375,-1.001220703125,0.061751514673233,-0.067262127995491,-0.0341648943722248
1769250304306,-0.08074951171875,-0.0983428955078125,-0.9926605224609376,0.0614183545112609,-0.0806048288941383,-0.0208152662962675
1769250304317,-0.0743255615234375,-0.099273681640625,-0.9875640869140624,0.0531534999608993,-0.0787051990628242,-0.0136188734322786
1769250304326,-0.0792083740234375,-0.096649169921875,-0.986083984375,0.0476375594735145,-0.0822495967149734,-0.0030714236199855
1769250304337,-0.08160400390625,-0.0861968994140625,-0.9871368408203124,0.0417423881590366,-0.0755243152379989,0.0081364894285798
1769250304347,-0.0831298828125,-0.080780029296875,-0.9878692626953124,0.0356059297919273,-0.0687132850289344,0.0153448674827814
1769250304357,-0.088134765625,-0.0837249755859375,-0.9922027587890624,0.0335113555192947,-0.0771445855498313,0.0155693721026182
1769250304367,-0.0941925048828125,-0.089752197265625,-0.987335205078125,0.0207297801971435,-0.0652692839503288,0.0207910314202308
1769250304377,-0.0919189453125,-0.0879058837890625,-0.9813385009765624,0.0097492998465895,-0.0488077513873577,0.0265671629458665
1769250304387,-0.0910186767578125,-0.0869140625,-0.9868621826171876,0.0053976946510374,-0.0433908849954605,0.032946765422821
1769250304397,-0.0926971435546875,-0.0864105224609375,-0.991943359375,0.0205406956374645,-0.0533148869872093,0.0359798371791839
1769250304407,-0.0941925048828125,-0.0922393798828125,-1.003570556640625,0.0448867790400981,-0.0738316103816032,0.0413168147206306
1769250304417,-0.08843994140625,-0.0873565673828125,-1.010406494140625,0.0625491291284561,-0.0690485760569572,0.0391069240868091
1769250304427,-0.0885467529296875,-0.0767822265625,-1.002197265625,0.0740012601017952,-0.0763299241662025,0.0366347096860408
1769250304437,-0.0988311767578125,-0.08056640625,-0.992523193359375,0.0796612724661827,-0.1098830923438072,0.0326394364237785
1769250304447,-0.1074676513671875,-0.083709716796875,-0.983154296875,0.0475677847862243,-0.0843710750341415,0.0340780764818191
1769250304457,-0.0967559814453125,-0.09320068359375,-0.9571075439453124,0.0181640908122062,-0.0612673535943031,0.0272694379091262
1769250304467,-0.1016998291015625,-0.0938873291015625,-0.9658050537109376,0.0072619076818227,-0.0701979994773864,0.0225828066468238
1769250304477,-0.10394287109375,-0.090667724609375,-0.9834136962890624,0.0219364576041698,-0.1158925145864486,0.0272489320486783
1769250304487,-0.099822998046875,-0.084014892578125,-0.9960174560546876,0.0227441936731338,-0.1320126205682754,0.0383473895490169
1769250304498,-0.1005706787109375,-0.0872344970703125,-0.991485595703125,0.0016090818680822,-0.0887743458151817,0.0504341460764408
1769250304507,-0.118316650390625,-0.0659027099609375,-0.9930267333984376,-0.0370991639792919,-0.0313099846243858,0.0629078596830368
1769250304517,-0.0818939208984375,-0.101715087890625,-0.9669342041015624,-0.0693862661719322,0.0474047996103763,0.0675345659255981
1769250304527,-0.0671844482421875,-0.1007080078125,-0.957489013671875,-0.0955949649214744,0.0673577338457107,0.046910785138607
1769250304537,-0.1118316650390625,-0.08197021484375,-0.96600341796875,-0.1033623442053794,0.0417818017303943,0.0562209263443946
1769250304547,-0.105072021484375,-0.07659912109375,-0.9781341552734376,-0.0919232666492462,0.0219305995851755,0.0684517621994018
1769250304558,-0.100372314453125,-0.0812225341796875,-0.984893798828125,-0.0898750275373458,0.0218096915632486,0.0578334704041481
1769250304569,-0.1131591796875,-0.0779571533203125,-0.9816436767578124,-0.094484157860279,0.0336951129138469,0.0594438873231411
1769250304578,-0.105072021484375,-0.0826263427734375,-0.9780426025390624,-0.0958109498023986,0.0384864062070846,0.0606356486678123
1769250304588,-0.1046905517578125,-0.086669921875,-0.985107421875,-0.0780045166611671,0.0137469712644815,0.062313973903656
1769250304598,-0.1019287109375,-0.0733489990234375,-0.98931884765625,-0.0617408603429794,0.0006207828409969,0.0736326724290847
1769250304608,-0.09991455078125,-0.08453369140625,-0.996673583984375,-0.0521396324038505,-0.0020490360911935,0.0765943750739097
1769250304618,-0.098541259765625,-0.099853515625,-0.9977569580078124,-0.0338074974715709,-0.0060022324323654,0.067262127995491
1769250304628,-0.10150146484375,-0.0593414306640625,-1.0040435791015625,-0.018842663615942,-0.0013526194961741,0.0422899313271045
1769250304638,-0.1154937744140625,-0.043975830078125,-0.9985504150390624,-0.0038469361606985,-0.0061204768717288,0.026150643825531
1769250304648,-0.126220703125,-0.05010986328125,-0.9827728271484376,-0.0062072956934571,-0.0328839123249053,0.0263889972120523
1769250304658,-0.12213134765625,-0.1037750244140625,-0.97869873046875,-0.0223641619086265,-0.0305677633732557,0.0396869592368602
1769250304668,-0.096954345703125,-0.1263427734375,-0.9931640625,-0.0398193188011646,0.0156290270388126,0.0449320562183856
1769250304678,-0.0801849365234375,-0.0897064208984375,-0.997589111328125,-0.070137545466423,0.0612806677818298,0.0412680767476558
1769250304688,-0.0860595703125,-0.08343505859375,-0.9806060791015624,-0.0862872153520584,0.0931627005338668,0.0353753007948398
1769250304698,-0.1025543212890625,-0.0740509033203125,-0.972747802734375,-0.0980970039963722,0.0835923627018928,0.0324306450784206
1769250304708,-0.113677978515625,-0.054779052734375,-0.9625091552734376,-0.1079938411712646,0.0619009174406528,0.0366336442530155
1769250304718,-0.11297607421875,-0.0570068359375,-0.972808837890625,-0.1087621673941612,0.0385721586644649,0.0316966772079467
1769250304728,-0.1134033203125,-0.0753326416015625,-0.98797607421875,-0.1016448661684989,0.0245080068707466,0.0164524763822555
1769250304739,-0.1146240234375,-0.0882568359375,-0.9964141845703124,-0.0787432789802551,-0.0045324340462684,0.0151589792221784
1769250304749,-0.10406494140625,-0.088592529296875,-1.0041046142578125,-0.0649638175964355,-0.0157605875283479,0.0206133984029293
1769250304759,-0.0942230224609375,-0.08380126953125,-0.9978179931640624,-0.0678448304533958,0.0269288197159767,0.0312348846346139
1769250304769,-0.0904998779296875,-0.0811920166015625,-0.9932708740234376,-0.0879128128290176,0.0894028469920158,0.0279658548533916
1769250304779,-0.095794677734375,-0.081695556640625,-0.988189697265625,-0.1042033657431602,0.1214899495244026,0.0271509271115064
1769250304789,-0.0966033935546875,-0.0727691650390625,-0.9839630126953124,-0.1063046008348465,0.1303391009569168,0.0302170235663652
1769250304799,-0.0980987548828125,-0.0660552978515625,-0.999420166015625,-0.0905687808990478,0.1238718777894973,0.0255232024937868
1769250304809,-0.105499267578125,-0.0673065185546875,-1.01190185546875,-0.0762207359075546,0.1056382805109024,0.0284787788987159
1769250304819,-0.1016082763671875,-0.061279296875,-1.007843017578125,-0.0537681579589843,0.0885335952043533,0.0292220674455165
1769250304829,-0.1002960205078125,-0.063232421875,-1.0106658935546875,-0.020504742860794,0.0647797957062721,0.0289698652923107
1769250304839,-0.0962371826171875,-0.063201904296875,-1.0197906494140625,0.0217292644083499,0.027306456118822,0.0211164709180593
1769250304850,-0.0989837646484375,-0.0697784423828125,-1.019256591796875,0.0522943623363971,0.0122476117685437,0.0022040321491658
1769250304859,-0.1007232666015625,-0.0605621337890625,-1.0114593505859375,0.0801957696676254,0.0092022866010665,-0.0044043357484042
1769250304869,-0.09405517578125,-0.051055908203125,-1.002349853515625,0.1017154455184936,-0.0174120143055915,-0.0122279040515422
1769250304879,-0.0926513671875,-0.06378173828125,-0.9978485107421876,0.1099281013011932,-0.0322974845767021,-0.0109144328162074
1769250304889,-0.0894775390625,-0.0728302001953125,-0.994049072265625,0.1101550012826919,-0.0319350287318229,-0.0076991985552012
1769250304899,-0.09173583984375,-0.0783843994140625,-0.9923553466796876,0.0977188348770141,-0.025568475946784,-0.0054325824603438
1769250304909,-0.0925140380859375,-0.0725555419921875,-0.9792633056640624,0.0679412335157394,0.0036424053832888,-0.0027153589762747
1769250304919,-0.0923919677734375,-0.0709991455078125,-0.9702606201171876,0.0317320972681045,0.0344919301569461,-0.000998419127427
1769250304929,-0.0937347412109375,-0.0684051513671875,-0.964019775390625,-0.0054831821471452,0.0681699961423873,0.0017731325933709
1769250304939,-0.090667724609375,-0.0711669921875,-0.965484619140625,-0.0369183383882045,0.088996984064579,0.0093538202345371
1769250304950,-0.0828857421875,-0.0731658935546875,-0.971343994140625,-0.0526853166520595,0.0905669182538986,0.0130036827176809
1769250304959,-0.0833282470703125,-0.0738983154296875,-0.9747467041015624,-0.0586859509348869,0.0762998312711715,0.0111575797200202
1769250304970,-0.088653564453125,-0.068145751953125,-0.9812469482421876,-0.0593682527542114,0.0517859645187854,0.0171507578343153
1769250304980,-0.0872039794921875,-0.065826416015625,-0.9868927001953124,-0.0633403584361076,0.0381316728889942,0.0181430503726005
1769250304990,-0.0879058837890625,-0.0648040771484375,-0.983154296875,-0.0681345760822296,0.034249048680067,0.0234486013650894
1769250305001,-0.08526611328125,-0.0640716552734375,-0.9837188720703124,-0.0673545375466346,0.029521407559514,0.0260278712958097
1769250305010,-0.084014892578125,-0.068145751953125,-0.990631103515625,-0.0642426386475563,0.0288313813507556,0.0310143753886222
1769250305020,-0.0843963623046875,-0.0659942626953125,-0.99310302734375,-0.0599765181541442,0.0363881029188632,0.0318785719573497
1769250305030,-0.0884552001953125,-0.063140869140625,-0.9997100830078124,-0.056514672935009,0.0400613993406295,0.0360355004668235
1769250305040,-0.0926971435546875,-0.06146240234375,-0.9987030029296876,-0.0476095974445343,0.0445237904787063,0.0355611890554428
1769250305050,-0.0966033935546875,-0.07977294921875,-0.9992828369140624,-0.0454340614378452,0.0316950790584087,0.0433932803571224
1769250305060,-0.087310791015625,-0.0697479248046875,-1.0010223388671875,-0.037587322294712,0.0462905317544937,0.0364698618650436
1769250305070,-0.0818939208984375,-0.035888671875,-1.0104217529296875,-0.0195305570960044,0.0663228332996368,0.01767273619771
1769250305080,-0.0967559814453125,-0.033477783203125,-1.008453369140625,0.0107253482565283,0.0374083593487739,0.0103522399440407
1769250305090,-0.1050262451171875,-0.0545196533203125,-0.9991912841796876,0.0271658413112163,0.0008093346259556,0.0174594167619943
1769250305101,-0.092926025390625,-0.1015777587890625,-1.00225830078125,0.0287738572806119,0.0164279751479625,0.0341017767786979
1769250305110,-0.0694427490234375,-0.0919189453125,-1.0068511962890625,0.0340767428278923,0.0474199801683425,0.0198168475180864
1769250305120,-0.07464599609375,-0.0631561279296875,-1.0002899169921875,0.0333377160131931,0.0593125931918621,0.0042970106005668
1769250305130,-0.0840911865234375,-0.0671844482421875,-0.99102783203125,0.0483006872236728,0.0534480437636375,0.0040168459527194
1769250305140,-0.091064453125,-0.0506591796875,-0.9958648681640624,0.0705676451325416,0.0205319058150053,-0.001285774167627
1769250305150,-0.1075592041015625,-0.057769775390625,-0.9976959228515624,0.0908673256635665,-0.0269240252673625,-0.0162487439811229
1769250305160,-0.117645263671875,-0.070648193359375,-0.9994964599609376,0.0993383079767227,-0.0642162710428237,-0.0281530749052763
1769250305171,-0.110076904296875,-0.08343505859375,-0.9932708740234376,0.0901226997375488,-0.071182832121849,-0.0216714739799499
1769250305181,-0.0874176025390625,-0.0826263427734375,-0.980438232421875,0.068483717739582,-0.051054660230875,-0.0228129047900438
1769250305191,-0.0804443359375,-0.088531494140625,-0.9777069091796876,0.0494349263608455,-0.0181393232196569,-0.0271463990211486
1769250305201,-0.0809326171875,-0.08013916015625,-0.98211669921875,0.0276406817138195,0.0125125963240861,-0.0282753128558397
1769250305211,-0.0872650146484375,-0.072265625,-0.981353759765625,0.0088749844580888,0.0315145179629325,-0.0332048237323761
1769250305221,-0.093902587890625,-0.0712432861328125,-0.9818115234375,-0.0040328246541321,0.0304135661572217,-0.0367971621453762
1769250305231,-0.0913238525390625,-0.070648193359375,-0.9817962646484376,-0.0108886007219553,0.0273663774132728,-0.0415429174900054
1769250305241,-0.0939483642578125,-0.070587158203125,-0.9802398681640624,-0.010602843016386,0.0248805824667215,-0.0489776618778705
1769250305251,-0.0981292724609375,-0.0754547119140625,-0.9822998046875,-0.0072619076818227,0.0073170349933207,-0.0485547520220279
1769250305261,-0.091217041015625,-0.077239990234375,-0.9852752685546876,-0.0037595843896269,-0.0079162465408444,-0.0510157793760299
1769250305271,-0.0934906005859375,-0.080078125,-0.9881134033203124,0.0095692705363035,-0.0169084090739488,-0.0562046840786933
1769250305283,-0.0958099365234375,-0.08160400390625,-0.9953460693359376,0.0227963924407959,-0.04218740016222,-0.0675636008381843
1769250305291,-0.1013641357421875,-0.08612060546875,-0.9975433349609376,0.0312194377183914,-0.0419357307255268,-0.063322514295578
1769250305301,-0.0841217041015625,-0.056732177734375,-0.9898681640625,0.01599015109241,-0.0056682717986404,-0.0616250149905681
1769250305311,-0.083892822265625,-0.0646514892578125,-0.9802398681640624,0.001629055594094,0.0134604154154658,-0.0695178285241127
1769250305321,-0.0864105224609375,-0.0693511962890625,-0.98779296875,-0.0139190116897225,0.020404340699315,-0.0594579987227916
1769250305331,-0.0778045654296875,-0.0631561279296875,-0.9859466552734376,-0.0312170404940843,0.0358698517084121,-0.0534331314265728
1769250305341,-0.06939697265625,-0.068206787109375,-0.994232177734375,-0.029910760000348,0.0466492623090744,-0.0384882688522338
1769250305352,-0.05718994140625,-0.0736846923828125,-1.004302978515625,-0.0309011898934841,0.0607829242944717,-0.0225926600396633
1769250305362,-0.0603790283203125,-0.08319091796875,-0.99578857421875,-0.0265471879392862,0.0661172345280647,-0.0143214147537946
1769250305372,-0.070953369140625,-0.0820770263671875,-0.9971160888671876,-0.0061694788746535,0.0392414107918739,-0.0050839744508266
1769250305382,-0.0755615234375,-0.0793914794921875,-1.0078582763671875,0.0180296003818511,0.0281011424958705,0.0050959587097167
1769250305392,-0.0777435302734375,-0.0775146484375,-1.010772705078125,0.0410694070160388,0.0209907684475183,0.0145576372742652
1769250305402,-0.0775299072265625,-0.0665435791015625,-1.0117034912109375,0.06361785531044,0.0225316733121871,0.0164127945899963
1769250305412,-0.0768280029296875,-0.0694427490234375,-1.0162200927734375,0.0797478258609771,0.0293448399752378,0.0214592199772596
1769250305422,-0.0757293701171875,-0.07354736328125,-1.0047454833984375,0.0857218280434608,0.0346599742770195,0.0299461800605058
1769250305432,-0.0696258544921875,-0.07440185546875,-0.988800048828125,0.0898899435997009,0.0392374172806739,0.0465318150818347
1769250305442,-0.06488037109375,-0.07891845703125,-0.98583984375,0.1084279417991638,0.0207550786435604,0.0560877695679664
1769250305452,-0.069915771484375,-0.0784759521484375,-1.000732421875,0.1491085290908813,0.0015203986549749,0.0569628849625587
1769250305462,-0.0848236083984375,-0.0752716064453125,-1.027435302734375,0.1722543239593505,0.026346119120717,0.0389804206788539
1769250305472,-0.1042327880859375,-0.0734100341796875,-1.03143310546875,0.1750485152006149,0.0595552064478397,0.0309067834168672
1769250305483,-0.095947265625,-0.0839385986328125,-0.9949188232421876,0.1523842066526413,0.0773248821496963,0.0447224639356136
1769250305492,-0.0706329345703125,-0.1035308837890625,-0.9669647216796876,0.1177372857928276,0.1223402917385101,0.0395069308578968
1769250305502,-0.0650787353515625,-0.080169677734375,-0.9678192138671876,0.0910303071141243,0.1704023629426956,0.0190152358263731
1769250305512,-0.0848541259765625,-0.057342529296875,-0.9709320068359376,0.0839281901717186,0.1718367338180542,-0.0094965659081935
1769250305522,-0.107177734375,-0.0614776611328125,-0.9669952392578124,0.073057435452938,0.12838114798069,-0.0124710509553551
1769250305534,-0.0998992919921875,-0.104705810546875,-0.9636383056640624,0.050260242074728,0.1097190380096435,-0.0004482100193854
1769250305542,-0.0745391845703125,-0.1307525634765625,-0.974609375,0.0500035136938095,0.1318658888339996,-0.006418218370527
1769250305552,-0.0659637451171875,-0.093658447265625,-0.9847259521484376,0.0307278186082839,0.0821843519806861,-0.0231039877980947
1769250305562,-0.0667572021484375,-0.08514404296875,-0.9708099365234376,0.0096984338015317,0.1001425758004188,-0.0366666689515113
1769250305572,-0.063995361328125,-0.084625244140625,-0.96728515625,-0.0253743324428796,0.1496978849172592,-0.031213579699397
1769250305583,-0.06170654296875,-0.077423095703125,-0.954803466796875,-0.0451608188450336,0.18855020403862,-0.0344133675098419
1769250305593,-0.0803985595703125,-0.08050537109375,-0.964019775390625,-0.0535023733973503,0.1853978186845779,-0.0318673849105834
1769250305603,-0.08380126953125,-0.089141845703125,-0.973388671875,-0.0641238614916801,0.1676939278841018,-0.0209489576518535
1769250305613,-0.06842041015625,-0.093536376953125,-0.9828948974609376,-0.0624442026019096,0.1742953658103943,-0.0226805452257394
1769250305623,-0.062408447265625,-0.1040496826171875,-0.9929351806640624,-0.0641451627016067,0.1671905815601349,-0.0133839827030897
1769250305633,-0.0434417724609375,-0.0986175537109375,-0.986907958984375,-0.0666290968656539,0.1626898497343063,-0.0104140248149633
1769250305643,-0.0529327392578125,-0.0926666259765625,-0.972900390625,-0.0804895162582397,-0.0837239250540733,-0.0174450371414423
1769250305653,-0.0803680419921875,-0.0821990966796875,-0.912078857421875,-0.0013025520602241,-0.3904444575309753,0.0379897281527519
1769250305663,-0.0324249267578125,-0.082794189453125,-0.9598541259765624,0.0290513597428798,-0.158473789691925,0.0262798070907592
1769250305673,-0.0558624267578125,-0.09808349609375,-1.1104278564453125,0.0311507284641265,0.0515026040375232,-0.0112001905217766
1769250305683,-0.0853118896484375,-0.081268310546875,-1.07598876953125,0.0303595028817653,0.051371045410633,0.0103453155606985
1769250305693,-0.0487060546875,-0.07403564453125,-0.99017333984375,0.0236616525799036,0.0692349970340728,0.0039052593056112
1769250305703,-0.0706939697265625,-0.0836181640625,-0.978668212890625,0.0334335900843143,0.0937691032886505,0.0021366542205214
1769250305713,-0.0756988525390625,-0.076141357421875,-1.0055694580078125,0.0512402839958667,0.1165164932608604,-0.0020788635592907
1769250305723,-0.076934814453125,-0.093170166015625,-1.025909423828125,0.0608593560755252,0.1208731606602668,-0.0043271039612591
1769250305733,-0.060791015625,-0.0915069580078125,-1.012298583984375,0.0658013820648193,0.1614418923854828,-0.0072824140079319
1769250305743,-0.0559234619140625,-0.0792236328125,-0.997344970703125,0.049035720527172,0.2099047601222992,-0.0081428810954093
1769250305753,-0.0523834228515625,-0.0926513671875,-0.9891815185546876,0.0324980206787586,0.248899832367897,-0.0021526331547647
1769250305763,-0.0484161376953125,-0.0940399169921875,-0.989837646484375,0.0130177978426218,0.3064483404159546,0.0046285740099847
1769250305773,-0.0463104248046875,-0.096649169921875,-0.99859619140625,-0.007686149328947,0.3657193779945373,0.0243029426783323
1769250305783,-0.0406646728515625,-0.099395751953125,-0.990478515625,-0.0136628150939941,0.3390401005744934,0.0274856872856616
1769250305794,-0.05035400390625,-0.090087890625,-0.9768829345703124,-0.0021094898693263,0.2407849133014679,0.0162988118827343
1769250305804,-0.058135986328125,-0.096435546875,-0.9708709716796876,0.0092246569693088,0.1652909517288208,0.0158567279577255
1769250305814,-0.0520782470703125,-0.0928192138671875,-0.96917724609375,0.0105860652402043,0.167014017701149,0.0165965538471937
1769250305824,-0.0504608154296875,-0.0876922607421875,-0.98431396484375,-0.0044882255606353,0.2152643799781799,0.0152500588446855
1769250305834,-0.0478057861328125,-0.083465576171875,-0.9898681640625,-0.0213311221450567,0.1910469233989715,0.0003225088003091
1769250305844,-0.05609130859375,-0.0852508544921875,-0.9759521484375,-0.0343095026910305,0.1157910451292991,-0.0115527929738163
1769250305854,-0.0443267822265625,-0.0854949951171875,-0.9586334228515624,-0.0448726676404476,0.0846943780779838,-0.0115418741479516
1769250305864,-0.030487060546875,-0.096038818359375,-0.9612274169921876,-0.0596167258918285,0.1051554456353187,-0.0130750555545091
1769250305874,-0.025115966796875,-0.09954833984375,-0.9694976806640624,-0.0635102689266204,0.0803654119372367,-0.0139781339094042
1769250305884,-0.026947021484375,-0.0958099365234375,-0.9749755859375,-0.0602015554904937,0.0308649707585573,-0.0072872075252234
1769250305894,-0.0216217041015625,-0.0905914306640625,-0.980621337890625,-0.0752550736069679,0.0016032229177653,0.0033670344855636
1769250305904,-0.0211181640625,-0.085693359375,-0.976104736328125,-0.0874116048216819,-0.0348045863211154,0.0023284016642719
1769250305914,-0.03057861328125,-0.09039306640625,-0.972991943359375,-0.1028036102652549,-0.0463760197162628,0.0064539043232798
1769250305924,-0.0283355712890625,-0.0997772216796875,-0.9734039306640624,-0.1337346285581588,-0.0230768229812383,0.0184125620871782
1769250305934,-0.0231170654296875,-0.1021881103515625,-0.9808349609375,-0.1521751582622528,0.0049406965263187,0.0235886834561824
1769250305944,-0.0214996337890625,-0.0619049072265625,-0.992401123046875,-0.134730651974678,0.0168543476611375,0.0100441118702292
1769250305954,-0.0418853759765625,-0.0479888916015625,-1.014678955078125,-0.0936039835214614,-0.0249429009854793,0.0024740765802562
1769250305964,-0.05279541015625,-0.06341552734375,-1.022613525390625,-0.0744872838258743,-0.0669950097799301,0.0173558201640844
1769250305974,-0.036285400390625,-0.10491943359375,-1.0188140869140625,-0.08377106487751,-0.0310599151998758,0.0421562418341636
1769250305984,-0.01483154296875,-0.1063232421875,-1.0124664306640625,-0.0843465700745582,0.0149366054683923,0.0458204858005046
1769250305995,-0.0100250244140625,-0.081451416015625,-1.006072998046875,-0.0702185034751892,-0.0093570165336132,0.0387782901525497
1769250306005,-0.0148468017578125,-0.0987701416015625,-1.0002288818359375,-0.0490924455225467,-0.0301746800541877,0.0385881401598453
1769250306015,-0.0211029052734375,-0.0827178955078125,-0.9932861328125,-0.0383164957165718,-0.040524523705244,0.0560856387019157
1769250306025,-0.0281219482421875,-0.06121826171875,-0.99627685546875,-0.0307307485491037,-0.0631512701511383,0.0590883530676364
1769250306035,-0.0379791259765625,-0.0724334716796875,-0.99908447265625,-0.0209644045680761,-0.112042911350727,0.0569088235497474
1769250306045,-0.0425262451171875,-0.0927581787109375,-0.988677978515625,-0.0152886752039194,-0.1617004871368408,0.058602325618267
1769250306055,-0.0392303466796875,-0.0927276611328125,-0.9828338623046876,-0.0292247310280799,-0.1623654663562774,0.0617496520280838
1769250306065,-0.031463623046875,-0.0867462158203125,-0.9870147705078124,-0.0632162541151046,-0.0680288523435592,0.0767706781625747
1769250306075,-0.02001953125,-0.0830078125,-0.997467041015625,-0.0963379889726638,0.0153624443337321,0.0772119611501693
1769250306085,-0.03253173828125,-0.0804901123046875,-0.990814208984375,-0.1091989278793335,0.0447086170315742,0.0658157616853714
1769250306095,-0.045440673828125,-0.0723724365234375,-0.984344482421875,-0.1132341474294662,0.0956330522894859,0.0649675503373146
1769250306105,-0.05303955078125,-0.0688018798828125,-0.9888763427734376,-0.1149084791541099,0.098214715719223,0.0616955868899822
1769250306115,-0.0558929443359375,-0.0620574951171875,-0.999359130859375,-0.097659446299076,0.081094317138195,0.0552605912089347
1769250306125,-0.05230712890625,-0.059722900390625,-1.0114288330078125,-0.0794365033507347,0.0594974160194397,0.0345633029937744
1769250306135,-0.0586395263671875,-0.067657470703125,-1.0096282958984375,-0.0531899854540824,0.0048781121149659,0.0128987543284893
1769250306145,-0.055023193359375,-0.069000244140625,-1.0019683837890625,-0.0285629350692033,-0.0272505301982164,0.0139280660077929
1769250306156,-0.0397491455078125,-0.064697265625,-1.0018768310546875,-0.0181590300053358,-0.0259208139032125,0.0112912701442837
1769250306165,-0.0351409912109375,-0.07354736328125,-1.013671875,-0.0063804010860621,-0.0241913553327322,0.0058328555896878
1769250306175,-0.0333709716796875,-0.074188232421875,-1.007232666015625,0.0103319995105266,-0.0502509213984012,0.0046027414500713
1769250306185,-0.038482666015625,-0.0730133056640625,-0.99810791015625,0.0161009393632411,-0.0589804947376251,9.747169679030776e-05
1769250306195,-0.0455322265625,-0.0777130126953125,-1.0005645751953125,0.003687945427373,-0.0257554315030574,-0.0046557383611798
1769250306206,-0.05242919921875,-0.0760345458984375,-1.001739501953125,-0.0042139198631048,0.0005347627447918,-0.0010769823566079
1769250306216,-0.0474853515625,-0.0691986083984375,-1.0059356689453125,-0.0051380367949604,-0.0058957058936357,-0.0064501762390136
1769250306226,-0.0452423095703125,-0.0647735595703125,-1.0034637451171875,-0.0042464104481041,-0.0321912243962287,-0.0087434239685535
1769250306236,-0.03765869140625,-0.0649566650390625,-0.9919586181640624,-0.0053601441904902,-0.0357601270079612,-0.0114404074847698
1769250306246,-0.0337066650390625,-0.072845458984375,-0.989013671875,0.0005049353349022,-0.0581937991082668,0.0020240023732185
1769250306256,-0.027801513671875,-0.0688629150390625,-0.993621826171875,0.0129019496962428,-0.0917443037033081,0.0128406975418329
1769250306266,-0.0334930419921875,-0.075897216796875,-0.990509033203125,0.0292210020124912,-0.115518607199192,0.0105439871549606
1769250306276,-0.036529541015625,-0.0833740234375,-0.9920501708984376,0.0250177346169948,-0.0597008801996707,0.0233740322291851
1769250306286,-0.02728271484375,-0.0756988525390625,-1.003021240234375,0.0138606885448098,0.0242880284786224,0.0177030973136425
1769250306296,-0.0483245849609375,-0.0623626708984375,-1.0180206298828125,0.0248651355504989,0.0156655125319957,0.0110643692314624
1769250306306,-0.0566253662109375,-0.0639495849609375,-1.010894775390625,0.0402989536523819,-0.0049681267701089,0.0062653529457747
1769250306317,-0.052825927734375,-0.072021484375,-0.998748779296875,0.0503933988511562,-0.0095484973862767,0.0027987160719931
1769250306326,-0.0432281494140625,-0.06463623046875,-1.00311279296875,0.0618876032531261,0.0030003173742443,0.0094451671466231
1769250306336,-0.03533935546875,-0.0662841796875,-1.0159912109375,0.0703567191958427,0.0219359248876571,0.0018295916961506
1769250306346,-0.0469970703125,-0.074981689453125,-1.0024871826171875,0.072859026491642,0.0210874415934085,-0.0035446672700345
1769250306356,-0.0482025146484375,-0.0809783935546875,-0.983612060546875,0.062516376376152,0.0248566139489412,0.0075181038118898
1769250306366,-0.039825439453125,-0.0970458984375,-0.9812774658203124,0.043291013687849,0.0371564216911792,0.012172776274383
1769250306376,-0.03582763671875,-0.0817718505859375,-0.985198974609375,0.0257303975522518,0.0504237599670887,0.006932208314538
1769250306386,-0.0419464111328125,-0.0482025146484375,-0.9773712158203124,0.0287160668522119,0.0353984721004962,-0.0269818156957626
1769250306396,-0.06591796875,-0.0463104248046875,-0.976654052734375,0.0371905118227005,-0.0416995100677013,-0.0267117712646722
1769250306406,-0.0628204345703125,-0.0869293212890625,-0.970947265625,0.0355018004775047,-0.0769757404923439,-0.0173190683126449
1769250306417,-0.048797607421875,-0.11944580078125,-0.9834442138671876,0.0262736827135086,-0.0369700007140636,-0.00716124009341
1769250306427,-0.0278778076171875,-0.09130859375,-0.988800048828125,0.0021648835390806,-0.0005129248020239,-0.0145001132041215
1769250306437,-0.0252227783203125,-0.0810394287109375,-0.9792938232421876,-0.0209705289453268,0.0359550714492797,-0.0258174818009138
1769250306447,-0.038970947265625,-0.06646728515625,-0.9709625244140624,-0.0242081340402364,0.0473587252199649,-0.0258782021701335
1769250306457,-0.0504913330078125,-0.060028076171875,-0.983367919921875,-0.0117219034582376,0.0179664827883243,-0.0190969947725534
1769250306467,-0.0611114501953125,-0.06878662109375,-0.99676513671875,0.0015936355339363,-0.016921192407608,-0.0104529075324535
1769250306477,-0.0571136474609375,-0.09674072265625,-0.9986724853515624,-0.0011302455095574,-0.0283956881612539,-0.0024533038958907
1769250306487,-0.0481719970703125,-0.097412109375,-0.989227294921875,-0.0136569561436772,-0.0441935583949089,0.0003065298369619
1769250306497,-0.038726806640625,-0.090789794921875,-0.980438232421875,-0.0290255267173051,-0.0425687655806541,0.0064557688310742
1769250306507,-0.0278472900390625,-0.0854339599609375,-0.9815216064453124,-0.0373524315655231,-0.0515449494123458,0.0028029771056026
1769250306517,-0.032470703125,-0.0711517333984375,-0.9806365966796876,-0.0445128716528415,-0.0656061768531799,-0.0085910912603139
1769250306527,-0.0457000732421875,-0.070068359375,-0.9784393310546876,-0.0465864092111587,-0.0814889967441558,-0.0099879195913672
1769250306537,-0.0525665283203125,-0.0711822509765625,-0.9805450439453124,-0.0428132452070713,-0.1004238128662109,-0.0054176687262952
1769250306547,-0.0547332763671875,-0.0705413818359375,-0.984619140625,-0.0430404096841812,-0.1118844598531723,-0.0077466028742492
1769250306557,-0.0593109130859375,-0.0720062255859375,-0.9814453125,-0.0563418343663215,-0.1052084416151046,-0.0103538371622562
1769250306570,-0.0539398193359375,-0.0717926025390625,-0.9758148193359376,-0.0774822756648063,-0.0864219740033149,-0.010122675448656
1769250306577,-0.048858642578125,-0.0773468017578125,-0.975616455078125,-0.1003830656409263,-0.0414979085326194,-0.0035305526107549
1769250306587,-0.0424652099609375,-0.0789337158203125,-0.981048583984375,-0.1189045459032058,-0.0161195807158947,-0.0019672771450132
1769250306597,-0.0489501953125,-0.081756591796875,-0.9879913330078124,-0.1189429014921188,-0.0164807066321373,-0.0052008870989084
1769250306608,-0.0511932373046875,-0.0763397216796875,-1.002044677734375,-0.0919602811336517,-0.0337670184671878,-0.0043657198548316
1769250306618,-0.050872802734375,-0.0590362548828125,-1.016448974609375,-0.0570885874330997,-0.0687183439731597,-0.000296143523883
1769250306628,-0.048370361328125,-0.0604400634765625,-1.019073486328125,-0.0458274111151695,-0.0793438255786895,0.0048661278560757
1769250306638,-0.0424652099609375,-0.0754852294921875,-1.0063934326171875,-0.0588651821017265,-0.0538579039275646,0.01152562815696
1769250306648,-0.0414581298828125,-0.073883056640625,-0.9926300048828124,-0.0787944123148918,-0.0218397844582796,0.0086052063852548
1769250306658,-0.0496826171875,-0.06689453125,-0.9888153076171876,-0.0915637388825416,-0.0092917690053582,0.0030959248542785
1769250306668,-0.05517578125,-0.0706024169921875,-0.9924163818359376,-0.0820011273026466,-0.0128825092688202,0.0041161817498505
1769250306678,-0.051483154296875,-0.0742645263671875,-1.0022430419921875,-0.0595461502671241,-0.0388896092772483,0.001358478446491
1769250306688,-0.0547943115234375,-0.072479248046875,-1.007720947265625,-0.0460822731256485,-0.0546896122395992,0.0037390780635178
1769250306698,-0.054107666015625,-0.063018798828125,-0.9986114501953124,-0.042258508503437,-0.054762315005064,0.0044259075075387
1769250306708,-0.04931640625,-0.058929443359375,-0.998809814453125,-0.0397700481116771,-0.0411514304578304,0.0054560182616114
1769250306718,-0.0467376708984375,-0.06640625,-1.0018768310546875,-0.0278489422053098,-0.0277607906609773,0.001048486563377
1769250306728,-0.050323486328125,-0.0742034912109375,-1.002716064453125,-0.0060861217789351,-0.0427836813032627,0.0109754195436835
1769250306738,-0.0467071533203125,-0.0670928955078125,-1.003631591796875,0.014977085404098,-0.0632535368204116,0.0173515602946281
1769250306748,-0.053680419921875,-0.0702972412109375,-1.002410888671875,0.0289528220891952,-0.078559786081314,0.0198802314698696
1769250306758,-0.059478759765625,-0.066986083984375,-0.9952545166015624,0.0310881435871124,-0.0736401304602623,0.016090553253889
1769250306768,-0.0645904541015625,-0.06243896484375,-0.9918365478515624,0.0284979548305273,-0.060621004551649,0.0139408493414521
1769250306778,-0.0600128173828125,-0.058013916015625,-0.991241455078125,0.0262134950608015,-0.0460543110966682,0.0075756278820335
1769250306788,-0.0630340576171875,-0.0586700439453125,-0.992767333984375,0.008895756676793,-0.0086070699617266,0.0048442902043461
1769250306799,-0.0608978271484375,-0.071441650390625,-0.9825897216796876,-0.0125354994088411,0.0138231376186013,0.0132423024624586
1769250306809,-0.0587005615234375,-0.07928466796875,-0.9813690185546876,-0.0211060848087072,0.0240621920675039,0.0061172810383141
1769250306818,-0.0646514892578125,-0.047210693359375,-0.9889373779296876,-0.0195308234542608,0.0398579351603984,-0.0163424871861934
1769250306829,-0.075714111328125,-0.0292816162109375,-0.989776611328125,0.0044589308090507,0.0102662192657589,-0.0412278622388839
1769250306839,-0.08966064453125,-0.0451812744140625,-0.9961395263671876,0.0355832949280738,-0.0645907074213028,-0.0389343500137329
1769250306849,-0.0799407958984375,-0.0888519287109375,-1.0110015869140625,0.0430840887129306,-0.0744430720806121,-0.025111211463809
1769250306859,-0.0591278076171875,-0.0851287841796875,-1.000823974609375,0.025488581508398,-0.0357116572558879,-0.0232254285365343
1769250306869,-0.040313720703125,-0.0670928955078125,-0.9816741943359376,-0.0018109495285898,0.0007520766812376,-0.0325171984732151
1769250306879,-0.0400848388671875,-0.063629150390625,-0.9754486083984376,-0.0126819731667637,0.0294385831803083,-0.0457642935216426
1769250306889,-0.0581207275390625,-0.0407562255859375,-0.973480224609375,-0.0114803547039628,0.0190967284142971,-0.0393934771418571
1769250306899,-0.0671844482421875,-0.04534912109375,-0.979522705078125,-0.006589725613594,-0.0070493873208761,-0.027895014733076
1769250306909,-0.067779541015625,-0.071624755859375,-0.9910888671875,-0.0078776301816105,-0.0304758828133344,-0.0170897711068391
1769250306919,-0.0586395263671875,-0.0870361328125,-0.9871978759765624,-0.0148700261488556,-0.0367191322147846,-0.0041896849870681
1769250306929,-0.04296875,-0.0833740234375,-0.9842376708984376,-0.0308263562619686,-0.0178290642797946,0.005371862091124
1769250306939,-0.0366058349609375,-0.0806427001953125,-0.982452392578125,-0.0549782961606979,0.0300345979630947,0.0119187114760279
1769250306949,-0.0422821044921875,-0.070953369140625,-0.985504150390625,-0.0647795274853706,0.0587328225374221,0.0108329402282834
1769250306959,-0.05914306640625,-0.057464599609375,-0.9896087646484376,-0.0651955157518386,0.070054717361927,0.0125701203942298
1769250306969,-0.06494140625,-0.055450439453125,-0.99493408203125,-0.0578377321362495,0.0673811733722686,0.0032842103391885
1769250306979,-0.0735931396484375,-0.057769775390625,-0.9970550537109376,-0.04101587459445,0.0550557933747768,-0.0074137076735496
1769250306990,-0.074920654296875,-0.0618438720703125,-1.002349853515625,-0.0226286128163337,0.0240318328142166,-0.0062483083456754
1769250306999,-0.0607757568359375,-0.058074951171875,-1.0028839111328125,-0.0041404166258871,0.0007494135061278,-0.007505586836487
1769250307010,-0.05859375,-0.0672607421875,-1.0019378662109375,-0.004905276466161,-0.0073404707945883,-0.0043135220184922
1769250307019,-0.0538330078125,-0.065216064453125,-0.9902191162109376,-0.0062776030972599,-0.0139776011928915,0.0027166905347257
1769250307029,-0.0504150390625,-0.0657806396484375,-0.9912109375,-0.002192314248532,-0.0261714160442352,0.0055385762825608
1769250307040,-0.05230712890625,-0.067291259765625,-0.998931884765625,0.0093732615932822,-0.0220046341419219,0.0042581283487379
1769250307050,-0.0511932373046875,-0.060211181640625,-1.006439208984375,0.0251437034457921,-0.0151967955753207,0.008422247134149
1769250307060,-0.052398681640625,-0.0512542724609375,-1.0079498291015625,0.0336503721773624,-0.0274883490055799,0.0102803343906998
1769250307070,-0.0533294677734375,-0.0603485107421875,-0.999481201171875,0.0324008166790008,-0.0171425007283687,0.0118843559175729
1769250307080,-0.054168701171875,-0.0749053955078125,-1.001678466796875,0.0331361144781112,-0.0067899953573942,0.0173464994877576
1769250307090,-0.0517120361328125,-0.0684661865234375,-0.998046875,0.0325416959822177,-0.0018719359068199,0.025375397875905
1769250307101,-0.050628662109375,-0.067535400390625,-0.992889404296875,0.0405716598033905,-0.002233859617263,0.0293027609586715
1769250307110,-0.0560760498046875,-0.068511962890625,-0.9989166259765624,0.0566212013363838,-0.0240648556500673,0.0310748293995857
1769250307120,-0.062591552734375,-0.068389892578125,-1.0007476806640625,0.0672773048281669,-0.0497065708041191,0.0306228902190923
1769250307130,-0.0649871826171875,-0.0666351318359375,-0.9915618896484376,0.0628290325403213,-0.0516128614544868,0.032288696616888
1769250307140,-0.0625152587890625,-0.0681304931640625,-0.9886474609375,0.0504011213779449,-0.0235162451863288,0.0312910787761211
1769250307150,-0.059906005859375,-0.069854736328125,-0.986328125,0.0350772924721241,-0.005241101142019,0.0300955846905708
1769250307160,-0.0618133544921875,-0.0694122314453125,-0.9793853759765624,0.0175952389836311,8.442220860160887e-05,0.0246028155088424
1769250307170,-0.06695556640625,-0.0694122314453125,-0.97540283203125,0.0027180220931768,0.0068757492117583,0.0230150371789932
1769250307180,-0.0681610107421875,-0.0711822509765625,-0.9751739501953124,-0.0107647636905312,0.0080677801743149,0.0200570654124021
1769250307191,-0.0662078857421875,-0.06884765625,-0.97772216796875,-0.0150077119469642,-0.0012303803814575,0.0196408126503229
1769250307200,-0.0659942626953125,-0.0672149658203125,-0.9837188720703124,-0.0182234793901443,0.003974235150963,0.0145824048668146
1769250307210,-0.0676727294921875,-0.0673065185546875,-0.9884490966796876,-0.017158480361104,0.0037486655637621,0.0074685690924525
1769250307221,-0.0681304931640625,-0.071014404296875,-0.9920501708984376,-0.0190658364444971,0.0057215350680053,-0.0001488707057433
1769250307230,-0.06878662109375,-0.0671539306640625,-0.9854888916015624,-0.0221151560544967,-0.0031262848060578,-0.001284708851017
1769250307241,-0.0702056884765625,-0.080474853515625,-0.99163818359375,-0.0227894689887762,-0.0165962874889373,0.0040642502717673
1769250307251,-0.0650787353515625,-0.0811614990234375,-0.996856689453125,-0.0265546459704637,-0.0026336000300943,-0.0066349995322525
1769250307261,-0.0637054443359375,-0.0413360595703125,-0.9880828857421876,-0.0244704559445381,0.026714701205492,-0.0242784414440393
1769250307271,-0.075286865234375,-0.029388427734375,-0.9835662841796876,-0.014894793741405,0.0208682641386985,-0.0420574396848678
1769250307281,-0.09197998046875,-0.0565032958984375,-0.987152099609375,-0.0118995364755392,-0.0207540150731802,-0.0406941659748554
1769250307291,-0.0804595947265625,-0.098968505859375,-0.996612548828125,-0.0255165454000234,-0.0229865424335002,-0.0194687731564044
1769250307301,-0.047393798828125,-0.093231201171875,-0.997100830078125,-0.0385444611310958,0.0043771713972091,-0.0263253469020128
1769250307311,-0.043060302734375,-0.07318115234375,-0.9846038818359376,-0.0488255955278873,0.0188037808984518,-0.0395106561481952
1769250307321,-0.0493316650390625,-0.0682525634765625,-0.979095458984375,-0.0392659120261669,0.0204131305217742,-0.0430081859230995
1769250307331,-0.061370849609375,-0.0433807373046875,-0.9911041259765624,-0.0152737610042095,-0.0070765516720712,-0.0505571849644184
1769250307341,-0.081390380859375,-0.0536346435546875,-1.005340576171875,0.0078523308038711,-0.054983090609312,-0.0479265116155147
1769250307351,-0.078521728515625,-0.07305908203125,-1.0056304931640625,0.0156822893768548,-0.0758697316050529,-0.0298439152538776
1769250307361,-0.055328369140625,-0.082000732421875,-0.9963531494140624,0.0031627700664103,-0.0540259517729282,-0.0113629093393683
1769250307371,-0.043304443359375,-0.08514404296875,-0.9912872314453124,-0.017133180052042,-0.0167515501379966,-0.0025955168530344
1769250307381,-0.04217529296875,-0.086029052734375,-0.9901580810546876,-0.0327832475304603,0.0116145778447389,0.0089418292045593
1769250307391,-0.04510498046875,-0.068115234375,-0.9872894287109376,-0.0388491302728652,0.0321438200771808,0.0147595051676034
1769250307401,-0.0554351806640625,-0.0603179931640625,-0.9986419677734376,-0.0265184268355369,0.0247903019189834,0.01592836715281
1769250307411,-0.0667266845703125,-0.06329345703125,-1.007049560546875,-0.0052200620993971,-0.0044117928482592,0.0103032374754548
1769250307421,-0.07281494140625,-0.0671844482421875,-1.0009918212890625,0.0045801042579114,-0.0206062085926532,0.01432248018682
1769250307432,-0.0685882568359375,-0.0589447021484375,-0.990020751953125,0.0047827707603573,-0.0097996341064572,0.0139080919325351
1769250307443,-0.06915283203125,-0.0605621337890625,-0.9923248291015624,0.0052525526843965,-0.004701011814177,0.0043473439291119
1769250307452,-0.0753173828125,-0.0724639892578125,-0.995452880859375,0.0124960839748382,-0.0238400846719741,-0.0007009439868852
1769250307462,-0.07257080078125,-0.0713348388671875,-0.9949798583984376,0.018074607476592,-0.0287650693207979,-0.0061705443076789
1769250307472,-0.0746612548828125,-0.07110595703125,-0.9978485107421876,0.0146290101110935,-0.024149278178811,-0.0108422609046101
1769250307482,-0.070404052734375,-0.0697021484375,-1.0028228759765625,0.0246968250721693,-0.0069945263676345,-0.0235412791371345
1769250307492,-0.0725555419921875,-0.055419921875,-1.003173828125,0.0284082051366567,-0.0066749467514455,-0.0309547204524278
1769250307502,-0.07220458984375,-0.0570220947265625,-0.9939727783203124,0.0215793270617723,-0.0052224588580429,-0.033977672457695
1769250307512,-0.066650390625,-0.072601318359375,-0.992828369140625,0.017186177894473,-0.0024074974935501,-0.0333102867007255
1769250307522,-0.065093994140625,-0.07647705078125,-0.993011474609375,0.0141286021098494,-0.0067476513795554,-0.0351406782865524
1769250307532,-0.0650787353515625,-0.0709075927734375,-0.9922943115234376,0.0062126219272613,0.0036131106317043,-0.0271384101361036
1769250307542,-0.05670166015625,-0.0626068115234375,-0.9897308349609376,-0.0017241304740309,0.0175547581166028,-0.0165339689701795
1769250307552,-0.0553436279296875,-0.065032958984375,-0.9944610595703124,0.0059066247195005,0.0053598778322339,-0.016276441514492
1769250307562,-0.061126708984375,-0.072174072265625,-0.9933013916015624,0.0115432050079107,-0.0101093593984842,-0.016284430399537
1769250307572,-0.0617828369140625,-0.068328857421875,-0.9897613525390624,0.0094869788736104,0.0016913736471906,-0.013278255239129
1769250307582,-0.0586395263671875,-0.0640869140625,-0.992919921875,0.0063327308744192,0.0189798157662153,-0.0091964276507496
1769250307592,-0.0559844970703125,-0.0734710693359375,-0.99444580078125,0.010081929154694,0.0123674534261226,-0.0109586417675018
1769250307602,-0.060516357421875,-0.075408935546875,-0.9903411865234376,0.0134023576974868,0.004766259342432,-0.0122686503455042
1769250307612,-0.060455322265625,-0.0716094970703125,-0.989105224609375,0.0070046461187303,0.0093165365979075,-0.0030229541007429
1769250307622,-0.055389404296875,-0.06494140625,-0.9898834228515624,0.0037635792978107,0.0307150352746248,0.0061036986298859
1769250307632,-0.053497314453125,-0.0682373046875,-0.9945831298828124,0.0049433596432209,0.0402297116816043,0.0064930529333651
1769250307642,-0.0608673095703125,-0.0675201416015625,-0.998016357421875,0.0125144599005579,0.0363654643297195,0.0068083712831139
1769250307653,-0.0670623779296875,-0.0650787353515625,-0.999298095703125,0.0192237626761198,0.0320657901465892,0.0087652616202831
1769250307662,-0.0670623779296875,-0.0643463134765625,-1.0030670166015625,0.031805332750082,0.0260204151272773,0.0033883398864418
1769250307673,-0.0672149658203125,-0.0700531005859375,-1.00518798828125,0.0531114228069782,-0.0085751125589013,0.00459501799196
1769250307683,-0.066192626953125,-0.0838470458984375,-1.0028228759765625,0.0557556748390197,-0.0413202755153179,0.0111463945358991
1769250307693,-0.054595947265625,-0.079803466796875,-0.9910888671875,0.0504722297191619,-0.0221910551190376,0.0107815414667129
1769250307703,-0.0484161376953125,-0.04058837890625,-0.9860992431640624,0.0516453497111797,-0.0006578007596544,-0.0138684110715985
1769250307713,-0.0734405517578125,-0.03961181640625,-0.984710693359375,0.0757277831435203,-0.0470625832676887,-0.0241085328161716
1769250307723,-0.0870361328125,-0.0618438720703125,-0.9858856201171876,0.076378658413887,-0.0732292085886001,-0.0096102831885218
1769250307733,-0.0681304931640625,-0.105712890625,-1.001617431640625,0.0533931851387023,-0.0447411052882671,0.0155733665451407
1769250307743,-0.0384979248046875,-0.0932769775390625,-0.9969329833984376,0.0248792506754398,-0.001741973683238,0.0166535452008247
1769250307753,-0.037445068359375,-0.0699920654296875,-0.97210693359375,-0.0052821137942373,0.0438982136547565,-0.0044256411492824
1769250307763,-0.058197021484375,-0.0762176513671875,-0.9658966064453124,-0.0042298985645174,0.0415969789028167,-0.0167486201971769
1769250307773,-0.074432373046875,-0.056427001953125,-0.9796600341796876,0.0154620464891195,-0.0108422609046101,-0.0152692338451743
1769250307784,-0.0831451416015625,-0.0655975341796875,-0.9969329833984376,0.0272832866758108,-0.0519723854959011,-0.009008408524096
1769250307793,-0.0775604248046875,-0.07977294921875,-0.9963226318359376,0.0172309186309576,-0.0556621961295604,0.0082581965252757
1769250307803,-0.058746337890625,-0.08563232421875,-0.9821014404296876,-0.01187130715698,-0.0328815169632434,0.0158676467835903
1769250307813,-0.0535888671875,-0.094390869140625,-0.9686431884765624,-0.0432055257260799,-0.0088323736563324,0.023372434079647
1769250307823,-0.0499114990234375,-0.0866546630859375,-0.9705963134765624,-0.0589128509163856,0.0016735304379835,0.0271440036594867
1769250307834,-0.0580902099609375,-0.0795440673828125,-0.9880218505859376,-0.0580433309078216,-0.0061737401410937,0.0242803059518337
1769250307844,-0.066802978515625,-0.071136474609375,-0.9951171875,-0.0520245842635631,-0.0041779670864343,0.0253386460244655
1769250307853,-0.0687408447265625,-0.0668182373046875,-0.996063232421875,-0.0521955601871013,0.0049375006929039,0.0320167876780033
1769250307863,-0.0659332275390625,-0.065704345703125,-0.9931793212890624,-0.0562635399401187,0.0184647608548402,0.0287666674703359
1769250307874,-0.0705718994140625,-0.0700836181640625,-0.989837646484375,-0.0570291988551616,0.0218166150152683,0.0211859792470932
1769250307884,-0.074737548828125,-0.071502685546875,-0.9862213134765624,-0.0467691048979759,0.0106438556686043,0.0154964020475745
1769250307894,-0.0762786865234375,-0.0723419189453125,-0.998565673828125,-0.0272545237094163,-0.0126079367473721,0.0063737435266375
1769250307904,-0.07867431640625,-0.0746612548828125,-1.009521484375,-0.0163576677441597,-0.0264387987554073,0.0066515109501779
1769250307914,-0.07275390625,-0.0672454833984375,-1.0011138916015625,-0.015114770270884,-0.0121200457215309,0.0059242015704512
1769250307924,-0.0655059814453125,-0.0665435791015625,-1.00408935546875,-0.0030024477746337,-0.0048597361892461,-2.370213405811228e-05
1769250307934,-0.0659637451171875,-0.0561370849609375,-1.0023956298828125,0.0062198126688599,-0.0171193312853574,-0.0055313855409622
1769250307944,-0.068817138671875,-0.072662353515625,-1.00067138671875,0.0132345790043473,-0.02523691393435,-0.0046895602717995
1769250307954,-0.0680694580078125,-0.0794219970703125,-1.00244140625,0.0139552298933267,-0.0223564375191926,0.0022050973493605
1769250307964,-0.0645904541015625,-0.0732574462890625,-1.001068115234375,0.0055537559092044,-0.0089317094534635,0.0074129090644419
1769250307974,-0.0628509521484375,-0.074005126953125,-0.992919921875,-0.006498911883682,-0.0027888622134923,0.0116891469806432
1769250307984,-0.0618133544921875,-0.0713348388671875,-0.983642578125,-0.0202762428671121,0.0063854614272713,0.0121999410912394
1769250307994,-0.0634307861328125,-0.07098388671875,-0.979217529296875,-0.0277272351086139,0.0095980325713753,0.013065468519926
1769250308004,-0.0670928955078125,-0.0680694580078125,-0.986572265625,-0.0208107400685548,-0.0056448359973728,0.0154082514345645
1769250308014,-0.0635223388671875,-0.066375732421875,-0.995513916015625,-0.0109796803444623,-0.0083311665803194,0.0172056183218956
1769250308024,-0.0641937255859375,-0.071319580078125,-0.997833251953125,0.001563541823998,-0.0268710292875766,0.0165789760649204
1769250308034,-0.0684661865234375,-0.0742034912109375,-0.9951629638671876,0.0093828486278653,-0.0405450277030468,0.0140489740297198
1769250308044,-0.0659027099609375,-0.0731353759765625,-0.98846435546875,0.0037784930318593,-0.0257471743971109,0.0200943499803543
1769250308055,-0.0596923828125,-0.065399169921875,-0.9900665283203124,-0.0026117621455341,-0.0011028150329366,0.0122540034353733
1769250308065,-0.069244384765625,-0.0711212158203125,-0.99267578125,0.0019092201255261,-0.0001640507252886,0.011672368273139
1769250308075,-0.0752410888671875,-0.0694732666015625,-0.99273681640625,0.0047175236977636,-0.0029364014044404,0.0055793225765228
1769250308085,-0.0779876708984375,-0.0670318603515625,-0.99530029296875,0.002869555959478,-0.0045047369785606,0.006991596892476
1769250308095,-0.071197509765625,-0.06365966796875,-0.9939422607421876,-0.0052043492905795,0.0119759691879153,0.0091434307396411
1769250308105,-0.0629119873046875,-0.061676025390625,-0.9877471923828124,-0.0156780295073986,0.0271304212510585,0.0106869991868734
1769250308115,-0.0666351318359375,-0.0663909912109375,-0.98284912109375,-0.0235482025891542,0.0191033873707056,0.0152204977348446
1769250308125,-0.065032958984375,-0.0843505859375,-0.9857635498046876,-0.0284462887793779,0.0113208312541246,0.0264832731336355
1769250308135,-0.0617523193359375,-0.074310302734375,-0.9943695068359376,-0.0323068052530288,0.0302322041243314,0.0226653646677732
1769250308145,-0.060028076171875,-0.0308074951171875,-0.99542236328125,-0.0200144536793231,0.0572121553122997,0.0007805725326761
1769250308155,-0.0823516845703125,-0.0355072021484375,-0.9987640380859376,0.007834487594664,0.0129152657464146,-0.0144809382036328
1769250308165,-0.099395751953125,-0.0675201416015625,-0.9921875,0.0086813727393746,-0.0277733076363801,-0.0067958543077111
1769250308175,-0.0829620361328125,-0.1143951416015625,-0.996856689453125,-0.0082693817093968,-0.0076312879100441,0.0085154576227068
1769250308185,-0.055023193359375,-0.091400146484375,-0.9950408935546876,-0.0220629572868347,0.0124659910798072,0.0111924670636653
1769250308195,-0.0434112548828125,-0.059173583984375,-0.9809417724609376,-0.0298348609358072,0.0357758402824401,-0.0057393782772123
1769250308205,-0.0612335205078125,-0.06591796875,-0.98004150390625,-0.029013542458415,0.0387908034026622,-0.0090928310528397
1769250308215,-0.073028564453125,-0.042724609375,-0.9804229736328124,-0.0175427738577127,0.0213452354073524,-0.0128612034022808
1769250308225,-0.0880279541015625,-0.05743408203125,-0.9946136474609376,-0.0117975370958447,-0.0129914321005344,-0.0019635485950857
1769250308235,-0.0803680419921875,-0.0723419189453125,-0.994171142578125,-0.019791280850768,-0.0197784975171089,0.0078331558033823
1769250308245,-0.0687408447265625,-0.079437255859375,-0.9842071533203124,-0.0360437557101249,-0.0184298735111951,0.0218581613153219
1769250308255,-0.0543365478515625,-0.083770751953125,-0.983917236328125,-0.0485299862921237,-0.0142015730962157,0.0284449569880962
1769250308265,-0.0529022216796875,-0.08636474609375,-0.987152099609375,-0.0595317706465721,-0.0006388923502527,0.0281261764466762
1769250308276,-0.062530517578125,-0.0699920654296875,-0.9905548095703124,-0.0571154840290546,0.0017379788914695,0.0324660651385784
1769250308286,-0.0668487548828125,-0.05078125,-0.997344970703125,-0.0472908169031143,0.0049995523877441,0.0311344843357801
1769250308296,-0.071258544921875,-0.0529632568359375,-1.0034942626953125,-0.0389878787100315,0.0136231342330574,0.0270712990313768
1769250308306,-0.07183837890625,-0.059112548828125,-0.9966888427734376,-0.0267466586083173,0.0156500656157732,0.0251825843006372
1769250308316,-0.0749053955078125,-0.062896728515625,-0.995147705078125,-0.0114507935941219,0.0142577653750777,0.0194687731564044
1769250308326,-0.0741729736328125,-0.0606231689453125,-0.9999542236328124,-0.0016381103778257,0.0294929109513759,0.0180458463728427
1769250308336,-0.07330322265625,-0.065887451171875,-1.004791259765625,0.0123229790478944,0.0226544458419084,0.0211633425205945
1769250308346,-0.0688018798828125,-0.063995361328125,-1.0014190673828125,0.0224294085055589,0.0109698269516229,0.0229157023131847
1769250308356,-0.06536865234375,-0.065826416015625,-0.9954071044921876,0.0207436271011829,0.026772491633892,0.0255732703953981
1769250308366,-0.06060791015625,-0.0579986572265625,-0.9940948486328124,0.0183627624064683,0.0554470121860504,0.0161587297916412
1769250308376,-0.0725250244140625,-0.05670166015625,-0.9962005615234376,0.0210027527064085,0.0485571511089801,0.005079180933535
1769250308387,-0.07781982421875,-0.070159912109375,-0.9966583251953124,0.0228989236056804,0.0283602681010961,0.003491137875244
1769250308396,-0.073699951171875,-0.068206787109375,-0.997802734375,0.0195920765399932,0.0283592026680707,0.0144556378945708
1769250308406,-0.0609283447265625,-0.0657196044921875,-0.9971466064453124,0.0144519098103046,0.0338849946856498,0.0221348628401756
1769250308416,-0.058563232421875,-0.071319580078125,-0.99505615234375,0.0128031466156244,0.0267860740423202,0.0140641536563634
1769250308426,-0.0713348388671875,-0.0773773193359375,-0.99163818359375,0.0169326439499855,0.0047526773996651,0.0033545177429914
1769250308436,-0.082305908203125,-0.076812744140625,-0.9907073974609376,0.0189928654581308,-0.0192618444561958,0.0004692489746958
1769250308446,-0.0743865966796875,-0.0659027099609375,-0.9900054931640624,0.0121804997324943,-0.0147613687440752,0.0172791220247745
1769250308456,-0.0590667724609375,-0.0624542236328125,-0.9951934814453124,0.0035630431957542,0.009615609422326,0.0139983734115958
1769250308466,-0.0626678466796875,-0.0759124755859375,-0.99383544921875,-0.0023417174816131,0.0144958524033427,0.0112848784774541
1769250308477,-0.062042236328125,-0.0724334716796875,-0.98590087890625,-0.0072725601494312,0.0149315455928444,0.0133608123287558
1769250308487,-0.060546875,-0.0691070556640625,-0.9846038818359376,-0.0097133470699191,0.0147656304761767,0.0164298396557569
1769250308497,-0.0572052001953125,-0.0670928955078125,-0.98974609375,-0.009957293048501,0.0114561198279261,0.0231543220579624
1769250308507,-0.056915283203125,-0.0662078857421875,-0.99273681640625,-0.0051976912654936,0.0122670521959662,0.0224941242486238
1769250308517,-0.0661773681640625,-0.06854248046875,-0.99444580078125,0.0005528722540475,0.0079474048689007,0.0234936084598302
1769250308527,-0.068817138671875,-0.062896728515625,-0.99542236328125,0.0020785972010344,0.0113394735381007,0.0230957325547933
1769250308537,-0.0664215087890625,-0.060333251953125,-0.9953460693359376,0.0015483618481084,0.025457689538598,0.0256411805748939
1769250308547,-0.0639495849609375,-0.06378173828125,-0.993621826171875,0.006793990265578,0.0281578674912452,0.0173100139945745
1769250308557,-0.0673370361328125,-0.068817138671875,-0.9946441650390624,0.0120966099202632,0.0073441993445158,0.0168277155607938
1769250308567,-0.068756103515625,-0.0841827392578125,-0.99676513671875,0.0122960805892944,-0.0031680963002145,0.0302228834480047
1769250308577,-0.0606842041015625,-0.07061767578125,-0.9986572265625,0.0114649087190628,0.0176255982369184,0.014200241304934
1769250308587,-0.0686492919921875,-0.0375823974609375,-0.992431640625,0.0212722662836313,0.0127693247050046,-0.0209574792534112
1769250308597,-0.0927886962890625,-0.0323486328125,-0.98291015625,0.0332050919532775,-0.0260872598737478,-0.0331339836120605
1769250308607,-0.0953826904296875,-0.0640411376953125,-0.983917236328125,0.0113818179816007,-0.0370485633611679,-0.0120409503579139
1769250308618,-0.0688018798828125,-0.1144256591796875,-0.9937286376953124,-0.0203159246593713,-0.0082914857193827,0.0107485176995396
1769250308627,-0.0401611328125,-0.0729827880859375,-0.9848785400390624,-0.0433152504265308,0.026721891015768,-0.004840028937906
1769250308637,-0.054351806640625,-0.0574798583984375,-0.972564697265625,-0.0451877191662788,0.0452242046594619,-0.0335744731128215
1769250308647,-0.0679779052734375,-0.0536346435546875,-0.9823760986328124,-0.0187292136251926,0.0355436131358146,-0.0406041517853736
1769250308657,-0.07537841796875,-0.03790283203125,-1.002471923828125,0.0181909874081611,-1.4647385796706658e-05,-0.033761691302061
1769250308667,-0.0742950439453125,-0.0513458251953125,-1.01373291015625,0.0414819307625293,-0.036583311855793,-0.0230603124946355
1769250308677,-0.068267822265625,-0.0757598876953125,-1.002227783203125,0.042013231664896,-0.0479560755193233,-0.0137669444084167
1769250308687,-0.0586090087890625,-0.091400146484375,-0.985595703125,0.0273003298789262,-0.0381607003509998,-0.0014242585748434
1769250308698,-0.050018310546875,-0.092071533203125,-0.9817657470703124,0.0178021658211946,-0.024286963045597,0.0063156862743198
1769250308708,-0.045318603515625,-0.084991455078125,-0.99420166015625,0.0102233430370688,-0.0180327966809272,0.0255591552704572
1769250308718,-0.0440826416015625,-0.0663909912109375,-1.0020751953125,0.005487177055329,0.0009733853512443,0.0262161567807197
1769250308728,-0.05908203125,-0.0638580322265625,-0.99774169921875,-0.0024074974935501,0.0090824449434876,0.0260824672877788
1769250308738,-0.06744384765625,-0.056793212890625,-0.9900054931640624,-0.0083151878789067,0.0145001132041215,0.0161262396723032
1769250308748,-0.0770263671875,-0.0615997314453125,-0.9865875244140624,-0.0105732819065451,0.0117887491360306,0.0106385294348001
1769250308758,-0.0731353759765625,-0.0645294189453125,-0.986785888671875,-0.011362642981112,0.0088281128555536,0.005877329967916
1769250308768,-0.0763092041015625,-0.064910888671875,-0.9933929443359376,-0.0086787091568112,-0.0010865697404369,-0.0023667511995881
1769250308778,-0.080413818359375,-0.0683135986328125,-0.99365234375,0.0036370791494846,-0.0170229263603687,-0.0095074847340583
1769250308788,-0.0770721435546875,-0.0691680908203125,-0.9978485107421876,0.0135251302272081,-0.0327006876468658,-0.0068826735951006
1769250308798,-0.0662841796875,-0.06341552734375,-0.995025634765625,0.0080328928306698,-0.0012162656057626,-0.0077985343523323
1769250308808,-0.06231689453125,-0.0605926513671875,-0.9947967529296876,0.016246348619461,0.0103482445701956,-0.0144713511690497
1769250308818,-0.066131591796875,-0.0639190673828125,-0.9945068359375,0.024017984047532,-0.0155792254954576,-0.0206533465534448
1769250308828,-0.067047119140625,-0.0795440673828125,-0.9911956787109376,0.0294425766915082,-0.036985982209444,-0.0188764855265617
1769250308838,-0.0662841796875,-0.0787200927734375,-0.994873046875,0.0199838280677795,-0.0258193463087081,-0.0120215089991688
1769250308848,-0.057647705078125,-0.068359375,-0.9950103759765624,0.0009736517095007,0.0055455002002418,0.0160660520195961
1769250308858,-0.0413665771484375,-0.0608062744140625,-0.993011474609375,-0.008076568134129,0.0249162688851356,0.0149728246033191
1769250308869,-0.0579986572265625,-0.0787200927734375,-0.9878082275390624,-0.0060605555772781,0.0100361220538616,0.0142633579671382
1769250308878,-0.06500244140625,-0.0729522705078125,-0.988616943359375,0.003852528752759,0.0044155209325253,0.0116358837112784
1769250308889,-0.07086181640625,-0.0707550048828125,-1.0018310546875,0.0146015798673033,-0.0042583947069942,0.0134476320818066
1769250308899,-0.0663909912109375,-0.0691375732421875,-1.0002899169921875,0.0208893027156591,-0.0101852593943476,0.0085767097771167
1769250308909,-0.0675506591796875,-0.0752410888671875,-0.9928131103515624,0.0220818668603897,-0.0142955826595425,-0.0012314456980675
1769250308919,-0.071533203125,-0.0722503662109375,-0.989715576171875,0.0226682946085929,-0.0103929862380027,-0.0039689089171588
1769250308929,-0.0688018798828125,-0.0647735595703125,-0.9941864013671876,0.0250140074640512,-0.0027816717047244,0.0041697113774716
1769250308939,-0.0614471435546875,-0.0661773681640625,-1.0006256103515625,0.0308804176747798,0.0037766287568956,0.0076656430028378
1769250308949,-0.0618896484375,-0.0720977783203125,-1.0022430419921875,0.0417905896902084,0.0022876553703099,0.0089479545131325
1769250308959,-0.0665130615234375,-0.064300537109375,-0.998046875,0.0531095564365386,0.0004964132094755,0.0045191179960966
1769250308969,-0.070526123046875,-0.066009521484375,-0.9966278076171876,0.0632665902376174,0.0021004350855946,0.0101612908765673
1769250308979,-0.062255859375,-0.061614990234375,-0.99456787109375,0.0635816380381584,0.0190075132995843,0.0047928909771144
1769250308989,-0.0665283203125,-0.0682830810546875,-0.9976654052734376,0.0695923939347267,0.0147746847942471,0.000429301551776
1769250308999,-0.06988525390625,-0.0735626220703125,-0.992340087890625,0.0766060948371887,-0.0095098819583654,-0.0025118936318904
1769250309009,-0.072723388671875,-0.092620849609375,-0.985443115234375,0.0658093765377998,-0.0075724320486187,0.0160234402865171
1769250309019,-0.0595855712890625,-0.0814208984375,-0.9900360107421876,0.0520408302545547,0.0327677987515926,0.0088637992739677
1769250309029,-0.06500244140625,-0.044464111328125,-0.987213134765625,0.0516043379902839,0.047238353639841,-0.0106305396184325
1769250309039,-0.0810546875,-0.0359954833984375,-0.9782867431640624,0.0644112154841423,0.0161707140505313,-0.0176213383674621
1769250309049,-0.0915069580078125,-0.0658416748046875,-0.9852142333984376,0.0486354455351829,-0.0245498176664114,-0.0013132047606632
1769250309059,-0.0679473876953125,-0.1259002685546875,-0.987213134765625,0.0255306605249643,-0.014675348997116,0.0167779140174388
1769250309069,-0.04608154296875,-0.0991058349609375,-0.9828643798828124,0.0027654264122247,-0.0033409355673938,0.0034874093253165
1769250309079,-0.0531005859375,-0.069976806640625,-0.9642333984375,-0.0166141297668218,0.0056541571393609,-0.0151938665658235
1769250309089,-0.0614471435546875,-0.0699310302734375,-0.9668731689453124,-0.0268300157040357,-0.0080342246219515,-0.0170716606080532
1769250309100,-0.0712738037109375,-0.0554962158203125,-0.982086181640625,-0.0163752455264329,-0.0398294366896152,-0.0202789064496755
1769250309109,-0.0822296142578125,-0.066986083984375,-0.9949188232421876,-0.009908290579915,-0.0517036728560924,-0.0106939235702157
1769250309120,-0.0802001953125,-0.0899810791015625,-0.984893798828125,-0.0200892891734838,-0.0563130751252174,-0.0001680454588495
1769250309130,-0.06781005859375,-0.0953369140625,-0.9747772216796876,-0.0422164276242256,-0.0295821260660886,0.013774667866528
1769250309140,-0.055389404296875,-0.0934295654296875,-0.974395751953125,-0.0582771562039852,-0.005199555773288,0.0205886326730251
1769250309150,-0.0536346435546875,-0.0868988037109375,-0.985870361328125,-0.0664754286408424,-0.0068941251374781,0.0253969691693782
1769250309160,-0.0601043701171875,-0.07879638671875,-0.9913787841796876,-0.066932164132595,-0.0101085603237152,0.0227151662111282
1769250309170,-0.0712738037109375,-0.07904052734375,-0.994232177734375,-0.0644945725798606,-0.010497648268938,0.0255530308932065
1769250309180,-0.0708160400390625,-0.067596435546875,-0.997528076171875,-0.061080664396286,0.0022066952660679,0.0217013005167245
1769250309190,-0.0753021240234375,-0.0687255859375,-0.99908447265625,-0.0556896291673183,-0.0007273092633113,0.0157552603632211
1769250309200,-0.0768585205078125,-0.071929931640625,-0.9913177490234376,-0.0450492352247238,-0.0062839947640895,0.0145456530153751
1769250309210,-0.07244873046875,-0.0723114013671875,-0.9951171875,-0.0338628925383091,-0.001741973683238,0.013472931459546
1769250309220,-0.075103759765625,-0.07501220703125,-1.0055999755859375,-0.0117445401847362,-0.0132143385708332,0.0054339137859642
1769250309230,-0.080322265625,-0.07806396484375,-1.0052490234375,0.0058682751841843,-0.0221556350588798,0.0049912966787815
1769250309240,-0.0754547119140625,-0.0771026611328125,-1.006103515625,0.0190914031118154,-0.0093029541894793,-0.004849350079894
1769250309250,-0.0752410888671875,-0.0766143798828125,-1.0080413818359375,0.0356477424502372,-0.02086160518229,-0.0083106607198715
1769250309260,-0.071746826171875,-0.0660858154296875,-0.9979248046875,0.0437706485390663,-0.0266510508954525,-0.0074539217166602
1769250309270,-0.0696258544921875,-0.0773773193359375,-1.0027313232421875,0.044764008373022,-0.0297214109450578,-0.005102883093059
1769250309280,-0.068359375,-0.0816497802734375,-0.99786376953125,0.0399524755775928,-0.0289794541895389,0.0020080234389752
1769250309290,-0.067779541015625,-0.0821685791015625,-0.988525390625,0.0295608211308717,-0.0229639057070016,0.0038791603874415
1769250309300,-0.0688629150390625,-0.0808563232421875,-0.982208251953125,0.0156892146915197,-0.020471453666687,0.0067678913474082
1769250309311,-0.0675811767578125,-0.0780029296875,-0.97772216796875,0.0034133736044168,-0.0136596197262406,0.0113501260057091
1769250309321,-0.0692901611328125,-0.0771636962890625,-0.975677490234375,-0.0101900529116392,-0.0127512151375412,0.0077343522571027
1769250309331,-0.074981689453125,-0.08056640625,-0.9701080322265624,-0.020109262317419,-0.019914586097002,0.0072267539799213
1769250309341,-0.070831298828125,-0.0729217529296875,-0.9701385498046876,-0.0319052040576934,-0.0201263073831796,0.007817443460226
1769250309351,-0.070159912109375,-0.0798187255859375,-0.979095458984375,-0.0352498665452003,-0.0213439036160707,0.0063913203775882
1769250309361,-0.0740509033203125,-0.08380126953125,-0.982757568359375,-0.0387029200792312,-0.0309789553284645,0.0041649173945188
1769250309371,-0.0738067626953125,-0.0760040283203125,-0.9851531982421876,-0.0440066047012805,-0.0247295815497636,0.0089295795187354
1769250309381,-0.0732421875,-0.0749359130859375,-0.9885406494140624,-0.0523598790168762,-0.016172045841813,0.0130577450618147
1769250309391,-0.073150634765625,-0.0736846923828125,-0.9831695556640624,-0.058582354336977,-0.0058890478685498,0.0129895685240626
1769250309401,-0.076019287109375,-0.0756988525390625,-0.990631103515625,-0.0525431036949157,-0.0031502533238381,0.0094752609729766
1769250309411,-0.07623291015625,-0.0695953369140625,-0.9995574951171876,-0.043999683111906,-0.0065047708339989,0.0164788421243429
1769250309421,-0.0721588134765625,-0.0712127685546875,-1.00030517578125,-0.0441080741584301,-0.0029278793372213,0.0188911333680152
1769250309431,-0.0733184814453125,-0.079193115234375,-0.9929962158203124,-0.0399002768099308,-0.0028615666087716,0.0172825846821069
1769250309441,-0.0760498046875,-0.072265625,-0.994720458984375,-0.0311539247632026,-0.0133458990603685,0.013561881147325
1769250309451,-0.0835113525390625,-0.087615966796875,-0.999603271484375,-0.0256025660783052,-0.0189851429313421,0.0235167779028415
1769250309461,-0.0748138427734375,-0.0908660888671875,-1.006744384765625,-0.0193875469267368,-0.0030125677585601,0.0120305642485618
1769250309471,-0.0799407958984375,-0.05169677734375,-1.0035247802734375,-0.0012029499048367,0.0067806742154061,-0.0186927281320095
1769250309481,-0.0989227294921875,-0.0388336181640625,-0.99395751953125,0.0307714939117431,-0.0258805993944406,-0.0378914549946785
1769250309491,-0.1096954345703125,-0.0536041259765625,-0.99993896484375,0.0292439050972461,-0.0565088167786598,-0.0210733264684677
1769250309501,-0.0852813720703125,-0.1151123046875,-1.00543212890625,0.0136226015165448,-0.0181566327810287,0.003394465195015
1769250309512,-0.0560150146484375,-0.1002044677734375,-1.003326416015625,0.0050759851001203,0.0123008750379085,-0.0096558229997754
1769250309522,-0.0599517822265625,-0.0692596435546875,-0.985748291015625,0.0036131106317043,0.0227002520114183,-0.0417290702462196
1769250309532,-0.078125,-0.0672454833984375,-0.9868316650390624,0.0183635614812374,0.0119317602366209,-0.0564829818904399
1769250309542,-0.0890960693359375,-0.056427001953125,-0.996917724609375,0.0454031676054,-0.0246853716671466,-0.0524336472153663
1769250309552,-0.0864410400390625,-0.0651702880859375,-1.00531005859375,0.0622335486114025,-0.0579791478812694,-0.0401639305055141
1769250309562,-0.0783843994140625,-0.08245849609375,-0.998016357421875,0.0483992248773574,-0.0523545518517494,-0.0307959951460361
1769250309572,-0.07257080078125,-0.0917205810546875,-0.976104736328125,0.0217590909451246,-0.0268092434853315,-0.0252563543617725
1769250309582,-0.0640869140625,-0.091339111328125,-0.971710205078125,-0.0011800467036664,-0.0135299237444996,-0.0175643470138311
1769250309592,-0.0584716796875,-0.084716796875,-0.9774932861328124,-0.0133978305384516,-0.0025060346815735,-0.0091945631429553
1769250309602,-0.06036376953125,-0.0771636962890625,-0.9906005859375,-0.0161528699100017,0.0003542004269547,-0.0073074474930763
1769250309612,-0.06842041015625,-0.077850341796875,-1.0005950927734375,-0.0128124682232737,-0.0134082166478037,-0.0052946303039789
1769250309622,-0.0725555419921875,-0.0705108642578125,-0.9965362548828124,-0.0158628523349761,0.0010554107138887,0.0026245452463626
1769250309632,-0.0726165771484375,-0.06951904296875,-0.9891815185546876,-0.0250654052942991,0.0384595096111297,-0.0018322548130527
1769250309642,-0.0776519775390625,-0.0779571533203125,-0.9943695068359376,-0.0151070477440953,0.0210557505488395,-0.0051388354040682
1769250309652,-0.07763671875,-0.074951171875,-0.9986572265625,-0.0027904601301997,0.00740731600672,-0.0017736653098836
1769250309662,-0.07611083984375,-0.0760345458984375,-0.99658203125,0.0043143210932612,0.0027806065045297,-0.0006356965750455
1769250309672,-0.0752105712890625,-0.074920654296875,-0.9966278076171876,0.011845207773149,-0.002936934120953,-0.0044171190820634
1769250309682,-0.0785369873046875,-0.07855224609375,-0.99432373046875,0.017611751332879,0.0048759817145764,-0.0086675239726901
1769250309692,-0.0752716064453125,-0.0743865966796875,-1.00054931640625,0.0263455864042043,0.0107298763468861,-0.0115557219833135
1769250309702,-0.0759429931640625,-0.0640411376953125,-0.999176025390625,0.0384342074394226,-0.0069037126377224,-0.0119533324614167
1769250309712,-0.077667236328125,-0.0751800537109375,-0.996124267578125,0.0384909324347972,-0.0118148475885391,-0.0038344194181263
1769250309723,-0.06903076171875,-0.080718994140625,-0.9936065673828124,0.0313778966665267,-0.0138628184795379,0.0011406318517401
1769250309732,-0.0692138671875,-0.088714599609375,-0.990631103515625,0.0221867952495813,-0.0205849036574363,0.0129767851904034
1769250309743,-0.0661163330078125,-0.0832366943359375,-0.979949951171875,0.0020141487475484,-0.0179566293954849,0.0214080866426229
1769250309753,-0.065460205078125,-0.0790252685546875,-0.975494384765625,-0.0149624375626444,-0.008486695587635,0.0271309539675712
1769250309763,-0.0672149658203125,-0.080322265625,-0.9801025390625,-0.0276031326502561,0.0027856663800776,0.0245271809399127
1769250309773,-0.07342529296875,-0.082061767578125,-0.98504638671875,-0.0323089361190795,-0.0017757958266884,0.0248227920383214
1769250309783,-0.0746917724609375,-0.07525634765625,-0.98724365234375,-0.0358328334987163,-0.0022626216523349,0.0307382047176361
1769250309793,-0.0746002197265625,-0.07562255859375,-0.9884185791015624,-0.0432968735694885,0.0118587901815772,0.0272694379091262
1769250309803,-0.078948974609375,-0.0810394287109375,-0.98602294921875,-0.0479368977248668,0.0151515221223235,0.0293453726917505
1769250309813,-0.07574462890625,-0.076873779296875,-0.987213134765625,-0.0441908985376358,0.0107810087502002,0.0276779662817716
1769250309823,-0.079437255859375,-0.0814971923828125,-0.9940032958984376,-0.0345419980585575,-0.0028107000980526,0.0229292847216129
1769250309833,-0.082183837890625,-0.07684326171875,-0.9931640625,-0.02585956081748,-0.0128630679100751,0.0223023761063814
1769250309843,-0.0808563232421875,-0.0719451904296875,-0.993896484375,-0.0238185133785009,-0.0062584285624325,0.0214517619460821
1769250309853,-0.0789947509765625,-0.071685791015625,-0.99505615234375,-0.0298942495137453,0.0147003829479217,0.0208096746355295
1769250309863,-0.078887939453125,-0.072052001953125,-0.9933624267578124,-0.0353324227035045,0.0228105075657367,0.0134316524490714
1769250309873,-0.0816802978515625,-0.0772857666015625,-0.98870849609375,-0.034267958253622,0.0169938970357179,0.0084701841697096
1769250309883,-0.0831298828125,-0.0753173828125,-0.991180419921875,-0.0349657051265239,0.0097988350316882,0.0075103803537786
1769250309893,-0.084014892578125,-0.08258056640625,-0.9948272705078124,-0.0408355817198753,0.001235706731677,0.0148950600996613
1769250309903,-0.078704833984375,-0.09912109375,-0.9959716796875,-0.0406789854168891,0.0124220484867692,0.018223213031888
1769250309913,-0.0679779052734375,-0.059173583984375,-0.9994049072265624,-0.0328769907355308,0.0347321480512619,-0.0009273127070628
1769250309923,-0.0845489501953125,-0.042572021484375,-1.0000152587890625,0.0059226038865745,0.0202746447175741,-0.0275685116648674
1769250309934,-0.1065216064453125,-0.04779052734375,-1.000030517578125,0.02320864982903,-0.0322367660701274,-0.0210232604295015
1769250309944,-0.0970611572265625,-0.1144866943359375,-1.008575439453125,0.022809175774455,-0.0281008761376142,0.0022759374696761
1769250309954,-0.06866455078125,-0.1144256591796875,-1.008209228515625,0.0162969473749399,-0.0060775997117161,0.0026205505710095
1769250309964,-0.0580902099609375,-0.073150634765625,-0.9845733642578124,0.0117719704285264,0.0181084293872118,-0.0139014348387718
1769250309974,-0.06475830078125,-0.068511962890625,-0.9841461181640624,0.0251341145485639,0.0193595830351114,-0.0247839093208313
1769250309984,-0.077667236328125,-0.0506591796875,-0.993133544921875,0.0492509044706821,-0.0233274269849061,-0.0205670595169067
1769250309995,-0.08843994140625,-0.0566253662109375,-0.9939117431640624,0.0617501847445964,-0.0688235387206077,-0.008004130795598
1769250310004,-0.0896759033203125,-0.0796356201171875,-0.9912567138671876,0.0483427643775939,-0.0727037638425827,0.0102667519822716
1769250310014,-0.0763092041015625,-0.0895233154296875,-0.9834747314453124,0.0044432180002331,-0.0362445563077926,0.0215540286153554
1769250310024,-0.0639190673828125,-0.0791778564453125,-0.9672393798828124,-0.0486066825687885,0.0113679692149162,0.024629445746541
1769250310034,-0.0587310791015625,-0.08123779296875,-0.964691162109375,-0.0857172980904579,0.0296199433505535,0.0212320517748594
1769250310044,-0.0588836669921875,-0.0778045654296875,-0.9803924560546876,-0.0877769887447357,0.0364765189588069,0.018548384308815
1769250310054,-0.0726318359375,-0.069488525390625,-1.0003509521484375,-0.0722504928708076,0.0290119443088769,0.021550565958023
1769250310064,-0.0850982666015625,-0.06805419921875,-1.0066986083984375,-0.0470495335757732,0.0301291402429342,0.0177813936024904
1769250310074,-0.09259033203125,-0.0731964111328125,-1.0046844482421875,-0.0233015939593315,0.0282305721193552,0.0152702992781996
1769250310084,-0.0897369384765625,-0.0739898681640625,-0.9976959228515624,-0.0050192596390843,0.0204333700239658,0.0137717388570308
1769250310094,-0.0831298828125,-0.0718536376953125,-0.9985198974609376,0.0063710804097354,0.0215060915797948,0.0116425408050417
1769250310104,-0.0837860107421875,-0.0749664306640625,-1.000091552734375,0.009721603244543,0.0419844686985015,0.0011416971683502
1769250310114,-0.0883331298828125,-0.081085205078125,-1.000946044921875,0.0135853169485926,0.0203561373054981,-0.001856489572674
1769250310124,-0.087371826171875,-0.0741424560546875,-0.9878997802734376,0.010160225443542,0.0061196777969598,-0.0073117087595164
1769250310135,-0.080230712890625,-0.07440185546875,-0.9857025146484376,0.0070981234312057,0.0103767411783337,-0.0050996872596442
1769250310144,-0.0722503662109375,-0.0622711181640625,-0.9861602783203124,0.0042581283487379,0.0098848547786474,-0.0103674195706844
1769250310155,-0.077850341796875,-0.0740509033203125,-0.98895263671875,-0.0034796863328665,0.0112060494720935,-0.0058016963303089
1769250310165,-0.0703582763671875,-0.085235595703125,-0.9935150146484376,-0.0068400627933442,0.0033233587164431,0.0011209244839847
1769250310175,-0.06988525390625,-0.0865020751953125,-0.9974365234375,-0.0097455717623233,-0.0067875985987484,0.0078326230868697
1769250310185,-0.07452392578125,-0.0817718505859375,-0.9958038330078124,-0.0079095885157585,-0.0069143651053309,0.0107780788093805
1769250310195,-0.07940673828125,-0.074798583984375,-0.9949188232421876,-0.0080235712230205,-0.0018796591321006,0.0058698733337223
1769250310205,-0.0850982666015625,-0.07550048828125,-0.9962158203125,-0.0041228397749364,0.0088211884722113,0.010855576954782
1769250310215,-0.0793609619140625,-0.07061767578125,-0.995941162109375,0.0010357033461332,0.0176463723182678,0.0082536684349179
1769250310225,-0.0824432373046875,-0.0730438232421875,-0.9948577880859376,0.0112119084224104,0.0133256586268544,0.0005704491049982
1769250310235,-0.0812225341796875,-0.0774078369140625,-0.9908599853515624,0.0253186728805303,0.0059569585137069,-0.0020823257509618
1769250310245,-0.0803680419921875,-0.0772247314453125,-0.994903564453125,0.0387841463088989,-0.0133799873292446,-0.0095676723867654
1769250310255,-0.0832366943359375,-0.07489013671875,-0.9915924072265624,0.0460697561502456,-0.0261708833277225,-0.0074651069007813
1769250310265,-0.0763397216796875,-0.066619873046875,-0.990020751953125,0.0432955436408519,-0.0133213978260755,-0.0059503009542822
1769250310275,-0.07647705078125,-0.0679168701171875,-0.9890289306640624,0.0391980037093162,0.0041830269619822,-0.0117866182699799
1769250310285,-0.080657958984375,-0.0731964111328125,-0.9866790771484376,0.0393687114119529,0.0080081252381205,-0.0155280930921435
1769250310295,-0.0829925537109375,-0.0739593505859375,-0.9898681640625,0.035563588142395,0.0050022155046463,-0.022537799552083
1769250310305,-0.08599853515625,-0.075225830078125,-0.9845428466796876,0.0309110432863235,0.0024698155466467,-0.0266252197325229
1769250310315,-0.0823974609375,-0.0796051025390625,-0.9817047119140624,0.0266233552247285,0.0002199771115556,-0.0317797660827636
1769250310325,-0.08026123046875,-0.0744476318359375,-0.9850616455078124,0.0246973559260368,-0.0084917554631829,-0.0392270311713218
1769250310336,-0.08221435546875,-0.0773162841796875,-0.9826812744140624,0.0207140669226646,-0.027524834498763,-0.0398640595376491
1769250310346,-0.0839996337890625,-0.099334716796875,-0.979766845703125,0.0176431760191917,-0.035031221807003,-0.0341190882027149
1769250310356,-0.0752410888671875,-0.07843017578125,-0.9854583740234376,0.01501783169806,-0.0254094861447811,-0.0424638353288173
1769250310366,-0.0737762451171875,-0.0377349853515625,-0.98394775390625,0.0288992915302515,-0.0180311985313892,-0.0658948570489883
1769250310376,-0.0872039794921875,-0.037261962890625,-0.98358154296875,0.023583622649312,-0.0509305596351623,-0.0622612424194812
1769250310386,-0.089111328125,-0.089691162109375,-0.9837646484375,0.0076952041126787,-0.0455041006207466,-0.0383902639150619
1769250310396,-0.0690155029296875,-0.1132354736328125,-0.987884521484375,-0.0153232961893081,-0.01903254725039,-0.0230688340961933
1769250310406,-0.052215576171875,-0.0899200439453125,-0.9774627685546876,-0.0386270210146904,0.0233327522873878,-0.0358868949115276
1769250310416,-0.0579986572265625,-0.083587646484375,-0.97674560546875,-0.042754653841257,0.0471904166042804,-0.0486351810395717
1769250310426,-0.07232666015625,-0.0558013916015625,-0.98394775390625,-0.034392062574625,0.0222304705530405,-0.0454734750092029
1769250310436,-0.085205078125,-0.0618438720703125,-0.9881744384765624,-0.0270297527313232,-0.012917130254209,-0.0257048308849334
1769250310446,-0.080169677734375,-0.0816802978515625,-0.9956512451171876,-0.0261272080242633,-0.0316226407885551,-0.0103674195706844
1769250310457,-0.0731353759765625,-0.103546142578125,-0.9977569580078124,-0.0338748767971992,-0.0370237976312637,0.0104513093829154
1769250310466,-0.06024169921875,-0.104095458984375,-0.98419189453125,-0.0522392354905605,-0.0230784211307764,0.0167057439684867
1769250310476,-0.058441162109375,-0.0993804931640625,-0.981292724609375,-0.065308429300785,-0.0008801747462712,0.0209383051842451
1769250310486,-0.06170654296875,-0.08160400390625,-0.993377685546875,-0.0661989971995353,0.0087322387844324,0.0263839364051818
1769250310496,-0.0712127685546875,-0.0687408447265625,-1.00360107421875,-0.0559314414858818,0.0133917052298784,0.0198882203549146
1769250310506,-0.0852508544921875,-0.064239501953125,-1.002838134765625,-0.0386126413941383,0.0074973311275243,0.0187659636139869
1769250310516,-0.0853271484375,-0.0651092529296875,-1.0000152587890625,-0.0213684048503637,0.0061281998641788,0.0189838111400604
1769250310526,-0.081787109375,-0.0654449462890625,-1.001739501953125,-0.0075367456302046,0.0175646133720874,0.0086443545296788
1769250310536,-0.082855224609375,-0.0717620849609375,-1.003570556640625,0.0085884276777505,0.0123288379982113,0.0086475498974323
1769250310546,-0.081634521484375,-0.075714111328125,-1.00238037109375,0.0218312628567218,-0.0045891590416431,0.0035896748304367
1769250310557,-0.0845794677734375,-0.0829315185546875,-0.9989776611328124,0.0387753583490848,-0.0272513274103403,0.0008386294357478
1769250310566,-0.0843658447265625,-0.083038330078125,-0.999359130859375,0.0478197187185287,-0.0365066118538379,-0.0099881859496235
1769250310577,-0.0865325927734375,-0.0861663818359375,-1.00018310546875,0.0514946170151233,-0.0382626987993717,-0.023317040875554
1769250310587,-0.0894622802734375,-0.08172607421875,-0.9891510009765624,0.0518525466322898,-0.0405375733971595,-0.0414329282939434
1769250310597,-0.0969085693359375,-0.078216552734375,-0.9814300537109376,0.0453227385878562,-0.0471504665911197,-0.0509207062423229
1769250310607,-0.092864990234375,-0.0755615234375,-0.9808807373046876,0.0223260782659053,-0.0388869456946849,-0.0427743606269359
1769250310618,-0.0770721435546875,-0.0645751953125,-0.9824066162109376,-0.0096499640494585,-0.0220102276653051,-0.0291312541812658
1769250310627,-0.06201171875,-0.0552825927734375,-0.9686737060546876,-0.0457563027739524,0.0197907481342554,-0.0190573148429393
1769250310637,-0.0560455322265625,-0.0664520263671875,-0.9627227783203124,-0.0651433169841766,0.0477773770689964,-0.0224941242486238
1769250310647,-0.069183349609375,-0.08221435546875,-0.96929931640625,-0.0673529431223869,0.0304631013423204,-0.0173299871385097
1769250310657,-0.075103759765625,-0.0803070068359375,-0.9758148193359376,-0.0589866191148757,0.0128425620496273,-0.013212208636105
1769250310667,-0.081695556640625,-0.0829315185546875,-0.9890899658203124,-0.0491036288440227,0.0025451830588281,-0.0065188854932785
1769250310677,-0.0782928466796875,-0.077880859375,-0.994140625,-0.0402337051928043,0.0043657198548316,-0.0050778491422533
1769250310687,-0.0771026611328125,-0.074798583984375,-0.99798583984375,-0.0369630791246891,0.0041537322103977,-0.0065345983020961
1769250310697,-0.0745697021484375,-0.0733795166015625,-0.9915924072265624,-0.0323821753263473,0.0102933840826153,-0.0068688248284161
1769250310707,-0.0742950439453125,-0.0771331787109375,-0.9948577880859376,-0.017966216430068,0.0118124512955546,-0.0012468920322135
1769250310717,-0.074371337890625,-0.0748748779296875,-1.0086669921875,0.006483731791377,0.0057369815185666,0.0033822145778685
1769250310727,-0.0797576904296875,-0.0720062255859375,-1.0206146240234375,0.0338082984089851,-0.001931590726599,0.006573480553925
1769250310737,-0.0801849365234375,-0.06829833984375,-1.01495361328125,0.0450231358408927,0.0144894607365131,0.0076813553459942
1769250310747,-0.07867431640625,-0.071807861328125,-1.004119873046875,0.0525303184986114,0.0323965549468994,0.0070850737392902
1769250310757,-0.0749359130859375,-0.0748138427734375,-1.0009307861328125,0.0644793882966041,0.0332016274333,0.0107546430081129
1769250310768,-0.0723724365234375,-0.0774993896484375,-1.0001373291015625,0.0798942968249321,0.018599784001708,0.0080882860347628
1769250310778,-0.0759429931640625,-0.0799560546875,-0.996856689453125,0.0931408628821373,0.0005890912143513,0.0148292798548936
1769250310788,-0.075775146484375,-0.0901641845703125,-0.994476318359375,0.0944751054048538,-0.0176841877400875,0.0245641991496086
1769250310798,-0.074676513671875,-0.100830078125,-0.99078369140625,0.0971119031310081,-0.0157478041946887,0.0262526422739028
1769250310808,-0.0747222900390625,-0.0587921142578125,-0.985504150390625,0.0999345853924751,-0.0093753924593329,0.001659948262386
1769250310818,-0.096588134765625,-0.0444488525390625,-0.977752685546875,0.1103233098983764,-0.035026691854,-0.021894646808505
1769250310828,-0.113128662109375,-0.060577392578125,-0.9723968505859376,0.0959851220250129,-0.0785312950611114,-0.0093463640660047
1769250310838,-0.1006011962890625,-0.115509033203125,-0.9779052734375,0.0693106278777122,-0.0728451758623123,0.0146069061011075
1769250310848,-0.073760986328125,-0.1062164306640625,-0.973724365234375,0.0414395853877067,-0.0692395269870758,0.0065676216036081
1769250310858,-0.070892333984375,-0.0911102294921875,-0.960205078125,0.0062645538710057,-0.0363444238901138,-0.0103876600041985
1769250310868,-0.0723876953125,-0.0655517578125,-0.95147705078125,-0.0238792337477207,-0.0063023706898093,-0.0195800922811031
1769250310878,-0.0786895751953125,-0.0446319580078125,-0.95697021484375,-0.0430468022823333,0.0105146924033761,-0.0193763617426157
1769250310888,-0.0944366455078125,-0.068389892578125,-0.9765777587890624,-0.0571719445288181,-0.0183997806161642,-0.0074536553584039
1769250310898,-0.0946044921875,-0.090606689453125,-0.9783477783203124,-0.0809449180960655,-0.021654961630702,0.0111975269392132
1769250310908,-0.079254150390625,-0.1036834716796875,-0.9661407470703124,-0.1137404143810272,-0.010472347959876,0.0206363033503294
1769250310918,-0.06884765625,-0.1087188720703125,-0.9603118896484376,-0.1368566453456878,-0.0048011466860771,0.0260816682130098
1769250310928,-0.068084716796875,-0.0948028564453125,-0.970672607421875,-0.1546862423419952,0.018900454044342,0.0275056604295969
1769250310938,-0.0765838623046875,-0.079925537109375,-0.9882354736328124,-0.1480019837617874,0.0231481958180665,0.02487632073462
1769250310948,-0.0928192138671875,-0.072784423828125,-1.0054779052734375,-0.1206148341298103,-0.007539409212768,0.0184863321483135
1769250310958,-0.09832763671875,-0.06378173828125,-1.010833740234375,-0.0959670096635818,-0.0218469761312007,0.0094433026388287
1769250310969,-0.10003662109375,-0.0677337646484375,-1.010284423828125,-0.0730294659733772,-0.02371571585536,0.001277518342249
1769250310979,-0.09619140625,-0.07220458984375,-1.0067138671875,-0.0495196171104908,-0.0210810508579015,-0.0080451434478163
1769250310989,-0.095489501953125,-0.0728302001953125,-1.009033203125,-0.0318695157766342,-0.0143818687647581,-0.0140404514968395
1769250310999,-0.0925750732421875,-0.07421875,-1.0126953125,-0.0159563291817903,0.0038240330759435,-0.013235910795629
1769250311009,-0.09051513671875,-0.080230712890625,-1.0157928466796875,0.0061167483218014,-0.0002098570985253,-0.0146873332560062
1769250311019,-0.0884552001953125,-0.0818328857421875,-1.015350341796875,0.0224435236304998,-0.0144268758594989,-0.0118342889472842
1769250311029,-0.0790863037109375,-0.0738677978515625,-1.0086517333984375,0.0324703268706798,-0.0054746600799262,-0.0167941600084304
1769250311039,-0.082672119140625,-0.0716094970703125,-0.999267578125,0.0426204316318035,-0.0018383801216259,-0.0330431722104549
1769250311049,-0.0928192138671875,-0.0746917724609375,-0.9953765869140624,0.0474679172039032,-0.0235644485801458,-0.0366208627820014
1769250311059,-0.08892822265625,-0.0765533447265625,-0.99163818359375,0.0373090207576751,-0.0174753963947296,-0.0338759422302246
1769250311069,-0.078460693359375,-0.071380615234375,-0.98931884765625,0.0232414063066244,-0.0014471617760136,-0.0272673070430755
1769250311079,-0.073638916015625,-0.0711822509765625,-0.982666015625,0.0117634488269686,0.0165424905717372,-0.0324146635830402
1769250311089,-0.083984375,-0.07568359375,-0.9797515869140624,0.0108779473230242,0.0148455249145627,-0.0305304788053035
1769250311099,-0.086090087890625,-0.0733795166015625,-0.986480712890625,0.0187915302813053,0.0050932955928146,-0.0230635069310665
1769250311109,-0.0833587646484375,-0.0696868896484375,-0.9918060302734376,0.0249402374029159,0.0070789484307169,-0.0229663029313087
1769250311119,-0.0831146240234375,-0.076416015625,-0.9907684326171876,0.0300652235746383,0.0028778119012713,-0.0224456544965505
1769250311129,-0.08160400390625,-0.077728271484375,-0.9881134033203124,0.0336823314428329,-0.0030764837283641,-0.0196722373366355
1769250311139,-0.079376220703125,-0.0733184814453125,-0.9864349365234376,0.028348283842206,0.0117583889514207,-0.0150561807677149
1769250311149,-0.078125,-0.0746917724609375,-0.9844207763671876,0.0214147437363863,0.0232565868645906,-0.012957876548171
1769250311159,-0.0833282470703125,-0.08203125,-0.987823486328125,0.0273658446967601,0.010098174214363,-0.0086835026741027
1769250311169,-0.0859375,-0.0792388916015625,-0.990478515625,0.0272846184670925,0.0023212111555039,-0.011347996070981
1769250311179,-0.088897705078125,-0.0791015625,-0.9916839599609376,0.0256094895303249,-0.009353288449347,-0.0080704437568783
1769250311190,-0.0843048095703125,-0.07525634765625,-0.9881439208984376,0.0143325999379158,-0.0127916950732469,-0.0060488376766443
1769250311200,-0.0854644775390625,-0.078033447265625,-0.98162841796875,-0.0005715143634006,-0.0150306150317192,-0.0068030450493097
1769250311210,-0.0871124267578125,-0.07861328125,-0.978973388671875,-0.0105836680158972,-0.0179853923618793,-0.0056216665543615
1769250311220,-0.0871124267578125,-0.0781402587890625,-0.9837188720703124,-0.0200626570731401,-0.0126769132912158,-0.0024418523535132
1769250311230,-0.083770751953125,-0.0803985595703125,-0.98565673828125,-0.0332919098436832,-0.0013214604696258,0.0106667587533593
1769250311240,-0.0819244384765625,-0.0941162109375,-0.9891204833984376,-0.0482716597616672,0.0061034327372908,0.0214227344840765
1769250311250,-0.079803466796875,-0.0943756103515625,-0.9889678955078124,-0.0561162643134593,0.033285517245531,0.0210719965398311
1769250311260,-0.0819854736328125,-0.044464111328125,-0.9886627197265624,-0.0436180494725704,0.0466013252735137,-0.0095948362722992
1769250311270,-0.11181640625,-0.0373687744140625,-0.989959716796875,-0.0181371923536062,0.0108297448605299,-0.0247128028422594
1769250311280,-0.124176025390625,-0.0688018798828125,-0.9897003173828124,-0.0256973747164011,-0.008542088791728,-0.012394618242979
1769250311290,-0.10211181640625,-0.1161346435546875,-0.9994964599609376,-0.045972816646099,0.0157704409211874,0.0051095406524837
1769250311300,-0.0707244873046875,-0.1033477783203125,-0.994384765625,-0.0517755784094333,0.0291227307170629,-0.0084483455866575
1769250311310,-0.0746002197265625,-0.078643798828125,-0.9796295166015624,-0.0472966767847538,0.0372160784900188,-0.0437147244811058
1769250311320,-0.0975341796875,-0.0595245361328125,-0.977569580078125,-0.0319984145462513,0.0322665944695472,-0.0637627318501472
1769250311330,-0.1051025390625,-0.05010986328125,-0.9894256591796876,-0.0156932100653648,-0.0057329866103827,-0.068641647696495
1769250311340,-0.10205078125,-0.071929931640625,-0.998046875,-0.0066597666591405,-0.0338865928351879,-0.0645499676465988
1769250311350,-0.093658447265625,-0.0920562744140625,-0.998779296875,-0.0076613817363977,-0.033765684813261,-0.0610159486532211
1769250311360,-0.0825958251953125,-0.0931243896484375,-0.991546630859375,-0.016789898276329,-0.0254712719470262,-0.0540677607059478
1769250311370,-0.073211669921875,-0.0873870849609375,-0.9847412109375,-0.030195452272892,-0.010748784057796,-0.0470237024128437
1769250311381,-0.0723419189453125,-0.0855560302734375,-0.991912841796875,-0.0340706184506416,0.0033939324785023,-0.0444841124117374
1769250311390,-0.0783233642578125,-0.0761260986328125,-1.0002899169921875,-0.0271187033504247,0.0012945625931024,-0.041262749582529
1769250311401,-0.0850372314453125,-0.06964111328125,-1.004364013671875,-0.0114420056343078,-0.0019502328941598,-0.0442079417407512
1769250311411,-0.0885772705078125,-0.0657806396484375,-1.0027923583984375,-0.0045553371310234,0.0061287325806915,-0.0477563366293907
1769250311421,-0.090057373046875,-0.063720703125,-0.9952850341796876,0.0060605555772781,0.0099873868748545,-0.0559474229812622
1769250311431,-0.090667724609375,-0.0662078857421875,-0.99285888671875,0.0187055114656686,0.0201904885470867,-0.0597464218735694
1769250311441,-0.0898284912109375,-0.0688629150390625,-1.0016937255859375,0.036327913403511,0.0163502115756273,-0.0656266808509826
1769250311451,-0.0912628173828125,-0.070343017578125,-1.0068359375,0.0591426827013492,0.0012242551892995,-0.0664016604423523
1769250311461,-0.0903472900390625,-0.0767059326171875,-1.0087890625,0.0793470218777656,-0.0079276980832219,-0.0675904974341392
1769250311471,-0.0828399658203125,-0.0773162841796875,-1.007080078125,0.0871213227510452,-0.0017009610310196,-0.0650999099016189
1769250311481,-0.0766448974609375,-0.0694122314453125,-0.9976043701171876,0.0888715460896492,0.0041329595260322,-0.0709404870867729
1769250311491,-0.079315185546875,-0.06689453125,-0.9835052490234376,0.0832733213901519,-0.0049982205964624,-0.0709969475865364
1769250311501,-0.0800628662109375,-0.080780029296875,-0.982666015625,0.0786343589425087,-0.0182650238275527,-0.0618734881281852
1769250311511,-0.0741424560546875,-0.085601806640625,-0.9867095947265624,0.068934328854084,-0.036441896110773,-0.0514892898499965
1769250311521,-0.073822021484375,-0.086761474609375,-0.983428955078125,0.0581099092960357,-0.0576731488108634,-0.0403439588844776
1769250311531,-0.0755157470703125,-0.086334228515625,-0.978057861328125,0.0417828671634197,-0.0701135769486427,-0.0314490012824535
1769250311541,-0.0769805908203125,-0.085296630859375,-0.9713897705078124,0.0140503048896789,-0.0614260770380497,-0.0247042812407016
1769250311551,-0.0808868408203125,-0.08087158203125,-0.9666595458984376,-0.0114798219874501,-0.0436516068875789,-0.0157185085117816
1769250311561,-0.0774383544921875,-0.07525634765625,-0.9748992919921876,-0.032526783645153,-0.0161243751645088,-0.0121943484991788
1769250311571,-0.079559326171875,-0.075042724609375,-0.9790496826171876,-0.0540022477507591,0.0061953114345669,-0.0135706700384616
1769250311582,-0.083984375,-0.073974609375,-0.97607421875,-0.0677675977349281,0.0096944393590092,-0.0093993609771132
1769250311591,-0.080047607421875,-0.078704833984375,-0.9778594970703124,-0.0735157653689384,0.0148604391142725,-0.0077620493248105
1769250311602,-0.081268310546875,-0.08349609375,-0.98260498046875,-0.0761648118495941,0.028402080759406,-0.0087415594607591
1769250311612,-0.0802154541015625,-0.076690673828125,-0.9892730712890624,-0.0706264972686767,0.0297131538391113,-0.0044674528762698
1769250311622,-0.0874176025390625,-0.08074951171875,-0.9927978515625,-0.0579652972519397,0.0227649677544832,-0.0018463695887476
1769250311632,-0.0851287841796875,-0.0775604248046875,-0.996246337890625,-0.0488176047801971,0.0294694751501083,-0.0005099953268654
1769250311642,-0.0889434814453125,-0.0762939453125,-0.9997100830078124,-0.0352743677794933,0.020636036992073,-0.0016018913593143
1769250311652,-0.0874786376953125,-0.0781402587890625,-1.0006256103515625,-0.0182591658085584,0.0075932047329843,-0.0036005936563014
1769250311662,-0.08819580078125,-0.0799713134765625,-1.0008697509765625,-0.0042919502593576,0.00103064335417,-0.0104923220351338
1769250311672,-0.089996337890625,-0.0760650634765625,-1.002227783203125,0.0090422304347157,-0.0124063361436128,-0.0144018428400158
1769250311682,-0.0904541015625,-0.0764007568359375,-0.9985198974609376,0.0117903463542461,-0.0253378469496965,-0.0144729483872652
1769250311692,-0.09014892578125,-0.0902862548828125,-0.99676513671875,0.0034666368737816,-0.0163142587989568,-0.0073790866881608
1769250311702,-0.0829010009765625,-0.084136962890625,-0.9994354248046876,-0.0019257317762821,0.0101881893351674,-0.0163776408880949
1769250311712,-0.0802154541015625,-0.0406036376953125,-0.99395751953125,0.0117410784587264,0.041669949889183,-0.0467259585857391
1769250311722,-0.1053009033203125,-0.043701171875,-0.995147705078125,0.0359606631100177,0.0093221291899681,-0.0575604997575283
1769250311732,-0.1144256591796875,-0.068511962890625,-0.9972686767578124,0.0345222912728786,-0.0134220654144883,-0.0376227423548698
1769250311742,-0.08563232421875,-0.1188812255859375,-1.0047149658203125,0.0174967013299465,0.0103818010538816,-0.0146271456032991
1769250311752,-0.05548095703125,-0.1039276123046875,-0.9915618896484376,0.0130305811762809,0.0261487793177366,-0.0239692479372024
1769250311762,-0.0619049072265625,-0.074432373046875,-0.977874755859375,0.01263989508152,0.0328114777803421,-0.0438223145902156
1769250311772,-0.0796356201171875,-0.057647705078125,-0.977020263671875,0.0266667641699314,0.0263037756085395,-0.0550781674683094
1769250311782,-0.0938262939453125,-0.0612030029296875,-0.99237060546875,0.0432388186454772,-0.0131482928991317,-0.0439709201455116
1769250311792,-0.091705322265625,-0.07733154296875,-1.0009918212890625,0.0466015897691249,-0.0337912514805793,-0.0288910362869501
1769250311803,-0.0818939208984375,-0.093017578125,-0.9930572509765624,0.0366450957953929,-0.0296340584754943,-0.0099383844062685
1769250311813,-0.070892333984375,-0.09698486328125,-0.9770660400390624,0.0105186868458986,-0.0072571136988699,0.0069857379421591
1769250311823,-0.0628509521484375,-0.09521484375,-0.971099853515625,-0.0133443009108304,0.0094307856634259,0.0172261241823434
1769250311833,-0.0667877197265625,-0.0910797119140625,-0.97509765625,-0.0316676497459411,0.0129288481548428,0.0249908380210399
1769250311843,-0.07135009765625,-0.0810394287109375,-0.980987548828125,-0.0423676967620849,0.0066094333305954,0.0341478511691093
1769250311853,-0.075714111328125,-0.078216552734375,-0.98443603515625,-0.0495236106216907,-0.0002013349730987,0.0417580977082252
1769250311863,-0.075714111328125,-0.07427978515625,-0.9825439453125,-0.0570046976208686,0.0075628450140357,0.0398720502853393
1769250311873,-0.0821533203125,-0.0767059326171875,-0.9803314208984376,-0.0608260668814182,0.0180647540837526,0.0383881367743015
1769250311883,-0.085968017578125,-0.0736083984375,-0.9839019775390624,-0.054156444966793,0.0164482146501541,0.0321368984878063
1769250311893,-0.0908203125,-0.0696563720703125,-0.9941253662109376,-0.0387551188468933,0.0123618608340621,0.0304772146046161
1769250311903,-0.09100341796875,-0.0697479248046875,-1.0029144287109375,-0.0182069670408964,0.0008716526208445,0.0248752553015947
1769250311913,-0.093292236328125,-0.075775146484375,-1.002960205078125,-0.0057167415507137,-0.0052863745950162,0.0226025134325027
1769250311923,-0.0867919921875,-0.0749359130859375,-0.99786376953125,-0.0046307044103741,0.0169512871652841,0.0165350344032049
1769250311933,-0.08245849609375,-0.0738677978515625,-0.99432373046875,0.0022956449538469,0.0140116894617676,0.0105794072151184
1769250311943,-0.0793914794921875,-0.0684051513671875,-0.98712158203125,0.005061337724328,0.0111405355855822,0.0093897730112075
1769250311953,-0.07989501953125,-0.0790557861328125,-0.99151611328125,0.0044171190820634,0.004742557182908,0.0141842626035213
1769250311963,-0.07757568359375,-0.081695556640625,-0.9970550537109376,0.0026359967887401,-0.0049582733772695,0.0207857061177492
1769250311973,-0.0797882080078125,-0.083709716796875,-0.9929351806640624,-0.0058435080572962,-0.0092238588258624,0.0193398762494325
1769250311983,-0.0807037353515625,-0.080291748046875,-0.9816131591796876,-0.0166671276092529,-0.0073196981102228,0.0257125534117221
1769250311993,-0.0811004638671875,-0.0787506103515625,-0.9831085205078124,-0.0209321789443492,-0.0133197996765375,0.0261724814772605
1769250312004,-0.0841827392578125,-0.080841064453125,-0.9876556396484376,-0.0189867410808801,-0.0297174155712127,0.023640614002943
1769250312014,-0.0876312255859375,-0.079620361328125,-0.9837799072265624,-0.0221463143825531,-0.0315147824585437,0.0196083225309848
1769250312024,-0.0883941650390625,-0.0777740478515625,-0.98260498046875,-0.0324902981519699,-0.0180732756853103,0.0188671648502349
1769250312034,-0.0825042724609375,-0.074127197265625,-0.982757568359375,-0.0486407727003097,0.0150569798424839,0.0199737083166837
1769250312044,-0.0802764892578125,-0.0762939453125,-0.9839324951171876,-0.0564129427075386,0.0137541620060801,0.0206850375980138
1769250312054,-0.0815887451171875,-0.0745086669921875,-0.9847259521484376,-0.0594316348433494,0.0076467343606054,0.0197332240641117
1769250312064,-0.085601806640625,-0.0764007568359375,-0.9889984130859376,-0.0584819503128528,-0.0001454086013836,0.0211114101111888
1769250312074,-0.0866241455078125,-0.073699951171875,-0.9946746826171876,-0.0546853505074977,-0.0120500046759843,0.0246214568614959
1769250312084,-0.0875396728515625,-0.076904296875,-0.9927215576171876,-0.0549229048192501,-0.0152247594669461,0.0216411128640174
1769250312094,-0.089202880859375,-0.077972412109375,-0.9886932373046876,-0.0530086234211921,-0.0039635826833546,0.0214485675096511
1769250312108,-0.0884857177734375,-0.074920654296875,-0.9965972900390624,-0.0541010536253452,-0.0029539782553911,0.02280118688941
1769250312114,-0.092529296875,-0.0750274658203125,-0.99658203125,-0.047989897429943,-0.0082826968282461,0.0183561034500598
1769250312124,-0.0946197509765625,-0.0738372802734375,-0.99493408203125,-0.0428574532270431,-0.0077050575055181,0.0186522472649812
1769250312134,-0.09637451171875,-0.0684051513671875,-0.9987030029296876,-0.0405887067317962,0.0057742656208574,0.019196331501007
1769250312144,-0.0986785888671875,-0.0890960693359375,-1.001068115234375,-0.0413034968078136,0.0045848982408642,0.0273738335818052
1769250312154,-0.0895233154296875,-0.079803466796875,-1.0013275146484375,-0.0282923579216003,0.0198799651116132,0.0093895066529512
1769250312164,-0.0955963134765625,-0.0343780517578125,-1.0039825439453125,0.0002085255109705,0.0236768331378698,-0.0253684725612401
1769250312174,-0.115509033203125,-0.033233642578125,-1.0062255859375,0.0425218939781188,-0.0152111770585179,-0.0410965718328952
1769250312184,-0.1190948486328125,-0.0639801025390625,-1.010223388671875,0.0469691082835197,-0.0297720097005367,-0.0219479091465473
1769250312194,-0.0904083251953125,-0.11688232421875,-1.0115509033203125,0.0303994510322809,-0.0039521311409771,-0.0028165590483695
1769250312204,-0.061309814453125,-0.0952301025390625,-0.99188232421875,0.022512499243021,0.0150314141064882,-0.0247740559279918
1769250312215,-0.070037841796875,-0.069671630859375,-0.975677490234375,0.0157390162348747,0.042479284107685,-0.048389371484518
1769250312225,-0.085296630859375,-0.05267333984375,-0.9838714599609376,0.0266204252839088,0.0446755923330783,-0.0637265145778656
1769250312235,-0.1049957275390625,-0.05181884765625,-0.99615478515625,0.0503510534763336,-0.0131179327145218,-0.0603432357311248
1769250312245,-0.1044921875,-0.0700836181640625,-0.9986724853515624,0.0624926723539829,-0.0564635433256626,-0.0482194609940052
1769250312255,-0.093353271484375,-0.0863800048828125,-0.9924468994140624,0.0537135601043701,-0.0490719377994537,-0.038715437054634
1769250312265,-0.084136962890625,-0.0894012451171875,-0.977935791015625,0.0288020875304937,-0.021811556071043,-0.0289879757910966
1769250312275,-0.072967529296875,-0.0814056396484375,-0.97265625,0.0042144525796175,0.0024554345291107,-0.0204070042818784
1769250312285,-0.0686492919921875,-0.0764617919921875,-0.978851318359375,-0.0081300977617502,0.0142641570419073,-0.0136660113930702
1769250312295,-0.072479248046875,-0.0788726806640625,-0.9900970458984376,-0.0076035913079977,0.003990214318037,-0.0041135186329483
1769250312305,-0.076934814453125,-0.069549560546875,-0.9950714111328124,-0.008084824308753,0.0125109981745481,-0.0001315601548412
1769250312315,-0.0822296142578125,-0.0677337646484375,-0.996185302734375,-0.0086022764444351,0.0195667762309312,0.0033060482237488
1769250312325,-0.082611083984375,-0.07061767578125,-0.9896392822265624,-0.0018255969043821,0.0215521641075611,0.0025105618406087
1769250312335,-0.084503173828125,-0.0720977783203125,-0.989410400390625,0.0057961037382483,0.0223798733204603,-0.0006332996999844
1769250312345,-0.086456298828125,-0.0691070556640625,-0.99481201171875,0.0179092250764369,0.0282793082296848,-0.0021358551457524
1769250312355,-0.0893096923828125,-0.072265625,-1.003509521484375,0.0341768786311149,0.012182630598545,0.0008684568456374
1769250312365,-0.09033203125,-0.0731658935546875,-1.002838134765625,0.04496880620718,0.0019800602458417,0.0024322650860995
1769250312375,-0.091064453125,-0.077545166015625,-0.9982147216796876,0.0526059530675411,-0.0003608583356253,0.0008828379213809
1769250312385,-0.0858306884765625,-0.0720367431640625,-0.9962310791015624,0.0607637465000152,-0.0089809782803058,-0.0019113506423309
1769250312395,-0.086334228515625,-0.0654449462890625,-0.9862823486328124,0.0551063939929008,-0.0078459391370415,-0.0019225359428673
1769250312405,-0.084686279296875,-0.0784759521484375,-0.9826507568359376,0.0432753004133701,-0.0078760329633951,0.0050059440545737
1769250312415,-0.077423095703125,-0.085235595703125,-0.9842529296875,0.032037828117609,-0.0159163828939199,0.0199265703558921
1769250312425,-0.0734710693359375,-0.0837554931640625,-0.9803619384765624,0.0099847232922911,0.0049164616502821,0.0298902541399002
1769250312436,-0.0768890380859375,-0.0845489501953125,-0.9751739501953124,-0.0188586432486772,0.0307022519409656,0.0345848761498928
1769250312446,-0.0812225341796875,-0.084564208984375,-0.9705657958984376,-0.0361976847052574,0.0233860164880752,0.0399846993386745
1769250312456,-0.084625244140625,-0.0783538818359375,-0.9733428955078124,-0.04667429625988,0.0126673253253102,0.0423216223716735
1769250312466,-0.084503173828125,-0.0772857666015625,-0.976593017578125,-0.0544232949614524,0.0138412471860647,0.048201885074377
1769250312476,-0.0847930908203125,-0.07757568359375,-0.9790496826171876,-0.059057991951704,0.013163206167519,0.032609075307846
1769250312486,-0.095672607421875,-0.0822601318359375,-0.977294921875,-0.0608465708792209,0.0022218753583729,0.0279951486736536
1769250312496,-0.0938262939453125,-0.0740509033203125,-0.9790496826171876,-0.0560323745012283,0.0062448466196656,0.0278196465224027
1769250312507,-0.08782958984375,-0.072540283203125,-0.99462890625,-0.0443072766065597,0.005887450184673,0.0273919440805912
1769250312516,-0.0884857177734375,-0.0760345458984375,-0.9974517822265624,-0.0334144160151481,0.0153456665575504,0.020986508578062
1769250312526,-0.0951385498046875,-0.08056640625,-1.00103759765625,-0.0182386580854654,0.0047159255482256,0.0089085400104522
1769250312536,-0.1011199951171875,-0.0788421630859375,-0.9988555908203124,-0.0089985551312565,0.0030674289446324,-0.0008498146780766
1769250312546,-0.1008453369140625,-0.0773468017578125,-0.9977264404296876,0.0017012272728607,0.0023624901659786,-0.0061063622124493
1769250312556,-0.094482421875,-0.0751190185546875,-1.001556396484375,0.0135152759030461,-0.0088499505072832,-0.0066589680500328
1769250312566,-0.0882415771484375,-0.0775604248046875,-1.0002899169921875,0.0177614204585552,-0.017354754731059,-0.0030897995457053
1769250312576,-0.0858917236328125,-0.0723419189453125,-0.9935150146484376,0.0179521031677722,-0.0102028362452983,-0.0063644223846495
1769250312587,-0.0914154052734375,-0.0766143798828125,-0.990386962890625,0.0154644437134265,-0.0106574380770325,-0.0064349961467087
1769250312596,-0.0880889892578125,-0.089324951171875,-0.9893798828125,0.0098726041615009,-0.0088230529800057,0.0103389238938689
1769250312606,-0.0783538818359375,-0.09051513671875,-0.995361328125,0.0099535640329122,0.0145365986973047,-0.0024335966445505
1769250312616,-0.0850067138671875,-0.054931640625,-0.9951629638671876,0.0262212175875902,0.0076166405342519,-0.0335675477981567
1769250312627,-0.106658935546875,-0.045013427734375,-0.9870758056640624,0.0474428832530975,-0.0241836328059434,-0.056167397648096
1769250312637,-0.1208038330078125,-0.065093994140625,-0.9831695556640624,0.0289219301193952,-0.0411133468151092,-0.0269991271197795
1769250312647,-0.091094970703125,-0.1240234375,-0.9899139404296876,0.0014873754698783,-0.0134737305343151,0.0001376854343106
1769250312657,-0.061065673828125,-0.0998992919921875,-0.9830322265625,-0.0244062729179859,0.0176913794130086,-0.0056352489627897
1769250312667,-0.064178466796875,-0.0744171142578125,-0.9712371826171876,-0.0317070633172988,0.035838957875967,-0.0277405511587858
1769250312677,-0.08123779296875,-0.0659332275390625,-0.97930908203125,-0.0183795392513275,0.0353406816720962,-0.0324807129800319
1769250312687,-0.0939178466796875,-0.055999755859375,-0.9987945556640624,0.0034732946660369,-0.0086534088477492,-0.0279541369527578
1769250312697,-0.0979156494140625,-0.0756988525390625,-1.002960205078125,0.0132702654227614,-0.0477139912545681,-0.0140590937808156
1769250312707,-0.0908203125,-0.091217041015625,-0.9884033203125,0.0026274747215211,-0.0494746081531047,0.0003526025393512
1769250312717,-0.080352783203125,-0.09698486328125,-0.9757080078125,-0.0244225189089775,-0.0267256200313568,0.0165092013776302
1769250312727,-0.0690460205078125,-0.09661865234375,-0.97442626953125,-0.0465054512023925,-0.0056403088383376,0.0249674022197723
1769250312737,-0.071746826171875,-0.092315673828125,-0.986663818359375,-0.0582087114453315,-0.0016567525453865,0.0329662039875984
1769250312747,-0.07281494140625,-0.0834503173828125,-0.99908447265625,-0.0626559257507324,-0.0020932445768266,0.0440361686050891
1769250312757,-0.075775146484375,-0.0772705078125,-1.0034637451171875,-0.0649233385920524,0.0007869640830904,0.0444572120904922
1769250312767,-0.081634521484375,-0.078521728515625,-0.9975433349609376,-0.0643313154578208,0.0121677163988351,0.04106967151165
1769250312778,-0.084442138671875,-0.0776824951171875,-0.9937591552734376,-0.0569325238466262,0.0240336973220109,0.0329781882464885
1769250312787,-0.086212158203125,-0.0701751708984375,-0.999114990234375,-0.0445549525320529,0.0478226505219936,0.0283847693353891
1769250312797,-0.0871124267578125,-0.067108154296875,-1.012237548828125,-0.0223636291921138,0.0569516979157924,0.020289558917284
1769250312807,-0.0920867919921875,-0.0693359375,-1.015289306640625,0.0118963401764631,0.0363249853253364,0.0173395760357379
1769250312817,-0.0947418212890625,-0.0733642578125,-1.01171875,0.0386304818093776,0.0140748061239719,0.0083767063915729
1769250312827,-0.0950164794921875,-0.0831756591796875,-1.0045318603515625,0.0590896867215633,0.0021395836956799,0.0019598202779889
1769250312838,-0.0933990478515625,-0.080047607421875,-1.0014495849609375,0.0771475136280059,-0.0114318849518895,-0.0040416130796074
1769250312848,-0.0893096923828125,-0.0692138671875,-1.000579833984375,0.0762803927063942,0.0005110605852678,-0.0041164481081068
1769250312858,-0.08544921875,-0.0711517333984375,-0.9998321533203124,0.0603256598114967,0.017747838050127,-0.0069295451976358
1769250312868,-0.0833282470703125,-0.08319091796875,-0.9900665283203124,0.0442974232137203,0.0139504363760352,0.003189668059349
1769250312878,-0.07568359375,-0.0851287841796875,-0.9854583740234376,0.0331981666386127,0.0047875647433102,0.0115703698247671
1769250312888,-0.0783233642578125,-0.079071044921875,-0.9816436767578124,0.0201894249767065,0.004186222795397,0.0148551128804683
1769250312898,-0.084808349609375,-0.08245849609375,-0.9761505126953124,0.0045476136729121,-0.0005083974683657,0.0164005439728498
1769250312908,-0.0863037109375,-0.082122802734375,-0.9736785888671876,-0.0111642377451062,0.0132638737559318,0.0232363473623991
1769250312918,-0.082763671875,-0.0760345458984375,-0.9763946533203124,-0.0289304517209529,0.0338240079581737,0.0249674022197723
1769250312928,-0.0832977294921875,-0.078948974609375,-0.9759674072265624,-0.040204145014286,0.0377433821558952,0.0227476563304662
1769250312938,-0.0848541259765625,-0.0791473388671875,-0.975006103515625,-0.0485520884394645,0.0278236418962478,0.0158455427736043
1769250312948,-0.0888824462890625,-0.0817718505859375,-0.9747161865234376,-0.0518669262528419,0.0125128626823425,0.0169371720403432
1769250312958,-0.083831787109375,-0.076934814453125,-0.97589111328125,-0.0543218292295932,0.002166481455788,0.0160668510943651
1769250312968,-0.083465576171875,-0.0777740478515625,-0.9833831787109376,-0.0574941858649253,-0.0021907163318246,0.0131845111027359
1769250312978,-0.0841522216796875,-0.073211669921875,-0.987274169921875,-0.0596252456307411,-0.0004772384709212,0.0077119818888604
1769250312988,-0.09051513671875,-0.0693817138671875,-0.9921112060546876,-0.0565796568989753,0.0047047403641045,0.0001704423048067
1769250312998,-0.093109130859375,-0.070037841796875,-0.9963836669921876,-0.0490429103374481,0.0085870968177914,-0.0026650251820683
1769250313009,-0.089813232421875,-0.0698394775390625,-1.0037078857421875,-0.0397684499621391,0.0176556929945945,-0.0086752474308013
1769250313018,-0.0897064208984375,-0.0789031982421875,-1.00445556640625,-0.0281237792223691,0.0060629523359239,-0.0120404176414012
1769250313028,-0.090301513671875,-0.0743255615234375,-1.0009307861328125,-0.020765732973814,-0.0112995263189077,-0.0169432964175939
1769250313038,-0.087799072265625,-0.0752410888671875,-0.9977264404296876,-0.0253375805914402,-0.0131192645058035,-0.0047817057929933
1769250313049,-0.0761566162109375,-0.084808349609375,-0.9923553466796876,-0.0407450310885906,-0.0035260252188891,0.008886968716979
1769250313059,-0.0698699951171875,-0.1047821044921875,-0.9996490478515624,-0.0482775159180164,0.0109911318868398,0.0165606010705232
1769250313069,-0.064605712890625,-0.060516357421875,-0.9969635009765624,-0.0426566489040851,0.0240161195397377,-0.0016703346045687
1769250313079,-0.0806732177734375,-0.0329437255859375,-0.9971160888671876,-0.0160988084971904,0.0268840789794921,-0.0230398047715425
1769250313089,-0.0991973876953125,-0.0398406982421875,-1.00225830078125,-0.0100939134135842,-0.0054405718110501,-0.0108758173882961
1769250313099,-0.0924224853515625,-0.1037445068359375,-1.006744384765625,-0.0003049319493584,-0.0015611450653523,0.0116923423483967
1769250313109,-0.0681610107421875,-0.090484619140625,-1.0077362060546875,0.0057505639269948,0.0140084931626915,0.0125054055824875
1769250313119,-0.060546875,-0.0710906982421875,-0.991424560546875,0.0105053717270493,0.0441277809441089,-0.0082379560917615
1769250313129,-0.07440185546875,-0.0511322021484375,-0.9857940673828124,0.0302481837570667,0.0443850420415401,-0.0127624003216624
1769250313139,-0.0856170654296875,-0.0374755859375,-0.9921417236328124,0.055384162813425,0.0108217550441622,-0.0083974795415997
1769250313149,-0.09271240234375,-0.061248779296875,-1.000213623046875,0.0717897713184356,-0.0143355298787355,0.0097799263894557
1769250313159,-0.08349609375,-0.0849151611328125,-1.002166748046875,0.0621712282299995,-0.0079178437590599,0.0276468079537153
1769250313169,-0.0733642578125,-0.098388671875,-0.9895477294921876,0.0379873290657997,0.0058954395353794,0.0417064353823661
1769250313179,-0.0646820068359375,-0.0970001220703125,-0.97418212890625,0.0124521423131227,0.0097897797822952,0.0463672317564487
1769250313189,-0.0659332275390625,-0.0872802734375,-0.973297119140625,-0.0099407816305756,0.0130572123453021,0.0530014336109161
1769250313199,-0.069976806640625,-0.0796661376953125,-0.980133056640625,-0.0230443328619003,0.0192410722374916,0.0613475143909454
1769250313209,-0.0770111083984375,-0.0735931396484375,-0.98870849609375,-0.0302175562828779,0.0169558133929967,0.0692933201789856
1769250313219,-0.0819549560546875,-0.0657806396484375,-0.9852752685546876,-0.0334684774279594,0.018949456512928,0.0679974257946014
1769250313229,-0.090911865234375,-0.0646209716796875,-0.9797210693359376,-0.040372721850872,0.0332216024398803,0.0581027194857597
1769250313240,-0.0966644287109375,-0.0675506591796875,-0.981719970703125,-0.0371921099722385,0.0431445427238941,0.0441080741584301
